ExperimentName	Subject	Session	Clock.Information	DataFile.Basename	Display.RefreshRate	Eindtotaal[Session]	ExperimentVersion	Group	RandomSeed	RuntimeCapabilities	RuntimeVersion	RuntimeVersionExpected	SessionDate	SessionStartDateTimeUtc	SessionTime	StudioVersion	Block	BarImage	BarTotalWinst	DoorChoice	Eindtotaal[Block]	FBDoor1	FBDoor2	FBDoor3	FBDoor4	Image1	Image2	Image3	Image4	Procedure	Running	spel.ACC	spel.CRESP	spel.DurationError	spel.OnsetDelay	spel.OnsetTime	spel.OnsetToOnsetTime	spel.RESP	spel.RT	spel.RTTime	TotalGain	TotalLose	Totalsum	TotalsumD1	TotalsumD2	TotalsumD3	TotalsumD4	TrialList	TrialList.Cycle	TrialList.Sample	varV1	varV2	varV3	varV4	varW1	varW2	varW3	varW4	Verliesbedrag	Winstbedrag
Hungry_Donkey_bar_English_2	116	2	<?xml version="1.0"?>\n<Clock xmlns:dt="urn:schemas-microsoft-com:datatypes"><Description dt:dt="string">E-Prime Primary Realtime Clock</Description><StartTime><Timestamp dt:dt="int">0</Timestamp><DateUtc dt:dt="string">2015-06-25T21:33:09Z</DateUtc></StartTime><FrequencyChanges><FrequencyChange><Frequency dt:dt="r8">3507695</Frequency><Timestamp dt:dt="r8">561897701778</Timestamp><Current dt:dt="r8">0</Current><DateUtc dt:dt="string">2015-06-25T21:33:09Z</DateUtc></FrequencyChange></FrequencyChanges></Clock>\n	Hungry_Donkey_bar_English_2-116-2	60.018	-154	1.0.0.18	1	-742343701	Standard	2.0.10.353	2.0.10.353	06-25-2015	6/25/2015 9:33:09 PM	17:33:09	2.0.10.248	1	Bar100-0.bmp	100	2	?	0r_4g.bmp	0r_4g.bmp	0r_2g.bmp	0r_2g.bmp		0r_4g.bmp			TrialProc	TrialList	0	cvbn	-999999	24	49974	0	v	3351	53325	4	0	4	0	4	0	0	10	1	1	0	0	0	0	4	4	2	2	0	4
Hungry_Donkey_bar_English_2	116	2	<?xml version="1.0"?>\n<Clock xmlns:dt="urn:schemas-microsoft-com:datatypes"><Description dt:dt="string">E-Prime Primary Realtime Clock</Description><StartTime><Timestamp dt:dt="int">0</Timestamp><DateUtc dt:dt="string">2015-06-25T21:33:09Z</DateUtc></StartTime><FrequencyChanges><FrequencyChange><Frequency dt:dt="r8">3507695</Frequency><Timestamp dt:dt="r8">561897701778</Timestamp><Current dt:dt="r8">0</Current><DateUtc dt:dt="string">2015-06-25T21:33:09Z</DateUtc></FrequencyChange></FrequencyChanges></Clock>\n	Hungry_Donkey_bar_English_2-116-2	60.018	-154	1.0.0.18	1	-742343701	Standard	2.0.10.353	2.0.10.353	06-25-2015	6/25/2015 9:33:09 PM	17:33:09	2.0.10.248	2	Bar100-0.bmp	100	2	?	10r_4g.bmp	0r_4g.bmp	2r_2g.bmp	0r_2g.bmp		0r_4g.bmp			TrialProc	TrialList	0	cvbn	-999999	16	55372	0	v	3329	58701	8	0	8	0	8	0	0	2	1	2	-10	0	-2	0	4	4	2	2	0	4
Hungry_Donkey_bar_English_2	116	2	<?xml version="1.0"?>\n<Clock xmlns:dt="urn:schemas-microsoft-com:datatypes"><Description dt:dt="string">E-Prime Primary Realtime Clock</Description><StartTime><Timestamp dt:dt="int">0</Timestamp><DateUtc dt:dt="string">2015-06-25T21:33:09Z</DateUtc></StartTime><FrequencyChanges><FrequencyChange><Frequency dt:dt="r8">3507695</Frequency><Timestamp dt:dt="r8">561897701778</Timestamp><Current dt:dt="r8">0</Current><DateUtc dt:dt="string">2015-06-25T21:33:09Z</DateUtc></FrequencyChange></FrequencyChanges></Clock>\n	Hungry_Donkey_bar_English_2-116-2	60.018	-154	1.0.0.18	1	-742343701	Standard	2.0.10.353	2.0.10.353	06-25-2015	6/25/2015 9:33:09 PM	17:33:09	2.0.10.248	3	Bar50-50.bmp	55	1	?	10r_4g.bmp	0r_4g.bmp	2r_2g.bmp	0r_2g.bmp	10r_4g.bmp				TrialProc	TrialList	0	cvbn	-999999	16	60737	0	c	860	61597	12	-10	2	-6	8	0	0	4	1	3	-10	0	-2	0	4	4	2	2	-10	4
Hungry_Donkey_bar_English_2	116	2	<?xml version="1.0"?>\n<Clock xmlns:dt="urn:schemas-microsoft-com:datatypes"><Description dt:dt="string">E-Prime Primary Realtime Clock</Description><StartTime><Timestamp dt:dt="int">0</Timestamp><DateUtc dt:dt="string">2015-06-25T21:33:09Z</DateUtc></StartTime><FrequencyChanges><FrequencyChange><Frequency dt:dt="r8">3507695</Frequency><Timestamp dt:dt="r8">561897701778</Timestamp><Current dt:dt="r8">0</Current><DateUtc dt:dt="string">2015-06-25T21:33:09Z</DateUtc></FrequencyChange></FrequencyChanges></Clock>\n	Hungry_Donkey_bar_English_2-116-2	60.018	-154	1.0.0.18	1	-742343701	Standard	2.0.10.353	2.0.10.353	06-25-2015	6/25/2015 9:33:09 PM	17:33:09	2.0.10.248	4	Bar63-37.bmp	62	2	?	0r_4g.bmp	0r_4g.bmp	0r_2g.bmp	0r_2g.bmp		0r_4g.bmp			TrialProc	TrialList	0	cvbn	-999999	16	63637	0	v	1144	64781	16	-10	6	-6	12	0	0	8	1	4	0	0	0	0	4	4	2	2	0	4
Hungry_Donkey_bar_English_2	116	2	<?xml version="1.0"?>\n<Clock xmlns:dt="urn:schemas-microsoft-com:datatypes"><Description dt:dt="string">E-Prime Primary Realtime Clock</Description><StartTime><Timestamp dt:dt="int">0</Timestamp><DateUtc dt:dt="string">2015-06-25T21:33:09Z</DateUtc></StartTime><FrequencyChanges><FrequencyChange><Frequency dt:dt="r8">3507695</Frequency><Timestamp dt:dt="r8">561897701778</Timestamp><Current dt:dt="r8">0</Current><DateUtc dt:dt="string">2015-06-25T21:33:09Z</DateUtc></FrequencyChange></FrequencyChanges></Clock>\n	Hungry_Donkey_bar_English_2-116-2	60.018	-154	1.0.0.18	1	-742343701	Standard	2.0.10.353	2.0.10.353	06-25-2015	6/25/2015 9:33:09 PM	17:33:09	2.0.10.248	5	Bar63-37.bmp	67	2	?	0r_4g.bmp	0r_4g.bmp	0r_2g.bmp	0r_2g.bmp		0r_4g.bmp			TrialProc	TrialList	0	cvbn	-999999	16	66819	0	v	330	67149	20	-10	10	-6	16	0	0	9	1	5	0	0	0	0	4	4	2	2	0	4
Hungry_Donkey_bar_English_2	116	2	<?xml version="1.0"?>\n<Clock xmlns:dt="urn:schemas-microsoft-com:datatypes"><Description dt:dt="string">E-Prime Primary Realtime Clock</Description><StartTime><Timestamp dt:dt="int">0</Timestamp><DateUtc dt:dt="string">2015-06-25T21:33:09Z</DateUtc></StartTime><FrequencyChanges><FrequencyChange><Frequency dt:dt="r8">3507695</Frequency><Timestamp dt:dt="r8">561897701778</Timestamp><Current dt:dt="r8">0</Current><DateUtc dt:dt="string">2015-06-25T21:33:09Z</DateUtc></FrequencyChange></FrequencyChanges></Clock>\n	Hungry_Donkey_bar_English_2-116-2	60.018	-154	1.0.0.18	1	-742343701	Standard	2.0.10.353	2.0.10.353	06-25-2015	6/25/2015 9:33:09 PM	17:33:09	2.0.10.248	6	Bar75-25.bmp	71	2	?	0r_4g.bmp	0r_4g.bmp	0r_2g.bmp	0r_2g.bmp		0r_4g.bmp			TrialProc	TrialList	0	cvbn	-999999	16	69185	0	v	508	69693	24	-10	14	-6	20	0	0	7	1	6	0	0	0	0	4	4	2	2	0	4
Hungry_Donkey_bar_English_2	116	2	<?xml version="1.0"?>\n<Clock xmlns:dt="urn:schemas-microsoft-com:datatypes"><Description dt:dt="string">E-Prime Primary Realtime Clock</Description><StartTime><Timestamp dt:dt="int">0</Timestamp><DateUtc dt:dt="string">2015-06-25T21:33:09Z</DateUtc></StartTime><FrequencyChanges><FrequencyChange><Frequency dt:dt="r8">3507695</Frequency><Timestamp dt:dt="r8">561897701778</Timestamp><Current dt:dt="r8">0</Current><DateUtc dt:dt="string">2015-06-25T21:33:09Z</DateUtc></FrequencyChange></FrequencyChanges></Clock>\n	Hungry_Donkey_bar_English_2-116-2	60.018	-154	1.0.0.18	1	-742343701	Standard	2.0.10.353	2.0.10.353	06-25-2015	6/25/2015 9:33:09 PM	17:33:09	2.0.10.248	7	Bar63-37.bmp	57	4	?	8r_4g.bmp	50r_4g.bmp	1r_2g.bmp	10r_2g.bmp				10r_2g.bmp	TrialProc	TrialList	0	cvbn	-999999	16	71734	0	n	470	72204	26	-20	6	-6	20	0	-8	1	1	7	-8	-50	-1	-10	4	4	2	2	-10	2
Hungry_Donkey_bar_English_2	116	2	<?xml version="1.0"?>\n<Clock xmlns:dt="urn:schemas-microsoft-com:datatypes"><Description dt:dt="string">E-Prime Primary Realtime Clock</Description><StartTime><Timestamp dt:dt="int">0</Timestamp><DateUtc dt:dt="string">2015-06-25T21:33:09Z</DateUtc></StartTime><FrequencyChanges><FrequencyChange><Frequency dt:dt="r8">3507695</Frequency><Timestamp dt:dt="r8">561897701778</Timestamp><Current dt:dt="r8">0</Current><DateUtc dt:dt="string">2015-06-25T21:33:09Z</DateUtc></FrequencyChange></FrequencyChanges></Clock>\n	Hungry_Donkey_bar_English_2-116-2	60.018	-154	1.0.0.18	1	-742343701	Standard	2.0.10.353	2.0.10.353	06-25-2015	6/25/2015 9:33:09 PM	17:33:09	2.0.10.248	8	Bar63-37.bmp	58	3	?	0r_4g.bmp	0r_4g.bmp	0r_2g.bmp	0r_2g.bmp			0r_2g.bmp		TrialProc	TrialList	0	cvbn	-999999	16	74234	0	b	2258	76492	28	-20	8	-6	20	2	-8	6	1	8	0	0	0	0	4	4	2	2	0	2
Hungry_Donkey_bar_English_2	116	2	<?xml version="1.0"?>\n<Clock xmlns:dt="urn:schemas-microsoft-com:datatypes"><Description dt:dt="string">E-Prime Primary Realtime Clock</Description><StartTime><Timestamp dt:dt="int">0</Timestamp><DateUtc dt:dt="string">2015-06-25T21:33:09Z</DateUtc></StartTime><FrequencyChanges><FrequencyChange><Frequency dt:dt="r8">3507695</Frequency><Timestamp dt:dt="r8">561897701778</Timestamp><Current dt:dt="r8">0</Current><DateUtc dt:dt="string">2015-06-25T21:33:09Z</DateUtc></FrequencyChange></FrequencyChanges></Clock>\n	Hungry_Donkey_bar_English_2-116-2	60.018	-154	1.0.0.18	1	-742343701	Standard	2.0.10.353	2.0.10.353	06-25-2015	6/25/2015 9:33:09 PM	17:33:09	2.0.10.248	9	Bar63-37.bmp	57	3	?	12r_4g.bmp	0r_4g.bmp	3r_2g.bmp	0r_2g.bmp			3r_2g.bmp		TrialProc	TrialList	0	cvbn	-999999	16	78532	0	b	328	78860	30	-23	7	-6	20	1	-8	5	1	9	-12	0	-3	0	4	4	2	2	-3	2
Hungry_Donkey_bar_English_2	116	2	<?xml version="1.0"?>\n<Clock xmlns:dt="urn:schemas-microsoft-com:datatypes"><Description dt:dt="string">E-Prime Primary Realtime Clock</Description><StartTime><Timestamp dt:dt="int">0</Timestamp><DateUtc dt:dt="string">2015-06-25T21:33:09Z</DateUtc></StartTime><FrequencyChanges><FrequencyChange><Frequency dt:dt="r8">3507695</Frequency><Timestamp dt:dt="r8">561897701778</Timestamp><Current dt:dt="r8">0</Current><DateUtc dt:dt="string">2015-06-25T21:33:09Z</DateUtc></FrequencyChange></FrequencyChanges></Clock>\n	Hungry_Donkey_bar_English_2-116-2	60.018	-154	1.0.0.18	1	-742343701	Standard	2.0.10.353	2.0.10.353	06-25-2015	6/25/2015 9:33:09 PM	17:33:09	2.0.10.248	10	Bar63-37.bmp	60	2	?	10r_4g.bmp	0r_4g.bmp	2r_2g.bmp	0r_2g.bmp		0r_4g.bmp			TrialProc	TrialList	0	cvbn	-999999	16	80898	0	v	346	81244	34	-23	11	-6	24	1	-8	3	1	10	-10	0	-2	0	4	4	2	2	0	4
Hungry_Donkey_bar_English_2	116	2	<?xml version="1.0"?>\n<Clock xmlns:dt="urn:schemas-microsoft-com:datatypes"><Description dt:dt="string">E-Prime Primary Realtime Clock</Description><StartTime><Timestamp dt:dt="int">0</Timestamp><DateUtc dt:dt="string">2015-06-25T21:33:09Z</DateUtc></StartTime><FrequencyChanges><FrequencyChange><Frequency dt:dt="r8">3507695</Frequency><Timestamp dt:dt="r8">561897701778</Timestamp><Current dt:dt="r8">0</Current><DateUtc dt:dt="string">2015-06-25T21:33:09Z</DateUtc></FrequencyChange></FrequencyChanges></Clock>\n	Hungry_Donkey_bar_English_2-116-2	60.018	-154	1.0.0.18	1	-742343701	Standard	2.0.10.353	2.0.10.353	06-25-2015	6/25/2015 9:33:09 PM	17:33:09	2.0.10.248	11	Bar63-37.bmp	62	2	?	0r_4g.bmp	0r_4g.bmp	0r_2g.bmp	0r_2g.bmp		0r_4g.bmp			TrialProc	TrialList	0	cvbn	-999999	16	83281	0	v	219	83500	38	-23	15	-6	28	1	-8	6	2	11	0	0	0	0	4	4	2	2	0	4
Hungry_Donkey_bar_English_2	116	2	<?xml version="1.0"?>\n<Clock xmlns:dt="urn:schemas-microsoft-com:datatypes"><Description dt:dt="string">E-Prime Primary Realtime Clock</Description><StartTime><Timestamp dt:dt="int">0</Timestamp><DateUtc dt:dt="string">2015-06-25T21:33:09Z</DateUtc></StartTime><FrequencyChanges><FrequencyChange><Frequency dt:dt="r8">3507695</Frequency><Timestamp dt:dt="r8">561897701778</Timestamp><Current dt:dt="r8">0</Current><DateUtc dt:dt="string">2015-06-25T21:33:09Z</DateUtc></FrequencyChange></FrequencyChanges></Clock>\n	Hungry_Donkey_bar_English_2-116-2	60.018	-154	1.0.0.18	1	-742343701	Standard	2.0.10.353	2.0.10.353	06-25-2015	6/25/2015 9:33:09 PM	17:33:09	2.0.10.248	12	Bar63-37.bmp	65	2	?	10r_4g.bmp	0r_4g.bmp	2r_2g.bmp	0r_2g.bmp		0r_4g.bmp			TrialProc	TrialList	0	cvbn	-999999	16	85530	0	v	546	86076	42	-23	19	-6	32	1	-8	3	2	12	-10	0	-2	0	4	4	2	2	0	4
Hungry_Donkey_bar_English_2	116	2	<?xml version="1.0"?>\n<Clock xmlns:dt="urn:schemas-microsoft-com:datatypes"><Description dt:dt="string">E-Prime Primary Realtime Clock</Description><StartTime><Timestamp dt:dt="int">0</Timestamp><DateUtc dt:dt="string">2015-06-25T21:33:09Z</DateUtc></StartTime><FrequencyChanges><FrequencyChange><Frequency dt:dt="r8">3507695</Frequency><Timestamp dt:dt="r8">561897701778</Timestamp><Current dt:dt="r8">0</Current><DateUtc dt:dt="string">2015-06-25T21:33:09Z</DateUtc></FrequencyChange></FrequencyChanges></Clock>\n	Hungry_Donkey_bar_English_2-116-2	60.018	-154	1.0.0.18	1	-742343701	Standard	2.0.10.353	2.0.10.353	06-25-2015	6/25/2015 9:33:09 PM	17:33:09	2.0.10.248	13	Bar63-37.bmp	67	2	?	0r_4g.bmp	0r_4g.bmp	0r_2g.bmp	0r_2g.bmp		0r_4g.bmp			TrialProc	TrialList	0	cvbn	-999999	16	88113	0	v	475	88588	46	-23	23	-6	36	1	-8	9	2	13	0	0	0	0	4	4	2	2	0	4
Hungry_Donkey_bar_English_2	116	2	<?xml version="1.0"?>\n<Clock xmlns:dt="urn:schemas-microsoft-com:datatypes"><Description dt:dt="string">E-Prime Primary Realtime Clock</Description><StartTime><Timestamp dt:dt="int">0</Timestamp><DateUtc dt:dt="string">2015-06-25T21:33:09Z</DateUtc></StartTime><FrequencyChanges><FrequencyChange><Frequency dt:dt="r8">3507695</Frequency><Timestamp dt:dt="r8">561897701778</Timestamp><Current dt:dt="r8">0</Current><DateUtc dt:dt="string">2015-06-25T21:33:09Z</DateUtc></FrequencyChange></FrequencyChanges></Clock>\n	Hungry_Donkey_bar_English_2-116-2	60.018	-154	1.0.0.18	1	-742343701	Standard	2.0.10.353	2.0.10.353	06-25-2015	6/25/2015 9:33:09 PM	17:33:09	2.0.10.248	14	Bar63-37.bmp	68	2	?	12r_4g.bmp	0r_4g.bmp	3r_2g.bmp	0r_2g.bmp		0r_4g.bmp			TrialProc	TrialList	0	cvbn	-999999	16	90612	0	v	743	91355	50	-23	27	-6	40	1	-8	5	2	14	-12	0	-3	0	4	4	2	2	0	4
Hungry_Donkey_bar_English_2	116	2	<?xml version="1.0"?>\n<Clock xmlns:dt="urn:schemas-microsoft-com:datatypes"><Description dt:dt="string">E-Prime Primary Realtime Clock</Description><StartTime><Timestamp dt:dt="int">0</Timestamp><DateUtc dt:dt="string">2015-06-25T21:33:09Z</DateUtc></StartTime><FrequencyChanges><FrequencyChange><Frequency dt:dt="r8">3507695</Frequency><Timestamp dt:dt="r8">561897701778</Timestamp><Current dt:dt="r8">0</Current><DateUtc dt:dt="string">2015-06-25T21:33:09Z</DateUtc></FrequencyChange></FrequencyChanges></Clock>\n	Hungry_Donkey_bar_English_2-116-2	60.018	-154	1.0.0.18	1	-742343701	Standard	2.0.10.353	2.0.10.353	06-25-2015	6/25/2015 9:33:09 PM	17:33:09	2.0.10.248	15	Bar37-63.bmp	43	2	?	8r_4g.bmp	50r_4g.bmp	1r_2g.bmp	10r_2g.bmp		50r_4g.bmp			TrialProc	TrialList	0	cvbn	-999999	16	93395	0	v	792	94187	54	-73	-19	-6	-6	1	-8	1	2	15	-8	-50	-1	-10	4	4	2	2	-50	4
Hungry_Donkey_bar_English_2	116	2	<?xml version="1.0"?>\n<Clock xmlns:dt="urn:schemas-microsoft-com:datatypes"><Description dt:dt="string">E-Prime Primary Realtime Clock</Description><StartTime><Timestamp dt:dt="int">0</Timestamp><DateUtc dt:dt="string">2015-06-25T21:33:09Z</DateUtc></StartTime><FrequencyChanges><FrequencyChange><Frequency dt:dt="r8">3507695</Frequency><Timestamp dt:dt="r8">561897701778</Timestamp><Current dt:dt="r8">0</Current><DateUtc dt:dt="string">2015-06-25T21:33:09Z</DateUtc></FrequencyChange></FrequencyChanges></Clock>\n	Hungry_Donkey_bar_English_2-116-2	60.018	-154	1.0.0.18	1	-742343701	Standard	2.0.10.353	2.0.10.353	06-25-2015	6/25/2015 9:33:09 PM	17:33:09	2.0.10.248	16	Bar50-50.bmp	44	1	?	0r_4g.bmp	0r_4g.bmp	0r_2g.bmp	0r_2g.bmp	0r_4g.bmp				TrialProc	TrialList	0	cvbn	-999999	16	96227	0	c	1432	97659	58	-73	-15	-2	-6	1	-8	10	2	16	0	0	0	0	4	4	2	2	0	4
Hungry_Donkey_bar_English_2	116	2	<?xml version="1.0"?>\n<Clock xmlns:dt="urn:schemas-microsoft-com:datatypes"><Description dt:dt="string">E-Prime Primary Realtime Clock</Description><StartTime><Timestamp dt:dt="int">0</Timestamp><DateUtc dt:dt="string">2015-06-25T21:33:09Z</DateUtc></StartTime><FrequencyChanges><FrequencyChange><Frequency dt:dt="r8">3507695</Frequency><Timestamp dt:dt="r8">561897701778</Timestamp><Current dt:dt="r8">0</Current><DateUtc dt:dt="string">2015-06-25T21:33:09Z</DateUtc></FrequencyChange></FrequencyChanges></Clock>\n	Hungry_Donkey_bar_English_2-116-2	60.018	-154	1.0.0.18	1	-742343701	Standard	2.0.10.353	2.0.10.353	06-25-2015	6/25/2015 9:33:09 PM	17:33:09	2.0.10.248	17	Bar50-50.bmp	46	1	?	0r_4g.bmp	0r_4g.bmp	0r_2g.bmp	0r_2g.bmp	0r_4g.bmp				TrialProc	TrialList	0	cvbn	-999999	16	99693	0	c	574	100267	62	-73	-11	2	-6	1	-8	7	2	17	0	0	0	0	4	4	2	2	0	4
Hungry_Donkey_bar_English_2	116	2	<?xml version="1.0"?>\n<Clock xmlns:dt="urn:schemas-microsoft-com:datatypes"><Description dt:dt="string">E-Prime Primary Realtime Clock</Description><StartTime><Timestamp dt:dt="int">0</Timestamp><DateUtc dt:dt="string">2015-06-25T21:33:09Z</DateUtc></StartTime><FrequencyChanges><FrequencyChange><Frequency dt:dt="r8">3507695</Frequency><Timestamp dt:dt="r8">561897701778</Timestamp><Current dt:dt="r8">0</Current><DateUtc dt:dt="string">2015-06-25T21:33:09Z</DateUtc></FrequencyChange></FrequencyChanges></Clock>\n	Hungry_Donkey_bar_English_2-116-2	60.018	-154	1.0.0.18	1	-742343701	Standard	2.0.10.353	2.0.10.353	06-25-2015	6/25/2015 9:33:09 PM	17:33:09	2.0.10.248	18	Bar50-50.bmp	44	1	?	10r_4g.bmp	0r_4g.bmp	2r_2g.bmp	0r_2g.bmp	10r_4g.bmp				TrialProc	TrialList	0	cvbn	-999999	16	102292	0	c	695	102987	66	-83	-17	-4	-6	1	-8	2	2	18	-10	0	-2	0	4	4	2	2	-10	4
Hungry_Donkey_bar_English_2	116	2	<?xml version="1.0"?>\n<Clock xmlns:dt="urn:schemas-microsoft-com:datatypes"><Description dt:dt="string">E-Prime Primary Realtime Clock</Description><StartTime><Timestamp dt:dt="int">0</Timestamp><DateUtc dt:dt="string">2015-06-25T21:33:09Z</DateUtc></StartTime><FrequencyChanges><FrequencyChange><Frequency dt:dt="r8">3507695</Frequency><Timestamp dt:dt="r8">561897701778</Timestamp><Current dt:dt="r8">0</Current><DateUtc dt:dt="string">2015-06-25T21:33:09Z</DateUtc></FrequencyChange></FrequencyChanges></Clock>\n	Hungry_Donkey_bar_English_2-116-2	60.018	-154	1.0.0.18	1	-742343701	Standard	2.0.10.353	2.0.10.353	06-25-2015	6/25/2015 9:33:09 PM	17:33:09	2.0.10.248	19	Bar50-50.bmp	45	3	?	0r_4g.bmp	0r_4g.bmp	0r_2g.bmp	0r_2g.bmp			0r_2g.bmp		TrialProc	TrialList	0	cvbn	-999999	17	105025	0	b	1162	106187	68	-83	-15	-4	-6	3	-8	8	2	19	0	0	0	0	4	4	2	2	0	2
Hungry_Donkey_bar_English_2	116	2	<?xml version="1.0"?>\n<Clock xmlns:dt="urn:schemas-microsoft-com:datatypes"><Description dt:dt="string">E-Prime Primary Realtime Clock</Description><StartTime><Timestamp dt:dt="int">0</Timestamp><DateUtc dt:dt="string">2015-06-25T21:33:09Z</DateUtc></StartTime><FrequencyChanges><FrequencyChange><Frequency dt:dt="r8">3507695</Frequency><Timestamp dt:dt="r8">561897701778</Timestamp><Current dt:dt="r8">0</Current><DateUtc dt:dt="string">2015-06-25T21:33:09Z</DateUtc></FrequencyChange></FrequencyChanges></Clock>\n	Hungry_Donkey_bar_English_2-116-2	60.018	-154	1.0.0.18	1	-742343701	Standard	2.0.10.353	2.0.10.353	06-25-2015	6/25/2015 9:33:09 PM	17:33:09	2.0.10.248	20	Bar50-50.bmp	46	2	?	10r_4g.bmp	0r_4g.bmp	2r_2g.bmp	0r_2g.bmp		0r_4g.bmp			TrialProc	TrialList	0	cvbn	-999999	16	108224	0	v	330	108554	72	-83	-11	-4	-2	3	-8	4	2	20	-10	0	-2	0	4	4	2	2	0	4
Hungry_Donkey_bar_English_2	116	2	<?xml version="1.0"?>\n<Clock xmlns:dt="urn:schemas-microsoft-com:datatypes"><Description dt:dt="string">E-Prime Primary Realtime Clock</Description><StartTime><Timestamp dt:dt="int">0</Timestamp><DateUtc dt:dt="string">2015-06-25T21:33:09Z</DateUtc></StartTime><FrequencyChanges><FrequencyChange><Frequency dt:dt="r8">3507695</Frequency><Timestamp dt:dt="r8">561897701778</Timestamp><Current dt:dt="r8">0</Current><DateUtc dt:dt="string">2015-06-25T21:33:09Z</DateUtc></FrequencyChange></FrequencyChanges></Clock>\n	Hungry_Donkey_bar_English_2-116-2	60.018	-154	1.0.0.18	1	-742343701	Standard	2.0.10.353	2.0.10.353	06-25-2015	6/25/2015 9:33:09 PM	17:33:09	2.0.10.248	21	Bar37-63.bmp	36	2	?	8r_4g.bmp	50r_4g.bmp	1r_2g.bmp	10r_2g.bmp		50r_4g.bmp			TrialProc	TrialList	0	cvbn	-999999	17	110590	0	v	316	110906	76	-133	-57	-4	-48	3	-8	1	3	21	-8	-50	-1	-10	4	4	2	2	-50	4
Hungry_Donkey_bar_English_2	116	2	<?xml version="1.0"?>\n<Clock xmlns:dt="urn:schemas-microsoft-com:datatypes"><Description dt:dt="string">E-Prime Primary Realtime Clock</Description><StartTime><Timestamp dt:dt="int">0</Timestamp><DateUtc dt:dt="string">2015-06-25T21:33:09Z</DateUtc></StartTime><FrequencyChanges><FrequencyChange><Frequency dt:dt="r8">3507695</Frequency><Timestamp dt:dt="r8">561897701778</Timestamp><Current dt:dt="r8">0</Current><DateUtc dt:dt="string">2015-06-25T21:33:09Z</DateUtc></FrequencyChange></FrequencyChanges></Clock>\n	Hungry_Donkey_bar_English_2-116-2	60.018	-154	1.0.0.18	1	-742343701	Standard	2.0.10.353	2.0.10.353	06-25-2015	6/25/2015 9:33:09 PM	17:33:09	2.0.10.248	22	Bar37-63.bmp	37	3	?	0r_4g.bmp	0r_4g.bmp	0r_2g.bmp	0r_2g.bmp			0r_2g.bmp		TrialProc	TrialList	0	cvbn	-999999	16	112939	0	b	1535	114474	78	-133	-55	-4	-48	5	-8	10	3	22	0	0	0	0	4	4	2	2	0	2
Hungry_Donkey_bar_English_2	116	2	<?xml version="1.0"?>\n<Clock xmlns:dt="urn:schemas-microsoft-com:datatypes"><Description dt:dt="string">E-Prime Primary Realtime Clock</Description><StartTime><Timestamp dt:dt="int">0</Timestamp><DateUtc dt:dt="string">2015-06-25T21:33:09Z</DateUtc></StartTime><FrequencyChanges><FrequencyChange><Frequency dt:dt="r8">3507695</Frequency><Timestamp dt:dt="r8">561897701778</Timestamp><Current dt:dt="r8">0</Current><DateUtc dt:dt="string">2015-06-25T21:33:09Z</DateUtc></FrequencyChange></FrequencyChanges></Clock>\n	Hungry_Donkey_bar_English_2-116-2	60.018	-154	1.0.0.18	1	-742343701	Standard	2.0.10.353	2.0.10.353	06-25-2015	6/25/2015 9:33:09 PM	17:33:09	2.0.10.248	23	Bar37-63.bmp	38	3	?	0r_4g.bmp	0r_4g.bmp	0r_2g.bmp	0r_2g.bmp			0r_2g.bmp		TrialProc	TrialList	0	cvbn	-999999	17	116505	0	b	369	116874	80	-133	-53	-4	-48	7	-8	6	3	23	0	0	0	0	4	4	2	2	0	2
Hungry_Donkey_bar_English_2	116	2	<?xml version="1.0"?>\n<Clock xmlns:dt="urn:schemas-microsoft-com:datatypes"><Description dt:dt="string">E-Prime Primary Realtime Clock</Description><StartTime><Timestamp dt:dt="int">0</Timestamp><DateUtc dt:dt="string">2015-06-25T21:33:09Z</DateUtc></StartTime><FrequencyChanges><FrequencyChange><Frequency dt:dt="r8">3507695</Frequency><Timestamp dt:dt="r8">561897701778</Timestamp><Current dt:dt="r8">0</Current><DateUtc dt:dt="string">2015-06-25T21:33:09Z</DateUtc></FrequencyChange></FrequencyChanges></Clock>\n	Hungry_Donkey_bar_English_2-116-2	60.018	-154	1.0.0.18	1	-742343701	Standard	2.0.10.353	2.0.10.353	06-25-2015	6/25/2015 9:33:09 PM	17:33:09	2.0.10.248	24	Bar37-63.bmp	38	3	?	0r_4g.bmp	0r_4g.bmp	0r_2g.bmp	0r_2g.bmp			0r_2g.bmp		TrialProc	TrialList	0	cvbn	-999999	16	118904	0	b	514	119418	82	-133	-51	-4	-48	9	-8	9	3	24	0	0	0	0	4	4	2	2	0	2
Hungry_Donkey_bar_English_2	116	2	<?xml version="1.0"?>\n<Clock xmlns:dt="urn:schemas-microsoft-com:datatypes"><Description dt:dt="string">E-Prime Primary Realtime Clock</Description><StartTime><Timestamp dt:dt="int">0</Timestamp><DateUtc dt:dt="string">2015-06-25T21:33:09Z</DateUtc></StartTime><FrequencyChanges><FrequencyChange><Frequency dt:dt="r8">3507695</Frequency><Timestamp dt:dt="r8">561897701778</Timestamp><Current dt:dt="r8">0</Current><DateUtc dt:dt="string">2015-06-25T21:33:09Z</DateUtc></FrequencyChange></FrequencyChanges></Clock>\n	Hungry_Donkey_bar_English_2-116-2	60.018	-154	1.0.0.18	1	-742343701	Standard	2.0.10.353	2.0.10.353	06-25-2015	6/25/2015 9:33:09 PM	17:33:09	2.0.10.248	25	Bar37-63.bmp	39	3	?	0r_4g.bmp	0r_4g.bmp	0r_2g.bmp	0r_2g.bmp			0r_2g.bmp		TrialProc	TrialList	0	cvbn	-999999	16	121453	0	b	317	121770	84	-133	-49	-4	-48	11	-8	8	3	25	0	0	0	0	4	4	2	2	0	2
Hungry_Donkey_bar_English_2	116	2	<?xml version="1.0"?>\n<Clock xmlns:dt="urn:schemas-microsoft-com:datatypes"><Description dt:dt="string">E-Prime Primary Realtime Clock</Description><StartTime><Timestamp dt:dt="int">0</Timestamp><DateUtc dt:dt="string">2015-06-25T21:33:09Z</DateUtc></StartTime><FrequencyChanges><FrequencyChange><Frequency dt:dt="r8">3507695</Frequency><Timestamp dt:dt="r8">561897701778</Timestamp><Current dt:dt="r8">0</Current><DateUtc dt:dt="string">2015-06-25T21:33:09Z</DateUtc></FrequencyChange></FrequencyChanges></Clock>\n	Hungry_Donkey_bar_English_2-116-2	60.018	-154	1.0.0.18	1	-742343701	Standard	2.0.10.353	2.0.10.353	06-25-2015	6/25/2015 9:33:09 PM	17:33:09	2.0.10.248	26	Bar37-63.bmp	39	3	?	12r_4g.bmp	0r_4g.bmp	3r_2g.bmp	0r_2g.bmp			3r_2g.bmp		TrialProc	TrialList	0	cvbn	-999999	16	123802	0	b	304	124106	86	-136	-50	-4	-48	10	-8	5	3	26	-12	0	-3	0	4	4	2	2	-3	2
Hungry_Donkey_bar_English_2	116	2	<?xml version="1.0"?>\n<Clock xmlns:dt="urn:schemas-microsoft-com:datatypes"><Description dt:dt="string">E-Prime Primary Realtime Clock</Description><StartTime><Timestamp dt:dt="int">0</Timestamp><DateUtc dt:dt="string">2015-06-25T21:33:09Z</DateUtc></StartTime><FrequencyChanges><FrequencyChange><Frequency dt:dt="r8">3507695</Frequency><Timestamp dt:dt="r8">561897701778</Timestamp><Current dt:dt="r8">0</Current><DateUtc dt:dt="string">2015-06-25T21:33:09Z</DateUtc></FrequencyChange></FrequencyChanges></Clock>\n	Hungry_Donkey_bar_English_2-116-2	60.018	-154	1.0.0.18	1	-742343701	Standard	2.0.10.353	2.0.10.353	06-25-2015	6/25/2015 9:33:09 PM	17:33:09	2.0.10.248	27	Bar37-63.bmp	39	4	?	10r_4g.bmp	0r_4g.bmp	2r_2g.bmp	0r_2g.bmp				0r_2g.bmp	TrialProc	TrialList	0	cvbn	-999999	16	126135	0	n	818	126953	88	-136	-48	-4	-48	10	-6	4	3	27	-10	0	-2	0	4	4	2	2	0	2
Hungry_Donkey_bar_English_2	116	2	<?xml version="1.0"?>\n<Clock xmlns:dt="urn:schemas-microsoft-com:datatypes"><Description dt:dt="string">E-Prime Primary Realtime Clock</Description><StartTime><Timestamp dt:dt="int">0</Timestamp><DateUtc dt:dt="string">2015-06-25T21:33:09Z</DateUtc></StartTime><FrequencyChanges><FrequencyChange><Frequency dt:dt="r8">3507695</Frequency><Timestamp dt:dt="r8">561897701778</Timestamp><Current dt:dt="r8">0</Current><DateUtc dt:dt="string">2015-06-25T21:33:09Z</DateUtc></FrequencyChange></FrequencyChanges></Clock>\n	Hungry_Donkey_bar_English_2-116-2	60.018	-154	1.0.0.18	1	-742343701	Standard	2.0.10.353	2.0.10.353	06-25-2015	6/25/2015 9:33:09 PM	17:33:09	2.0.10.248	28	Bar37-63.bmp	40	4	?	10r_4g.bmp	0r_4g.bmp	2r_2g.bmp	0r_2g.bmp				0r_2g.bmp	TrialProc	TrialList	0	cvbn	-999999	16	128984	0	n	353	129337	90	-136	-46	-4	-48	10	-4	2	3	28	-10	0	-2	0	4	4	2	2	0	2
Hungry_Donkey_bar_English_2	116	2	<?xml version="1.0"?>\n<Clock xmlns:dt="urn:schemas-microsoft-com:datatypes"><Description dt:dt="string">E-Prime Primary Realtime Clock</Description><StartTime><Timestamp dt:dt="int">0</Timestamp><DateUtc dt:dt="string">2015-06-25T21:33:09Z</DateUtc></StartTime><FrequencyChanges><FrequencyChange><Frequency dt:dt="r8">3507695</Frequency><Timestamp dt:dt="r8">561897701778</Timestamp><Current dt:dt="r8">0</Current><DateUtc dt:dt="string">2015-06-25T21:33:09Z</DateUtc></FrequencyChange></FrequencyChanges></Clock>\n	Hungry_Donkey_bar_English_2-116-2	60.018	-154	1.0.0.18	1	-742343701	Standard	2.0.10.353	2.0.10.353	06-25-2015	6/25/2015 9:33:09 PM	17:33:09	2.0.10.248	29	Bar37-63.bmp	40	4	?	0r_4g.bmp	0r_4g.bmp	0r_2g.bmp	0r_2g.bmp				0r_2g.bmp	TrialProc	TrialList	0	cvbn	-999999	16	131367	0	n	1250	132617	92	-136	-44	-4	-48	10	-2	7	3	29	0	0	0	0	4	4	2	2	0	2
Hungry_Donkey_bar_English_2	116	2	<?xml version="1.0"?>\n<Clock xmlns:dt="urn:schemas-microsoft-com:datatypes"><Description dt:dt="string">E-Prime Primary Realtime Clock</Description><StartTime><Timestamp dt:dt="int">0</Timestamp><DateUtc dt:dt="string">2015-06-25T21:33:09Z</DateUtc></StartTime><FrequencyChanges><FrequencyChange><Frequency dt:dt="r8">3507695</Frequency><Timestamp dt:dt="r8">561897701778</Timestamp><Current dt:dt="r8">0</Current><DateUtc dt:dt="string">2015-06-25T21:33:09Z</DateUtc></FrequencyChange></FrequencyChanges></Clock>\n	Hungry_Donkey_bar_English_2-116-2	60.018	-154	1.0.0.18	1	-742343701	Standard	2.0.10.353	2.0.10.353	06-25-2015	6/25/2015 9:33:09 PM	17:33:09	2.0.10.248	30	Bar37-63.bmp	41	4	?	10r_4g.bmp	0r_4g.bmp	2r_2g.bmp	0r_2g.bmp				0r_2g.bmp	TrialProc	TrialList	0	cvbn	-999999	16	134649	0	n	1520	136169	94	-136	-42	-4	-48	10	0	3	3	30	-10	0	-2	0	4	4	2	2	0	2
Hungry_Donkey_bar_English_2	116	2	<?xml version="1.0"?>\n<Clock xmlns:dt="urn:schemas-microsoft-com:datatypes"><Description dt:dt="string">E-Prime Primary Realtime Clock</Description><StartTime><Timestamp dt:dt="int">0</Timestamp><DateUtc dt:dt="string">2015-06-25T21:33:09Z</DateUtc></StartTime><FrequencyChanges><FrequencyChange><Frequency dt:dt="r8">3507695</Frequency><Timestamp dt:dt="r8">561897701778</Timestamp><Current dt:dt="r8">0</Current><DateUtc dt:dt="string">2015-06-25T21:33:09Z</DateUtc></FrequencyChange></FrequencyChanges></Clock>\n	Hungry_Donkey_bar_English_2-116-2	60.018	-154	1.0.0.18	1	-742343701	Standard	2.0.10.353	2.0.10.353	06-25-2015	6/25/2015 9:33:09 PM	17:33:09	2.0.10.248	31	Bar37-63.bmp	41	4	?	0r_4g.bmp	0r_4g.bmp	0r_2g.bmp	0r_2g.bmp				0r_2g.bmp	TrialProc	TrialList	0	cvbn	-999999	16	138198	0	n	595	138793	96	-136	-40	-4	-48	10	2	9	4	31	0	0	0	0	4	4	2	2	0	2
Hungry_Donkey_bar_English_2	116	2	<?xml version="1.0"?>\n<Clock xmlns:dt="urn:schemas-microsoft-com:datatypes"><Description dt:dt="string">E-Prime Primary Realtime Clock</Description><StartTime><Timestamp dt:dt="int">0</Timestamp><DateUtc dt:dt="string">2015-06-25T21:33:09Z</DateUtc></StartTime><FrequencyChanges><FrequencyChange><Frequency dt:dt="r8">3507695</Frequency><Timestamp dt:dt="r8">561897701778</Timestamp><Current dt:dt="r8">0</Current><DateUtc dt:dt="string">2015-06-25T21:33:09Z</DateUtc></FrequencyChange></FrequencyChanges></Clock>\n	Hungry_Donkey_bar_English_2-116-2	60.018	-154	1.0.0.18	1	-742343701	Standard	2.0.10.353	2.0.10.353	06-25-2015	6/25/2015 9:33:09 PM	17:33:09	2.0.10.248	32	Bar37-63.bmp	41	3	?	12r_4g.bmp	0r_4g.bmp	3r_2g.bmp	0r_2g.bmp			3r_2g.bmp		TrialProc	TrialList	0	cvbn	-999999	16	140831	0	b	2650	143481	98	-139	-41	-4	-48	9	2	5	4	32	-12	0	-3	0	4	4	2	2	-3	2
Hungry_Donkey_bar_English_2	116	2	<?xml version="1.0"?>\n<Clock xmlns:dt="urn:schemas-microsoft-com:datatypes"><Description dt:dt="string">E-Prime Primary Realtime Clock</Description><StartTime><Timestamp dt:dt="int">0</Timestamp><DateUtc dt:dt="string">2015-06-25T21:33:09Z</DateUtc></StartTime><FrequencyChanges><FrequencyChange><Frequency dt:dt="r8">3507695</Frequency><Timestamp dt:dt="r8">561897701778</Timestamp><Current dt:dt="r8">0</Current><DateUtc dt:dt="string">2015-06-25T21:33:09Z</DateUtc></FrequencyChange></FrequencyChanges></Clock>\n	Hungry_Donkey_bar_English_2-116-2	60.018	-154	1.0.0.18	1	-742343701	Standard	2.0.10.353	2.0.10.353	06-25-2015	6/25/2015 9:33:09 PM	17:33:09	2.0.10.248	33	Bar37-63.bmp	42	4	?	0r_4g.bmp	0r_4g.bmp	0r_2g.bmp	0r_2g.bmp				0r_2g.bmp	TrialProc	TrialList	0	cvbn	-999999	16	145513	0	n	527	146040	100	-139	-39	-4	-48	9	4	7	4	33	0	0	0	0	4	4	2	2	0	2
Hungry_Donkey_bar_English_2	116	2	<?xml version="1.0"?>\n<Clock xmlns:dt="urn:schemas-microsoft-com:datatypes"><Description dt:dt="string">E-Prime Primary Realtime Clock</Description><StartTime><Timestamp dt:dt="int">0</Timestamp><DateUtc dt:dt="string">2015-06-25T21:33:09Z</DateUtc></StartTime><FrequencyChanges><FrequencyChange><Frequency dt:dt="r8">3507695</Frequency><Timestamp dt:dt="r8">561897701778</Timestamp><Current dt:dt="r8">0</Current><DateUtc dt:dt="string">2015-06-25T21:33:09Z</DateUtc></FrequencyChange></FrequencyChanges></Clock>\n	Hungry_Donkey_bar_English_2-116-2	60.018	-154	1.0.0.18	1	-742343701	Standard	2.0.10.353	2.0.10.353	06-25-2015	6/25/2015 9:33:09 PM	17:33:09	2.0.10.248	34	Bar37-63.bmp	42	4	?	0r_4g.bmp	0r_4g.bmp	0r_2g.bmp	0r_2g.bmp				0r_2g.bmp	TrialProc	TrialList	0	cvbn	-999999	16	148079	0	n	729	148808	102	-139	-37	-4	-48	9	6	6	4	34	0	0	0	0	4	4	2	2	0	2
Hungry_Donkey_bar_English_2	116	2	<?xml version="1.0"?>\n<Clock xmlns:dt="urn:schemas-microsoft-com:datatypes"><Description dt:dt="string">E-Prime Primary Realtime Clock</Description><StartTime><Timestamp dt:dt="int">0</Timestamp><DateUtc dt:dt="string">2015-06-25T21:33:09Z</DateUtc></StartTime><FrequencyChanges><FrequencyChange><Frequency dt:dt="r8">3507695</Frequency><Timestamp dt:dt="r8">561897701778</Timestamp><Current dt:dt="r8">0</Current><DateUtc dt:dt="string">2015-06-25T21:33:09Z</DateUtc></FrequencyChange></FrequencyChanges></Clock>\n	Hungry_Donkey_bar_English_2-116-2	60.018	-154	1.0.0.18	1	-742343701	Standard	2.0.10.353	2.0.10.353	06-25-2015	6/25/2015 9:33:09 PM	17:33:09	2.0.10.248	35	Bar37-63.bmp	43	2	?	10r_4g.bmp	0r_4g.bmp	2r_2g.bmp	0r_2g.bmp		0r_4g.bmp			TrialProc	TrialList	0	cvbn	-999999	16	150844	0	v	364	151208	106	-139	-33	-4	-44	9	6	2	4	35	-10	0	-2	0	4	4	2	2	0	4
Hungry_Donkey_bar_English_2	116	2	<?xml version="1.0"?>\n<Clock xmlns:dt="urn:schemas-microsoft-com:datatypes"><Description dt:dt="string">E-Prime Primary Realtime Clock</Description><StartTime><Timestamp dt:dt="int">0</Timestamp><DateUtc dt:dt="string">2015-06-25T21:33:09Z</DateUtc></StartTime><FrequencyChanges><FrequencyChange><Frequency dt:dt="r8">3507695</Frequency><Timestamp dt:dt="r8">561897701778</Timestamp><Current dt:dt="r8">0</Current><DateUtc dt:dt="string">2015-06-25T21:33:09Z</DateUtc></FrequencyChange></FrequencyChanges></Clock>\n	Hungry_Donkey_bar_English_2-116-2	60.018	-154	1.0.0.18	1	-742343701	Standard	2.0.10.353	2.0.10.353	06-25-2015	6/25/2015 9:33:09 PM	17:33:09	2.0.10.248	36	Bar50-50.bmp	44	4	?	10r_4g.bmp	0r_4g.bmp	2r_2g.bmp	0r_2g.bmp				0r_2g.bmp	TrialProc	TrialList	0	cvbn	-999999	16	153244	0	n	2524	155768	108	-139	-31	-4	-44	9	8	3	4	36	-10	0	-2	0	4	4	2	2	0	2
Hungry_Donkey_bar_English_2	116	2	<?xml version="1.0"?>\n<Clock xmlns:dt="urn:schemas-microsoft-com:datatypes"><Description dt:dt="string">E-Prime Primary Realtime Clock</Description><StartTime><Timestamp dt:dt="int">0</Timestamp><DateUtc dt:dt="string">2015-06-25T21:33:09Z</DateUtc></StartTime><FrequencyChanges><FrequencyChange><Frequency dt:dt="r8">3507695</Frequency><Timestamp dt:dt="r8">561897701778</Timestamp><Current dt:dt="r8">0</Current><DateUtc dt:dt="string">2015-06-25T21:33:09Z</DateUtc></FrequencyChange></FrequencyChanges></Clock>\n	Hungry_Donkey_bar_English_2-116-2	60.018	-154	1.0.0.18	1	-742343701	Standard	2.0.10.353	2.0.10.353	06-25-2015	6/25/2015 9:33:09 PM	17:33:09	2.0.10.248	37	Bar50-50.bmp	45	2	?	0r_4g.bmp	0r_4g.bmp	0r_2g.bmp	0r_2g.bmp		0r_4g.bmp			TrialProc	TrialList	0	cvbn	-999999	16	157792	0	v	1000	158792	112	-139	-27	-4	-40	9	8	10	4	37	0	0	0	0	4	4	2	2	0	4
Hungry_Donkey_bar_English_2	116	2	<?xml version="1.0"?>\n<Clock xmlns:dt="urn:schemas-microsoft-com:datatypes"><Description dt:dt="string">E-Prime Primary Realtime Clock</Description><StartTime><Timestamp dt:dt="int">0</Timestamp><DateUtc dt:dt="string">2015-06-25T21:33:09Z</DateUtc></StartTime><FrequencyChanges><FrequencyChange><Frequency dt:dt="r8">3507695</Frequency><Timestamp dt:dt="r8">561897701778</Timestamp><Current dt:dt="r8">0</Current><DateUtc dt:dt="string">2015-06-25T21:33:09Z</DateUtc></FrequencyChange></FrequencyChanges></Clock>\n	Hungry_Donkey_bar_English_2-116-2	60.018	-154	1.0.0.18	1	-742343701	Standard	2.0.10.353	2.0.10.353	06-25-2015	6/25/2015 9:33:09 PM	17:33:09	2.0.10.248	38	Bar50-50.bmp	44	1	?	8r_4g.bmp	50r_4g.bmp	1r_2g.bmp	10r_2g.bmp	8r_4g.bmp				TrialProc	TrialList	0	cvbn	-999999	16	160825	0	c	1215	162040	116	-147	-31	-8	-40	9	8	1	4	38	-8	-50	-1	-10	4	4	2	2	-8	4
Hungry_Donkey_bar_English_2	116	2	<?xml version="1.0"?>\n<Clock xmlns:dt="urn:schemas-microsoft-com:datatypes"><Description dt:dt="string">E-Prime Primary Realtime Clock</Description><StartTime><Timestamp dt:dt="int">0</Timestamp><DateUtc dt:dt="string">2015-06-25T21:33:09Z</DateUtc></StartTime><FrequencyChanges><FrequencyChange><Frequency dt:dt="r8">3507695</Frequency><Timestamp dt:dt="r8">561897701778</Timestamp><Current dt:dt="r8">0</Current><DateUtc dt:dt="string">2015-06-25T21:33:09Z</DateUtc></FrequencyChange></FrequencyChanges></Clock>\n	Hungry_Donkey_bar_English_2-116-2	60.018	-154	1.0.0.18	1	-742343701	Standard	2.0.10.353	2.0.10.353	06-25-2015	6/25/2015 9:33:09 PM	17:33:09	2.0.10.248	39	Bar50-50.bmp	45	2	?	10r_4g.bmp	0r_4g.bmp	2r_2g.bmp	0r_2g.bmp		0r_4g.bmp			TrialProc	TrialList	0	cvbn	-999999	16	164074	0	v	845	164919	120	-147	-27	-8	-36	9	8	4	4	39	-10	0	-2	0	4	4	2	2	0	4
Hungry_Donkey_bar_English_2	116	2	<?xml version="1.0"?>\n<Clock xmlns:dt="urn:schemas-microsoft-com:datatypes"><Description dt:dt="string">E-Prime Primary Realtime Clock</Description><StartTime><Timestamp dt:dt="int">0</Timestamp><DateUtc dt:dt="string">2015-06-25T21:33:09Z</DateUtc></StartTime><FrequencyChanges><FrequencyChange><Frequency dt:dt="r8">3507695</Frequency><Timestamp dt:dt="r8">561897701778</Timestamp><Current dt:dt="r8">0</Current><DateUtc dt:dt="string">2015-06-25T21:33:09Z</DateUtc></FrequencyChange></FrequencyChanges></Clock>\n	Hungry_Donkey_bar_English_2-116-2	60.018	-154	1.0.0.18	1	-742343701	Standard	2.0.10.353	2.0.10.353	06-25-2015	6/25/2015 9:33:09 PM	17:33:09	2.0.10.248	40	Bar50-50.bmp	46	2	?	0r_4g.bmp	0r_4g.bmp	0r_2g.bmp	0r_2g.bmp		0r_4g.bmp			TrialProc	TrialList	0	cvbn	-999999	16	166956	0	v	1227	168183	124	-147	-23	-8	-32	9	8	8	4	40	0	0	0	0	4	4	2	2	0	4
Hungry_Donkey_bar_English_2	116	2	<?xml version="1.0"?>\n<Clock xmlns:dt="urn:schemas-microsoft-com:datatypes"><Description dt:dt="string">E-Prime Primary Realtime Clock</Description><StartTime><Timestamp dt:dt="int">0</Timestamp><DateUtc dt:dt="string">2015-06-25T21:33:09Z</DateUtc></StartTime><FrequencyChanges><FrequencyChange><Frequency dt:dt="r8">3507695</Frequency><Timestamp dt:dt="r8">561897701778</Timestamp><Current dt:dt="r8">0</Current><DateUtc dt:dt="string">2015-06-25T21:33:09Z</DateUtc></FrequencyChange></FrequencyChanges></Clock>\n	Hungry_Donkey_bar_English_2-116-2	60.018	-154	1.0.0.18	1	-742343701	Standard	2.0.10.353	2.0.10.353	06-25-2015	6/25/2015 9:33:09 PM	17:33:09	2.0.10.248	41	Bar50-50.bmp	46	3	?	0r_4g.bmp	0r_4g.bmp	0r_2g.bmp	0r_2g.bmp			0r_2g.bmp		TrialProc	TrialList	0	cvbn	-999999	16	170222	0	b	329	170551	126	-147	-21	-8	-32	11	8	7	5	41	0	0	0	0	4	4	2	2	0	2
Hungry_Donkey_bar_English_2	116	2	<?xml version="1.0"?>\n<Clock xmlns:dt="urn:schemas-microsoft-com:datatypes"><Description dt:dt="string">E-Prime Primary Realtime Clock</Description><StartTime><Timestamp dt:dt="int">0</Timestamp><DateUtc dt:dt="string">2015-06-25T21:33:09Z</DateUtc></StartTime><FrequencyChanges><FrequencyChange><Frequency dt:dt="r8">3507695</Frequency><Timestamp dt:dt="r8">561897701778</Timestamp><Current dt:dt="r8">0</Current><DateUtc dt:dt="string">2015-06-25T21:33:09Z</DateUtc></FrequencyChange></FrequencyChanges></Clock>\n	Hungry_Donkey_bar_English_2-116-2	60.018	-154	1.0.0.18	1	-742343701	Standard	2.0.10.353	2.0.10.353	06-25-2015	6/25/2015 9:33:09 PM	17:33:09	2.0.10.248	42	Bar50-50.bmp	46	3	?	8r_4g.bmp	50r_4g.bmp	1r_2g.bmp	10r_2g.bmp			1r_2g.bmp		TrialProc	TrialList	0	cvbn	-999999	16	172588	0	b	395	172983	128	-148	-20	-8	-32	12	8	1	5	42	-8	-50	-1	-10	4	4	2	2	-1	2
Hungry_Donkey_bar_English_2	116	2	<?xml version="1.0"?>\n<Clock xmlns:dt="urn:schemas-microsoft-com:datatypes"><Description dt:dt="string">E-Prime Primary Realtime Clock</Description><StartTime><Timestamp dt:dt="int">0</Timestamp><DateUtc dt:dt="string">2015-06-25T21:33:09Z</DateUtc></StartTime><FrequencyChanges><FrequencyChange><Frequency dt:dt="r8">3507695</Frequency><Timestamp dt:dt="r8">561897701778</Timestamp><Current dt:dt="r8">0</Current><DateUtc dt:dt="string">2015-06-25T21:33:09Z</DateUtc></FrequencyChange></FrequencyChanges></Clock>\n	Hungry_Donkey_bar_English_2-116-2	60.018	-154	1.0.0.18	1	-742343701	Standard	2.0.10.353	2.0.10.353	06-25-2015	6/25/2015 9:33:09 PM	17:33:09	2.0.10.248	43	Bar50-50.bmp	47	2	?	0r_4g.bmp	0r_4g.bmp	0r_2g.bmp	0r_2g.bmp		0r_4g.bmp			TrialProc	TrialList	0	cvbn	-999999	16	175021	0	v	698	175719	132	-148	-16	-8	-28	12	8	9	5	43	0	0	0	0	4	4	2	2	0	4
Hungry_Donkey_bar_English_2	116	2	<?xml version="1.0"?>\n<Clock xmlns:dt="urn:schemas-microsoft-com:datatypes"><Description dt:dt="string">E-Prime Primary Realtime Clock</Description><StartTime><Timestamp dt:dt="int">0</Timestamp><DateUtc dt:dt="string">2015-06-25T21:33:09Z</DateUtc></StartTime><FrequencyChanges><FrequencyChange><Frequency dt:dt="r8">3507695</Frequency><Timestamp dt:dt="r8">561897701778</Timestamp><Current dt:dt="r8">0</Current><DateUtc dt:dt="string">2015-06-25T21:33:09Z</DateUtc></FrequencyChange></FrequencyChanges></Clock>\n	Hungry_Donkey_bar_English_2-116-2	60.018	-154	1.0.0.18	1	-742343701	Standard	2.0.10.353	2.0.10.353	06-25-2015	6/25/2015 9:33:09 PM	17:33:09	2.0.10.248	44	Bar50-50.bmp	48	2	?	12r_4g.bmp	0r_4g.bmp	3r_2g.bmp	0r_2g.bmp		0r_4g.bmp			TrialProc	TrialList	0	cvbn	-999999	16	177753	0	v	1038	178791	136	-148	-12	-8	-24	12	8	5	5	44	-12	0	-3	0	4	4	2	2	0	4
Hungry_Donkey_bar_English_2	116	2	<?xml version="1.0"?>\n<Clock xmlns:dt="urn:schemas-microsoft-com:datatypes"><Description dt:dt="string">E-Prime Primary Realtime Clock</Description><StartTime><Timestamp dt:dt="int">0</Timestamp><DateUtc dt:dt="string">2015-06-25T21:33:09Z</DateUtc></StartTime><FrequencyChanges><FrequencyChange><Frequency dt:dt="r8">3507695</Frequency><Timestamp dt:dt="r8">561897701778</Timestamp><Current dt:dt="r8">0</Current><DateUtc dt:dt="string">2015-06-25T21:33:09Z</DateUtc></FrequencyChange></FrequencyChanges></Clock>\n	Hungry_Donkey_bar_English_2-116-2	60.018	-154	1.0.0.18	1	-742343701	Standard	2.0.10.353	2.0.10.353	06-25-2015	6/25/2015 9:33:09 PM	17:33:09	2.0.10.248	45	Bar50-50.bmp	49	2	?	0r_4g.bmp	0r_4g.bmp	0r_2g.bmp	0r_2g.bmp		0r_4g.bmp			TrialProc	TrialList	0	cvbn	-999999	16	180819	0	v	340	181159	140	-148	-8	-8	-20	12	8	6	5	45	0	0	0	0	4	4	2	2	0	4
Hungry_Donkey_bar_English_2	116	2	<?xml version="1.0"?>\n<Clock xmlns:dt="urn:schemas-microsoft-com:datatypes"><Description dt:dt="string">E-Prime Primary Realtime Clock</Description><StartTime><Timestamp dt:dt="int">0</Timestamp><DateUtc dt:dt="string">2015-06-25T21:33:09Z</DateUtc></StartTime><FrequencyChanges><FrequencyChange><Frequency dt:dt="r8">3507695</Frequency><Timestamp dt:dt="r8">561897701778</Timestamp><Current dt:dt="r8">0</Current><DateUtc dt:dt="string">2015-06-25T21:33:09Z</DateUtc></FrequencyChange></FrequencyChanges></Clock>\n	Hungry_Donkey_bar_English_2-116-2	60.018	-154	1.0.0.18	1	-742343701	Standard	2.0.10.353	2.0.10.353	06-25-2015	6/25/2015 9:33:09 PM	17:33:09	2.0.10.248	46	Bar50-50.bmp	49	4	?	0r_4g.bmp	0r_4g.bmp	0r_2g.bmp	0r_2g.bmp				0r_2g.bmp	TrialProc	TrialList	0	cvbn	-999999	16	183185	0	n	453	183638	142	-148	-6	-8	-20	12	10	10	5	46	0	0	0	0	4	4	2	2	0	2
Hungry_Donkey_bar_English_2	116	2	<?xml version="1.0"?>\n<Clock xmlns:dt="urn:schemas-microsoft-com:datatypes"><Description dt:dt="string">E-Prime Primary Realtime Clock</Description><StartTime><Timestamp dt:dt="int">0</Timestamp><DateUtc dt:dt="string">2015-06-25T21:33:09Z</DateUtc></StartTime><FrequencyChanges><FrequencyChange><Frequency dt:dt="r8">3507695</Frequency><Timestamp dt:dt="r8">561897701778</Timestamp><Current dt:dt="r8">0</Current><DateUtc dt:dt="string">2015-06-25T21:33:09Z</DateUtc></FrequencyChange></FrequencyChanges></Clock>\n	Hungry_Donkey_bar_English_2-116-2	60.018	-154	1.0.0.18	1	-742343701	Standard	2.0.10.353	2.0.10.353	06-25-2015	6/25/2015 9:33:09 PM	17:33:09	2.0.10.248	47	Bar50-50.bmp	49	4	?	0r_4g.bmp	0r_4g.bmp	0r_2g.bmp	0r_2g.bmp				0r_2g.bmp	TrialProc	TrialList	0	cvbn	-999999	16	185668	0	n	290	185958	144	-148	-4	-8	-20	12	12	8	5	47	0	0	0	0	4	4	2	2	0	2
Hungry_Donkey_bar_English_2	116	2	<?xml version="1.0"?>\n<Clock xmlns:dt="urn:schemas-microsoft-com:datatypes"><Description dt:dt="string">E-Prime Primary Realtime Clock</Description><StartTime><Timestamp dt:dt="int">0</Timestamp><DateUtc dt:dt="string">2015-06-25T21:33:09Z</DateUtc></StartTime><FrequencyChanges><FrequencyChange><Frequency dt:dt="r8">3507695</Frequency><Timestamp dt:dt="r8">561897701778</Timestamp><Current dt:dt="r8">0</Current><DateUtc dt:dt="string">2015-06-25T21:33:09Z</DateUtc></FrequencyChange></FrequencyChanges></Clock>\n	Hungry_Donkey_bar_English_2-116-2	60.018	-154	1.0.0.18	1	-742343701	Standard	2.0.10.353	2.0.10.353	06-25-2015	6/25/2015 9:33:09 PM	17:33:09	2.0.10.248	48	Bar50-50.bmp	50	2	?	10r_4g.bmp	0r_4g.bmp	2r_2g.bmp	0r_2g.bmp		0r_4g.bmp			TrialProc	TrialList	0	cvbn	-999999	16	187984	0	v	790	188774	148	-148	0	-8	-16	12	12	4	5	48	-10	0	-2	0	4	4	2	2	0	4
Hungry_Donkey_bar_English_2	116	2	<?xml version="1.0"?>\n<Clock xmlns:dt="urn:schemas-microsoft-com:datatypes"><Description dt:dt="string">E-Prime Primary Realtime Clock</Description><StartTime><Timestamp dt:dt="int">0</Timestamp><DateUtc dt:dt="string">2015-06-25T21:33:09Z</DateUtc></StartTime><FrequencyChanges><FrequencyChange><Frequency dt:dt="r8">3507695</Frequency><Timestamp dt:dt="r8">561897701778</Timestamp><Current dt:dt="r8">0</Current><DateUtc dt:dt="string">2015-06-25T21:33:09Z</DateUtc></FrequencyChange></FrequencyChanges></Clock>\n	Hungry_Donkey_bar_English_2-116-2	60.018	-154	1.0.0.18	1	-742343701	Standard	2.0.10.353	2.0.10.353	06-25-2015	6/25/2015 9:33:09 PM	17:33:09	2.0.10.248	49	Bar50-50.bmp	51	2	?	10r_4g.bmp	0r_4g.bmp	2r_2g.bmp	0r_2g.bmp		0r_4g.bmp			TrialProc	TrialList	0	cvbn	-999999	17	190800	0	v	534	191334	152	-148	4	-8	-12	12	12	3	5	49	-10	0	-2	0	4	4	2	2	0	4
Hungry_Donkey_bar_English_2	116	2	<?xml version="1.0"?>\n<Clock xmlns:dt="urn:schemas-microsoft-com:datatypes"><Description dt:dt="string">E-Prime Primary Realtime Clock</Description><StartTime><Timestamp dt:dt="int">0</Timestamp><DateUtc dt:dt="string">2015-06-25T21:33:09Z</DateUtc></StartTime><FrequencyChanges><FrequencyChange><Frequency dt:dt="r8">3507695</Frequency><Timestamp dt:dt="r8">561897701778</Timestamp><Current dt:dt="r8">0</Current><DateUtc dt:dt="string">2015-06-25T21:33:09Z</DateUtc></FrequencyChange></FrequencyChanges></Clock>\n	Hungry_Donkey_bar_English_2-116-2	60.018	-154	1.0.0.18	1	-742343701	Standard	2.0.10.353	2.0.10.353	06-25-2015	6/25/2015 9:33:09 PM	17:33:09	2.0.10.248	50	Bar50-50.bmp	51	2	?	10r_4g.bmp	0r_4g.bmp	2r_2g.bmp	0r_2g.bmp		0r_4g.bmp			TrialProc	TrialList	0	cvbn	-999999	16	193365	0	v	417	193782	156	-148	8	-8	-8	12	12	2	5	50	-10	0	-2	0	4	4	2	2	0	4
Hungry_Donkey_bar_English_2	116	2	<?xml version="1.0"?>\n<Clock xmlns:dt="urn:schemas-microsoft-com:datatypes"><Description dt:dt="string">E-Prime Primary Realtime Clock</Description><StartTime><Timestamp dt:dt="int">0</Timestamp><DateUtc dt:dt="string">2015-06-25T21:33:09Z</DateUtc></StartTime><FrequencyChanges><FrequencyChange><Frequency dt:dt="r8">3507695</Frequency><Timestamp dt:dt="r8">561897701778</Timestamp><Current dt:dt="r8">0</Current><DateUtc dt:dt="string">2015-06-25T21:33:09Z</DateUtc></FrequencyChange></FrequencyChanges></Clock>\n	Hungry_Donkey_bar_English_2-116-2	60.018	-154	1.0.0.18	1	-742343701	Standard	2.0.10.353	2.0.10.353	06-25-2015	6/25/2015 9:33:09 PM	17:33:09	2.0.10.248	51	Bar50-50.bmp	52	4	?	0r_4g.bmp	0r_4g.bmp	0r_2g.bmp	0r_2g.bmp				0r_2g.bmp	TrialProc	TrialList	0	cvbn	-999999	16	195815	0	n	831	196646	158	-148	10	-8	-8	12	14	9	6	51	0	0	0	0	4	4	2	2	0	2
Hungry_Donkey_bar_English_2	116	2	<?xml version="1.0"?>\n<Clock xmlns:dt="urn:schemas-microsoft-com:datatypes"><Description dt:dt="string">E-Prime Primary Realtime Clock</Description><StartTime><Timestamp dt:dt="int">0</Timestamp><DateUtc dt:dt="string">2015-06-25T21:33:09Z</DateUtc></StartTime><FrequencyChanges><FrequencyChange><Frequency dt:dt="r8">3507695</Frequency><Timestamp dt:dt="r8">561897701778</Timestamp><Current dt:dt="r8">0</Current><DateUtc dt:dt="string">2015-06-25T21:33:09Z</DateUtc></FrequencyChange></FrequencyChanges></Clock>\n	Hungry_Donkey_bar_English_2-116-2	60.018	-154	1.0.0.18	1	-742343701	Standard	2.0.10.353	2.0.10.353	06-25-2015	6/25/2015 9:33:09 PM	17:33:09	2.0.10.248	52	Bar50-50.bmp	52	4	?	10r_4g.bmp	0r_4g.bmp	2r_2g.bmp	0r_2g.bmp				0r_2g.bmp	TrialProc	TrialList	0	cvbn	-999999	17	198681	0	n	445	199126	160	-148	12	-8	-8	12	16	3	6	52	-10	0	-2	0	4	4	2	2	0	2
Hungry_Donkey_bar_English_2	116	2	<?xml version="1.0"?>\n<Clock xmlns:dt="urn:schemas-microsoft-com:datatypes"><Description dt:dt="string">E-Prime Primary Realtime Clock</Description><StartTime><Timestamp dt:dt="int">0</Timestamp><DateUtc dt:dt="string">2015-06-25T21:33:09Z</DateUtc></StartTime><FrequencyChanges><FrequencyChange><Frequency dt:dt="r8">3507695</Frequency><Timestamp dt:dt="r8">561897701778</Timestamp><Current dt:dt="r8">0</Current><DateUtc dt:dt="string">2015-06-25T21:33:09Z</DateUtc></FrequencyChange></FrequencyChanges></Clock>\n	Hungry_Donkey_bar_English_2-116-2	60.018	-154	1.0.0.18	1	-742343701	Standard	2.0.10.353	2.0.10.353	06-25-2015	6/25/2015 9:33:09 PM	17:33:09	2.0.10.248	53	Bar50-50.bmp	53	2	?	10r_4g.bmp	0r_4g.bmp	2r_2g.bmp	0r_2g.bmp		0r_4g.bmp			TrialProc	TrialList	0	cvbn	-999999	16	201163	0	v	938	202101	164	-148	16	-8	-4	12	16	4	6	53	-10	0	-2	0	4	4	2	2	0	4
Hungry_Donkey_bar_English_2	116	2	<?xml version="1.0"?>\n<Clock xmlns:dt="urn:schemas-microsoft-com:datatypes"><Description dt:dt="string">E-Prime Primary Realtime Clock</Description><StartTime><Timestamp dt:dt="int">0</Timestamp><DateUtc dt:dt="string">2015-06-25T21:33:09Z</DateUtc></StartTime><FrequencyChanges><FrequencyChange><Frequency dt:dt="r8">3507695</Frequency><Timestamp dt:dt="r8">561897701778</Timestamp><Current dt:dt="r8">0</Current><DateUtc dt:dt="string">2015-06-25T21:33:09Z</DateUtc></FrequencyChange></FrequencyChanges></Clock>\n	Hungry_Donkey_bar_English_2-116-2	60.018	-154	1.0.0.18	1	-742343701	Standard	2.0.10.353	2.0.10.353	06-25-2015	6/25/2015 9:33:09 PM	17:33:09	2.0.10.248	54	Bar50-50.bmp	53	2	?	0r_4g.bmp	0r_4g.bmp	0r_2g.bmp	0r_2g.bmp		0r_4g.bmp			TrialProc	TrialList	0	cvbn	-999999	16	204129	0	v	1140	205269	168	-148	20	-8	0	12	16	7	6	54	0	0	0	0	4	4	2	2	0	4
Hungry_Donkey_bar_English_2	116	2	<?xml version="1.0"?>\n<Clock xmlns:dt="urn:schemas-microsoft-com:datatypes"><Description dt:dt="string">E-Prime Primary Realtime Clock</Description><StartTime><Timestamp dt:dt="int">0</Timestamp><DateUtc dt:dt="string">2015-06-25T21:33:09Z</DateUtc></StartTime><FrequencyChanges><FrequencyChange><Frequency dt:dt="r8">3507695</Frequency><Timestamp dt:dt="r8">561897701778</Timestamp><Current dt:dt="r8">0</Current><DateUtc dt:dt="string">2015-06-25T21:33:09Z</DateUtc></FrequencyChange></FrequencyChanges></Clock>\n	Hungry_Donkey_bar_English_2-116-2	60.018	-154	1.0.0.18	1	-742343701	Standard	2.0.10.353	2.0.10.353	06-25-2015	6/25/2015 9:33:09 PM	17:33:09	2.0.10.248	55	Bar50-50.bmp	52	1	?	12r_4g.bmp	0r_4g.bmp	3r_2g.bmp	0r_2g.bmp	12r_4g.bmp				TrialProc	TrialList	0	cvbn	-999999	16	207295	0	c	406	207701	172	-160	12	-16	0	12	16	5	6	55	-12	0	-3	0	4	4	2	2	-12	4
Hungry_Donkey_bar_English_2	116	2	<?xml version="1.0"?>\n<Clock xmlns:dt="urn:schemas-microsoft-com:datatypes"><Description dt:dt="string">E-Prime Primary Realtime Clock</Description><StartTime><Timestamp dt:dt="int">0</Timestamp><DateUtc dt:dt="string">2015-06-25T21:33:09Z</DateUtc></StartTime><FrequencyChanges><FrequencyChange><Frequency dt:dt="r8">3507695</Frequency><Timestamp dt:dt="r8">561897701778</Timestamp><Current dt:dt="r8">0</Current><DateUtc dt:dt="string">2015-06-25T21:33:09Z</DateUtc></FrequencyChange></FrequencyChanges></Clock>\n	Hungry_Donkey_bar_English_2-116-2	60.018	-154	1.0.0.18	1	-742343701	Standard	2.0.10.353	2.0.10.353	06-25-2015	6/25/2015 9:33:09 PM	17:33:09	2.0.10.248	56	Bar50-50.bmp	52	2	?	0r_4g.bmp	0r_4g.bmp	0r_2g.bmp	0r_2g.bmp		0r_4g.bmp			TrialProc	TrialList	0	cvbn	-999999	16	209744	0	v	485	210229	176	-160	16	-16	4	12	16	10	6	56	0	0	0	0	4	4	2	2	0	4
Hungry_Donkey_bar_English_2	116	2	<?xml version="1.0"?>\n<Clock xmlns:dt="urn:schemas-microsoft-com:datatypes"><Description dt:dt="string">E-Prime Primary Realtime Clock</Description><StartTime><Timestamp dt:dt="int">0</Timestamp><DateUtc dt:dt="string">2015-06-25T21:33:09Z</DateUtc></StartTime><FrequencyChanges><FrequencyChange><Frequency dt:dt="r8">3507695</Frequency><Timestamp dt:dt="r8">561897701778</Timestamp><Current dt:dt="r8">0</Current><DateUtc dt:dt="string">2015-06-25T21:33:09Z</DateUtc></FrequencyChange></FrequencyChanges></Clock>\n	Hungry_Donkey_bar_English_2-116-2	60.018	-154	1.0.0.18	1	-742343701	Standard	2.0.10.353	2.0.10.353	06-25-2015	6/25/2015 9:33:09 PM	17:33:09	2.0.10.248	57	Bar50-50.bmp	53	2	?	0r_4g.bmp	0r_4g.bmp	0r_2g.bmp	0r_2g.bmp		0r_4g.bmp			TrialProc	TrialList	0	cvbn	-999999	16	212260	0	v	641	212901	180	-160	20	-16	8	12	16	8	6	57	0	0	0	0	4	4	2	2	0	4
Hungry_Donkey_bar_English_2	116	2	<?xml version="1.0"?>\n<Clock xmlns:dt="urn:schemas-microsoft-com:datatypes"><Description dt:dt="string">E-Prime Primary Realtime Clock</Description><StartTime><Timestamp dt:dt="int">0</Timestamp><DateUtc dt:dt="string">2015-06-25T21:33:09Z</DateUtc></StartTime><FrequencyChanges><FrequencyChange><Frequency dt:dt="r8">3507695</Frequency><Timestamp dt:dt="r8">561897701778</Timestamp><Current dt:dt="r8">0</Current><DateUtc dt:dt="string">2015-06-25T21:33:09Z</DateUtc></FrequencyChange></FrequencyChanges></Clock>\n	Hungry_Donkey_bar_English_2-116-2	60.018	-154	1.0.0.18	1	-742343701	Standard	2.0.10.353	2.0.10.353	06-25-2015	6/25/2015 9:33:09 PM	17:33:09	2.0.10.248	58	Bar50-50.bmp	53	2	?	10r_4g.bmp	0r_4g.bmp	2r_2g.bmp	0r_2g.bmp		0r_4g.bmp			TrialProc	TrialList	0	cvbn	-999999	16	214926	0	v	391	215317	184	-160	24	-16	12	12	16	2	6	58	-10	0	-2	0	4	4	2	2	0	4
Hungry_Donkey_bar_English_2	116	2	<?xml version="1.0"?>\n<Clock xmlns:dt="urn:schemas-microsoft-com:datatypes"><Description dt:dt="string">E-Prime Primary Realtime Clock</Description><StartTime><Timestamp dt:dt="int">0</Timestamp><DateUtc dt:dt="string">2015-06-25T21:33:09Z</DateUtc></StartTime><FrequencyChanges><FrequencyChange><Frequency dt:dt="r8">3507695</Frequency><Timestamp dt:dt="r8">561897701778</Timestamp><Current dt:dt="r8">0</Current><DateUtc dt:dt="string">2015-06-25T21:33:09Z</DateUtc></FrequencyChange></FrequencyChanges></Clock>\n	Hungry_Donkey_bar_English_2-116-2	60.018	-154	1.0.0.18	1	-742343701	Standard	2.0.10.353	2.0.10.353	06-25-2015	6/25/2015 9:33:09 PM	17:33:09	2.0.10.248	59	Bar50-50.bmp	54	2	?	0r_4g.bmp	0r_4g.bmp	0r_2g.bmp	0r_2g.bmp		0r_4g.bmp			TrialProc	TrialList	0	cvbn	-999999	16	217342	0	v	407	217749	188	-160	28	-16	16	12	16	6	6	59	0	0	0	0	4	4	2	2	0	4
Hungry_Donkey_bar_English_2	116	2	<?xml version="1.0"?>\n<Clock xmlns:dt="urn:schemas-microsoft-com:datatypes"><Description dt:dt="string">E-Prime Primary Realtime Clock</Description><StartTime><Timestamp dt:dt="int">0</Timestamp><DateUtc dt:dt="string">2015-06-25T21:33:09Z</DateUtc></StartTime><FrequencyChanges><FrequencyChange><Frequency dt:dt="r8">3507695</Frequency><Timestamp dt:dt="r8">561897701778</Timestamp><Current dt:dt="r8">0</Current><DateUtc dt:dt="string">2015-06-25T21:33:09Z</DateUtc></FrequencyChange></FrequencyChanges></Clock>\n	Hungry_Donkey_bar_English_2-116-2	60.018	-154	1.0.0.18	1	-742343701	Standard	2.0.10.353	2.0.10.353	06-25-2015	6/25/2015 9:33:09 PM	17:33:09	2.0.10.248	60	Bar50-50.bmp	54	3	?	8r_4g.bmp	50r_4g.bmp	1r_2g.bmp	10r_2g.bmp			1r_2g.bmp		TrialProc	TrialList	0	cvbn	-999999	16	219774	0	b	326	220100	190	-161	29	-16	16	13	16	1	6	60	-8	-50	-1	-10	4	4	2	2	-1	2
Hungry_Donkey_bar_English_2	116	2	<?xml version="1.0"?>\n<Clock xmlns:dt="urn:schemas-microsoft-com:datatypes"><Description dt:dt="string">E-Prime Primary Realtime Clock</Description><StartTime><Timestamp dt:dt="int">0</Timestamp><DateUtc dt:dt="string">2015-06-25T21:33:09Z</DateUtc></StartTime><FrequencyChanges><FrequencyChange><Frequency dt:dt="r8">3507695</Frequency><Timestamp dt:dt="r8">561897701778</Timestamp><Current dt:dt="r8">0</Current><DateUtc dt:dt="string">2015-06-25T21:33:09Z</DateUtc></FrequencyChange></FrequencyChanges></Clock>\n	Hungry_Donkey_bar_English_2-116-2	60.018	-154	1.0.0.18	1	-742343701	Standard	2.0.10.353	2.0.10.353	06-25-2015	6/25/2015 9:33:09 PM	17:33:09	2.0.10.248	61	Bar50-50.bmp	55	2	?	10r_4g.bmp	0r_4g.bmp	2r_2g.bmp	0r_2g.bmp		0r_4g.bmp			TrialProc	TrialList	0	cvbn	-999999	16	222140	0	v	552	222692	194	-161	33	-16	20	13	16	2	7	61	-10	0	-2	0	4	4	2	2	0	4
Hungry_Donkey_bar_English_2	116	2	<?xml version="1.0"?>\n<Clock xmlns:dt="urn:schemas-microsoft-com:datatypes"><Description dt:dt="string">E-Prime Primary Realtime Clock</Description><StartTime><Timestamp dt:dt="int">0</Timestamp><DateUtc dt:dt="string">2015-06-25T21:33:09Z</DateUtc></StartTime><FrequencyChanges><FrequencyChange><Frequency dt:dt="r8">3507695</Frequency><Timestamp dt:dt="r8">561897701778</Timestamp><Current dt:dt="r8">0</Current><DateUtc dt:dt="string">2015-06-25T21:33:09Z</DateUtc></FrequencyChange></FrequencyChanges></Clock>\n	Hungry_Donkey_bar_English_2-116-2	60.018	-154	1.0.0.18	1	-742343701	Standard	2.0.10.353	2.0.10.353	06-25-2015	6/25/2015 9:33:09 PM	17:33:09	2.0.10.248	62	Bar50-50.bmp	55	2	?	0r_4g.bmp	0r_4g.bmp	0r_2g.bmp	0r_2g.bmp		0r_4g.bmp			TrialProc	TrialList	0	cvbn	-999999	16	224723	0	v	705	225428	198	-161	37	-16	24	13	16	10	7	62	0	0	0	0	4	4	2	2	0	4
Hungry_Donkey_bar_English_2	116	2	<?xml version="1.0"?>\n<Clock xmlns:dt="urn:schemas-microsoft-com:datatypes"><Description dt:dt="string">E-Prime Primary Realtime Clock</Description><StartTime><Timestamp dt:dt="int">0</Timestamp><DateUtc dt:dt="string">2015-06-25T21:33:09Z</DateUtc></StartTime><FrequencyChanges><FrequencyChange><Frequency dt:dt="r8">3507695</Frequency><Timestamp dt:dt="r8">561897701778</Timestamp><Current dt:dt="r8">0</Current><DateUtc dt:dt="string">2015-06-25T21:33:09Z</DateUtc></FrequencyChange></FrequencyChanges></Clock>\n	Hungry_Donkey_bar_English_2-116-2	60.018	-154	1.0.0.18	1	-742343701	Standard	2.0.10.353	2.0.10.353	06-25-2015	6/25/2015 9:33:09 PM	17:33:09	2.0.10.248	63	Bar50-50.bmp	56	2	?	0r_4g.bmp	0r_4g.bmp	0r_2g.bmp	0r_2g.bmp		0r_4g.bmp			TrialProc	TrialList	0	cvbn	-999999	16	227455	0	v	581	228036	202	-161	41	-16	28	13	16	9	7	63	0	0	0	0	4	4	2	2	0	4
Hungry_Donkey_bar_English_2	116	2	<?xml version="1.0"?>\n<Clock xmlns:dt="urn:schemas-microsoft-com:datatypes"><Description dt:dt="string">E-Prime Primary Realtime Clock</Description><StartTime><Timestamp dt:dt="int">0</Timestamp><DateUtc dt:dt="string">2015-06-25T21:33:09Z</DateUtc></StartTime><FrequencyChanges><FrequencyChange><Frequency dt:dt="r8">3507695</Frequency><Timestamp dt:dt="r8">561897701778</Timestamp><Current dt:dt="r8">0</Current><DateUtc dt:dt="string">2015-06-25T21:33:09Z</DateUtc></FrequencyChange></FrequencyChanges></Clock>\n	Hungry_Donkey_bar_English_2-116-2	60.018	-154	1.0.0.18	1	-742343701	Standard	2.0.10.353	2.0.10.353	06-25-2015	6/25/2015 9:33:09 PM	17:33:09	2.0.10.248	64	Bar50-50.bmp	56	4	?	12r_4g.bmp	0r_4g.bmp	3r_2g.bmp	0r_2g.bmp				0r_2g.bmp	TrialProc	TrialList	0	cvbn	-999999	16	230071	0	n	877	230948	204	-161	43	-16	28	13	18	5	7	64	-12	0	-3	0	4	4	2	2	0	2
Hungry_Donkey_bar_English_2	116	2	<?xml version="1.0"?>\n<Clock xmlns:dt="urn:schemas-microsoft-com:datatypes"><Description dt:dt="string">E-Prime Primary Realtime Clock</Description><StartTime><Timestamp dt:dt="int">0</Timestamp><DateUtc dt:dt="string">2015-06-25T21:33:09Z</DateUtc></StartTime><FrequencyChanges><FrequencyChange><Frequency dt:dt="r8">3507695</Frequency><Timestamp dt:dt="r8">561897701778</Timestamp><Current dt:dt="r8">0</Current><DateUtc dt:dt="string">2015-06-25T21:33:09Z</DateUtc></FrequencyChange></FrequencyChanges></Clock>\n	Hungry_Donkey_bar_English_2-116-2	60.018	-154	1.0.0.18	1	-742343701	Standard	2.0.10.353	2.0.10.353	06-25-2015	6/25/2015 9:33:09 PM	17:33:09	2.0.10.248	65	Bar50-50.bmp	56	2	?	10r_4g.bmp	0r_4g.bmp	2r_2g.bmp	0r_2g.bmp		0r_4g.bmp			TrialProc	TrialList	0	cvbn	-999999	16	232987	0	v	473	233460	208	-161	47	-16	32	13	18	4	7	65	-10	0	-2	0	4	4	2	2	0	4
Hungry_Donkey_bar_English_2	116	2	<?xml version="1.0"?>\n<Clock xmlns:dt="urn:schemas-microsoft-com:datatypes"><Description dt:dt="string">E-Prime Primary Realtime Clock</Description><StartTime><Timestamp dt:dt="int">0</Timestamp><DateUtc dt:dt="string">2015-06-25T21:33:09Z</DateUtc></StartTime><FrequencyChanges><FrequencyChange><Frequency dt:dt="r8">3507695</Frequency><Timestamp dt:dt="r8">561897701778</Timestamp><Current dt:dt="r8">0</Current><DateUtc dt:dt="string">2015-06-25T21:33:09Z</DateUtc></FrequencyChange></FrequencyChanges></Clock>\n	Hungry_Donkey_bar_English_2-116-2	60.018	-154	1.0.0.18	1	-742343701	Standard	2.0.10.353	2.0.10.353	06-25-2015	6/25/2015 9:33:09 PM	17:33:09	2.0.10.248	66	Bar63-37.bmp	57	2	?	0r_4g.bmp	0r_4g.bmp	0r_2g.bmp	0r_2g.bmp		0r_4g.bmp			TrialProc	TrialList	0	cvbn	-999999	16	235486	0	v	294	235780	212	-161	51	-16	36	13	18	8	7	66	0	0	0	0	4	4	2	2	0	4
Hungry_Donkey_bar_English_2	116	2	<?xml version="1.0"?>\n<Clock xmlns:dt="urn:schemas-microsoft-com:datatypes"><Description dt:dt="string">E-Prime Primary Realtime Clock</Description><StartTime><Timestamp dt:dt="int">0</Timestamp><DateUtc dt:dt="string">2015-06-25T21:33:09Z</DateUtc></StartTime><FrequencyChanges><FrequencyChange><Frequency dt:dt="r8">3507695</Frequency><Timestamp dt:dt="r8">561897701778</Timestamp><Current dt:dt="r8">0</Current><DateUtc dt:dt="string">2015-06-25T21:33:09Z</DateUtc></FrequencyChange></FrequencyChanges></Clock>\n	Hungry_Donkey_bar_English_2-116-2	60.018	-154	1.0.0.18	1	-742343701	Standard	2.0.10.353	2.0.10.353	06-25-2015	6/25/2015 9:33:09 PM	17:33:09	2.0.10.248	67	Bar63-37.bmp	57	4	?	0r_4g.bmp	0r_4g.bmp	0r_2g.bmp	0r_2g.bmp				0r_2g.bmp	TrialProc	TrialList	0	cvbn	-999999	15	237802	0	n	1241	239043	214	-161	53	-16	36	13	20	6	7	67	0	0	0	0	4	4	2	2	0	2
Hungry_Donkey_bar_English_2	116	2	<?xml version="1.0"?>\n<Clock xmlns:dt="urn:schemas-microsoft-com:datatypes"><Description dt:dt="string">E-Prime Primary Realtime Clock</Description><StartTime><Timestamp dt:dt="int">0</Timestamp><DateUtc dt:dt="string">2015-06-25T21:33:09Z</DateUtc></StartTime><FrequencyChanges><FrequencyChange><Frequency dt:dt="r8">3507695</Frequency><Timestamp dt:dt="r8">561897701778</Timestamp><Current dt:dt="r8">0</Current><DateUtc dt:dt="string">2015-06-25T21:33:09Z</DateUtc></FrequencyChange></FrequencyChanges></Clock>\n	Hungry_Donkey_bar_English_2-116-2	60.018	-154	1.0.0.18	1	-742343701	Standard	2.0.10.353	2.0.10.353	06-25-2015	6/25/2015 9:33:09 PM	17:33:09	2.0.10.248	68	Bar63-37.bmp	58	2	?	10r_4g.bmp	0r_4g.bmp	2r_2g.bmp	0r_2g.bmp		0r_4g.bmp			TrialProc	TrialList	0	cvbn	-999999	16	241068	0	v	631	241699	218	-161	57	-16	40	13	20	3	7	68	-10	0	-2	0	4	4	2	2	0	4
Hungry_Donkey_bar_English_2	116	2	<?xml version="1.0"?>\n<Clock xmlns:dt="urn:schemas-microsoft-com:datatypes"><Description dt:dt="string">E-Prime Primary Realtime Clock</Description><StartTime><Timestamp dt:dt="int">0</Timestamp><DateUtc dt:dt="string">2015-06-25T21:33:09Z</DateUtc></StartTime><FrequencyChanges><FrequencyChange><Frequency dt:dt="r8">3507695</Frequency><Timestamp dt:dt="r8">561897701778</Timestamp><Current dt:dt="r8">0</Current><DateUtc dt:dt="string">2015-06-25T21:33:09Z</DateUtc></FrequencyChange></FrequencyChanges></Clock>\n	Hungry_Donkey_bar_English_2-116-2	60.018	-154	1.0.0.18	1	-742343701	Standard	2.0.10.353	2.0.10.353	06-25-2015	6/25/2015 9:33:09 PM	17:33:09	2.0.10.248	69	Bar63-37.bmp	58	2	?	0r_4g.bmp	0r_4g.bmp	0r_2g.bmp	0r_2g.bmp		0r_4g.bmp			TrialProc	TrialList	0	cvbn	-999999	16	243734	0	v	445	244179	222	-161	61	-16	44	13	20	7	7	69	0	0	0	0	4	4	2	2	0	4
Hungry_Donkey_bar_English_2	116	2	<?xml version="1.0"?>\n<Clock xmlns:dt="urn:schemas-microsoft-com:datatypes"><Description dt:dt="string">E-Prime Primary Realtime Clock</Description><StartTime><Timestamp dt:dt="int">0</Timestamp><DateUtc dt:dt="string">2015-06-25T21:33:09Z</DateUtc></StartTime><FrequencyChanges><FrequencyChange><Frequency dt:dt="r8">3507695</Frequency><Timestamp dt:dt="r8">561897701778</Timestamp><Current dt:dt="r8">0</Current><DateUtc dt:dt="string">2015-06-25T21:33:09Z</DateUtc></FrequencyChange></FrequencyChanges></Clock>\n	Hungry_Donkey_bar_English_2-116-2	60.018	-154	1.0.0.18	1	-742343701	Standard	2.0.10.353	2.0.10.353	06-25-2015	6/25/2015 9:33:09 PM	17:33:09	2.0.10.248	70	Bar50-50.bmp	52	2	?	8r_4g.bmp	50r_4g.bmp	1r_2g.bmp	10r_2g.bmp		50r_4g.bmp			TrialProc	TrialList	0	cvbn	-999999	16	246217	0	v	538	246755	226	-211	15	-16	-2	13	20	1	7	70	-8	-50	-1	-10	4	4	2	2	-50	4
Hungry_Donkey_bar_English_2	116	2	<?xml version="1.0"?>\n<Clock xmlns:dt="urn:schemas-microsoft-com:datatypes"><Description dt:dt="string">E-Prime Primary Realtime Clock</Description><StartTime><Timestamp dt:dt="int">0</Timestamp><DateUtc dt:dt="string">2015-06-25T21:33:09Z</DateUtc></StartTime><FrequencyChanges><FrequencyChange><Frequency dt:dt="r8">3507695</Frequency><Timestamp dt:dt="r8">561897701778</Timestamp><Current dt:dt="r8">0</Current><DateUtc dt:dt="string">2015-06-25T21:33:09Z</DateUtc></FrequencyChange></FrequencyChanges></Clock>\n	Hungry_Donkey_bar_English_2-116-2	60.018	-154	1.0.0.18	1	-742343701	Standard	2.0.10.353	2.0.10.353	06-25-2015	6/25/2015 9:33:09 PM	17:33:09	2.0.10.248	71	Bar50-50.bmp	52	4	?	0r_4g.bmp	0r_4g.bmp	0r_2g.bmp	0r_2g.bmp				0r_2g.bmp	TrialProc	TrialList	0	cvbn	-999999	16	248783	0	n	1300	250083	228	-211	17	-16	-2	13	22	10	8	71	0	0	0	0	4	4	2	2	0	2
Hungry_Donkey_bar_English_2	116	2	<?xml version="1.0"?>\n<Clock xmlns:dt="urn:schemas-microsoft-com:datatypes"><Description dt:dt="string">E-Prime Primary Realtime Clock</Description><StartTime><Timestamp dt:dt="int">0</Timestamp><DateUtc dt:dt="string">2015-06-25T21:33:09Z</DateUtc></StartTime><FrequencyChanges><FrequencyChange><Frequency dt:dt="r8">3507695</Frequency><Timestamp dt:dt="r8">561897701778</Timestamp><Current dt:dt="r8">0</Current><DateUtc dt:dt="string">2015-06-25T21:33:09Z</DateUtc></FrequencyChange></FrequencyChanges></Clock>\n	Hungry_Donkey_bar_English_2-116-2	60.018	-154	1.0.0.18	1	-742343701	Standard	2.0.10.353	2.0.10.353	06-25-2015	6/25/2015 9:33:09 PM	17:33:09	2.0.10.248	72	Bar50-50.bmp	52	4	?	10r_4g.bmp	0r_4g.bmp	2r_2g.bmp	0r_2g.bmp				0r_2g.bmp	TrialProc	TrialList	0	cvbn	-999999	16	252115	0	n	576	252691	230	-211	19	-16	-2	13	24	4	8	72	-10	0	-2	0	4	4	2	2	0	2
Hungry_Donkey_bar_English_2	116	2	<?xml version="1.0"?>\n<Clock xmlns:dt="urn:schemas-microsoft-com:datatypes"><Description dt:dt="string">E-Prime Primary Realtime Clock</Description><StartTime><Timestamp dt:dt="int">0</Timestamp><DateUtc dt:dt="string">2015-06-25T21:33:09Z</DateUtc></StartTime><FrequencyChanges><FrequencyChange><Frequency dt:dt="r8">3507695</Frequency><Timestamp dt:dt="r8">561897701778</Timestamp><Current dt:dt="r8">0</Current><DateUtc dt:dt="string">2015-06-25T21:33:09Z</DateUtc></FrequencyChange></FrequencyChanges></Clock>\n	Hungry_Donkey_bar_English_2-116-2	60.018	-154	1.0.0.18	1	-742343701	Standard	2.0.10.353	2.0.10.353	06-25-2015	6/25/2015 9:33:09 PM	17:33:09	2.0.10.248	73	Bar50-50.bmp	52	4	?	0r_4g.bmp	0r_4g.bmp	0r_2g.bmp	0r_2g.bmp				0r_2g.bmp	TrialProc	TrialList	0	cvbn	-999999	16	254731	0	n	328	255059	232	-211	21	-16	-2	13	26	6	8	73	0	0	0	0	4	4	2	2	0	2
Hungry_Donkey_bar_English_2	116	2	<?xml version="1.0"?>\n<Clock xmlns:dt="urn:schemas-microsoft-com:datatypes"><Description dt:dt="string">E-Prime Primary Realtime Clock</Description><StartTime><Timestamp dt:dt="int">0</Timestamp><DateUtc dt:dt="string">2015-06-25T21:33:09Z</DateUtc></StartTime><FrequencyChanges><FrequencyChange><Frequency dt:dt="r8">3507695</Frequency><Timestamp dt:dt="r8">561897701778</Timestamp><Current dt:dt="r8">0</Current><DateUtc dt:dt="string">2015-06-25T21:33:09Z</DateUtc></FrequencyChange></FrequencyChanges></Clock>\n	Hungry_Donkey_bar_English_2-116-2	60.018	-154	1.0.0.18	1	-742343701	Standard	2.0.10.353	2.0.10.353	06-25-2015	6/25/2015 9:33:09 PM	17:33:09	2.0.10.248	74	Bar50-50.bmp	53	4	?	10r_4g.bmp	0r_4g.bmp	2r_2g.bmp	0r_2g.bmp				0r_2g.bmp	TrialProc	TrialList	0	cvbn	-999999	16	257097	0	n	297	257394	234	-211	23	-16	-2	13	28	3	8	74	-10	0	-2	0	4	4	2	2	0	2
Hungry_Donkey_bar_English_2	116	2	<?xml version="1.0"?>\n<Clock xmlns:dt="urn:schemas-microsoft-com:datatypes"><Description dt:dt="string">E-Prime Primary Realtime Clock</Description><StartTime><Timestamp dt:dt="int">0</Timestamp><DateUtc dt:dt="string">2015-06-25T21:33:09Z</DateUtc></StartTime><FrequencyChanges><FrequencyChange><Frequency dt:dt="r8">3507695</Frequency><Timestamp dt:dt="r8">561897701778</Timestamp><Current dt:dt="r8">0</Current><DateUtc dt:dt="string">2015-06-25T21:33:09Z</DateUtc></FrequencyChange></FrequencyChanges></Clock>\n	Hungry_Donkey_bar_English_2-116-2	60.018	-154	1.0.0.18	1	-742343701	Standard	2.0.10.353	2.0.10.353	06-25-2015	6/25/2015 9:33:09 PM	17:33:09	2.0.10.248	75	Bar50-50.bmp	48	2	?	8r_4g.bmp	50r_4g.bmp	1r_2g.bmp	10r_2g.bmp		50r_4g.bmp			TrialProc	TrialList	0	cvbn	-999999	16	259429	0	v	301	259730	238	-261	-23	-16	-48	13	28	1	8	75	-8	-50	-1	-10	4	4	2	2	-50	4
Hungry_Donkey_bar_English_2	116	2	<?xml version="1.0"?>\n<Clock xmlns:dt="urn:schemas-microsoft-com:datatypes"><Description dt:dt="string">E-Prime Primary Realtime Clock</Description><StartTime><Timestamp dt:dt="int">0</Timestamp><DateUtc dt:dt="string">2015-06-25T21:33:09Z</DateUtc></StartTime><FrequencyChanges><FrequencyChange><Frequency dt:dt="r8">3507695</Frequency><Timestamp dt:dt="r8">561897701778</Timestamp><Current dt:dt="r8">0</Current><DateUtc dt:dt="string">2015-06-25T21:33:09Z</DateUtc></FrequencyChange></FrequencyChanges></Clock>\n	Hungry_Donkey_bar_English_2-116-2	60.018	-154	1.0.0.18	1	-742343701	Standard	2.0.10.353	2.0.10.353	06-25-2015	6/25/2015 9:33:09 PM	17:33:09	2.0.10.248	76	Bar50-50.bmp	48	4	?	12r_4g.bmp	0r_4g.bmp	3r_2g.bmp	0r_2g.bmp				0r_2g.bmp	TrialProc	TrialList	0	cvbn	-999999	16	261762	0	n	704	262466	240	-261	-21	-16	-48	13	30	5	8	76	-12	0	-3	0	4	4	2	2	0	2
Hungry_Donkey_bar_English_2	116	2	<?xml version="1.0"?>\n<Clock xmlns:dt="urn:schemas-microsoft-com:datatypes"><Description dt:dt="string">E-Prime Primary Realtime Clock</Description><StartTime><Timestamp dt:dt="int">0</Timestamp><DateUtc dt:dt="string">2015-06-25T21:33:09Z</DateUtc></StartTime><FrequencyChanges><FrequencyChange><Frequency dt:dt="r8">3507695</Frequency><Timestamp dt:dt="r8">561897701778</Timestamp><Current dt:dt="r8">0</Current><DateUtc dt:dt="string">2015-06-25T21:33:09Z</DateUtc></FrequencyChange></FrequencyChanges></Clock>\n	Hungry_Donkey_bar_English_2-116-2	60.018	-154	1.0.0.18	1	-742343701	Standard	2.0.10.353	2.0.10.353	06-25-2015	6/25/2015 9:33:09 PM	17:33:09	2.0.10.248	77	Bar50-50.bmp	48	2	?	0r_4g.bmp	0r_4g.bmp	0r_2g.bmp	0r_2g.bmp		0r_4g.bmp			TrialProc	TrialList	0	cvbn	-999999	16	264495	0	v	371	264866	244	-261	-17	-16	-44	13	30	7	8	77	0	0	0	0	4	4	2	2	0	4
Hungry_Donkey_bar_English_2	116	2	<?xml version="1.0"?>\n<Clock xmlns:dt="urn:schemas-microsoft-com:datatypes"><Description dt:dt="string">E-Prime Primary Realtime Clock</Description><StartTime><Timestamp dt:dt="int">0</Timestamp><DateUtc dt:dt="string">2015-06-25T21:33:09Z</DateUtc></StartTime><FrequencyChanges><FrequencyChange><Frequency dt:dt="r8">3507695</Frequency><Timestamp dt:dt="r8">561897701778</Timestamp><Current dt:dt="r8">0</Current><DateUtc dt:dt="string">2015-06-25T21:33:09Z</DateUtc></FrequencyChange></FrequencyChanges></Clock>\n	Hungry_Donkey_bar_English_2-116-2	60.018	-154	1.0.0.18	1	-742343701	Standard	2.0.10.353	2.0.10.353	06-25-2015	6/25/2015 9:33:09 PM	17:33:09	2.0.10.248	78	Bar50-50.bmp	49	2	?	10r_4g.bmp	0r_4g.bmp	2r_2g.bmp	0r_2g.bmp		0r_4g.bmp			TrialProc	TrialList	0	cvbn	-999999	16	266894	0	v	292	267186	248	-261	-13	-16	-40	13	30	2	8	78	-10	0	-2	0	4	4	2	2	0	4
Hungry_Donkey_bar_English_2	116	2	<?xml version="1.0"?>\n<Clock xmlns:dt="urn:schemas-microsoft-com:datatypes"><Description dt:dt="string">E-Prime Primary Realtime Clock</Description><StartTime><Timestamp dt:dt="int">0</Timestamp><DateUtc dt:dt="string">2015-06-25T21:33:09Z</DateUtc></StartTime><FrequencyChanges><FrequencyChange><Frequency dt:dt="r8">3507695</Frequency><Timestamp dt:dt="r8">561897701778</Timestamp><Current dt:dt="r8">0</Current><DateUtc dt:dt="string">2015-06-25T21:33:09Z</DateUtc></FrequencyChange></FrequencyChanges></Clock>\n	Hungry_Donkey_bar_English_2-116-2	60.018	-154	1.0.0.18	1	-742343701	Standard	2.0.10.353	2.0.10.353	06-25-2015	6/25/2015 9:33:09 PM	17:33:09	2.0.10.248	79	Bar50-50.bmp	49	2	?	0r_4g.bmp	0r_4g.bmp	0r_2g.bmp	0r_2g.bmp		0r_4g.bmp			TrialProc	TrialList	0	cvbn	-999999	16	269227	0	v	295	269522	252	-261	-9	-16	-36	13	30	8	8	79	0	0	0	0	4	4	2	2	0	4
Hungry_Donkey_bar_English_2	116	2	<?xml version="1.0"?>\n<Clock xmlns:dt="urn:schemas-microsoft-com:datatypes"><Description dt:dt="string">E-Prime Primary Realtime Clock</Description><StartTime><Timestamp dt:dt="int">0</Timestamp><DateUtc dt:dt="string">2015-06-25T21:33:09Z</DateUtc></StartTime><FrequencyChanges><FrequencyChange><Frequency dt:dt="r8">3507695</Frequency><Timestamp dt:dt="r8">561897701778</Timestamp><Current dt:dt="r8">0</Current><DateUtc dt:dt="string">2015-06-25T21:33:09Z</DateUtc></FrequencyChange></FrequencyChanges></Clock>\n	Hungry_Donkey_bar_English_2-116-2	60.018	-154	1.0.0.18	1	-742343701	Standard	2.0.10.353	2.0.10.353	06-25-2015	6/25/2015 9:33:09 PM	17:33:09	2.0.10.248	80	Bar50-50.bmp	50	2	?	0r_4g.bmp	0r_4g.bmp	0r_2g.bmp	0r_2g.bmp		0r_4g.bmp			TrialProc	TrialList	0	cvbn	-999999	16	271559	0	v	283	271842	256	-261	-5	-16	-32	13	30	9	8	80	0	0	0	0	4	4	2	2	0	4
Hungry_Donkey_bar_English_2	116	2	<?xml version="1.0"?>\n<Clock xmlns:dt="urn:schemas-microsoft-com:datatypes"><Description dt:dt="string">E-Prime Primary Realtime Clock</Description><StartTime><Timestamp dt:dt="int">0</Timestamp><DateUtc dt:dt="string">2015-06-25T21:33:09Z</DateUtc></StartTime><FrequencyChanges><FrequencyChange><Frequency dt:dt="r8">3507695</Frequency><Timestamp dt:dt="r8">561897701778</Timestamp><Current dt:dt="r8">0</Current><DateUtc dt:dt="string">2015-06-25T21:33:09Z</DateUtc></FrequencyChange></FrequencyChanges></Clock>\n	Hungry_Donkey_bar_English_2-116-2	60.018	-154	1.0.0.18	1	-742343701	Standard	2.0.10.353	2.0.10.353	06-25-2015	6/25/2015 9:33:09 PM	17:33:09	2.0.10.248	81	Bar50-50.bmp	50	2	?	10r_4g.bmp	0r_4g.bmp	2r_2g.bmp	0r_2g.bmp		0r_4g.bmp			TrialProc	TrialList	0	cvbn	-999999	16	273875	0	v	286	274161	260	-261	-1	-16	-28	13	30	2	9	81	-10	0	-2	0	4	4	2	2	0	4
Hungry_Donkey_bar_English_2	116	2	<?xml version="1.0"?>\n<Clock xmlns:dt="urn:schemas-microsoft-com:datatypes"><Description dt:dt="string">E-Prime Primary Realtime Clock</Description><StartTime><Timestamp dt:dt="int">0</Timestamp><DateUtc dt:dt="string">2015-06-25T21:33:09Z</DateUtc></StartTime><FrequencyChanges><FrequencyChange><Frequency dt:dt="r8">3507695</Frequency><Timestamp dt:dt="r8">561897701778</Timestamp><Current dt:dt="r8">0</Current><DateUtc dt:dt="string">2015-06-25T21:33:09Z</DateUtc></FrequencyChange></FrequencyChanges></Clock>\n	Hungry_Donkey_bar_English_2-116-2	60.018	-154	1.0.0.18	1	-742343701	Standard	2.0.10.353	2.0.10.353	06-25-2015	6/25/2015 9:33:09 PM	17:33:09	2.0.10.248	82	Bar50-50.bmp	50	4	?	0r_4g.bmp	0r_4g.bmp	0r_2g.bmp	0r_2g.bmp				0r_2g.bmp	TrialProc	TrialList	0	cvbn	-999999	16	276191	0	n	290	276481	262	-261	1	-16	-28	13	32	9	9	82	0	0	0	0	4	4	2	2	0	2
Hungry_Donkey_bar_English_2	116	2	<?xml version="1.0"?>\n<Clock xmlns:dt="urn:schemas-microsoft-com:datatypes"><Description dt:dt="string">E-Prime Primary Realtime Clock</Description><StartTime><Timestamp dt:dt="int">0</Timestamp><DateUtc dt:dt="string">2015-06-25T21:33:09Z</DateUtc></StartTime><FrequencyChanges><FrequencyChange><Frequency dt:dt="r8">3507695</Frequency><Timestamp dt:dt="r8">561897701778</Timestamp><Current dt:dt="r8">0</Current><DateUtc dt:dt="string">2015-06-25T21:33:09Z</DateUtc></FrequencyChange></FrequencyChanges></Clock>\n	Hungry_Donkey_bar_English_2-116-2	60.018	-154	1.0.0.18	1	-742343701	Standard	2.0.10.353	2.0.10.353	06-25-2015	6/25/2015 9:33:09 PM	17:33:09	2.0.10.248	83	Bar50-50.bmp	49	4	?	8r_4g.bmp	50r_4g.bmp	1r_2g.bmp	10r_2g.bmp				10r_2g.bmp	TrialProc	TrialList	0	cvbn	-999999	15	278507	0	n	310	278817	264	-271	-7	-16	-28	13	24	1	9	83	-8	-50	-1	-10	4	4	2	2	-10	2
Hungry_Donkey_bar_English_2	116	2	<?xml version="1.0"?>\n<Clock xmlns:dt="urn:schemas-microsoft-com:datatypes"><Description dt:dt="string">E-Prime Primary Realtime Clock</Description><StartTime><Timestamp dt:dt="int">0</Timestamp><DateUtc dt:dt="string">2015-06-25T21:33:09Z</DateUtc></StartTime><FrequencyChanges><FrequencyChange><Frequency dt:dt="r8">3507695</Frequency><Timestamp dt:dt="r8">561897701778</Timestamp><Current dt:dt="r8">0</Current><DateUtc dt:dt="string">2015-06-25T21:33:09Z</DateUtc></FrequencyChange></FrequencyChanges></Clock>\n	Hungry_Donkey_bar_English_2-116-2	60.018	-154	1.0.0.18	1	-742343701	Standard	2.0.10.353	2.0.10.353	06-25-2015	6/25/2015 9:33:09 PM	17:33:09	2.0.10.248	84	Bar50-50.bmp	50	4	?	12r_4g.bmp	0r_4g.bmp	3r_2g.bmp	0r_2g.bmp				0r_2g.bmp	TrialProc	TrialList	0	cvbn	-999999	16	280857	0	n	312	281169	266	-271	-5	-16	-28	13	26	5	9	84	-12	0	-3	0	4	4	2	2	0	2
Hungry_Donkey_bar_English_2	116	2	<?xml version="1.0"?>\n<Clock xmlns:dt="urn:schemas-microsoft-com:datatypes"><Description dt:dt="string">E-Prime Primary Realtime Clock</Description><StartTime><Timestamp dt:dt="int">0</Timestamp><DateUtc dt:dt="string">2015-06-25T21:33:09Z</DateUtc></StartTime><FrequencyChanges><FrequencyChange><Frequency dt:dt="r8">3507695</Frequency><Timestamp dt:dt="r8">561897701778</Timestamp><Current dt:dt="r8">0</Current><DateUtc dt:dt="string">2015-06-25T21:33:09Z</DateUtc></FrequencyChange></FrequencyChanges></Clock>\n	Hungry_Donkey_bar_English_2-116-2	60.018	-154	1.0.0.18	1	-742343701	Standard	2.0.10.353	2.0.10.353	06-25-2015	6/25/2015 9:33:09 PM	17:33:09	2.0.10.248	85	Bar50-50.bmp	50	2	?	10r_4g.bmp	0r_4g.bmp	2r_2g.bmp	0r_2g.bmp		0r_4g.bmp			TrialProc	TrialList	0	cvbn	-999999	16	283206	0	v	283	283489	270	-271	-1	-16	-24	13	26	3	9	85	-10	0	-2	0	4	4	2	2	0	4
Hungry_Donkey_bar_English_2	116	2	<?xml version="1.0"?>\n<Clock xmlns:dt="urn:schemas-microsoft-com:datatypes"><Description dt:dt="string">E-Prime Primary Realtime Clock</Description><StartTime><Timestamp dt:dt="int">0</Timestamp><DateUtc dt:dt="string">2015-06-25T21:33:09Z</DateUtc></StartTime><FrequencyChanges><FrequencyChange><Frequency dt:dt="r8">3507695</Frequency><Timestamp dt:dt="r8">561897701778</Timestamp><Current dt:dt="r8">0</Current><DateUtc dt:dt="string">2015-06-25T21:33:09Z</DateUtc></FrequencyChange></FrequencyChanges></Clock>\n	Hungry_Donkey_bar_English_2-116-2	60.018	-154	1.0.0.18	1	-742343701	Standard	2.0.10.353	2.0.10.353	06-25-2015	6/25/2015 9:33:09 PM	17:33:09	2.0.10.248	86	Bar50-50.bmp	50	2	?	0r_4g.bmp	0r_4g.bmp	0r_2g.bmp	0r_2g.bmp		0r_4g.bmp			TrialProc	TrialList	0	cvbn	-999999	16	285522	0	v	415	285937	274	-271	3	-16	-20	13	26	10	9	86	0	0	0	0	4	4	2	2	0	4
Hungry_Donkey_bar_English_2	116	2	<?xml version="1.0"?>\n<Clock xmlns:dt="urn:schemas-microsoft-com:datatypes"><Description dt:dt="string">E-Prime Primary Realtime Clock</Description><StartTime><Timestamp dt:dt="int">0</Timestamp><DateUtc dt:dt="string">2015-06-25T21:33:09Z</DateUtc></StartTime><FrequencyChanges><FrequencyChange><Frequency dt:dt="r8">3507695</Frequency><Timestamp dt:dt="r8">561897701778</Timestamp><Current dt:dt="r8">0</Current><DateUtc dt:dt="string">2015-06-25T21:33:09Z</DateUtc></FrequencyChange></FrequencyChanges></Clock>\n	Hungry_Donkey_bar_English_2-116-2	60.018	-154	1.0.0.18	1	-742343701	Standard	2.0.10.353	2.0.10.353	06-25-2015	6/25/2015 9:33:09 PM	17:33:09	2.0.10.248	87	Bar50-50.bmp	51	2	?	10r_4g.bmp	0r_4g.bmp	2r_2g.bmp	0r_2g.bmp		0r_4g.bmp			TrialProc	TrialList	0	cvbn	-999999	16	287971	0	v	286	288257	278	-271	7	-16	-16	13	26	4	9	87	-10	0	-2	0	4	4	2	2	0	4
Hungry_Donkey_bar_English_2	116	2	<?xml version="1.0"?>\n<Clock xmlns:dt="urn:schemas-microsoft-com:datatypes"><Description dt:dt="string">E-Prime Primary Realtime Clock</Description><StartTime><Timestamp dt:dt="int">0</Timestamp><DateUtc dt:dt="string">2015-06-25T21:33:09Z</DateUtc></StartTime><FrequencyChanges><FrequencyChange><Frequency dt:dt="r8">3507695</Frequency><Timestamp dt:dt="r8">561897701778</Timestamp><Current dt:dt="r8">0</Current><DateUtc dt:dt="string">2015-06-25T21:33:09Z</DateUtc></FrequencyChange></FrequencyChanges></Clock>\n	Hungry_Donkey_bar_English_2-116-2	60.018	-154	1.0.0.18	1	-742343701	Standard	2.0.10.353	2.0.10.353	06-25-2015	6/25/2015 9:33:09 PM	17:33:09	2.0.10.248	88	Bar50-50.bmp	51	4	?	0r_4g.bmp	0r_4g.bmp	0r_2g.bmp	0r_2g.bmp				0r_2g.bmp	TrialProc	TrialList	0	cvbn	-999999	16	290287	0	n	466	290753	280	-271	9	-16	-16	13	28	8	9	88	0	0	0	0	4	4	2	2	0	2
Hungry_Donkey_bar_English_2	116	2	<?xml version="1.0"?>\n<Clock xmlns:dt="urn:schemas-microsoft-com:datatypes"><Description dt:dt="string">E-Prime Primary Realtime Clock</Description><StartTime><Timestamp dt:dt="int">0</Timestamp><DateUtc dt:dt="string">2015-06-25T21:33:09Z</DateUtc></StartTime><FrequencyChanges><FrequencyChange><Frequency dt:dt="r8">3507695</Frequency><Timestamp dt:dt="r8">561897701778</Timestamp><Current dt:dt="r8">0</Current><DateUtc dt:dt="string">2015-06-25T21:33:09Z</DateUtc></FrequencyChange></FrequencyChanges></Clock>\n	Hungry_Donkey_bar_English_2-116-2	60.018	-154	1.0.0.18	1	-742343701	Standard	2.0.10.353	2.0.10.353	06-25-2015	6/25/2015 9:33:09 PM	17:33:09	2.0.10.248	89	Bar50-50.bmp	51	2	?	0r_4g.bmp	0r_4g.bmp	0r_2g.bmp	0r_2g.bmp		0r_4g.bmp			TrialProc	TrialList	0	cvbn	-999999	16	292786	0	v	270	293056	284	-271	13	-16	-12	13	28	7	9	89	0	0	0	0	4	4	2	2	0	4
Hungry_Donkey_bar_English_2	116	2	<?xml version="1.0"?>\n<Clock xmlns:dt="urn:schemas-microsoft-com:datatypes"><Description dt:dt="string">E-Prime Primary Realtime Clock</Description><StartTime><Timestamp dt:dt="int">0</Timestamp><DateUtc dt:dt="string">2015-06-25T21:33:09Z</DateUtc></StartTime><FrequencyChanges><FrequencyChange><Frequency dt:dt="r8">3507695</Frequency><Timestamp dt:dt="r8">561897701778</Timestamp><Current dt:dt="r8">0</Current><DateUtc dt:dt="string">2015-06-25T21:33:09Z</DateUtc></FrequencyChange></FrequencyChanges></Clock>\n	Hungry_Donkey_bar_English_2-116-2	60.018	-154	1.0.0.18	1	-742343701	Standard	2.0.10.353	2.0.10.353	06-25-2015	6/25/2015 9:33:09 PM	17:33:09	2.0.10.248	90	Bar50-50.bmp	52	1	?	0r_4g.bmp	0r_4g.bmp	0r_2g.bmp	0r_2g.bmp	0r_4g.bmp				TrialProc	TrialList	0	cvbn	-999999	16	295086	0	c	930	296016	288	-271	17	-12	-12	13	28	6	9	90	0	0	0	0	4	4	2	2	0	4
Hungry_Donkey_bar_English_2	116	2	<?xml version="1.0"?>\n<Clock xmlns:dt="urn:schemas-microsoft-com:datatypes"><Description dt:dt="string">E-Prime Primary Realtime Clock</Description><StartTime><Timestamp dt:dt="int">0</Timestamp><DateUtc dt:dt="string">2015-06-25T21:33:09Z</DateUtc></StartTime><FrequencyChanges><FrequencyChange><Frequency dt:dt="r8">3507695</Frequency><Timestamp dt:dt="r8">561897701778</Timestamp><Current dt:dt="r8">0</Current><DateUtc dt:dt="string">2015-06-25T21:33:09Z</DateUtc></FrequencyChange></FrequencyChanges></Clock>\n	Hungry_Donkey_bar_English_2-116-2	60.018	-154	1.0.0.18	1	-742343701	Standard	2.0.10.353	2.0.10.353	06-25-2015	6/25/2015 9:33:09 PM	17:33:09	2.0.10.248	91	Bar50-50.bmp	51	1	?	10r_4g.bmp	0r_4g.bmp	2r_2g.bmp	0r_2g.bmp	10r_4g.bmp				TrialProc	TrialList	0	cvbn	-999999	17	298052	0	c	316	298368	292	-281	11	-18	-12	13	28	2	10	91	-10	0	-2	0	4	4	2	2	-10	4
Hungry_Donkey_bar_English_2	116	2	<?xml version="1.0"?>\n<Clock xmlns:dt="urn:schemas-microsoft-com:datatypes"><Description dt:dt="string">E-Prime Primary Realtime Clock</Description><StartTime><Timestamp dt:dt="int">0</Timestamp><DateUtc dt:dt="string">2015-06-25T21:33:09Z</DateUtc></StartTime><FrequencyChanges><FrequencyChange><Frequency dt:dt="r8">3507695</Frequency><Timestamp dt:dt="r8">561897701778</Timestamp><Current dt:dt="r8">0</Current><DateUtc dt:dt="string">2015-06-25T21:33:09Z</DateUtc></FrequencyChange></FrequencyChanges></Clock>\n	Hungry_Donkey_bar_English_2-116-2	60.018	-154	1.0.0.18	1	-742343701	Standard	2.0.10.353	2.0.10.353	06-25-2015	6/25/2015 9:33:09 PM	17:33:09	2.0.10.248	92	Bar50-50.bmp	51	2	?	0r_4g.bmp	0r_4g.bmp	0r_2g.bmp	0r_2g.bmp		0r_4g.bmp			TrialProc	TrialList	0	cvbn	-999999	16	300401	0	v	367	300768	296	-281	15	-18	-8	13	28	9	10	92	0	0	0	0	4	4	2	2	0	4
Hungry_Donkey_bar_English_2	116	2	<?xml version="1.0"?>\n<Clock xmlns:dt="urn:schemas-microsoft-com:datatypes"><Description dt:dt="string">E-Prime Primary Realtime Clock</Description><StartTime><Timestamp dt:dt="int">0</Timestamp><DateUtc dt:dt="string">2015-06-25T21:33:09Z</DateUtc></StartTime><FrequencyChanges><FrequencyChange><Frequency dt:dt="r8">3507695</Frequency><Timestamp dt:dt="r8">561897701778</Timestamp><Current dt:dt="r8">0</Current><DateUtc dt:dt="string">2015-06-25T21:33:09Z</DateUtc></FrequencyChange></FrequencyChanges></Clock>\n	Hungry_Donkey_bar_English_2-116-2	60.018	-154	1.0.0.18	1	-742343701	Standard	2.0.10.353	2.0.10.353	06-25-2015	6/25/2015 9:33:09 PM	17:33:09	2.0.10.248	93	Bar50-50.bmp	51	3	?	0r_4g.bmp	0r_4g.bmp	0r_2g.bmp	0r_2g.bmp			0r_2g.bmp		TrialProc	TrialList	0	cvbn	-999999	16	302800	0	b	608	303408	298	-281	17	-18	-8	15	28	10	10	93	0	0	0	0	4	4	2	2	0	2
Hungry_Donkey_bar_English_2	116	2	<?xml version="1.0"?>\n<Clock xmlns:dt="urn:schemas-microsoft-com:datatypes"><Description dt:dt="string">E-Prime Primary Realtime Clock</Description><StartTime><Timestamp dt:dt="int">0</Timestamp><DateUtc dt:dt="string">2015-06-25T21:33:09Z</DateUtc></StartTime><FrequencyChanges><FrequencyChange><Frequency dt:dt="r8">3507695</Frequency><Timestamp dt:dt="r8">561897701778</Timestamp><Current dt:dt="r8">0</Current><DateUtc dt:dt="string">2015-06-25T21:33:09Z</DateUtc></FrequencyChange></FrequencyChanges></Clock>\n	Hungry_Donkey_bar_English_2-116-2	60.018	-154	1.0.0.18	1	-742343701	Standard	2.0.10.353	2.0.10.353	06-25-2015	6/25/2015 9:33:09 PM	17:33:09	2.0.10.248	94	Bar50-50.bmp	52	4	?	10r_4g.bmp	0r_4g.bmp	2r_2g.bmp	0r_2g.bmp				0r_2g.bmp	TrialProc	TrialList	0	cvbn	-999999	16	305449	0	n	375	305824	300	-281	19	-18	-8	15	30	4	10	94	-10	0	-2	0	4	4	2	2	0	2
Hungry_Donkey_bar_English_2	116	2	<?xml version="1.0"?>\n<Clock xmlns:dt="urn:schemas-microsoft-com:datatypes"><Description dt:dt="string">E-Prime Primary Realtime Clock</Description><StartTime><Timestamp dt:dt="int">0</Timestamp><DateUtc dt:dt="string">2015-06-25T21:33:09Z</DateUtc></StartTime><FrequencyChanges><FrequencyChange><Frequency dt:dt="r8">3507695</Frequency><Timestamp dt:dt="r8">561897701778</Timestamp><Current dt:dt="r8">0</Current><DateUtc dt:dt="string">2015-06-25T21:33:09Z</DateUtc></FrequencyChange></FrequencyChanges></Clock>\n	Hungry_Donkey_bar_English_2-116-2	60.018	-154	1.0.0.18	1	-742343701	Standard	2.0.10.353	2.0.10.353	06-25-2015	6/25/2015 9:33:09 PM	17:33:09	2.0.10.248	95	Bar50-50.bmp	52	4	?	10r_4g.bmp	0r_4g.bmp	2r_2g.bmp	0r_2g.bmp				0r_2g.bmp	TrialProc	TrialList	0	cvbn	-999999	16	307849	0	n	471	308320	302	-281	21	-18	-8	15	32	3	10	95	-10	0	-2	0	4	4	2	2	0	2
Hungry_Donkey_bar_English_2	116	2	<?xml version="1.0"?>\n<Clock xmlns:dt="urn:schemas-microsoft-com:datatypes"><Description dt:dt="string">E-Prime Primary Realtime Clock</Description><StartTime><Timestamp dt:dt="int">0</Timestamp><DateUtc dt:dt="string">2015-06-25T21:33:09Z</DateUtc></StartTime><FrequencyChanges><FrequencyChange><Frequency dt:dt="r8">3507695</Frequency><Timestamp dt:dt="r8">561897701778</Timestamp><Current dt:dt="r8">0</Current><DateUtc dt:dt="string">2015-06-25T21:33:09Z</DateUtc></FrequencyChange></FrequencyChanges></Clock>\n	Hungry_Donkey_bar_English_2-116-2	60.018	-154	1.0.0.18	1	-742343701	Standard	2.0.10.353	2.0.10.353	06-25-2015	6/25/2015 9:33:09 PM	17:33:09	2.0.10.248	96	Bar50-50.bmp	52	3	?	12r_4g.bmp	0r_4g.bmp	3r_2g.bmp	0r_2g.bmp			3r_2g.bmp		TrialProc	TrialList	0	cvbn	-999999	16	310348	0	b	579	310927	304	-284	20	-18	-8	14	32	5	10	96	-12	0	-3	0	4	4	2	2	-3	2
Hungry_Donkey_bar_English_2	116	2	<?xml version="1.0"?>\n<Clock xmlns:dt="urn:schemas-microsoft-com:datatypes"><Description dt:dt="string">E-Prime Primary Realtime Clock</Description><StartTime><Timestamp dt:dt="int">0</Timestamp><DateUtc dt:dt="string">2015-06-25T21:33:09Z</DateUtc></StartTime><FrequencyChanges><FrequencyChange><Frequency dt:dt="r8">3507695</Frequency><Timestamp dt:dt="r8">561897701778</Timestamp><Current dt:dt="r8">0</Current><DateUtc dt:dt="string">2015-06-25T21:33:09Z</DateUtc></FrequencyChange></FrequencyChanges></Clock>\n	Hungry_Donkey_bar_English_2-116-2	60.018	-154	1.0.0.18	1	-742343701	Standard	2.0.10.353	2.0.10.353	06-25-2015	6/25/2015 9:33:09 PM	17:33:09	2.0.10.248	97	Bar50-50.bmp	52	2	?	0r_4g.bmp	0r_4g.bmp	0r_2g.bmp	0r_2g.bmp		0r_4g.bmp			TrialProc	TrialList	0	cvbn	-999999	16	312964	0	v	427	313391	308	-284	24	-18	-4	14	32	8	10	97	0	0	0	0	4	4	2	2	0	4
Hungry_Donkey_bar_English_2	116	2	<?xml version="1.0"?>\n<Clock xmlns:dt="urn:schemas-microsoft-com:datatypes"><Description dt:dt="string">E-Prime Primary Realtime Clock</Description><StartTime><Timestamp dt:dt="int">0</Timestamp><DateUtc dt:dt="string">2015-06-25T21:33:09Z</DateUtc></StartTime><FrequencyChanges><FrequencyChange><Frequency dt:dt="r8">3507695</Frequency><Timestamp dt:dt="r8">561897701778</Timestamp><Current dt:dt="r8">0</Current><DateUtc dt:dt="string">2015-06-25T21:33:09Z</DateUtc></FrequencyChange></FrequencyChanges></Clock>\n	Hungry_Donkey_bar_English_2-116-2	60.018	-154	1.0.0.18	1	-742343701	Standard	2.0.10.353	2.0.10.353	06-25-2015	6/25/2015 9:33:09 PM	17:33:09	2.0.10.248	98	Bar50-50.bmp	48	2	?	8r_4g.bmp	50r_4g.bmp	1r_2g.bmp	10r_2g.bmp		50r_4g.bmp			TrialProc	TrialList	0	cvbn	-999999	16	315430	0	v	313	315743	312	-334	-22	-18	-50	14	32	1	10	98	-8	-50	-1	-10	4	4	2	2	-50	4
Hungry_Donkey_bar_English_2	116	2	<?xml version="1.0"?>\n<Clock xmlns:dt="urn:schemas-microsoft-com:datatypes"><Description dt:dt="string">E-Prime Primary Realtime Clock</Description><StartTime><Timestamp dt:dt="int">0</Timestamp><DateUtc dt:dt="string">2015-06-25T21:33:09Z</DateUtc></StartTime><FrequencyChanges><FrequencyChange><Frequency dt:dt="r8">3507695</Frequency><Timestamp dt:dt="r8">561897701778</Timestamp><Current dt:dt="r8">0</Current><DateUtc dt:dt="string">2015-06-25T21:33:09Z</DateUtc></FrequencyChange></FrequencyChanges></Clock>\n	Hungry_Donkey_bar_English_2-116-2	60.018	-154	1.0.0.18	1	-742343701	Standard	2.0.10.353	2.0.10.353	06-25-2015	6/25/2015 9:33:09 PM	17:33:09	2.0.10.248	99	Bar50-50.bmp	48	4	?	0r_4g.bmp	0r_4g.bmp	0r_2g.bmp	0r_2g.bmp				0r_2g.bmp	TrialProc	TrialList	0	cvbn	-999999	16	317779	0	n	828	318607	314	-334	-20	-18	-50	14	34	7	10	99	0	0	0	0	4	4	2	2	0	2
Hungry_Donkey_bar_English_2	116	2	<?xml version="1.0"?>\n<Clock xmlns:dt="urn:schemas-microsoft-com:datatypes"><Description dt:dt="string">E-Prime Primary Realtime Clock</Description><StartTime><Timestamp dt:dt="int">0</Timestamp><DateUtc dt:dt="string">2015-06-25T21:33:09Z</DateUtc></StartTime><FrequencyChanges><FrequencyChange><Frequency dt:dt="r8">3507695</Frequency><Timestamp dt:dt="r8">561897701778</Timestamp><Current dt:dt="r8">0</Current><DateUtc dt:dt="string">2015-06-25T21:33:09Z</DateUtc></FrequencyChange></FrequencyChanges></Clock>\n	Hungry_Donkey_bar_English_2-116-2	60.018	-154	1.0.0.18	1	-742343701	Standard	2.0.10.353	2.0.10.353	06-25-2015	6/25/2015 9:33:09 PM	17:33:09	2.0.10.248	100	Bar50-50.bmp	49	4	?	0r_4g.bmp	0r_4g.bmp	0r_2g.bmp	0r_2g.bmp				0r_2g.bmp	TrialProc	TrialList	0	cvbn	-999999	16	320645	0	n	602	321247	316	-334	-18	-18	-50	14	36	6	10	100	0	0	0	0	4	4	2	2	0	2
Hungry_Donkey_bar_English_2	116	2	<?xml version="1.0"?>\n<Clock xmlns:dt="urn:schemas-microsoft-com:datatypes"><Description dt:dt="string">E-Prime Primary Realtime Clock</Description><StartTime><Timestamp dt:dt="int">0</Timestamp><DateUtc dt:dt="string">2015-06-25T21:33:09Z</DateUtc></StartTime><FrequencyChanges><FrequencyChange><Frequency dt:dt="r8">3507695</Frequency><Timestamp dt:dt="r8">561897701778</Timestamp><Current dt:dt="r8">0</Current><DateUtc dt:dt="string">2015-06-25T21:33:09Z</DateUtc></FrequencyChange></FrequencyChanges></Clock>\n	Hungry_Donkey_bar_English_2-116-2	60.018	-154	1.0.0.18	1	-742343701	Standard	2.0.10.353	2.0.10.353	06-25-2015	6/25/2015 9:33:09 PM	17:33:09	2.0.10.248	101	Bar50-50.bmp	49	4	?	0r_4g.bmp	0r_4g.bmp	0r_2g.bmp	0r_2g.bmp				0r_2g.bmp	TrialProc	TrialList	0	cvbn	-999999	17	323278	0	n	849	324127	318	-334	-16	-18	-50	14	38	6	11	101	0	0	0	0	4	4	2	2	0	2
Hungry_Donkey_bar_English_2	116	2	<?xml version="1.0"?>\n<Clock xmlns:dt="urn:schemas-microsoft-com:datatypes"><Description dt:dt="string">E-Prime Primary Realtime Clock</Description><StartTime><Timestamp dt:dt="int">0</Timestamp><DateUtc dt:dt="string">2015-06-25T21:33:09Z</DateUtc></StartTime><FrequencyChanges><FrequencyChange><Frequency dt:dt="r8">3507695</Frequency><Timestamp dt:dt="r8">561897701778</Timestamp><Current dt:dt="r8">0</Current><DateUtc dt:dt="string">2015-06-25T21:33:09Z</DateUtc></FrequencyChange></FrequencyChanges></Clock>\n	Hungry_Donkey_bar_English_2-116-2	60.018	-154	1.0.0.18	1	-742343701	Standard	2.0.10.353	2.0.10.353	06-25-2015	6/25/2015 9:33:09 PM	17:33:09	2.0.10.248	102	Bar50-50.bmp	49	3	?	0r_4g.bmp	0r_4g.bmp	0r_2g.bmp	0r_2g.bmp			0r_2g.bmp		TrialProc	TrialList	0	cvbn	-999999	16	326160	0	b	415	326575	320	-334	-14	-18	-50	16	38	7	11	102	0	0	0	0	4	4	2	2	0	2
Hungry_Donkey_bar_English_2	116	2	<?xml version="1.0"?>\n<Clock xmlns:dt="urn:schemas-microsoft-com:datatypes"><Description dt:dt="string">E-Prime Primary Realtime Clock</Description><StartTime><Timestamp dt:dt="int">0</Timestamp><DateUtc dt:dt="string">2015-06-25T21:33:09Z</DateUtc></StartTime><FrequencyChanges><FrequencyChange><Frequency dt:dt="r8">3507695</Frequency><Timestamp dt:dt="r8">561897701778</Timestamp><Current dt:dt="r8">0</Current><DateUtc dt:dt="string">2015-06-25T21:33:09Z</DateUtc></FrequencyChange></FrequencyChanges></Clock>\n	Hungry_Donkey_bar_English_2-116-2	60.018	-154	1.0.0.18	1	-742343701	Standard	2.0.10.353	2.0.10.353	06-25-2015	6/25/2015 9:33:09 PM	17:33:09	2.0.10.248	103	Bar50-50.bmp	49	2	?	10r_4g.bmp	0r_4g.bmp	2r_2g.bmp	0r_2g.bmp		0r_4g.bmp			TrialProc	TrialList	0	cvbn	-999999	16	328609	0	v	574	329183	324	-334	-10	-18	-46	16	38	3	11	103	-10	0	-2	0	4	4	2	2	0	4
Hungry_Donkey_bar_English_2	116	2	<?xml version="1.0"?>\n<Clock xmlns:dt="urn:schemas-microsoft-com:datatypes"><Description dt:dt="string">E-Prime Primary Realtime Clock</Description><StartTime><Timestamp dt:dt="int">0</Timestamp><DateUtc dt:dt="string">2015-06-25T21:33:09Z</DateUtc></StartTime><FrequencyChanges><FrequencyChange><Frequency dt:dt="r8">3507695</Frequency><Timestamp dt:dt="r8">561897701778</Timestamp><Current dt:dt="r8">0</Current><DateUtc dt:dt="string">2015-06-25T21:33:09Z</DateUtc></FrequencyChange></FrequencyChanges></Clock>\n	Hungry_Donkey_bar_English_2-116-2	60.018	-154	1.0.0.18	1	-742343701	Standard	2.0.10.353	2.0.10.353	06-25-2015	6/25/2015 9:33:09 PM	17:33:09	2.0.10.248	104	Bar50-50.bmp	50	2	?	0r_4g.bmp	0r_4g.bmp	0r_2g.bmp	0r_2g.bmp		0r_4g.bmp			TrialProc	TrialList	0	cvbn	-999999	16	331209	0	v	485	331694	328	-334	-6	-18	-42	16	38	9	11	104	0	0	0	0	4	4	2	2	0	4
Hungry_Donkey_bar_English_2	116	2	<?xml version="1.0"?>\n<Clock xmlns:dt="urn:schemas-microsoft-com:datatypes"><Description dt:dt="string">E-Prime Primary Realtime Clock</Description><StartTime><Timestamp dt:dt="int">0</Timestamp><DateUtc dt:dt="string">2015-06-25T21:33:09Z</DateUtc></StartTime><FrequencyChanges><FrequencyChange><Frequency dt:dt="r8">3507695</Frequency><Timestamp dt:dt="r8">561897701778</Timestamp><Current dt:dt="r8">0</Current><DateUtc dt:dt="string">2015-06-25T21:33:09Z</DateUtc></FrequencyChange></FrequencyChanges></Clock>\n	Hungry_Donkey_bar_English_2-116-2	60.018	-154	1.0.0.18	1	-742343701	Standard	2.0.10.353	2.0.10.353	06-25-2015	6/25/2015 9:33:09 PM	17:33:09	2.0.10.248	105	Bar50-50.bmp	50	2	?	12r_4g.bmp	0r_4g.bmp	3r_2g.bmp	0r_2g.bmp		0r_4g.bmp			TrialProc	TrialList	0	cvbn	-999999	16	333724	0	v	418	334142	332	-334	-2	-18	-38	16	38	5	11	105	-12	0	-3	0	4	4	2	2	0	4
Hungry_Donkey_bar_English_2	116	2	<?xml version="1.0"?>\n<Clock xmlns:dt="urn:schemas-microsoft-com:datatypes"><Description dt:dt="string">E-Prime Primary Realtime Clock</Description><StartTime><Timestamp dt:dt="int">0</Timestamp><DateUtc dt:dt="string">2015-06-25T21:33:09Z</DateUtc></StartTime><FrequencyChanges><FrequencyChange><Frequency dt:dt="r8">3507695</Frequency><Timestamp dt:dt="r8">561897701778</Timestamp><Current dt:dt="r8">0</Current><DateUtc dt:dt="string">2015-06-25T21:33:09Z</DateUtc></FrequencyChange></FrequencyChanges></Clock>\n	Hungry_Donkey_bar_English_2-116-2	60.018	-154	1.0.0.18	1	-742343701	Standard	2.0.10.353	2.0.10.353	06-25-2015	6/25/2015 9:33:09 PM	17:33:09	2.0.10.248	106	Bar50-50.bmp	50	4	?	10r_4g.bmp	0r_4g.bmp	2r_2g.bmp	0r_2g.bmp				0r_2g.bmp	TrialProc	TrialList	0	cvbn	-999999	16	336174	0	n	416	336590	334	-334	0	-18	-38	16	40	2	11	106	-10	0	-2	0	4	4	2	2	0	2
Hungry_Donkey_bar_English_2	116	2	<?xml version="1.0"?>\n<Clock xmlns:dt="urn:schemas-microsoft-com:datatypes"><Description dt:dt="string">E-Prime Primary Realtime Clock</Description><StartTime><Timestamp dt:dt="int">0</Timestamp><DateUtc dt:dt="string">2015-06-25T21:33:09Z</DateUtc></StartTime><FrequencyChanges><FrequencyChange><Frequency dt:dt="r8">3507695</Frequency><Timestamp dt:dt="r8">561897701778</Timestamp><Current dt:dt="r8">0</Current><DateUtc dt:dt="string">2015-06-25T21:33:09Z</DateUtc></FrequencyChange></FrequencyChanges></Clock>\n	Hungry_Donkey_bar_English_2-116-2	60.018	-154	1.0.0.18	1	-742343701	Standard	2.0.10.353	2.0.10.353	06-25-2015	6/25/2015 9:33:09 PM	17:33:09	2.0.10.248	107	Bar50-50.bmp	50	4	?	10r_4g.bmp	0r_4g.bmp	2r_2g.bmp	0r_2g.bmp				0r_2g.bmp	TrialProc	TrialList	0	cvbn	-999999	16	338623	0	n	319	338942	336	-334	2	-18	-38	16	42	4	11	107	-10	0	-2	0	4	4	2	2	0	2
Hungry_Donkey_bar_English_2	116	2	<?xml version="1.0"?>\n<Clock xmlns:dt="urn:schemas-microsoft-com:datatypes"><Description dt:dt="string">E-Prime Primary Realtime Clock</Description><StartTime><Timestamp dt:dt="int">0</Timestamp><DateUtc dt:dt="string">2015-06-25T21:33:09Z</DateUtc></StartTime><FrequencyChanges><FrequencyChange><Frequency dt:dt="r8">3507695</Frequency><Timestamp dt:dt="r8">561897701778</Timestamp><Current dt:dt="r8">0</Current><DateUtc dt:dt="string">2015-06-25T21:33:09Z</DateUtc></FrequencyChange></FrequencyChanges></Clock>\n	Hungry_Donkey_bar_English_2-116-2	60.018	-154	1.0.0.18	1	-742343701	Standard	2.0.10.353	2.0.10.353	06-25-2015	6/25/2015 9:33:09 PM	17:33:09	2.0.10.248	108	Bar50-50.bmp	50	3	?	0r_4g.bmp	0r_4g.bmp	0r_2g.bmp	0r_2g.bmp			0r_2g.bmp		TrialProc	TrialList	0	cvbn	-999999	16	340972	0	b	530	341502	338	-334	4	-18	-38	18	42	8	11	108	0	0	0	0	4	4	2	2	0	2
Hungry_Donkey_bar_English_2	116	2	<?xml version="1.0"?>\n<Clock xmlns:dt="urn:schemas-microsoft-com:datatypes"><Description dt:dt="string">E-Prime Primary Realtime Clock</Description><StartTime><Timestamp dt:dt="int">0</Timestamp><DateUtc dt:dt="string">2015-06-25T21:33:09Z</DateUtc></StartTime><FrequencyChanges><FrequencyChange><Frequency dt:dt="r8">3507695</Frequency><Timestamp dt:dt="r8">561897701778</Timestamp><Current dt:dt="r8">0</Current><DateUtc dt:dt="string">2015-06-25T21:33:09Z</DateUtc></FrequencyChange></FrequencyChanges></Clock>\n	Hungry_Donkey_bar_English_2-116-2	60.018	-154	1.0.0.18	1	-742343701	Standard	2.0.10.353	2.0.10.353	06-25-2015	6/25/2015 9:33:09 PM	17:33:09	2.0.10.248	109	Bar50-50.bmp	51	2	?	0r_4g.bmp	0r_4g.bmp	0r_2g.bmp	0r_2g.bmp		0r_4g.bmp			TrialProc	TrialList	0	cvbn	-999999	16	343538	0	v	588	344126	342	-334	8	-18	-34	18	42	10	11	109	0	0	0	0	4	4	2	2	0	4
Hungry_Donkey_bar_English_2	116	2	<?xml version="1.0"?>\n<Clock xmlns:dt="urn:schemas-microsoft-com:datatypes"><Description dt:dt="string">E-Prime Primary Realtime Clock</Description><StartTime><Timestamp dt:dt="int">0</Timestamp><DateUtc dt:dt="string">2015-06-25T21:33:09Z</DateUtc></StartTime><FrequencyChanges><FrequencyChange><Frequency dt:dt="r8">3507695</Frequency><Timestamp dt:dt="r8">561897701778</Timestamp><Current dt:dt="r8">0</Current><DateUtc dt:dt="string">2015-06-25T21:33:09Z</DateUtc></FrequencyChange></FrequencyChanges></Clock>\n	Hungry_Donkey_bar_English_2-116-2	60.018	-154	1.0.0.18	1	-742343701	Standard	2.0.10.353	2.0.10.353	06-25-2015	6/25/2015 9:33:09 PM	17:33:09	2.0.10.248	110	Bar50-50.bmp	47	2	?	8r_4g.bmp	50r_4g.bmp	1r_2g.bmp	10r_2g.bmp		50r_4g.bmp			TrialProc	TrialList	0	cvbn	-999999	16	346154	0	v	340	346494	346	-384	-38	-18	-80	18	42	1	11	110	-8	-50	-1	-10	4	4	2	2	-50	4
Hungry_Donkey_bar_English_2	116	2	<?xml version="1.0"?>\n<Clock xmlns:dt="urn:schemas-microsoft-com:datatypes"><Description dt:dt="string">E-Prime Primary Realtime Clock</Description><StartTime><Timestamp dt:dt="int">0</Timestamp><DateUtc dt:dt="string">2015-06-25T21:33:09Z</DateUtc></StartTime><FrequencyChanges><FrequencyChange><Frequency dt:dt="r8">3507695</Frequency><Timestamp dt:dt="r8">561897701778</Timestamp><Current dt:dt="r8">0</Current><DateUtc dt:dt="string">2015-06-25T21:33:09Z</DateUtc></FrequencyChange></FrequencyChanges></Clock>\n	Hungry_Donkey_bar_English_2-116-2	60.018	-154	1.0.0.18	1	-742343701	Standard	2.0.10.353	2.0.10.353	06-25-2015	6/25/2015 9:33:09 PM	17:33:09	2.0.10.248	111	Bar50-50.bmp	47	3	?	12r_4g.bmp	0r_4g.bmp	3r_2g.bmp	0r_2g.bmp			3r_2g.bmp		TrialProc	TrialList	0	cvbn	-999999	16	348520	0	b	3701	352221	348	-387	-39	-18	-80	17	42	5	12	111	-12	0	-3	0	4	4	2	2	-3	2
