ExperimentName	Subject	Session	Clock.Information	DataFile.Basename	Display.RefreshRate	Eindtotaal[Session]	ExperimentVersion	Group	RandomSeed	RuntimeCapabilities	RuntimeVersion	RuntimeVersionExpected	SessionDate	SessionStartDateTimeUtc	SessionTime	StudioVersion	Block	BarImage	BarTotalWinst	DoorChoice	Eindtotaal[Block]	FBDoor1	FBDoor2	FBDoor3	FBDoor4	Image1	Image2	Image3	Image4	Procedure	Running	spel.ACC	spel.CRESP	spel.DurationError	spel.OnsetDelay	spel.OnsetTime	spel.OnsetToOnsetTime	spel.RESP	spel.RT	spel.RTTime	TotalGain	TotalLose	Totalsum	TotalsumD1	TotalsumD2	TotalsumD3	TotalsumD4	TrialList	TrialList.Cycle	TrialList.Sample	varV1	varV2	varV3	varV4	varW1	varW2	varW3	varW4	Verliesbedrag	Winstbedrag
Hungry_Donkey_bar_English_2	114	1	<?xml version="1.0"?>\n<Clock xmlns:dt="urn:schemas-microsoft-com:datatypes"><Description dt:dt="string">E-Prime Primary Realtime Clock</Description><StartTime><Timestamp dt:dt="int">0</Timestamp><DateUtc dt:dt="string">2015-07-01T17:06:12Z</DateUtc></StartTime><FrequencyChanges><FrequencyChange><Frequency dt:dt="r8">3507685</Frequency><Timestamp dt:dt="r8">1563134716485</Timestamp><Current dt:dt="r8">0</Current><DateUtc dt:dt="string">2015-07-01T17:06:12Z</DateUtc></FrequencyChange></FrequencyChanges></Clock>\n	Hungry_Donkey_bar_English_2-114-1	60.017	-105	1.0.0.18	1	-232683102	Standard	2.0.10.353	2.0.10.353	07-01-2015	7/1/2015 5:06:12 PM	13:06:12	2.0.10.248	1	Bar100-0.bmp	100	2	?	0r_4g.bmp	0r_4g.bmp	0r_2g.bmp	0r_2g.bmp		0r_4g.bmp			TrialProc	TrialList	0	cvbn	-999999	19	99156	0	v	2605	101761	4	0	4	0	4	0	0	6	1	1	0	0	0	0	4	4	2	2	0	4
Hungry_Donkey_bar_English_2	114	1	<?xml version="1.0"?>\n<Clock xmlns:dt="urn:schemas-microsoft-com:datatypes"><Description dt:dt="string">E-Prime Primary Realtime Clock</Description><StartTime><Timestamp dt:dt="int">0</Timestamp><DateUtc dt:dt="string">2015-07-01T17:06:12Z</DateUtc></StartTime><FrequencyChanges><FrequencyChange><Frequency dt:dt="r8">3507685</Frequency><Timestamp dt:dt="r8">1563134716485</Timestamp><Current dt:dt="r8">0</Current><DateUtc dt:dt="string">2015-07-01T17:06:12Z</DateUtc></FrequencyChange></FrequencyChanges></Clock>\n	Hungry_Donkey_bar_English_2-114-1	60.017	-105	1.0.0.18	1	-232683102	Standard	2.0.10.353	2.0.10.353	07-01-2015	7/1/2015 5:06:12 PM	13:06:12	2.0.10.248	2	Bar75-25.bmp	75	3	?	10r_4g.bmp	0r_4g.bmp	2r_2g.bmp	0r_2g.bmp			2r_2g.bmp		TrialProc	TrialList	0	cvbn	-999999	16	103804	0	b	1029	104833	6	-2	4	0	4	0	0	4	1	2	-10	0	-2	0	4	4	2	2	-2	2
Hungry_Donkey_bar_English_2	114	1	<?xml version="1.0"?>\n<Clock xmlns:dt="urn:schemas-microsoft-com:datatypes"><Description dt:dt="string">E-Prime Primary Realtime Clock</Description><StartTime><Timestamp dt:dt="int">0</Timestamp><DateUtc dt:dt="string">2015-07-01T17:06:12Z</DateUtc></StartTime><FrequencyChanges><FrequencyChange><Frequency dt:dt="r8">3507685</Frequency><Timestamp dt:dt="r8">1563134716485</Timestamp><Current dt:dt="r8">0</Current><DateUtc dt:dt="string">2015-07-01T17:06:12Z</DateUtc></FrequencyChange></FrequencyChanges></Clock>\n	Hungry_Donkey_bar_English_2-114-1	60.017	-105	1.0.0.18	1	-232683102	Standard	2.0.10.353	2.0.10.353	07-01-2015	7/1/2015 5:06:12 PM	13:06:12	2.0.10.248	3	Bar87-13.bmp	83	1	?	0r_4g.bmp	0r_4g.bmp	0r_2g.bmp	0r_2g.bmp	0r_4g.bmp				TrialProc	TrialList	0	cvbn	-999999	17	106870	0	c	1019	107889	10	-2	8	4	4	0	0	9	1	3	0	0	0	0	4	4	2	2	0	4
Hungry_Donkey_bar_English_2	114	1	<?xml version="1.0"?>\n<Clock xmlns:dt="urn:schemas-microsoft-com:datatypes"><Description dt:dt="string">E-Prime Primary Realtime Clock</Description><StartTime><Timestamp dt:dt="int">0</Timestamp><DateUtc dt:dt="string">2015-07-01T17:06:12Z</DateUtc></StartTime><FrequencyChanges><FrequencyChange><Frequency dt:dt="r8">3507685</Frequency><Timestamp dt:dt="r8">1563134716485</Timestamp><Current dt:dt="r8">0</Current><DateUtc dt:dt="string">2015-07-01T17:06:12Z</DateUtc></FrequencyChange></FrequencyChanges></Clock>\n	Hungry_Donkey_bar_English_2-114-1	60.017	-105	1.0.0.18	1	-232683102	Standard	2.0.10.353	2.0.10.353	07-01-2015	7/1/2015 5:06:12 PM	13:06:12	2.0.10.248	4	Bar87-13.bmp	86	4	?	0r_4g.bmp	0r_4g.bmp	0r_2g.bmp	0r_2g.bmp				0r_2g.bmp	TrialProc	TrialList	0	cvbn	-999999	16	109919	0	n	561	110480	12	-2	10	4	4	0	2	8	1	4	0	0	0	0	4	4	2	2	0	2
Hungry_Donkey_bar_English_2	114	1	<?xml version="1.0"?>\n<Clock xmlns:dt="urn:schemas-microsoft-com:datatypes"><Description dt:dt="string">E-Prime Primary Realtime Clock</Description><StartTime><Timestamp dt:dt="int">0</Timestamp><DateUtc dt:dt="string">2015-07-01T17:06:12Z</DateUtc></StartTime><FrequencyChanges><FrequencyChange><Frequency dt:dt="r8">3507685</Frequency><Timestamp dt:dt="r8">1563134716485</Timestamp><Current dt:dt="r8">0</Current><DateUtc dt:dt="string">2015-07-01T17:06:12Z</DateUtc></FrequencyChange></FrequencyChanges></Clock>\n	Hungry_Donkey_bar_English_2-114-1	60.017	-105	1.0.0.18	1	-232683102	Standard	2.0.10.353	2.0.10.353	07-01-2015	7/1/2015 5:06:12 PM	13:06:12	2.0.10.248	5	Bar87-13.bmp	89	2	?	10r_4g.bmp	0r_4g.bmp	2r_2g.bmp	0r_2g.bmp		0r_4g.bmp			TrialProc	TrialList	0	cvbn	-999999	16	112518	0	v	218	112736	16	-2	14	4	8	0	2	3	1	5	-10	0	-2	0	4	4	2	2	0	4
Hungry_Donkey_bar_English_2	114	1	<?xml version="1.0"?>\n<Clock xmlns:dt="urn:schemas-microsoft-com:datatypes"><Description dt:dt="string">E-Prime Primary Realtime Clock</Description><StartTime><Timestamp dt:dt="int">0</Timestamp><DateUtc dt:dt="string">2015-07-01T17:06:12Z</DateUtc></StartTime><FrequencyChanges><FrequencyChange><Frequency dt:dt="r8">3507685</Frequency><Timestamp dt:dt="r8">1563134716485</Timestamp><Current dt:dt="r8">0</Current><DateUtc dt:dt="string">2015-07-01T17:06:12Z</DateUtc></FrequencyChange></FrequencyChanges></Clock>\n	Hungry_Donkey_bar_English_2-114-1	60.017	-105	1.0.0.18	1	-232683102	Standard	2.0.10.353	2.0.10.353	07-01-2015	7/1/2015 5:06:12 PM	13:06:12	2.0.10.248	6	Bar87-13.bmp	91	1	?	0r_4g.bmp	0r_4g.bmp	0r_2g.bmp	0r_2g.bmp	0r_4g.bmp				TrialProc	TrialList	0	cvbn	-999999	16	114767	0	c	721	115488	20	-2	18	8	8	0	2	7	1	6	0	0	0	0	4	4	2	2	0	4
Hungry_Donkey_bar_English_2	114	1	<?xml version="1.0"?>\n<Clock xmlns:dt="urn:schemas-microsoft-com:datatypes"><Description dt:dt="string">E-Prime Primary Realtime Clock</Description><StartTime><Timestamp dt:dt="int">0</Timestamp><DateUtc dt:dt="string">2015-07-01T17:06:12Z</DateUtc></StartTime><FrequencyChanges><FrequencyChange><Frequency dt:dt="r8">3507685</Frequency><Timestamp dt:dt="r8">1563134716485</Timestamp><Current dt:dt="r8">0</Current><DateUtc dt:dt="string">2015-07-01T17:06:12Z</DateUtc></FrequencyChange></FrequencyChanges></Clock>\n	Hungry_Donkey_bar_English_2-114-1	60.017	-105	1.0.0.18	1	-232683102	Standard	2.0.10.353	2.0.10.353	07-01-2015	7/1/2015 5:06:12 PM	13:06:12	2.0.10.248	7	Bar87-13.bmp	92	2	?	12r_4g.bmp	0r_4g.bmp	3r_2g.bmp	0r_2g.bmp		0r_4g.bmp			TrialProc	TrialList	0	cvbn	-999999	16	117516	0	v	724	118240	24	-2	22	8	12	0	2	5	1	7	-12	0	-3	0	4	4	2	2	0	4
Hungry_Donkey_bar_English_2	114	1	<?xml version="1.0"?>\n<Clock xmlns:dt="urn:schemas-microsoft-com:datatypes"><Description dt:dt="string">E-Prime Primary Realtime Clock</Description><StartTime><Timestamp dt:dt="int">0</Timestamp><DateUtc dt:dt="string">2015-07-01T17:06:12Z</DateUtc></StartTime><FrequencyChanges><FrequencyChange><Frequency dt:dt="r8">3507685</Frequency><Timestamp dt:dt="r8">1563134716485</Timestamp><Current dt:dt="r8">0</Current><DateUtc dt:dt="string">2015-07-01T17:06:12Z</DateUtc></FrequencyChange></FrequencyChanges></Clock>\n	Hungry_Donkey_bar_English_2-114-1	60.017	-105	1.0.0.18	1	-232683102	Standard	2.0.10.353	2.0.10.353	07-01-2015	7/1/2015 5:06:12 PM	13:06:12	2.0.10.248	8	Bar75-25.bmp	70	1	?	10r_4g.bmp	0r_4g.bmp	2r_2g.bmp	0r_2g.bmp	10r_4g.bmp				TrialProc	TrialList	0	cvbn	-999999	16	120266	0	c	2550	122816	28	-12	16	2	12	0	2	2	1	8	-10	0	-2	0	4	4	2	2	-10	4
Hungry_Donkey_bar_English_2	114	1	<?xml version="1.0"?>\n<Clock xmlns:dt="urn:schemas-microsoft-com:datatypes"><Description dt:dt="string">E-Prime Primary Realtime Clock</Description><StartTime><Timestamp dt:dt="int">0</Timestamp><DateUtc dt:dt="string">2015-07-01T17:06:12Z</DateUtc></StartTime><FrequencyChanges><FrequencyChange><Frequency dt:dt="r8">3507685</Frequency><Timestamp dt:dt="r8">1563134716485</Timestamp><Current dt:dt="r8">0</Current><DateUtc dt:dt="string">2015-07-01T17:06:12Z</DateUtc></FrequencyChange></FrequencyChanges></Clock>\n	Hungry_Donkey_bar_English_2-114-1	60.017	-105	1.0.0.18	1	-232683102	Standard	2.0.10.353	2.0.10.353	07-01-2015	7/1/2015 5:06:12 PM	13:06:12	2.0.10.248	9	Bar37-63.bmp	34	2	?	8r_4g.bmp	50r_4g.bmp	1r_2g.bmp	10r_2g.bmp		50r_4g.bmp			TrialProc	TrialList	0	cvbn	-999999	16	124848	0	v	1680	126528	32	-62	-30	2	-34	0	2	1	1	9	-8	-50	-1	-10	4	4	2	2	-50	4
Hungry_Donkey_bar_English_2	114	1	<?xml version="1.0"?>\n<Clock xmlns:dt="urn:schemas-microsoft-com:datatypes"><Description dt:dt="string">E-Prime Primary Realtime Clock</Description><StartTime><Timestamp dt:dt="int">0</Timestamp><DateUtc dt:dt="string">2015-07-01T17:06:12Z</DateUtc></StartTime><FrequencyChanges><FrequencyChange><Frequency dt:dt="r8">3507685</Frequency><Timestamp dt:dt="r8">1563134716485</Timestamp><Current dt:dt="r8">0</Current><DateUtc dt:dt="string">2015-07-01T17:06:12Z</DateUtc></FrequencyChange></FrequencyChanges></Clock>\n	Hungry_Donkey_bar_English_2-114-1	60.017	-105	1.0.0.18	1	-232683102	Standard	2.0.10.353	2.0.10.353	07-01-2015	7/1/2015 5:06:12 PM	13:06:12	2.0.10.248	10	Bar37-63.bmp	35	3	?	0r_4g.bmp	0r_4g.bmp	0r_2g.bmp	0r_2g.bmp			0r_2g.bmp		TrialProc	TrialList	0	cvbn	-999999	16	128563	0	b	1852	130415	34	-62	-28	2	-34	2	2	10	1	10	0	0	0	0	4	4	2	2	0	2
Hungry_Donkey_bar_English_2	114	1	<?xml version="1.0"?>\n<Clock xmlns:dt="urn:schemas-microsoft-com:datatypes"><Description dt:dt="string">E-Prime Primary Realtime Clock</Description><StartTime><Timestamp dt:dt="int">0</Timestamp><DateUtc dt:dt="string">2015-07-01T17:06:12Z</DateUtc></StartTime><FrequencyChanges><FrequencyChange><Frequency dt:dt="r8">3507685</Frequency><Timestamp dt:dt="r8">1563134716485</Timestamp><Current dt:dt="r8">0</Current><DateUtc dt:dt="string">2015-07-01T17:06:12Z</DateUtc></FrequencyChange></FrequencyChanges></Clock>\n	Hungry_Donkey_bar_English_2-114-1	60.017	-105	1.0.0.18	1	-232683102	Standard	2.0.10.353	2.0.10.353	07-01-2015	7/1/2015 5:06:12 PM	13:06:12	2.0.10.248	11	Bar37-63.bmp	33	4	?	8r_4g.bmp	50r_4g.bmp	1r_2g.bmp	10r_2g.bmp				10r_2g.bmp	TrialProc	TrialList	0	cvbn	-999999	16	132445	0	n	2130	134575	36	-72	-36	2	-34	2	-6	1	2	11	-8	-50	-1	-10	4	4	2	2	-10	2
Hungry_Donkey_bar_English_2	114	1	<?xml version="1.0"?>\n<Clock xmlns:dt="urn:schemas-microsoft-com:datatypes"><Description dt:dt="string">E-Prime Primary Realtime Clock</Description><StartTime><Timestamp dt:dt="int">0</Timestamp><DateUtc dt:dt="string">2015-07-01T17:06:12Z</DateUtc></StartTime><FrequencyChanges><FrequencyChange><Frequency dt:dt="r8">3507685</Frequency><Timestamp dt:dt="r8">1563134716485</Timestamp><Current dt:dt="r8">0</Current><DateUtc dt:dt="string">2015-07-01T17:06:12Z</DateUtc></FrequencyChange></FrequencyChanges></Clock>\n	Hungry_Donkey_bar_English_2-114-1	60.017	-105	1.0.0.18	1	-232683102	Standard	2.0.10.353	2.0.10.353	07-01-2015	7/1/2015 5:06:12 PM	13:06:12	2.0.10.248	12	Bar37-63.bmp	34	3	?	10r_4g.bmp	0r_4g.bmp	2r_2g.bmp	0r_2g.bmp			2r_2g.bmp		TrialProc	TrialList	0	cvbn	-999999	16	136611	0	b	492	137103	38	-74	-36	2	-34	2	-6	2	2	12	-10	0	-2	0	4	4	2	2	-2	2
Hungry_Donkey_bar_English_2	114	1	<?xml version="1.0"?>\n<Clock xmlns:dt="urn:schemas-microsoft-com:datatypes"><Description dt:dt="string">E-Prime Primary Realtime Clock</Description><StartTime><Timestamp dt:dt="int">0</Timestamp><DateUtc dt:dt="string">2015-07-01T17:06:12Z</DateUtc></StartTime><FrequencyChanges><FrequencyChange><Frequency dt:dt="r8">3507685</Frequency><Timestamp dt:dt="r8">1563134716485</Timestamp><Current dt:dt="r8">0</Current><DateUtc dt:dt="string">2015-07-01T17:06:12Z</DateUtc></FrequencyChange></FrequencyChanges></Clock>\n	Hungry_Donkey_bar_English_2-114-1	60.017	-105	1.0.0.18	1	-232683102	Standard	2.0.10.353	2.0.10.353	07-01-2015	7/1/2015 5:06:12 PM	13:06:12	2.0.10.248	13	Bar37-63.bmp	36	2	?	10r_4g.bmp	0r_4g.bmp	2r_2g.bmp	0r_2g.bmp		0r_4g.bmp			TrialProc	TrialList	0	cvbn	-999999	15	139127	0	v	920	140047	42	-74	-32	2	-30	2	-6	3	2	13	-10	0	-2	0	4	4	2	2	0	4
Hungry_Donkey_bar_English_2	114	1	<?xml version="1.0"?>\n<Clock xmlns:dt="urn:schemas-microsoft-com:datatypes"><Description dt:dt="string">E-Prime Primary Realtime Clock</Description><StartTime><Timestamp dt:dt="int">0</Timestamp><DateUtc dt:dt="string">2015-07-01T17:06:12Z</DateUtc></StartTime><FrequencyChanges><FrequencyChange><Frequency dt:dt="r8">3507685</Frequency><Timestamp dt:dt="r8">1563134716485</Timestamp><Current dt:dt="r8">0</Current><DateUtc dt:dt="string">2015-07-01T17:06:12Z</DateUtc></FrequencyChange></FrequencyChanges></Clock>\n	Hungry_Donkey_bar_English_2-114-1	60.017	-105	1.0.0.18	1	-232683102	Standard	2.0.10.353	2.0.10.353	07-01-2015	7/1/2015 5:06:12 PM	13:06:12	2.0.10.248	14	Bar37-63.bmp	38	1	?	0r_4g.bmp	0r_4g.bmp	0r_2g.bmp	0r_2g.bmp	0r_4g.bmp				TrialProc	TrialList	0	cvbn	-999999	16	142076	0	c	2019	144095	46	-74	-28	6	-30	2	-6	8	2	14	0	0	0	0	4	4	2	2	0	4
Hungry_Donkey_bar_English_2	114	1	<?xml version="1.0"?>\n<Clock xmlns:dt="urn:schemas-microsoft-com:datatypes"><Description dt:dt="string">E-Prime Primary Realtime Clock</Description><StartTime><Timestamp dt:dt="int">0</Timestamp><DateUtc dt:dt="string">2015-07-01T17:06:12Z</DateUtc></StartTime><FrequencyChanges><FrequencyChange><Frequency dt:dt="r8">3507685</Frequency><Timestamp dt:dt="r8">1563134716485</Timestamp><Current dt:dt="r8">0</Current><DateUtc dt:dt="string">2015-07-01T17:06:12Z</DateUtc></FrequencyChange></FrequencyChanges></Clock>\n	Hungry_Donkey_bar_English_2-114-1	60.017	-105	1.0.0.18	1	-232683102	Standard	2.0.10.353	2.0.10.353	07-01-2015	7/1/2015 5:06:12 PM	13:06:12	2.0.10.248	15	Bar37-63.bmp	40	2	?	0r_4g.bmp	0r_4g.bmp	0r_2g.bmp	0r_2g.bmp		0r_4g.bmp			TrialProc	TrialList	0	cvbn	-999999	16	146125	0	v	978	147103	50	-74	-24	6	-26	2	-6	6	2	15	0	0	0	0	4	4	2	2	0	4
Hungry_Donkey_bar_English_2	114	1	<?xml version="1.0"?>\n<Clock xmlns:dt="urn:schemas-microsoft-com:datatypes"><Description dt:dt="string">E-Prime Primary Realtime Clock</Description><StartTime><Timestamp dt:dt="int">0</Timestamp><DateUtc dt:dt="string">2015-07-01T17:06:12Z</DateUtc></StartTime><FrequencyChanges><FrequencyChange><Frequency dt:dt="r8">3507685</Frequency><Timestamp dt:dt="r8">1563134716485</Timestamp><Current dt:dt="r8">0</Current><DateUtc dt:dt="string">2015-07-01T17:06:12Z</DateUtc></FrequencyChange></FrequencyChanges></Clock>\n	Hungry_Donkey_bar_English_2-114-1	60.017	-105	1.0.0.18	1	-232683102	Standard	2.0.10.353	2.0.10.353	07-01-2015	7/1/2015 5:06:12 PM	13:06:12	2.0.10.248	16	Bar37-63.bmp	41	3	?	0r_4g.bmp	0r_4g.bmp	0r_2g.bmp	0r_2g.bmp			0r_2g.bmp		TrialProc	TrialList	0	cvbn	-999999	16	149141	0	b	585	149726	52	-74	-22	6	-26	4	-6	9	2	16	0	0	0	0	4	4	2	2	0	2
Hungry_Donkey_bar_English_2	114	1	<?xml version="1.0"?>\n<Clock xmlns:dt="urn:schemas-microsoft-com:datatypes"><Description dt:dt="string">E-Prime Primary Realtime Clock</Description><StartTime><Timestamp dt:dt="int">0</Timestamp><DateUtc dt:dt="string">2015-07-01T17:06:12Z</DateUtc></StartTime><FrequencyChanges><FrequencyChange><Frequency dt:dt="r8">3507685</Frequency><Timestamp dt:dt="r8">1563134716485</Timestamp><Current dt:dt="r8">0</Current><DateUtc dt:dt="string">2015-07-01T17:06:12Z</DateUtc></FrequencyChange></FrequencyChanges></Clock>\n	Hungry_Donkey_bar_English_2-114-1	60.017	-105	1.0.0.18	1	-232683102	Standard	2.0.10.353	2.0.10.353	07-01-2015	7/1/2015 5:06:12 PM	13:06:12	2.0.10.248	17	Bar37-63.bmp	42	4	?	12r_4g.bmp	0r_4g.bmp	3r_2g.bmp	0r_2g.bmp				0r_2g.bmp	TrialProc	TrialList	0	cvbn	-999999	17	151757	0	n	1009	152766	54	-74	-20	6	-26	4	-4	5	2	17	-12	0	-3	0	4	4	2	2	0	2
Hungry_Donkey_bar_English_2	114	1	<?xml version="1.0"?>\n<Clock xmlns:dt="urn:schemas-microsoft-com:datatypes"><Description dt:dt="string">E-Prime Primary Realtime Clock</Description><StartTime><Timestamp dt:dt="int">0</Timestamp><DateUtc dt:dt="string">2015-07-01T17:06:12Z</DateUtc></StartTime><FrequencyChanges><FrequencyChange><Frequency dt:dt="r8">3507685</Frequency><Timestamp dt:dt="r8">1563134716485</Timestamp><Current dt:dt="r8">0</Current><DateUtc dt:dt="string">2015-07-01T17:06:12Z</DateUtc></FrequencyChange></FrequencyChanges></Clock>\n	Hungry_Donkey_bar_English_2-114-1	60.017	-105	1.0.0.18	1	-232683102	Standard	2.0.10.353	2.0.10.353	07-01-2015	7/1/2015 5:06:12 PM	13:06:12	2.0.10.248	18	Bar37-63.bmp	43	3	?	0r_4g.bmp	0r_4g.bmp	0r_2g.bmp	0r_2g.bmp			0r_2g.bmp		TrialProc	TrialList	0	cvbn	-999999	15	154789	0	b	489	155278	56	-74	-18	6	-26	6	-4	7	2	18	0	0	0	0	4	4	2	2	0	2
Hungry_Donkey_bar_English_2	114	1	<?xml version="1.0"?>\n<Clock xmlns:dt="urn:schemas-microsoft-com:datatypes"><Description dt:dt="string">E-Prime Primary Realtime Clock</Description><StartTime><Timestamp dt:dt="int">0</Timestamp><DateUtc dt:dt="string">2015-07-01T17:06:12Z</DateUtc></StartTime><FrequencyChanges><FrequencyChange><Frequency dt:dt="r8">3507685</Frequency><Timestamp dt:dt="r8">1563134716485</Timestamp><Current dt:dt="r8">0</Current><DateUtc dt:dt="string">2015-07-01T17:06:12Z</DateUtc></FrequencyChange></FrequencyChanges></Clock>\n	Hungry_Donkey_bar_English_2-114-1	60.017	-105	1.0.0.18	1	-232683102	Standard	2.0.10.353	2.0.10.353	07-01-2015	7/1/2015 5:06:12 PM	13:06:12	2.0.10.248	19	Bar50-50.bmp	45	2	?	0r_4g.bmp	0r_4g.bmp	0r_2g.bmp	0r_2g.bmp		0r_4g.bmp			TrialProc	TrialList	0	cvbn	-999999	16	157305	0	v	389	157694	60	-74	-14	6	-22	6	-4	10	2	19	0	0	0	0	4	4	2	2	0	4
Hungry_Donkey_bar_English_2	114	1	<?xml version="1.0"?>\n<Clock xmlns:dt="urn:schemas-microsoft-com:datatypes"><Description dt:dt="string">E-Prime Primary Realtime Clock</Description><StartTime><Timestamp dt:dt="int">0</Timestamp><DateUtc dt:dt="string">2015-07-01T17:06:12Z</DateUtc></StartTime><FrequencyChanges><FrequencyChange><Frequency dt:dt="r8">3507685</Frequency><Timestamp dt:dt="r8">1563134716485</Timestamp><Current dt:dt="r8">0</Current><DateUtc dt:dt="string">2015-07-01T17:06:12Z</DateUtc></FrequencyChange></FrequencyChanges></Clock>\n	Hungry_Donkey_bar_English_2-114-1	60.017	-105	1.0.0.18	1	-232683102	Standard	2.0.10.353	2.0.10.353	07-01-2015	7/1/2015 5:06:12 PM	13:06:12	2.0.10.248	20	Bar37-63.bmp	43	1	?	10r_4g.bmp	0r_4g.bmp	2r_2g.bmp	0r_2g.bmp	10r_4g.bmp				TrialProc	TrialList	0	cvbn	-999999	16	159721	0	c	677	160398	64	-84	-20	0	-22	6	-4	4	2	20	-10	0	-2	0	4	4	2	2	-10	4
Hungry_Donkey_bar_English_2	114	1	<?xml version="1.0"?>\n<Clock xmlns:dt="urn:schemas-microsoft-com:datatypes"><Description dt:dt="string">E-Prime Primary Realtime Clock</Description><StartTime><Timestamp dt:dt="int">0</Timestamp><DateUtc dt:dt="string">2015-07-01T17:06:12Z</DateUtc></StartTime><FrequencyChanges><FrequencyChange><Frequency dt:dt="r8">3507685</Frequency><Timestamp dt:dt="r8">1563134716485</Timestamp><Current dt:dt="r8">0</Current><DateUtc dt:dt="string">2015-07-01T17:06:12Z</DateUtc></FrequencyChange></FrequencyChanges></Clock>\n	Hungry_Donkey_bar_English_2-114-1	60.017	-105	1.0.0.18	1	-232683102	Standard	2.0.10.353	2.0.10.353	07-01-2015	7/1/2015 5:06:12 PM	13:06:12	2.0.10.248	21	Bar50-50.bmp	45	2	?	0r_4g.bmp	0r_4g.bmp	0r_2g.bmp	0r_2g.bmp		0r_4g.bmp			TrialProc	TrialList	0	cvbn	-999999	16	162437	0	v	1145	163582	68	-84	-16	0	-18	6	-4	8	3	21	0	0	0	0	4	4	2	2	0	4
Hungry_Donkey_bar_English_2	114	1	<?xml version="1.0"?>\n<Clock xmlns:dt="urn:schemas-microsoft-com:datatypes"><Description dt:dt="string">E-Prime Primary Realtime Clock</Description><StartTime><Timestamp dt:dt="int">0</Timestamp><DateUtc dt:dt="string">2015-07-01T17:06:12Z</DateUtc></StartTime><FrequencyChanges><FrequencyChange><Frequency dt:dt="r8">3507685</Frequency><Timestamp dt:dt="r8">1563134716485</Timestamp><Current dt:dt="r8">0</Current><DateUtc dt:dt="string">2015-07-01T17:06:12Z</DateUtc></FrequencyChange></FrequencyChanges></Clock>\n	Hungry_Donkey_bar_English_2-114-1	60.017	-105	1.0.0.18	1	-232683102	Standard	2.0.10.353	2.0.10.353	07-01-2015	7/1/2015 5:06:12 PM	13:06:12	2.0.10.248	22	Bar50-50.bmp	45	3	?	0r_4g.bmp	0r_4g.bmp	0r_2g.bmp	0r_2g.bmp			0r_2g.bmp		TrialProc	TrialList	0	cvbn	-999999	16	165619	0	b	731	166350	70	-84	-14	0	-18	8	-4	7	3	22	0	0	0	0	4	4	2	2	0	2
Hungry_Donkey_bar_English_2	114	1	<?xml version="1.0"?>\n<Clock xmlns:dt="urn:schemas-microsoft-com:datatypes"><Description dt:dt="string">E-Prime Primary Realtime Clock</Description><StartTime><Timestamp dt:dt="int">0</Timestamp><DateUtc dt:dt="string">2015-07-01T17:06:12Z</DateUtc></StartTime><FrequencyChanges><FrequencyChange><Frequency dt:dt="r8">3507685</Frequency><Timestamp dt:dt="r8">1563134716485</Timestamp><Current dt:dt="r8">0</Current><DateUtc dt:dt="string">2015-07-01T17:06:12Z</DateUtc></FrequencyChange></FrequencyChanges></Clock>\n	Hungry_Donkey_bar_English_2-114-1	60.017	-105	1.0.0.18	1	-232683102	Standard	2.0.10.353	2.0.10.353	07-01-2015	7/1/2015 5:06:12 PM	13:06:12	2.0.10.248	23	Bar37-63.bmp	43	4	?	8r_4g.bmp	50r_4g.bmp	1r_2g.bmp	10r_2g.bmp				10r_2g.bmp	TrialProc	TrialList	0	cvbn	-999999	16	168385	0	n	1052	169437	72	-94	-22	0	-18	8	-12	1	3	23	-8	-50	-1	-10	4	4	2	2	-10	2
Hungry_Donkey_bar_English_2	114	1	<?xml version="1.0"?>\n<Clock xmlns:dt="urn:schemas-microsoft-com:datatypes"><Description dt:dt="string">E-Prime Primary Realtime Clock</Description><StartTime><Timestamp dt:dt="int">0</Timestamp><DateUtc dt:dt="string">2015-07-01T17:06:12Z</DateUtc></StartTime><FrequencyChanges><FrequencyChange><Frequency dt:dt="r8">3507685</Frequency><Timestamp dt:dt="r8">1563134716485</Timestamp><Current dt:dt="r8">0</Current><DateUtc dt:dt="string">2015-07-01T17:06:12Z</DateUtc></FrequencyChange></FrequencyChanges></Clock>\n	Hungry_Donkey_bar_English_2-114-1	60.017	-105	1.0.0.18	1	-232683102	Standard	2.0.10.353	2.0.10.353	07-01-2015	7/1/2015 5:06:12 PM	13:06:12	2.0.10.248	24	Bar37-63.bmp	43	3	?	12r_4g.bmp	0r_4g.bmp	3r_2g.bmp	0r_2g.bmp			3r_2g.bmp		TrialProc	TrialList	0	cvbn	-999999	17	171468	0	b	577	172045	74	-97	-23	0	-18	7	-12	5	3	24	-12	0	-3	0	4	4	2	2	-3	2
Hungry_Donkey_bar_English_2	114	1	<?xml version="1.0"?>\n<Clock xmlns:dt="urn:schemas-microsoft-com:datatypes"><Description dt:dt="string">E-Prime Primary Realtime Clock</Description><StartTime><Timestamp dt:dt="int">0</Timestamp><DateUtc dt:dt="string">2015-07-01T17:06:12Z</DateUtc></StartTime><FrequencyChanges><FrequencyChange><Frequency dt:dt="r8">3507685</Frequency><Timestamp dt:dt="r8">1563134716485</Timestamp><Current dt:dt="r8">0</Current><DateUtc dt:dt="string">2015-07-01T17:06:12Z</DateUtc></FrequencyChange></FrequencyChanges></Clock>\n	Hungry_Donkey_bar_English_2-114-1	60.017	-105	1.0.0.18	1	-232683102	Standard	2.0.10.353	2.0.10.353	07-01-2015	7/1/2015 5:06:12 PM	13:06:12	2.0.10.248	25	Bar50-50.bmp	45	2	?	10r_4g.bmp	0r_4g.bmp	2r_2g.bmp	0r_2g.bmp		0r_4g.bmp			TrialProc	TrialList	0	cvbn	-999999	16	174083	0	v	602	174685	78	-97	-19	0	-14	7	-12	2	3	25	-10	0	-2	0	4	4	2	2	0	4
Hungry_Donkey_bar_English_2	114	1	<?xml version="1.0"?>\n<Clock xmlns:dt="urn:schemas-microsoft-com:datatypes"><Description dt:dt="string">E-Prime Primary Realtime Clock</Description><StartTime><Timestamp dt:dt="int">0</Timestamp><DateUtc dt:dt="string">2015-07-01T17:06:12Z</DateUtc></StartTime><FrequencyChanges><FrequencyChange><Frequency dt:dt="r8">3507685</Frequency><Timestamp dt:dt="r8">1563134716485</Timestamp><Current dt:dt="r8">0</Current><DateUtc dt:dt="string">2015-07-01T17:06:12Z</DateUtc></FrequencyChange></FrequencyChanges></Clock>\n	Hungry_Donkey_bar_English_2-114-1	60.017	-105	1.0.0.18	1	-232683102	Standard	2.0.10.353	2.0.10.353	07-01-2015	7/1/2015 5:06:12 PM	13:06:12	2.0.10.248	26	Bar50-50.bmp	46	2	?	0r_4g.bmp	0r_4g.bmp	0r_2g.bmp	0r_2g.bmp		0r_4g.bmp			TrialProc	TrialList	0	cvbn	-999999	16	176716	0	v	593	177309	82	-97	-15	0	-10	7	-12	10	3	26	0	0	0	0	4	4	2	2	0	4
Hungry_Donkey_bar_English_2	114	1	<?xml version="1.0"?>\n<Clock xmlns:dt="urn:schemas-microsoft-com:datatypes"><Description dt:dt="string">E-Prime Primary Realtime Clock</Description><StartTime><Timestamp dt:dt="int">0</Timestamp><DateUtc dt:dt="string">2015-07-01T17:06:12Z</DateUtc></StartTime><FrequencyChanges><FrequencyChange><Frequency dt:dt="r8">3507685</Frequency><Timestamp dt:dt="r8">1563134716485</Timestamp><Current dt:dt="r8">0</Current><DateUtc dt:dt="string">2015-07-01T17:06:12Z</DateUtc></FrequencyChange></FrequencyChanges></Clock>\n	Hungry_Donkey_bar_English_2-114-1	60.017	-105	1.0.0.18	1	-232683102	Standard	2.0.10.353	2.0.10.353	07-01-2015	7/1/2015 5:06:12 PM	13:06:12	2.0.10.248	27	Bar50-50.bmp	47	2	?	0r_4g.bmp	0r_4g.bmp	0r_2g.bmp	0r_2g.bmp		0r_4g.bmp			TrialProc	TrialList	0	cvbn	-999999	16	179332	0	v	937	180269	86	-97	-11	0	-6	7	-12	9	3	27	0	0	0	0	4	4	2	2	0	4
Hungry_Donkey_bar_English_2	114	1	<?xml version="1.0"?>\n<Clock xmlns:dt="urn:schemas-microsoft-com:datatypes"><Description dt:dt="string">E-Prime Primary Realtime Clock</Description><StartTime><Timestamp dt:dt="int">0</Timestamp><DateUtc dt:dt="string">2015-07-01T17:06:12Z</DateUtc></StartTime><FrequencyChanges><FrequencyChange><Frequency dt:dt="r8">3507685</Frequency><Timestamp dt:dt="r8">1563134716485</Timestamp><Current dt:dt="r8">0</Current><DateUtc dt:dt="string">2015-07-01T17:06:12Z</DateUtc></FrequencyChange></FrequencyChanges></Clock>\n	Hungry_Donkey_bar_English_2-114-1	60.017	-105	1.0.0.18	1	-232683102	Standard	2.0.10.353	2.0.10.353	07-01-2015	7/1/2015 5:06:12 PM	13:06:12	2.0.10.248	28	Bar50-50.bmp	48	2	?	0r_4g.bmp	0r_4g.bmp	0r_2g.bmp	0r_2g.bmp		0r_4g.bmp			TrialProc	TrialList	0	cvbn	-999999	16	182298	0	v	819	183117	90	-97	-7	0	-2	7	-12	6	3	28	0	0	0	0	4	4	2	2	0	4
Hungry_Donkey_bar_English_2	114	1	<?xml version="1.0"?>\n<Clock xmlns:dt="urn:schemas-microsoft-com:datatypes"><Description dt:dt="string">E-Prime Primary Realtime Clock</Description><StartTime><Timestamp dt:dt="int">0</Timestamp><DateUtc dt:dt="string">2015-07-01T17:06:12Z</DateUtc></StartTime><FrequencyChanges><FrequencyChange><Frequency dt:dt="r8">3507685</Frequency><Timestamp dt:dt="r8">1563134716485</Timestamp><Current dt:dt="r8">0</Current><DateUtc dt:dt="string">2015-07-01T17:06:12Z</DateUtc></FrequencyChange></FrequencyChanges></Clock>\n	Hungry_Donkey_bar_English_2-114-1	60.017	-105	1.0.0.18	1	-232683102	Standard	2.0.10.353	2.0.10.353	07-01-2015	7/1/2015 5:06:12 PM	13:06:12	2.0.10.248	29	Bar50-50.bmp	49	2	?	10r_4g.bmp	0r_4g.bmp	2r_2g.bmp	0r_2g.bmp		0r_4g.bmp			TrialProc	TrialList	0	cvbn	-999999	16	185147	0	v	1154	186301	94	-97	-3	0	2	7	-12	3	3	29	-10	0	-2	0	4	4	2	2	0	4
Hungry_Donkey_bar_English_2	114	1	<?xml version="1.0"?>\n<Clock xmlns:dt="urn:schemas-microsoft-com:datatypes"><Description dt:dt="string">E-Prime Primary Realtime Clock</Description><StartTime><Timestamp dt:dt="int">0</Timestamp><DateUtc dt:dt="string">2015-07-01T17:06:12Z</DateUtc></StartTime><FrequencyChanges><FrequencyChange><Frequency dt:dt="r8">3507685</Frequency><Timestamp dt:dt="r8">1563134716485</Timestamp><Current dt:dt="r8">0</Current><DateUtc dt:dt="string">2015-07-01T17:06:12Z</DateUtc></FrequencyChange></FrequencyChanges></Clock>\n	Hungry_Donkey_bar_English_2-114-1	60.017	-105	1.0.0.18	1	-232683102	Standard	2.0.10.353	2.0.10.353	07-01-2015	7/1/2015 5:06:12 PM	13:06:12	2.0.10.248	30	Bar50-50.bmp	49	3	?	10r_4g.bmp	0r_4g.bmp	2r_2g.bmp	0r_2g.bmp			2r_2g.bmp		TrialProc	TrialList	0	cvbn	-999999	16	188329	0	b	1283	189612	96	-99	-3	0	2	7	-12	4	3	30	-10	0	-2	0	4	4	2	2	-2	2
Hungry_Donkey_bar_English_2	114	1	<?xml version="1.0"?>\n<Clock xmlns:dt="urn:schemas-microsoft-com:datatypes"><Description dt:dt="string">E-Prime Primary Realtime Clock</Description><StartTime><Timestamp dt:dt="int">0</Timestamp><DateUtc dt:dt="string">2015-07-01T17:06:12Z</DateUtc></StartTime><FrequencyChanges><FrequencyChange><Frequency dt:dt="r8">3507685</Frequency><Timestamp dt:dt="r8">1563134716485</Timestamp><Current dt:dt="r8">0</Current><DateUtc dt:dt="string">2015-07-01T17:06:12Z</DateUtc></FrequencyChange></FrequencyChanges></Clock>\n	Hungry_Donkey_bar_English_2-114-1	60.017	-105	1.0.0.18	1	-232683102	Standard	2.0.10.353	2.0.10.353	07-01-2015	7/1/2015 5:06:12 PM	13:06:12	2.0.10.248	31	Bar50-50.bmp	50	2	?	0r_4g.bmp	0r_4g.bmp	0r_2g.bmp	0r_2g.bmp		0r_4g.bmp			TrialProc	TrialList	0	cvbn	-999999	16	191645	0	v	671	192316	100	-99	1	0	6	7	-12	10	4	31	0	0	0	0	4	4	2	2	0	4
Hungry_Donkey_bar_English_2	114	1	<?xml version="1.0"?>\n<Clock xmlns:dt="urn:schemas-microsoft-com:datatypes"><Description dt:dt="string">E-Prime Primary Realtime Clock</Description><StartTime><Timestamp dt:dt="int">0</Timestamp><DateUtc dt:dt="string">2015-07-01T17:06:12Z</DateUtc></StartTime><FrequencyChanges><FrequencyChange><Frequency dt:dt="r8">3507685</Frequency><Timestamp dt:dt="r8">1563134716485</Timestamp><Current dt:dt="r8">0</Current><DateUtc dt:dt="string">2015-07-01T17:06:12Z</DateUtc></FrequencyChange></FrequencyChanges></Clock>\n	Hungry_Donkey_bar_English_2-114-1	60.017	-105	1.0.0.18	1	-232683102	Standard	2.0.10.353	2.0.10.353	07-01-2015	7/1/2015 5:06:12 PM	13:06:12	2.0.10.248	32	Bar50-50.bmp	51	2	?	0r_4g.bmp	0r_4g.bmp	0r_2g.bmp	0r_2g.bmp		0r_4g.bmp			TrialProc	TrialList	0	cvbn	-999999	16	194344	0	v	1556	195900	104	-99	5	0	10	7	-12	9	4	32	0	0	0	0	4	4	2	2	0	4
Hungry_Donkey_bar_English_2	114	1	<?xml version="1.0"?>\n<Clock xmlns:dt="urn:schemas-microsoft-com:datatypes"><Description dt:dt="string">E-Prime Primary Realtime Clock</Description><StartTime><Timestamp dt:dt="int">0</Timestamp><DateUtc dt:dt="string">2015-07-01T17:06:12Z</DateUtc></StartTime><FrequencyChanges><FrequencyChange><Frequency dt:dt="r8">3507685</Frequency><Timestamp dt:dt="r8">1563134716485</Timestamp><Current dt:dt="r8">0</Current><DateUtc dt:dt="string">2015-07-01T17:06:12Z</DateUtc></FrequencyChange></FrequencyChanges></Clock>\n	Hungry_Donkey_bar_English_2-114-1	60.017	-105	1.0.0.18	1	-232683102	Standard	2.0.10.353	2.0.10.353	07-01-2015	7/1/2015 5:06:12 PM	13:06:12	2.0.10.248	33	Bar50-50.bmp	52	2	?	0r_4g.bmp	0r_4g.bmp	0r_2g.bmp	0r_2g.bmp		0r_4g.bmp			TrialProc	TrialList	0	cvbn	-999999	17	197927	0	v	1797	199724	108	-99	9	0	14	7	-12	8	4	33	0	0	0	0	4	4	2	2	0	4
Hungry_Donkey_bar_English_2	114	1	<?xml version="1.0"?>\n<Clock xmlns:dt="urn:schemas-microsoft-com:datatypes"><Description dt:dt="string">E-Prime Primary Realtime Clock</Description><StartTime><Timestamp dt:dt="int">0</Timestamp><DateUtc dt:dt="string">2015-07-01T17:06:12Z</DateUtc></StartTime><FrequencyChanges><FrequencyChange><Frequency dt:dt="r8">3507685</Frequency><Timestamp dt:dt="r8">1563134716485</Timestamp><Current dt:dt="r8">0</Current><DateUtc dt:dt="string">2015-07-01T17:06:12Z</DateUtc></FrequencyChange></FrequencyChanges></Clock>\n	Hungry_Donkey_bar_English_2-114-1	60.017	-105	1.0.0.18	1	-232683102	Standard	2.0.10.353	2.0.10.353	07-01-2015	7/1/2015 5:06:12 PM	13:06:12	2.0.10.248	34	Bar50-50.bmp	53	2	?	10r_4g.bmp	0r_4g.bmp	2r_2g.bmp	0r_2g.bmp		0r_4g.bmp			TrialProc	TrialList	0	cvbn	-999999	16	201759	0	v	893	202652	112	-99	13	0	18	7	-12	2	4	34	-10	0	-2	0	4	4	2	2	0	4
Hungry_Donkey_bar_English_2	114	1	<?xml version="1.0"?>\n<Clock xmlns:dt="urn:schemas-microsoft-com:datatypes"><Description dt:dt="string">E-Prime Primary Realtime Clock</Description><StartTime><Timestamp dt:dt="int">0</Timestamp><DateUtc dt:dt="string">2015-07-01T17:06:12Z</DateUtc></StartTime><FrequencyChanges><FrequencyChange><Frequency dt:dt="r8">3507685</Frequency><Timestamp dt:dt="r8">1563134716485</Timestamp><Current dt:dt="r8">0</Current><DateUtc dt:dt="string">2015-07-01T17:06:12Z</DateUtc></FrequencyChange></FrequencyChanges></Clock>\n	Hungry_Donkey_bar_English_2-114-1	60.017	-105	1.0.0.18	1	-232683102	Standard	2.0.10.353	2.0.10.353	07-01-2015	7/1/2015 5:06:12 PM	13:06:12	2.0.10.248	35	Bar50-50.bmp	54	2	?	0r_4g.bmp	0r_4g.bmp	0r_2g.bmp	0r_2g.bmp		0r_4g.bmp			TrialProc	TrialList	0	cvbn	-999999	16	204675	0	v	1961	206636	116	-99	17	0	22	7	-12	7	4	35	0	0	0	0	4	4	2	2	0	4
Hungry_Donkey_bar_English_2	114	1	<?xml version="1.0"?>\n<Clock xmlns:dt="urn:schemas-microsoft-com:datatypes"><Description dt:dt="string">E-Prime Primary Realtime Clock</Description><StartTime><Timestamp dt:dt="int">0</Timestamp><DateUtc dt:dt="string">2015-07-01T17:06:12Z</DateUtc></StartTime><FrequencyChanges><FrequencyChange><Frequency dt:dt="r8">3507685</Frequency><Timestamp dt:dt="r8">1563134716485</Timestamp><Current dt:dt="r8">0</Current><DateUtc dt:dt="string">2015-07-01T17:06:12Z</DateUtc></FrequencyChange></FrequencyChanges></Clock>\n	Hungry_Donkey_bar_English_2-114-1	60.017	-105	1.0.0.18	1	-232683102	Standard	2.0.10.353	2.0.10.353	07-01-2015	7/1/2015 5:06:12 PM	13:06:12	2.0.10.248	36	Bar50-50.bmp	45	2	?	8r_4g.bmp	50r_4g.bmp	1r_2g.bmp	10r_2g.bmp		50r_4g.bmp			TrialProc	TrialList	0	cvbn	-999999	16	208673	0	v	1178	209851	120	-149	-29	0	-24	7	-12	1	4	36	-8	-50	-1	-10	4	4	2	2	-50	4
Hungry_Donkey_bar_English_2	114	1	<?xml version="1.0"?>\n<Clock xmlns:dt="urn:schemas-microsoft-com:datatypes"><Description dt:dt="string">E-Prime Primary Realtime Clock</Description><StartTime><Timestamp dt:dt="int">0</Timestamp><DateUtc dt:dt="string">2015-07-01T17:06:12Z</DateUtc></StartTime><FrequencyChanges><FrequencyChange><Frequency dt:dt="r8">3507685</Frequency><Timestamp dt:dt="r8">1563134716485</Timestamp><Current dt:dt="r8">0</Current><DateUtc dt:dt="string">2015-07-01T17:06:12Z</DateUtc></FrequencyChange></FrequencyChanges></Clock>\n	Hungry_Donkey_bar_English_2-114-1	60.017	-105	1.0.0.18	1	-232683102	Standard	2.0.10.353	2.0.10.353	07-01-2015	7/1/2015 5:06:12 PM	13:06:12	2.0.10.248	37	Bar50-50.bmp	45	3	?	0r_4g.bmp	0r_4g.bmp	0r_2g.bmp	0r_2g.bmp			0r_2g.bmp		TrialProc	TrialList	0	cvbn	-999999	16	211889	0	b	842	212731	122	-149	-27	0	-24	9	-12	6	4	37	0	0	0	0	4	4	2	2	0	2
Hungry_Donkey_bar_English_2	114	1	<?xml version="1.0"?>\n<Clock xmlns:dt="urn:schemas-microsoft-com:datatypes"><Description dt:dt="string">E-Prime Primary Realtime Clock</Description><StartTime><Timestamp dt:dt="int">0</Timestamp><DateUtc dt:dt="string">2015-07-01T17:06:12Z</DateUtc></StartTime><FrequencyChanges><FrequencyChange><Frequency dt:dt="r8">3507685</Frequency><Timestamp dt:dt="r8">1563134716485</Timestamp><Current dt:dt="r8">0</Current><DateUtc dt:dt="string">2015-07-01T17:06:12Z</DateUtc></FrequencyChange></FrequencyChanges></Clock>\n	Hungry_Donkey_bar_English_2-114-1	60.017	-105	1.0.0.18	1	-232683102	Standard	2.0.10.353	2.0.10.353	07-01-2015	7/1/2015 5:06:12 PM	13:06:12	2.0.10.248	38	Bar50-50.bmp	45	4	?	10r_4g.bmp	0r_4g.bmp	2r_2g.bmp	0r_2g.bmp				0r_2g.bmp	TrialProc	TrialList	0	cvbn	-999999	16	214755	0	n	1256	216011	124	-149	-25	0	-24	9	-10	4	4	38	-10	0	-2	0	4	4	2	2	0	2
Hungry_Donkey_bar_English_2	114	1	<?xml version="1.0"?>\n<Clock xmlns:dt="urn:schemas-microsoft-com:datatypes"><Description dt:dt="string">E-Prime Primary Realtime Clock</Description><StartTime><Timestamp dt:dt="int">0</Timestamp><DateUtc dt:dt="string">2015-07-01T17:06:12Z</DateUtc></StartTime><FrequencyChanges><FrequencyChange><Frequency dt:dt="r8">3507685</Frequency><Timestamp dt:dt="r8">1563134716485</Timestamp><Current dt:dt="r8">0</Current><DateUtc dt:dt="string">2015-07-01T17:06:12Z</DateUtc></FrequencyChange></FrequencyChanges></Clock>\n	Hungry_Donkey_bar_English_2-114-1	60.017	-105	1.0.0.18	1	-232683102	Standard	2.0.10.353	2.0.10.353	07-01-2015	7/1/2015 5:06:12 PM	13:06:12	2.0.10.248	39	Bar50-50.bmp	44	1	?	12r_4g.bmp	0r_4g.bmp	3r_2g.bmp	0r_2g.bmp	12r_4g.bmp				TrialProc	TrialList	0	cvbn	-999999	16	218037	0	c	518	218555	128	-161	-33	-8	-24	9	-10	5	4	39	-12	0	-3	0	4	4	2	2	-12	4
Hungry_Donkey_bar_English_2	114	1	<?xml version="1.0"?>\n<Clock xmlns:dt="urn:schemas-microsoft-com:datatypes"><Description dt:dt="string">E-Prime Primary Realtime Clock</Description><StartTime><Timestamp dt:dt="int">0</Timestamp><DateUtc dt:dt="string">2015-07-01T17:06:12Z</DateUtc></StartTime><FrequencyChanges><FrequencyChange><Frequency dt:dt="r8">3507685</Frequency><Timestamp dt:dt="r8">1563134716485</Timestamp><Current dt:dt="r8">0</Current><DateUtc dt:dt="string">2015-07-01T17:06:12Z</DateUtc></FrequencyChange></FrequencyChanges></Clock>\n	Hungry_Donkey_bar_English_2-114-1	60.017	-105	1.0.0.18	1	-232683102	Standard	2.0.10.353	2.0.10.353	07-01-2015	7/1/2015 5:06:12 PM	13:06:12	2.0.10.248	40	Bar50-50.bmp	45	2	?	10r_4g.bmp	0r_4g.bmp	2r_2g.bmp	0r_2g.bmp		0r_4g.bmp			TrialProc	TrialList	0	cvbn	-999999	16	220587	0	v	752	221339	132	-161	-29	-8	-20	9	-10	3	4	40	-10	0	-2	0	4	4	2	2	0	4
Hungry_Donkey_bar_English_2	114	1	<?xml version="1.0"?>\n<Clock xmlns:dt="urn:schemas-microsoft-com:datatypes"><Description dt:dt="string">E-Prime Primary Realtime Clock</Description><StartTime><Timestamp dt:dt="int">0</Timestamp><DateUtc dt:dt="string">2015-07-01T17:06:12Z</DateUtc></StartTime><FrequencyChanges><FrequencyChange><Frequency dt:dt="r8">3507685</Frequency><Timestamp dt:dt="r8">1563134716485</Timestamp><Current dt:dt="r8">0</Current><DateUtc dt:dt="string">2015-07-01T17:06:12Z</DateUtc></FrequencyChange></FrequencyChanges></Clock>\n	Hungry_Donkey_bar_English_2-114-1	60.017	-105	1.0.0.18	1	-232683102	Standard	2.0.10.353	2.0.10.353	07-01-2015	7/1/2015 5:06:12 PM	13:06:12	2.0.10.248	41	Bar50-50.bmp	45	3	?	10r_4g.bmp	0r_4g.bmp	2r_2g.bmp	0r_2g.bmp			2r_2g.bmp		TrialProc	TrialList	0	cvbn	-999999	16	223369	0	b	530	223899	134	-163	-29	-8	-20	9	-10	2	5	41	-10	0	-2	0	4	4	2	2	-2	2
Hungry_Donkey_bar_English_2	114	1	<?xml version="1.0"?>\n<Clock xmlns:dt="urn:schemas-microsoft-com:datatypes"><Description dt:dt="string">E-Prime Primary Realtime Clock</Description><StartTime><Timestamp dt:dt="int">0</Timestamp><DateUtc dt:dt="string">2015-07-01T17:06:12Z</DateUtc></StartTime><FrequencyChanges><FrequencyChange><Frequency dt:dt="r8">3507685</Frequency><Timestamp dt:dt="r8">1563134716485</Timestamp><Current dt:dt="r8">0</Current><DateUtc dt:dt="string">2015-07-01T17:06:12Z</DateUtc></FrequencyChange></FrequencyChanges></Clock>\n	Hungry_Donkey_bar_English_2-114-1	60.017	-105	1.0.0.18	1	-232683102	Standard	2.0.10.353	2.0.10.353	07-01-2015	7/1/2015 5:06:12 PM	13:06:12	2.0.10.248	42	Bar50-50.bmp	45	4	?	10r_4g.bmp	0r_4g.bmp	2r_2g.bmp	0r_2g.bmp				0r_2g.bmp	TrialProc	TrialList	0	cvbn	-999999	16	225935	0	n	907	226842	136	-163	-27	-8	-20	9	-8	3	5	42	-10	0	-2	0	4	4	2	2	0	2
Hungry_Donkey_bar_English_2	114	1	<?xml version="1.0"?>\n<Clock xmlns:dt="urn:schemas-microsoft-com:datatypes"><Description dt:dt="string">E-Prime Primary Realtime Clock</Description><StartTime><Timestamp dt:dt="int">0</Timestamp><DateUtc dt:dt="string">2015-07-01T17:06:12Z</DateUtc></StartTime><FrequencyChanges><FrequencyChange><Frequency dt:dt="r8">3507685</Frequency><Timestamp dt:dt="r8">1563134716485</Timestamp><Current dt:dt="r8">0</Current><DateUtc dt:dt="string">2015-07-01T17:06:12Z</DateUtc></FrequencyChange></FrequencyChanges></Clock>\n	Hungry_Donkey_bar_English_2-114-1	60.017	-105	1.0.0.18	1	-232683102	Standard	2.0.10.353	2.0.10.353	07-01-2015	7/1/2015 5:06:12 PM	13:06:12	2.0.10.248	43	Bar50-50.bmp	46	2	?	0r_4g.bmp	0r_4g.bmp	0r_2g.bmp	0r_2g.bmp		0r_4g.bmp			TrialProc	TrialList	0	cvbn	-999999	16	228868	0	v	934	229802	140	-163	-23	-8	-16	9	-8	7	5	43	0	0	0	0	4	4	2	2	0	4
Hungry_Donkey_bar_English_2	114	1	<?xml version="1.0"?>\n<Clock xmlns:dt="urn:schemas-microsoft-com:datatypes"><Description dt:dt="string">E-Prime Primary Realtime Clock</Description><StartTime><Timestamp dt:dt="int">0</Timestamp><DateUtc dt:dt="string">2015-07-01T17:06:12Z</DateUtc></StartTime><FrequencyChanges><FrequencyChange><Frequency dt:dt="r8">3507685</Frequency><Timestamp dt:dt="r8">1563134716485</Timestamp><Current dt:dt="r8">0</Current><DateUtc dt:dt="string">2015-07-01T17:06:12Z</DateUtc></FrequencyChange></FrequencyChanges></Clock>\n	Hungry_Donkey_bar_English_2-114-1	60.017	-105	1.0.0.18	1	-232683102	Standard	2.0.10.353	2.0.10.353	07-01-2015	7/1/2015 5:06:12 PM	13:06:12	2.0.10.248	44	Bar50-50.bmp	47	4	?	0r_4g.bmp	0r_4g.bmp	0r_2g.bmp	0r_2g.bmp				0r_2g.bmp	TrialProc	TrialList	0	cvbn	-999999	16	231833	0	n	673	232506	142	-163	-21	-8	-16	9	-6	6	5	44	0	0	0	0	4	4	2	2	0	2
Hungry_Donkey_bar_English_2	114	1	<?xml version="1.0"?>\n<Clock xmlns:dt="urn:schemas-microsoft-com:datatypes"><Description dt:dt="string">E-Prime Primary Realtime Clock</Description><StartTime><Timestamp dt:dt="int">0</Timestamp><DateUtc dt:dt="string">2015-07-01T17:06:12Z</DateUtc></StartTime><FrequencyChanges><FrequencyChange><Frequency dt:dt="r8">3507685</Frequency><Timestamp dt:dt="r8">1563134716485</Timestamp><Current dt:dt="r8">0</Current><DateUtc dt:dt="string">2015-07-01T17:06:12Z</DateUtc></FrequencyChange></FrequencyChanges></Clock>\n	Hungry_Donkey_bar_English_2-114-1	60.017	-105	1.0.0.18	1	-232683102	Standard	2.0.10.353	2.0.10.353	07-01-2015	7/1/2015 5:06:12 PM	13:06:12	2.0.10.248	45	Bar50-50.bmp	47	2	?	0r_4g.bmp	0r_4g.bmp	0r_2g.bmp	0r_2g.bmp		0r_4g.bmp			TrialProc	TrialList	0	cvbn	-999999	16	234533	0	v	613	235146	146	-163	-17	-8	-12	9	-6	10	5	45	0	0	0	0	4	4	2	2	0	4
Hungry_Donkey_bar_English_2	114	1	<?xml version="1.0"?>\n<Clock xmlns:dt="urn:schemas-microsoft-com:datatypes"><Description dt:dt="string">E-Prime Primary Realtime Clock</Description><StartTime><Timestamp dt:dt="int">0</Timestamp><DateUtc dt:dt="string">2015-07-01T17:06:12Z</DateUtc></StartTime><FrequencyChanges><FrequencyChange><Frequency dt:dt="r8">3507685</Frequency><Timestamp dt:dt="r8">1563134716485</Timestamp><Current dt:dt="r8">0</Current><DateUtc dt:dt="string">2015-07-01T17:06:12Z</DateUtc></FrequencyChange></FrequencyChanges></Clock>\n	Hungry_Donkey_bar_English_2-114-1	60.017	-105	1.0.0.18	1	-232683102	Standard	2.0.10.353	2.0.10.353	07-01-2015	7/1/2015 5:06:12 PM	13:06:12	2.0.10.248	46	Bar50-50.bmp	48	4	?	0r_4g.bmp	0r_4g.bmp	0r_2g.bmp	0r_2g.bmp				0r_2g.bmp	TrialProc	TrialList	0	cvbn	-999999	16	237182	0	n	460	237642	148	-163	-15	-8	-12	9	-4	9	5	46	0	0	0	0	4	4	2	2	0	2
Hungry_Donkey_bar_English_2	114	1	<?xml version="1.0"?>\n<Clock xmlns:dt="urn:schemas-microsoft-com:datatypes"><Description dt:dt="string">E-Prime Primary Realtime Clock</Description><StartTime><Timestamp dt:dt="int">0</Timestamp><DateUtc dt:dt="string">2015-07-01T17:06:12Z</DateUtc></StartTime><FrequencyChanges><FrequencyChange><Frequency dt:dt="r8">3507685</Frequency><Timestamp dt:dt="r8">1563134716485</Timestamp><Current dt:dt="r8">0</Current><DateUtc dt:dt="string">2015-07-01T17:06:12Z</DateUtc></FrequencyChange></FrequencyChanges></Clock>\n	Hungry_Donkey_bar_English_2-114-1	60.017	-105	1.0.0.18	1	-232683102	Standard	2.0.10.353	2.0.10.353	07-01-2015	7/1/2015 5:06:12 PM	13:06:12	2.0.10.248	47	Bar50-50.bmp	48	2	?	0r_4g.bmp	0r_4g.bmp	0r_2g.bmp	0r_2g.bmp		0r_4g.bmp			TrialProc	TrialList	0	cvbn	-999999	16	239681	0	v	601	240282	152	-163	-11	-8	-8	9	-4	8	5	47	0	0	0	0	4	4	2	2	0	4
Hungry_Donkey_bar_English_2	114	1	<?xml version="1.0"?>\n<Clock xmlns:dt="urn:schemas-microsoft-com:datatypes"><Description dt:dt="string">E-Prime Primary Realtime Clock</Description><StartTime><Timestamp dt:dt="int">0</Timestamp><DateUtc dt:dt="string">2015-07-01T17:06:12Z</DateUtc></StartTime><FrequencyChanges><FrequencyChange><Frequency dt:dt="r8">3507685</Frequency><Timestamp dt:dt="r8">1563134716485</Timestamp><Current dt:dt="r8">0</Current><DateUtc dt:dt="string">2015-07-01T17:06:12Z</DateUtc></FrequencyChange></FrequencyChanges></Clock>\n	Hungry_Donkey_bar_English_2-114-1	60.017	-105	1.0.0.18	1	-232683102	Standard	2.0.10.353	2.0.10.353	07-01-2015	7/1/2015 5:06:12 PM	13:06:12	2.0.10.248	48	Bar50-50.bmp	49	4	?	10r_4g.bmp	0r_4g.bmp	2r_2g.bmp	0r_2g.bmp				0r_2g.bmp	TrialProc	TrialList	0	cvbn	-999999	16	242314	0	n	800	243114	154	-163	-9	-8	-8	9	-2	4	5	48	-10	0	-2	0	4	4	2	2	0	2
Hungry_Donkey_bar_English_2	114	1	<?xml version="1.0"?>\n<Clock xmlns:dt="urn:schemas-microsoft-com:datatypes"><Description dt:dt="string">E-Prime Primary Realtime Clock</Description><StartTime><Timestamp dt:dt="int">0</Timestamp><DateUtc dt:dt="string">2015-07-01T17:06:12Z</DateUtc></StartTime><FrequencyChanges><FrequencyChange><Frequency dt:dt="r8">3507685</Frequency><Timestamp dt:dt="r8">1563134716485</Timestamp><Current dt:dt="r8">0</Current><DateUtc dt:dt="string">2015-07-01T17:06:12Z</DateUtc></FrequencyChange></FrequencyChanges></Clock>\n	Hungry_Donkey_bar_English_2-114-1	60.017	-105	1.0.0.18	1	-232683102	Standard	2.0.10.353	2.0.10.353	07-01-2015	7/1/2015 5:06:12 PM	13:06:12	2.0.10.248	49	Bar37-63.bmp	43	2	?	8r_4g.bmp	50r_4g.bmp	1r_2g.bmp	10r_2g.bmp		50r_4g.bmp			TrialProc	TrialList	0	cvbn	-999999	16	245146	0	v	848	245994	158	-213	-55	-8	-54	9	-2	1	5	49	-8	-50	-1	-10	4	4	2	2	-50	4
Hungry_Donkey_bar_English_2	114	1	<?xml version="1.0"?>\n<Clock xmlns:dt="urn:schemas-microsoft-com:datatypes"><Description dt:dt="string">E-Prime Primary Realtime Clock</Description><StartTime><Timestamp dt:dt="int">0</Timestamp><DateUtc dt:dt="string">2015-07-01T17:06:12Z</DateUtc></StartTime><FrequencyChanges><FrequencyChange><Frequency dt:dt="r8">3507685</Frequency><Timestamp dt:dt="r8">1563134716485</Timestamp><Current dt:dt="r8">0</Current><DateUtc dt:dt="string">2015-07-01T17:06:12Z</DateUtc></FrequencyChange></FrequencyChanges></Clock>\n	Hungry_Donkey_bar_English_2-114-1	60.017	-105	1.0.0.18	1	-232683102	Standard	2.0.10.353	2.0.10.353	07-01-2015	7/1/2015 5:06:12 PM	13:06:12	2.0.10.248	50	Bar37-63.bmp	43	4	?	12r_4g.bmp	0r_4g.bmp	3r_2g.bmp	0r_2g.bmp				0r_2g.bmp	TrialProc	TrialList	0	cvbn	-999999	16	248029	0	n	796	248825	160	-213	-53	-8	-54	9	0	5	5	50	-12	0	-3	0	4	4	2	2	0	2
Hungry_Donkey_bar_English_2	114	1	<?xml version="1.0"?>\n<Clock xmlns:dt="urn:schemas-microsoft-com:datatypes"><Description dt:dt="string">E-Prime Primary Realtime Clock</Description><StartTime><Timestamp dt:dt="int">0</Timestamp><DateUtc dt:dt="string">2015-07-01T17:06:12Z</DateUtc></StartTime><FrequencyChanges><FrequencyChange><Frequency dt:dt="r8">3507685</Frequency><Timestamp dt:dt="r8">1563134716485</Timestamp><Current dt:dt="r8">0</Current><DateUtc dt:dt="string">2015-07-01T17:06:12Z</DateUtc></FrequencyChange></FrequencyChanges></Clock>\n	Hungry_Donkey_bar_English_2-114-1	60.017	-105	1.0.0.18	1	-232683102	Standard	2.0.10.353	2.0.10.353	07-01-2015	7/1/2015 5:06:12 PM	13:06:12	2.0.10.248	51	Bar37-63.bmp	43	3	?	0r_4g.bmp	0r_4g.bmp	0r_2g.bmp	0r_2g.bmp			0r_2g.bmp		TrialProc	TrialList	0	cvbn	-999999	16	250861	0	b	604	251465	162	-213	-51	-8	-54	11	0	8	6	51	0	0	0	0	4	4	2	2	0	2
Hungry_Donkey_bar_English_2	114	1	<?xml version="1.0"?>\n<Clock xmlns:dt="urn:schemas-microsoft-com:datatypes"><Description dt:dt="string">E-Prime Primary Realtime Clock</Description><StartTime><Timestamp dt:dt="int">0</Timestamp><DateUtc dt:dt="string">2015-07-01T17:06:12Z</DateUtc></StartTime><FrequencyChanges><FrequencyChange><Frequency dt:dt="r8">3507685</Frequency><Timestamp dt:dt="r8">1563134716485</Timestamp><Current dt:dt="r8">0</Current><DateUtc dt:dt="string">2015-07-01T17:06:12Z</DateUtc></FrequencyChange></FrequencyChanges></Clock>\n	Hungry_Donkey_bar_English_2-114-1	60.017	-105	1.0.0.18	1	-232683102	Standard	2.0.10.353	2.0.10.353	07-01-2015	7/1/2015 5:06:12 PM	13:06:12	2.0.10.248	52	Bar50-50.bmp	44	1	?	0r_4g.bmp	0r_4g.bmp	0r_2g.bmp	0r_2g.bmp	0r_4g.bmp				TrialProc	TrialList	0	cvbn	-999999	16	253494	0	c	563	254057	166	-213	-47	-4	-54	11	0	10	6	52	0	0	0	0	4	4	2	2	0	4
Hungry_Donkey_bar_English_2	114	1	<?xml version="1.0"?>\n<Clock xmlns:dt="urn:schemas-microsoft-com:datatypes"><Description dt:dt="string">E-Prime Primary Realtime Clock</Description><StartTime><Timestamp dt:dt="int">0</Timestamp><DateUtc dt:dt="string">2015-07-01T17:06:12Z</DateUtc></StartTime><FrequencyChanges><FrequencyChange><Frequency dt:dt="r8">3507685</Frequency><Timestamp dt:dt="r8">1563134716485</Timestamp><Current dt:dt="r8">0</Current><DateUtc dt:dt="string">2015-07-01T17:06:12Z</DateUtc></FrequencyChange></FrequencyChanges></Clock>\n	Hungry_Donkey_bar_English_2-114-1	60.017	-105	1.0.0.18	1	-232683102	Standard	2.0.10.353	2.0.10.353	07-01-2015	7/1/2015 5:06:12 PM	13:06:12	2.0.10.248	53	Bar50-50.bmp	44	4	?	10r_4g.bmp	0r_4g.bmp	2r_2g.bmp	0r_2g.bmp				0r_2g.bmp	TrialProc	TrialList	0	cvbn	-999999	16	256093	0	n	556	256649	168	-213	-45	-4	-54	11	2	4	6	53	-10	0	-2	0	4	4	2	2	0	2
Hungry_Donkey_bar_English_2	114	1	<?xml version="1.0"?>\n<Clock xmlns:dt="urn:schemas-microsoft-com:datatypes"><Description dt:dt="string">E-Prime Primary Realtime Clock</Description><StartTime><Timestamp dt:dt="int">0</Timestamp><DateUtc dt:dt="string">2015-07-01T17:06:12Z</DateUtc></StartTime><FrequencyChanges><FrequencyChange><Frequency dt:dt="r8">3507685</Frequency><Timestamp dt:dt="r8">1563134716485</Timestamp><Current dt:dt="r8">0</Current><DateUtc dt:dt="string">2015-07-01T17:06:12Z</DateUtc></FrequencyChange></FrequencyChanges></Clock>\n	Hungry_Donkey_bar_English_2-114-1	60.017	-105	1.0.0.18	1	-232683102	Standard	2.0.10.353	2.0.10.353	07-01-2015	7/1/2015 5:06:12 PM	13:06:12	2.0.10.248	54	Bar50-50.bmp	44	3	?	0r_4g.bmp	0r_4g.bmp	0r_2g.bmp	0r_2g.bmp			0r_2g.bmp		TrialProc	TrialList	0	cvbn	-999999	16	258676	0	b	373	259049	170	-213	-43	-4	-54	13	2	7	6	54	0	0	0	0	4	4	2	2	0	2
Hungry_Donkey_bar_English_2	114	1	<?xml version="1.0"?>\n<Clock xmlns:dt="urn:schemas-microsoft-com:datatypes"><Description dt:dt="string">E-Prime Primary Realtime Clock</Description><StartTime><Timestamp dt:dt="int">0</Timestamp><DateUtc dt:dt="string">2015-07-01T17:06:12Z</DateUtc></StartTime><FrequencyChanges><FrequencyChange><Frequency dt:dt="r8">3507685</Frequency><Timestamp dt:dt="r8">1563134716485</Timestamp><Current dt:dt="r8">0</Current><DateUtc dt:dt="string">2015-07-01T17:06:12Z</DateUtc></FrequencyChange></FrequencyChanges></Clock>\n	Hungry_Donkey_bar_English_2-114-1	60.017	-105	1.0.0.18	1	-232683102	Standard	2.0.10.353	2.0.10.353	07-01-2015	7/1/2015 5:06:12 PM	13:06:12	2.0.10.248	55	Bar50-50.bmp	44	1	?	10r_4g.bmp	0r_4g.bmp	2r_2g.bmp	0r_2g.bmp	10r_4g.bmp				TrialProc	TrialList	0	cvbn	-999999	16	261075	0	c	550	261625	174	-223	-49	-10	-54	13	2	3	6	55	-10	0	-2	0	4	4	2	2	-10	4
Hungry_Donkey_bar_English_2	114	1	<?xml version="1.0"?>\n<Clock xmlns:dt="urn:schemas-microsoft-com:datatypes"><Description dt:dt="string">E-Prime Primary Realtime Clock</Description><StartTime><Timestamp dt:dt="int">0</Timestamp><DateUtc dt:dt="string">2015-07-01T17:06:12Z</DateUtc></StartTime><FrequencyChanges><FrequencyChange><Frequency dt:dt="r8">3507685</Frequency><Timestamp dt:dt="r8">1563134716485</Timestamp><Current dt:dt="r8">0</Current><DateUtc dt:dt="string">2015-07-01T17:06:12Z</DateUtc></FrequencyChange></FrequencyChanges></Clock>\n	Hungry_Donkey_bar_English_2-114-1	60.017	-105	1.0.0.18	1	-232683102	Standard	2.0.10.353	2.0.10.353	07-01-2015	7/1/2015 5:06:12 PM	13:06:12	2.0.10.248	56	Bar37-63.bmp	43	4	?	8r_4g.bmp	50r_4g.bmp	1r_2g.bmp	10r_2g.bmp				10r_2g.bmp	TrialProc	TrialList	0	cvbn	-999999	16	263658	0	n	991	264649	176	-233	-57	-10	-54	13	-6	1	6	56	-8	-50	-1	-10	4	4	2	2	-10	2
Hungry_Donkey_bar_English_2	114	1	<?xml version="1.0"?>\n<Clock xmlns:dt="urn:schemas-microsoft-com:datatypes"><Description dt:dt="string">E-Prime Primary Realtime Clock</Description><StartTime><Timestamp dt:dt="int">0</Timestamp><DateUtc dt:dt="string">2015-07-01T17:06:12Z</DateUtc></StartTime><FrequencyChanges><FrequencyChange><Frequency dt:dt="r8">3507685</Frequency><Timestamp dt:dt="r8">1563134716485</Timestamp><Current dt:dt="r8">0</Current><DateUtc dt:dt="string">2015-07-01T17:06:12Z</DateUtc></FrequencyChange></FrequencyChanges></Clock>\n	Hungry_Donkey_bar_English_2-114-1	60.017	-105	1.0.0.18	1	-232683102	Standard	2.0.10.353	2.0.10.353	07-01-2015	7/1/2015 5:06:12 PM	13:06:12	2.0.10.248	57	Bar37-63.bmp	43	3	?	10r_4g.bmp	0r_4g.bmp	2r_2g.bmp	0r_2g.bmp			2r_2g.bmp		TrialProc	TrialList	0	cvbn	-999999	16	266673	0	b	551	267224	178	-235	-57	-10	-54	13	-6	2	6	57	-10	0	-2	0	4	4	2	2	-2	2
Hungry_Donkey_bar_English_2	114	1	<?xml version="1.0"?>\n<Clock xmlns:dt="urn:schemas-microsoft-com:datatypes"><Description dt:dt="string">E-Prime Primary Realtime Clock</Description><StartTime><Timestamp dt:dt="int">0</Timestamp><DateUtc dt:dt="string">2015-07-01T17:06:12Z</DateUtc></StartTime><FrequencyChanges><FrequencyChange><Frequency dt:dt="r8">3507685</Frequency><Timestamp dt:dt="r8">1563134716485</Timestamp><Current dt:dt="r8">0</Current><DateUtc dt:dt="string">2015-07-01T17:06:12Z</DateUtc></FrequencyChange></FrequencyChanges></Clock>\n	Hungry_Donkey_bar_English_2-114-1	60.017	-105	1.0.0.18	1	-232683102	Standard	2.0.10.353	2.0.10.353	07-01-2015	7/1/2015 5:06:12 PM	13:06:12	2.0.10.248	58	Bar50-50.bmp	44	2	?	12r_4g.bmp	0r_4g.bmp	3r_2g.bmp	0r_2g.bmp		0r_4g.bmp			TrialProc	TrialList	0	cvbn	-999999	16	269256	0	v	624	269880	182	-235	-53	-10	-50	13	-6	5	6	58	-12	0	-3	0	4	4	2	2	0	4
Hungry_Donkey_bar_English_2	114	1	<?xml version="1.0"?>\n<Clock xmlns:dt="urn:schemas-microsoft-com:datatypes"><Description dt:dt="string">E-Prime Primary Realtime Clock</Description><StartTime><Timestamp dt:dt="int">0</Timestamp><DateUtc dt:dt="string">2015-07-01T17:06:12Z</DateUtc></StartTime><FrequencyChanges><FrequencyChange><Frequency dt:dt="r8">3507685</Frequency><Timestamp dt:dt="r8">1563134716485</Timestamp><Current dt:dt="r8">0</Current><DateUtc dt:dt="string">2015-07-01T17:06:12Z</DateUtc></FrequencyChange></FrequencyChanges></Clock>\n	Hungry_Donkey_bar_English_2-114-1	60.017	-105	1.0.0.18	1	-232683102	Standard	2.0.10.353	2.0.10.353	07-01-2015	7/1/2015 5:06:12 PM	13:06:12	2.0.10.248	59	Bar50-50.bmp	44	2	?	0r_4g.bmp	0r_4g.bmp	0r_2g.bmp	0r_2g.bmp		0r_4g.bmp			TrialProc	TrialList	0	cvbn	-999999	16	271905	0	v	887	272792	186	-235	-49	-10	-46	13	-6	9	6	59	0	0	0	0	4	4	2	2	0	4
Hungry_Donkey_bar_English_2	114	1	<?xml version="1.0"?>\n<Clock xmlns:dt="urn:schemas-microsoft-com:datatypes"><Description dt:dt="string">E-Prime Primary Realtime Clock</Description><StartTime><Timestamp dt:dt="int">0</Timestamp><DateUtc dt:dt="string">2015-07-01T17:06:12Z</DateUtc></StartTime><FrequencyChanges><FrequencyChange><Frequency dt:dt="r8">3507685</Frequency><Timestamp dt:dt="r8">1563134716485</Timestamp><Current dt:dt="r8">0</Current><DateUtc dt:dt="string">2015-07-01T17:06:12Z</DateUtc></FrequencyChange></FrequencyChanges></Clock>\n	Hungry_Donkey_bar_English_2-114-1	60.017	-105	1.0.0.18	1	-232683102	Standard	2.0.10.353	2.0.10.353	07-01-2015	7/1/2015 5:06:12 PM	13:06:12	2.0.10.248	60	Bar50-50.bmp	45	2	?	0r_4g.bmp	0r_4g.bmp	0r_2g.bmp	0r_2g.bmp		0r_4g.bmp			TrialProc	TrialList	0	cvbn	-999999	16	274821	0	v	659	275480	190	-235	-45	-10	-42	13	-6	6	6	60	0	0	0	0	4	4	2	2	0	4
Hungry_Donkey_bar_English_2	114	1	<?xml version="1.0"?>\n<Clock xmlns:dt="urn:schemas-microsoft-com:datatypes"><Description dt:dt="string">E-Prime Primary Realtime Clock</Description><StartTime><Timestamp dt:dt="int">0</Timestamp><DateUtc dt:dt="string">2015-07-01T17:06:12Z</DateUtc></StartTime><FrequencyChanges><FrequencyChange><Frequency dt:dt="r8">3507685</Frequency><Timestamp dt:dt="r8">1563134716485</Timestamp><Current dt:dt="r8">0</Current><DateUtc dt:dt="string">2015-07-01T17:06:12Z</DateUtc></FrequencyChange></FrequencyChanges></Clock>\n	Hungry_Donkey_bar_English_2-114-1	60.017	-105	1.0.0.18	1	-232683102	Standard	2.0.10.353	2.0.10.353	07-01-2015	7/1/2015 5:06:12 PM	13:06:12	2.0.10.248	61	Bar50-50.bmp	45	2	?	12r_4g.bmp	0r_4g.bmp	3r_2g.bmp	0r_2g.bmp		0r_4g.bmp			TrialProc	TrialList	0	cvbn	-999999	16	277504	0	v	744	278248	194	-235	-41	-10	-38	13	-6	5	7	61	-12	0	-3	0	4	4	2	2	0	4
Hungry_Donkey_bar_English_2	114	1	<?xml version="1.0"?>\n<Clock xmlns:dt="urn:schemas-microsoft-com:datatypes"><Description dt:dt="string">E-Prime Primary Realtime Clock</Description><StartTime><Timestamp dt:dt="int">0</Timestamp><DateUtc dt:dt="string">2015-07-01T17:06:12Z</DateUtc></StartTime><FrequencyChanges><FrequencyChange><Frequency dt:dt="r8">3507685</Frequency><Timestamp dt:dt="r8">1563134716485</Timestamp><Current dt:dt="r8">0</Current><DateUtc dt:dt="string">2015-07-01T17:06:12Z</DateUtc></FrequencyChange></FrequencyChanges></Clock>\n	Hungry_Donkey_bar_English_2-114-1	60.017	-105	1.0.0.18	1	-232683102	Standard	2.0.10.353	2.0.10.353	07-01-2015	7/1/2015 5:06:12 PM	13:06:12	2.0.10.248	62	Bar50-50.bmp	46	2	?	0r_4g.bmp	0r_4g.bmp	0r_2g.bmp	0r_2g.bmp		0r_4g.bmp			TrialProc	TrialList	0	cvbn	-999999	16	280286	0	v	938	281224	198	-235	-37	-10	-34	13	-6	8	7	62	0	0	0	0	4	4	2	2	0	4
Hungry_Donkey_bar_English_2	114	1	<?xml version="1.0"?>\n<Clock xmlns:dt="urn:schemas-microsoft-com:datatypes"><Description dt:dt="string">E-Prime Primary Realtime Clock</Description><StartTime><Timestamp dt:dt="int">0</Timestamp><DateUtc dt:dt="string">2015-07-01T17:06:12Z</DateUtc></StartTime><FrequencyChanges><FrequencyChange><Frequency dt:dt="r8">3507685</Frequency><Timestamp dt:dt="r8">1563134716485</Timestamp><Current dt:dt="r8">0</Current><DateUtc dt:dt="string">2015-07-01T17:06:12Z</DateUtc></FrequencyChange></FrequencyChanges></Clock>\n	Hungry_Donkey_bar_English_2-114-1	60.017	-105	1.0.0.18	1	-232683102	Standard	2.0.10.353	2.0.10.353	07-01-2015	7/1/2015 5:06:12 PM	13:06:12	2.0.10.248	63	Bar50-50.bmp	46	2	?	10r_4g.bmp	0r_4g.bmp	2r_2g.bmp	0r_2g.bmp		0r_4g.bmp			TrialProc	TrialList	0	cvbn	-999999	16	283252	0	v	436	283688	202	-235	-33	-10	-30	13	-6	2	7	63	-10	0	-2	0	4	4	2	2	0	4
Hungry_Donkey_bar_English_2	114	1	<?xml version="1.0"?>\n<Clock xmlns:dt="urn:schemas-microsoft-com:datatypes"><Description dt:dt="string">E-Prime Primary Realtime Clock</Description><StartTime><Timestamp dt:dt="int">0</Timestamp><DateUtc dt:dt="string">2015-07-01T17:06:12Z</DateUtc></StartTime><FrequencyChanges><FrequencyChange><Frequency dt:dt="r8">3507685</Frequency><Timestamp dt:dt="r8">1563134716485</Timestamp><Current dt:dt="r8">0</Current><DateUtc dt:dt="string">2015-07-01T17:06:12Z</DateUtc></FrequencyChange></FrequencyChanges></Clock>\n	Hungry_Donkey_bar_English_2-114-1	60.017	-105	1.0.0.18	1	-232683102	Standard	2.0.10.353	2.0.10.353	07-01-2015	7/1/2015 5:06:12 PM	13:06:12	2.0.10.248	64	Bar50-50.bmp	47	2	?	0r_4g.bmp	0r_4g.bmp	0r_2g.bmp	0r_2g.bmp		0r_4g.bmp			TrialProc	TrialList	0	cvbn	-999999	16	285718	0	v	625	286343	206	-235	-29	-10	-26	13	-6	10	7	64	0	0	0	0	4	4	2	2	0	4
Hungry_Donkey_bar_English_2	114	1	<?xml version="1.0"?>\n<Clock xmlns:dt="urn:schemas-microsoft-com:datatypes"><Description dt:dt="string">E-Prime Primary Realtime Clock</Description><StartTime><Timestamp dt:dt="int">0</Timestamp><DateUtc dt:dt="string">2015-07-01T17:06:12Z</DateUtc></StartTime><FrequencyChanges><FrequencyChange><Frequency dt:dt="r8">3507685</Frequency><Timestamp dt:dt="r8">1563134716485</Timestamp><Current dt:dt="r8">0</Current><DateUtc dt:dt="string">2015-07-01T17:06:12Z</DateUtc></FrequencyChange></FrequencyChanges></Clock>\n	Hungry_Donkey_bar_English_2-114-1	60.017	-105	1.0.0.18	1	-232683102	Standard	2.0.10.353	2.0.10.353	07-01-2015	7/1/2015 5:06:12 PM	13:06:12	2.0.10.248	65	Bar50-50.bmp	47	2	?	0r_4g.bmp	0r_4g.bmp	0r_2g.bmp	0r_2g.bmp		0r_4g.bmp			TrialProc	TrialList	0	cvbn	-999999	16	288367	0	v	504	288871	210	-235	-25	-10	-22	13	-6	6	7	65	0	0	0	0	4	4	2	2	0	4
Hungry_Donkey_bar_English_2	114	1	<?xml version="1.0"?>\n<Clock xmlns:dt="urn:schemas-microsoft-com:datatypes"><Description dt:dt="string">E-Prime Primary Realtime Clock</Description><StartTime><Timestamp dt:dt="int">0</Timestamp><DateUtc dt:dt="string">2015-07-01T17:06:12Z</DateUtc></StartTime><FrequencyChanges><FrequencyChange><Frequency dt:dt="r8">3507685</Frequency><Timestamp dt:dt="r8">1563134716485</Timestamp><Current dt:dt="r8">0</Current><DateUtc dt:dt="string">2015-07-01T17:06:12Z</DateUtc></FrequencyChange></FrequencyChanges></Clock>\n	Hungry_Donkey_bar_English_2-114-1	60.017	-105	1.0.0.18	1	-232683102	Standard	2.0.10.353	2.0.10.353	07-01-2015	7/1/2015 5:06:12 PM	13:06:12	2.0.10.248	66	Bar50-50.bmp	48	2	?	10r_4g.bmp	0r_4g.bmp	2r_2g.bmp	0r_2g.bmp		0r_4g.bmp			TrialProc	TrialList	0	cvbn	-999999	16	290900	0	v	819	291719	214	-235	-21	-10	-18	13	-6	4	7	66	-10	0	-2	0	4	4	2	2	0	4
Hungry_Donkey_bar_English_2	114	1	<?xml version="1.0"?>\n<Clock xmlns:dt="urn:schemas-microsoft-com:datatypes"><Description dt:dt="string">E-Prime Primary Realtime Clock</Description><StartTime><Timestamp dt:dt="int">0</Timestamp><DateUtc dt:dt="string">2015-07-01T17:06:12Z</DateUtc></StartTime><FrequencyChanges><FrequencyChange><Frequency dt:dt="r8">3507685</Frequency><Timestamp dt:dt="r8">1563134716485</Timestamp><Current dt:dt="r8">0</Current><DateUtc dt:dt="string">2015-07-01T17:06:12Z</DateUtc></FrequencyChange></FrequencyChanges></Clock>\n	Hungry_Donkey_bar_English_2-114-1	60.017	-105	1.0.0.18	1	-232683102	Standard	2.0.10.353	2.0.10.353	07-01-2015	7/1/2015 5:06:12 PM	13:06:12	2.0.10.248	67	Bar37-63.bmp	43	2	?	8r_4g.bmp	50r_4g.bmp	1r_2g.bmp	10r_2g.bmp		50r_4g.bmp			TrialProc	TrialList	0	cvbn	-999999	16	293749	0	v	626	294375	218	-285	-67	-10	-64	13	-6	1	7	67	-8	-50	-1	-10	4	4	2	2	-50	4
Hungry_Donkey_bar_English_2	114	1	<?xml version="1.0"?>\n<Clock xmlns:dt="urn:schemas-microsoft-com:datatypes"><Description dt:dt="string">E-Prime Primary Realtime Clock</Description><StartTime><Timestamp dt:dt="int">0</Timestamp><DateUtc dt:dt="string">2015-07-01T17:06:12Z</DateUtc></StartTime><FrequencyChanges><FrequencyChange><Frequency dt:dt="r8">3507685</Frequency><Timestamp dt:dt="r8">1563134716485</Timestamp><Current dt:dt="r8">0</Current><DateUtc dt:dt="string">2015-07-01T17:06:12Z</DateUtc></FrequencyChange></FrequencyChanges></Clock>\n	Hungry_Donkey_bar_English_2-114-1	60.017	-105	1.0.0.18	1	-232683102	Standard	2.0.10.353	2.0.10.353	07-01-2015	7/1/2015 5:06:12 PM	13:06:12	2.0.10.248	68	Bar37-63.bmp	43	3	?	10r_4g.bmp	0r_4g.bmp	2r_2g.bmp	0r_2g.bmp			2r_2g.bmp		TrialProc	TrialList	0	cvbn	-999999	16	296415	0	b	584	296999	220	-287	-67	-10	-64	13	-6	3	7	68	-10	0	-2	0	4	4	2	2	-2	2
Hungry_Donkey_bar_English_2	114	1	<?xml version="1.0"?>\n<Clock xmlns:dt="urn:schemas-microsoft-com:datatypes"><Description dt:dt="string">E-Prime Primary Realtime Clock</Description><StartTime><Timestamp dt:dt="int">0</Timestamp><DateUtc dt:dt="string">2015-07-01T17:06:12Z</DateUtc></StartTime><FrequencyChanges><FrequencyChange><Frequency dt:dt="r8">3507685</Frequency><Timestamp dt:dt="r8">1563134716485</Timestamp><Current dt:dt="r8">0</Current><DateUtc dt:dt="string">2015-07-01T17:06:12Z</DateUtc></FrequencyChange></FrequencyChanges></Clock>\n	Hungry_Donkey_bar_English_2-114-1	60.017	-105	1.0.0.18	1	-232683102	Standard	2.0.10.353	2.0.10.353	07-01-2015	7/1/2015 5:06:12 PM	13:06:12	2.0.10.248	69	Bar50-50.bmp	44	4	?	0r_4g.bmp	0r_4g.bmp	0r_2g.bmp	0r_2g.bmp				0r_2g.bmp	TrialProc	TrialList	0	cvbn	-999999	16	299031	0	n	656	299687	222	-287	-65	-10	-64	13	-4	7	7	69	0	0	0	0	4	4	2	2	0	2
Hungry_Donkey_bar_English_2	114	1	<?xml version="1.0"?>\n<Clock xmlns:dt="urn:schemas-microsoft-com:datatypes"><Description dt:dt="string">E-Prime Primary Realtime Clock</Description><StartTime><Timestamp dt:dt="int">0</Timestamp><DateUtc dt:dt="string">2015-07-01T17:06:12Z</DateUtc></StartTime><FrequencyChanges><FrequencyChange><Frequency dt:dt="r8">3507685</Frequency><Timestamp dt:dt="r8">1563134716485</Timestamp><Current dt:dt="r8">0</Current><DateUtc dt:dt="string">2015-07-01T17:06:12Z</DateUtc></FrequencyChange></FrequencyChanges></Clock>\n	Hungry_Donkey_bar_English_2-114-1	60.017	-105	1.0.0.18	1	-232683102	Standard	2.0.10.353	2.0.10.353	07-01-2015	7/1/2015 5:06:12 PM	13:06:12	2.0.10.248	70	Bar50-50.bmp	44	1	?	0r_4g.bmp	0r_4g.bmp	0r_2g.bmp	0r_2g.bmp	0r_4g.bmp				TrialProc	TrialList	0	cvbn	-999999	16	301713	0	c	742	302455	226	-287	-61	-6	-64	13	-4	9	7	70	0	0	0	0	4	4	2	2	0	4
Hungry_Donkey_bar_English_2	114	1	<?xml version="1.0"?>\n<Clock xmlns:dt="urn:schemas-microsoft-com:datatypes"><Description dt:dt="string">E-Prime Primary Realtime Clock</Description><StartTime><Timestamp dt:dt="int">0</Timestamp><DateUtc dt:dt="string">2015-07-01T17:06:12Z</DateUtc></StartTime><FrequencyChanges><FrequencyChange><Frequency dt:dt="r8">3507685</Frequency><Timestamp dt:dt="r8">1563134716485</Timestamp><Current dt:dt="r8">0</Current><DateUtc dt:dt="string">2015-07-01T17:06:12Z</DateUtc></FrequencyChange></FrequencyChanges></Clock>\n	Hungry_Donkey_bar_English_2-114-1	60.017	-105	1.0.0.18	1	-232683102	Standard	2.0.10.353	2.0.10.353	07-01-2015	7/1/2015 5:06:12 PM	13:06:12	2.0.10.248	71	Bar50-50.bmp	44	4	?	10r_4g.bmp	0r_4g.bmp	2r_2g.bmp	0r_2g.bmp				0r_2g.bmp	TrialProc	TrialList	0	cvbn	-999999	16	304479	0	n	1127	305606	228	-287	-59	-6	-64	13	-2	3	8	71	-10	0	-2	0	4	4	2	2	0	2
Hungry_Donkey_bar_English_2	114	1	<?xml version="1.0"?>\n<Clock xmlns:dt="urn:schemas-microsoft-com:datatypes"><Description dt:dt="string">E-Prime Primary Realtime Clock</Description><StartTime><Timestamp dt:dt="int">0</Timestamp><DateUtc dt:dt="string">2015-07-01T17:06:12Z</DateUtc></StartTime><FrequencyChanges><FrequencyChange><Frequency dt:dt="r8">3507685</Frequency><Timestamp dt:dt="r8">1563134716485</Timestamp><Current dt:dt="r8">0</Current><DateUtc dt:dt="string">2015-07-01T17:06:12Z</DateUtc></FrequencyChange></FrequencyChanges></Clock>\n	Hungry_Donkey_bar_English_2-114-1	60.017	-105	1.0.0.18	1	-232683102	Standard	2.0.10.353	2.0.10.353	07-01-2015	7/1/2015 5:06:12 PM	13:06:12	2.0.10.248	72	Bar50-50.bmp	45	1	?	0r_4g.bmp	0r_4g.bmp	0r_2g.bmp	0r_2g.bmp	0r_4g.bmp				TrialProc	TrialList	0	cvbn	-999999	16	307645	0	c	521	308166	232	-287	-55	-2	-64	13	-2	9	8	72	0	0	0	0	4	4	2	2	0	4
Hungry_Donkey_bar_English_2	114	1	<?xml version="1.0"?>\n<Clock xmlns:dt="urn:schemas-microsoft-com:datatypes"><Description dt:dt="string">E-Prime Primary Realtime Clock</Description><StartTime><Timestamp dt:dt="int">0</Timestamp><DateUtc dt:dt="string">2015-07-01T17:06:12Z</DateUtc></StartTime><FrequencyChanges><FrequencyChange><Frequency dt:dt="r8">3507685</Frequency><Timestamp dt:dt="r8">1563134716485</Timestamp><Current dt:dt="r8">0</Current><DateUtc dt:dt="string">2015-07-01T17:06:12Z</DateUtc></FrequencyChange></FrequencyChanges></Clock>\n	Hungry_Donkey_bar_English_2-114-1	60.017	-105	1.0.0.18	1	-232683102	Standard	2.0.10.353	2.0.10.353	07-01-2015	7/1/2015 5:06:12 PM	13:06:12	2.0.10.248	73	Bar50-50.bmp	45	4	?	0r_4g.bmp	0r_4g.bmp	0r_2g.bmp	0r_2g.bmp				0r_2g.bmp	TrialProc	TrialList	0	cvbn	-999999	16	310194	0	n	628	310822	234	-287	-53	-2	-64	13	0	10	8	73	0	0	0	0	4	4	2	2	0	2
Hungry_Donkey_bar_English_2	114	1	<?xml version="1.0"?>\n<Clock xmlns:dt="urn:schemas-microsoft-com:datatypes"><Description dt:dt="string">E-Prime Primary Realtime Clock</Description><StartTime><Timestamp dt:dt="int">0</Timestamp><DateUtc dt:dt="string">2015-07-01T17:06:12Z</DateUtc></StartTime><FrequencyChanges><FrequencyChange><Frequency dt:dt="r8">3507685</Frequency><Timestamp dt:dt="r8">1563134716485</Timestamp><Current dt:dt="r8">0</Current><DateUtc dt:dt="string">2015-07-01T17:06:12Z</DateUtc></FrequencyChange></FrequencyChanges></Clock>\n	Hungry_Donkey_bar_English_2-114-1	60.017	-105	1.0.0.18	1	-232683102	Standard	2.0.10.353	2.0.10.353	07-01-2015	7/1/2015 5:06:12 PM	13:06:12	2.0.10.248	74	Bar50-50.bmp	45	1	?	0r_4g.bmp	0r_4g.bmp	0r_2g.bmp	0r_2g.bmp	0r_4g.bmp				TrialProc	TrialList	0	cvbn	-999999	16	312860	0	c	1226	314086	238	-287	-49	2	-64	13	0	6	8	74	0	0	0	0	4	4	2	2	0	4
Hungry_Donkey_bar_English_2	114	1	<?xml version="1.0"?>\n<Clock xmlns:dt="urn:schemas-microsoft-com:datatypes"><Description dt:dt="string">E-Prime Primary Realtime Clock</Description><StartTime><Timestamp dt:dt="int">0</Timestamp><DateUtc dt:dt="string">2015-07-01T17:06:12Z</DateUtc></StartTime><FrequencyChanges><FrequencyChange><Frequency dt:dt="r8">3507685</Frequency><Timestamp dt:dt="r8">1563134716485</Timestamp><Current dt:dt="r8">0</Current><DateUtc dt:dt="string">2015-07-01T17:06:12Z</DateUtc></FrequencyChange></FrequencyChanges></Clock>\n	Hungry_Donkey_bar_English_2-114-1	60.017	-105	1.0.0.18	1	-232683102	Standard	2.0.10.353	2.0.10.353	07-01-2015	7/1/2015 5:06:12 PM	13:06:12	2.0.10.248	75	Bar50-50.bmp	46	4	?	0r_4g.bmp	0r_4g.bmp	0r_2g.bmp	0r_2g.bmp				0r_2g.bmp	TrialProc	TrialList	0	cvbn	-999999	16	316109	0	n	441	316550	240	-287	-47	2	-64	13	2	7	8	75	0	0	0	0	4	4	2	2	0	2
Hungry_Donkey_bar_English_2	114	1	<?xml version="1.0"?>\n<Clock xmlns:dt="urn:schemas-microsoft-com:datatypes"><Description dt:dt="string">E-Prime Primary Realtime Clock</Description><StartTime><Timestamp dt:dt="int">0</Timestamp><DateUtc dt:dt="string">2015-07-01T17:06:12Z</DateUtc></StartTime><FrequencyChanges><FrequencyChange><Frequency dt:dt="r8">3507685</Frequency><Timestamp dt:dt="r8">1563134716485</Timestamp><Current dt:dt="r8">0</Current><DateUtc dt:dt="string">2015-07-01T17:06:12Z</DateUtc></FrequencyChange></FrequencyChanges></Clock>\n	Hungry_Donkey_bar_English_2-114-1	60.017	-105	1.0.0.18	1	-232683102	Standard	2.0.10.353	2.0.10.353	07-01-2015	7/1/2015 5:06:12 PM	13:06:12	2.0.10.248	76	Bar50-50.bmp	45	3	?	12r_4g.bmp	0r_4g.bmp	3r_2g.bmp	0r_2g.bmp			3r_2g.bmp		TrialProc	TrialList	0	cvbn	-999999	16	318575	0	b	1063	319638	242	-290	-48	2	-64	12	2	5	8	76	-12	0	-3	0	4	4	2	2	-3	2
Hungry_Donkey_bar_English_2	114	1	<?xml version="1.0"?>\n<Clock xmlns:dt="urn:schemas-microsoft-com:datatypes"><Description dt:dt="string">E-Prime Primary Realtime Clock</Description><StartTime><Timestamp dt:dt="int">0</Timestamp><DateUtc dt:dt="string">2015-07-01T17:06:12Z</DateUtc></StartTime><FrequencyChanges><FrequencyChange><Frequency dt:dt="r8">3507685</Frequency><Timestamp dt:dt="r8">1563134716485</Timestamp><Current dt:dt="r8">0</Current><DateUtc dt:dt="string">2015-07-01T17:06:12Z</DateUtc></FrequencyChange></FrequencyChanges></Clock>\n	Hungry_Donkey_bar_English_2-114-1	60.017	-105	1.0.0.18	1	-232683102	Standard	2.0.10.353	2.0.10.353	07-01-2015	7/1/2015 5:06:12 PM	13:06:12	2.0.10.248	77	Bar50-50.bmp	46	2	?	10r_4g.bmp	0r_4g.bmp	2r_2g.bmp	0r_2g.bmp		0r_4g.bmp			TrialProc	TrialList	0	cvbn	-999999	16	321674	0	v	540	322214	246	-290	-44	2	-60	12	2	2	8	77	-10	0	-2	0	4	4	2	2	0	4
Hungry_Donkey_bar_English_2	114	1	<?xml version="1.0"?>\n<Clock xmlns:dt="urn:schemas-microsoft-com:datatypes"><Description dt:dt="string">E-Prime Primary Realtime Clock</Description><StartTime><Timestamp dt:dt="int">0</Timestamp><DateUtc dt:dt="string">2015-07-01T17:06:12Z</DateUtc></StartTime><FrequencyChanges><FrequencyChange><Frequency dt:dt="r8">3507685</Frequency><Timestamp dt:dt="r8">1563134716485</Timestamp><Current dt:dt="r8">0</Current><DateUtc dt:dt="string">2015-07-01T17:06:12Z</DateUtc></FrequencyChange></FrequencyChanges></Clock>\n	Hungry_Donkey_bar_English_2-114-1	60.017	-105	1.0.0.18	1	-232683102	Standard	2.0.10.353	2.0.10.353	07-01-2015	7/1/2015 5:06:12 PM	13:06:12	2.0.10.248	78	Bar50-50.bmp	46	1	?	8r_4g.bmp	50r_4g.bmp	1r_2g.bmp	10r_2g.bmp	8r_4g.bmp				TrialProc	TrialList	0	cvbn	-999999	16	324240	0	c	469	324709	250	-298	-48	-2	-60	12	2	1	8	78	-8	-50	-1	-10	4	4	2	2	-8	4
Hungry_Donkey_bar_English_2	114	1	<?xml version="1.0"?>\n<Clock xmlns:dt="urn:schemas-microsoft-com:datatypes"><Description dt:dt="string">E-Prime Primary Realtime Clock</Description><StartTime><Timestamp dt:dt="int">0</Timestamp><DateUtc dt:dt="string">2015-07-01T17:06:12Z</DateUtc></StartTime><FrequencyChanges><FrequencyChange><Frequency dt:dt="r8">3507685</Frequency><Timestamp dt:dt="r8">1563134716485</Timestamp><Current dt:dt="r8">0</Current><DateUtc dt:dt="string">2015-07-01T17:06:12Z</DateUtc></FrequencyChange></FrequencyChanges></Clock>\n	Hungry_Donkey_bar_English_2-114-1	60.017	-105	1.0.0.18	1	-232683102	Standard	2.0.10.353	2.0.10.353	07-01-2015	7/1/2015 5:06:12 PM	13:06:12	2.0.10.248	79	Bar50-50.bmp	46	2	?	0r_4g.bmp	0r_4g.bmp	0r_2g.bmp	0r_2g.bmp		0r_4g.bmp			TrialProc	TrialList	0	cvbn	-999999	16	326739	0	v	466	327205	254	-298	-44	-2	-56	12	2	8	8	79	0	0	0	0	4	4	2	2	0	4
Hungry_Donkey_bar_English_2	114	1	<?xml version="1.0"?>\n<Clock xmlns:dt="urn:schemas-microsoft-com:datatypes"><Description dt:dt="string">E-Prime Primary Realtime Clock</Description><StartTime><Timestamp dt:dt="int">0</Timestamp><DateUtc dt:dt="string">2015-07-01T17:06:12Z</DateUtc></StartTime><FrequencyChanges><FrequencyChange><Frequency dt:dt="r8">3507685</Frequency><Timestamp dt:dt="r8">1563134716485</Timestamp><Current dt:dt="r8">0</Current><DateUtc dt:dt="string">2015-07-01T17:06:12Z</DateUtc></FrequencyChange></FrequencyChanges></Clock>\n	Hungry_Donkey_bar_English_2-114-1	60.017	-105	1.0.0.18	1	-232683102	Standard	2.0.10.353	2.0.10.353	07-01-2015	7/1/2015 5:06:12 PM	13:06:12	2.0.10.248	80	Bar50-50.bmp	46	3	?	10r_4g.bmp	0r_4g.bmp	2r_2g.bmp	0r_2g.bmp			2r_2g.bmp		TrialProc	TrialList	0	cvbn	-999999	16	329239	0	b	366	329605	256	-300	-44	-2	-56	12	2	4	8	80	-10	0	-2	0	4	4	2	2	-2	2
Hungry_Donkey_bar_English_2	114	1	<?xml version="1.0"?>\n<Clock xmlns:dt="urn:schemas-microsoft-com:datatypes"><Description dt:dt="string">E-Prime Primary Realtime Clock</Description><StartTime><Timestamp dt:dt="int">0</Timestamp><DateUtc dt:dt="string">2015-07-01T17:06:12Z</DateUtc></StartTime><FrequencyChanges><FrequencyChange><Frequency dt:dt="r8">3507685</Frequency><Timestamp dt:dt="r8">1563134716485</Timestamp><Current dt:dt="r8">0</Current><DateUtc dt:dt="string">2015-07-01T17:06:12Z</DateUtc></FrequencyChange></FrequencyChanges></Clock>\n	Hungry_Donkey_bar_English_2-114-1	60.017	-105	1.0.0.18	1	-232683102	Standard	2.0.10.353	2.0.10.353	07-01-2015	7/1/2015 5:06:12 PM	13:06:12	2.0.10.248	81	Bar50-50.bmp	46	4	?	10r_4g.bmp	0r_4g.bmp	2r_2g.bmp	0r_2g.bmp				0r_2g.bmp	TrialProc	TrialList	0	cvbn	-999999	16	331638	0	n	495	332133	258	-300	-42	-2	-56	12	4	4	9	81	-10	0	-2	0	4	4	2	2	0	2
Hungry_Donkey_bar_English_2	114	1	<?xml version="1.0"?>\n<Clock xmlns:dt="urn:schemas-microsoft-com:datatypes"><Description dt:dt="string">E-Prime Primary Realtime Clock</Description><StartTime><Timestamp dt:dt="int">0</Timestamp><DateUtc dt:dt="string">2015-07-01T17:06:12Z</DateUtc></StartTime><FrequencyChanges><FrequencyChange><Frequency dt:dt="r8">3507685</Frequency><Timestamp dt:dt="r8">1563134716485</Timestamp><Current dt:dt="r8">0</Current><DateUtc dt:dt="string">2015-07-01T17:06:12Z</DateUtc></FrequencyChange></FrequencyChanges></Clock>\n	Hungry_Donkey_bar_English_2-114-1	60.017	-105	1.0.0.18	1	-232683102	Standard	2.0.10.353	2.0.10.353	07-01-2015	7/1/2015 5:06:12 PM	13:06:12	2.0.10.248	82	Bar50-50.bmp	47	2	?	12r_4g.bmp	0r_4g.bmp	3r_2g.bmp	0r_2g.bmp		0r_4g.bmp			TrialProc	TrialList	0	cvbn	-999999	17	334171	0	v	442	334613	262	-300	-38	-2	-52	12	4	5	9	82	-12	0	-3	0	4	4	2	2	0	4
Hungry_Donkey_bar_English_2	114	1	<?xml version="1.0"?>\n<Clock xmlns:dt="urn:schemas-microsoft-com:datatypes"><Description dt:dt="string">E-Prime Primary Realtime Clock</Description><StartTime><Timestamp dt:dt="int">0</Timestamp><DateUtc dt:dt="string">2015-07-01T17:06:12Z</DateUtc></StartTime><FrequencyChanges><FrequencyChange><Frequency dt:dt="r8">3507685</Frequency><Timestamp dt:dt="r8">1563134716485</Timestamp><Current dt:dt="r8">0</Current><DateUtc dt:dt="string">2015-07-01T17:06:12Z</DateUtc></FrequencyChange></FrequencyChanges></Clock>\n	Hungry_Donkey_bar_English_2-114-1	60.017	-105	1.0.0.18	1	-232683102	Standard	2.0.10.353	2.0.10.353	07-01-2015	7/1/2015 5:06:12 PM	13:06:12	2.0.10.248	83	Bar50-50.bmp	47	4	?	0r_4g.bmp	0r_4g.bmp	0r_2g.bmp	0r_2g.bmp				0r_2g.bmp	TrialProc	TrialList	0	cvbn	-999999	16	336653	0	n	984	337637	264	-300	-36	-2	-52	12	6	9	9	83	0	0	0	0	4	4	2	2	0	2
Hungry_Donkey_bar_English_2	114	1	<?xml version="1.0"?>\n<Clock xmlns:dt="urn:schemas-microsoft-com:datatypes"><Description dt:dt="string">E-Prime Primary Realtime Clock</Description><StartTime><Timestamp dt:dt="int">0</Timestamp><DateUtc dt:dt="string">2015-07-01T17:06:12Z</DateUtc></StartTime><FrequencyChanges><FrequencyChange><Frequency dt:dt="r8">3507685</Frequency><Timestamp dt:dt="r8">1563134716485</Timestamp><Current dt:dt="r8">0</Current><DateUtc dt:dt="string">2015-07-01T17:06:12Z</DateUtc></FrequencyChange></FrequencyChanges></Clock>\n	Hungry_Donkey_bar_English_2-114-1	60.017	-105	1.0.0.18	1	-232683102	Standard	2.0.10.353	2.0.10.353	07-01-2015	7/1/2015 5:06:12 PM	13:06:12	2.0.10.248	84	Bar50-50.bmp	47	2	?	10r_4g.bmp	0r_4g.bmp	2r_2g.bmp	0r_2g.bmp		0r_4g.bmp			TrialProc	TrialList	0	cvbn	-999999	16	339669	0	v	928	340597	268	-300	-32	-2	-48	12	6	3	9	84	-10	0	-2	0	4	4	2	2	0	4
Hungry_Donkey_bar_English_2	114	1	<?xml version="1.0"?>\n<Clock xmlns:dt="urn:schemas-microsoft-com:datatypes"><Description dt:dt="string">E-Prime Primary Realtime Clock</Description><StartTime><Timestamp dt:dt="int">0</Timestamp><DateUtc dt:dt="string">2015-07-01T17:06:12Z</DateUtc></StartTime><FrequencyChanges><FrequencyChange><Frequency dt:dt="r8">3507685</Frequency><Timestamp dt:dt="r8">1563134716485</Timestamp><Current dt:dt="r8">0</Current><DateUtc dt:dt="string">2015-07-01T17:06:12Z</DateUtc></FrequencyChange></FrequencyChanges></Clock>\n	Hungry_Donkey_bar_English_2-114-1	60.017	-105	1.0.0.18	1	-232683102	Standard	2.0.10.353	2.0.10.353	07-01-2015	7/1/2015 5:06:12 PM	13:06:12	2.0.10.248	85	Bar50-50.bmp	47	4	?	0r_4g.bmp	0r_4g.bmp	0r_2g.bmp	0r_2g.bmp				0r_2g.bmp	TrialProc	TrialList	0	cvbn	-999999	16	342635	0	n	986	343621	270	-300	-30	-2	-48	12	8	7	9	85	0	0	0	0	4	4	2	2	0	2
Hungry_Donkey_bar_English_2	114	1	<?xml version="1.0"?>\n<Clock xmlns:dt="urn:schemas-microsoft-com:datatypes"><Description dt:dt="string">E-Prime Primary Realtime Clock</Description><StartTime><Timestamp dt:dt="int">0</Timestamp><DateUtc dt:dt="string">2015-07-01T17:06:12Z</DateUtc></StartTime><FrequencyChanges><FrequencyChange><Frequency dt:dt="r8">3507685</Frequency><Timestamp dt:dt="r8">1563134716485</Timestamp><Current dt:dt="r8">0</Current><DateUtc dt:dt="string">2015-07-01T17:06:12Z</DateUtc></FrequencyChange></FrequencyChanges></Clock>\n	Hungry_Donkey_bar_English_2-114-1	60.017	-105	1.0.0.18	1	-232683102	Standard	2.0.10.353	2.0.10.353	07-01-2015	7/1/2015 5:06:12 PM	13:06:12	2.0.10.248	86	Bar50-50.bmp	44	2	?	8r_4g.bmp	50r_4g.bmp	1r_2g.bmp	10r_2g.bmp		50r_4g.bmp			TrialProc	TrialList	0	cvbn	-999999	17	345651	0	v	785	346436	274	-350	-76	-2	-94	12	8	1	9	86	-8	-50	-1	-10	4	4	2	2	-50	4
Hungry_Donkey_bar_English_2	114	1	<?xml version="1.0"?>\n<Clock xmlns:dt="urn:schemas-microsoft-com:datatypes"><Description dt:dt="string">E-Prime Primary Realtime Clock</Description><StartTime><Timestamp dt:dt="int">0</Timestamp><DateUtc dt:dt="string">2015-07-01T17:06:12Z</DateUtc></StartTime><FrequencyChanges><FrequencyChange><Frequency dt:dt="r8">3507685</Frequency><Timestamp dt:dt="r8">1563134716485</Timestamp><Current dt:dt="r8">0</Current><DateUtc dt:dt="string">2015-07-01T17:06:12Z</DateUtc></FrequencyChange></FrequencyChanges></Clock>\n	Hungry_Donkey_bar_English_2-114-1	60.017	-105	1.0.0.18	1	-232683102	Standard	2.0.10.353	2.0.10.353	07-01-2015	7/1/2015 5:06:12 PM	13:06:12	2.0.10.248	87	Bar50-50.bmp	44	4	?	0r_4g.bmp	0r_4g.bmp	0r_2g.bmp	0r_2g.bmp				0r_2g.bmp	TrialProc	TrialList	0	cvbn	-999999	16	348466	0	n	1314	349780	276	-350	-74	-2	-94	12	10	8	9	87	0	0	0	0	4	4	2	2	0	2
Hungry_Donkey_bar_English_2	114	1	<?xml version="1.0"?>\n<Clock xmlns:dt="urn:schemas-microsoft-com:datatypes"><Description dt:dt="string">E-Prime Primary Realtime Clock</Description><StartTime><Timestamp dt:dt="int">0</Timestamp><DateUtc dt:dt="string">2015-07-01T17:06:12Z</DateUtc></StartTime><FrequencyChanges><FrequencyChange><Frequency dt:dt="r8">3507685</Frequency><Timestamp dt:dt="r8">1563134716485</Timestamp><Current dt:dt="r8">0</Current><DateUtc dt:dt="string">2015-07-01T17:06:12Z</DateUtc></FrequencyChange></FrequencyChanges></Clock>\n	Hungry_Donkey_bar_English_2-114-1	60.017	-105	1.0.0.18	1	-232683102	Standard	2.0.10.353	2.0.10.353	07-01-2015	7/1/2015 5:06:12 PM	13:06:12	2.0.10.248	88	Bar50-50.bmp	44	4	?	0r_4g.bmp	0r_4g.bmp	0r_2g.bmp	0r_2g.bmp				0r_2g.bmp	TrialProc	TrialList	0	cvbn	-999999	16	351815	0	n	941	352756	278	-350	-72	-2	-94	12	12	6	9	88	0	0	0	0	4	4	2	2	0	2
Hungry_Donkey_bar_English_2	114	1	<?xml version="1.0"?>\n<Clock xmlns:dt="urn:schemas-microsoft-com:datatypes"><Description dt:dt="string">E-Prime Primary Realtime Clock</Description><StartTime><Timestamp dt:dt="int">0</Timestamp><DateUtc dt:dt="string">2015-07-01T17:06:12Z</DateUtc></StartTime><FrequencyChanges><FrequencyChange><Frequency dt:dt="r8">3507685</Frequency><Timestamp dt:dt="r8">1563134716485</Timestamp><Current dt:dt="r8">0</Current><DateUtc dt:dt="string">2015-07-01T17:06:12Z</DateUtc></FrequencyChange></FrequencyChanges></Clock>\n	Hungry_Donkey_bar_English_2-114-1	60.017	-105	1.0.0.18	1	-232683102	Standard	2.0.10.353	2.0.10.353	07-01-2015	7/1/2015 5:06:12 PM	13:06:12	2.0.10.248	89	Bar50-50.bmp	44	4	?	10r_4g.bmp	0r_4g.bmp	2r_2g.bmp	0r_2g.bmp				0r_2g.bmp	TrialProc	TrialList	0	cvbn	-999999	16	354781	0	n	1079	355860	280	-350	-70	-2	-94	12	14	2	9	89	-10	0	-2	0	4	4	2	2	0	2
Hungry_Donkey_bar_English_2	114	1	<?xml version="1.0"?>\n<Clock xmlns:dt="urn:schemas-microsoft-com:datatypes"><Description dt:dt="string">E-Prime Primary Realtime Clock</Description><StartTime><Timestamp dt:dt="int">0</Timestamp><DateUtc dt:dt="string">2015-07-01T17:06:12Z</DateUtc></StartTime><FrequencyChanges><FrequencyChange><Frequency dt:dt="r8">3507685</Frequency><Timestamp dt:dt="r8">1563134716485</Timestamp><Current dt:dt="r8">0</Current><DateUtc dt:dt="string">2015-07-01T17:06:12Z</DateUtc></FrequencyChange></FrequencyChanges></Clock>\n	Hungry_Donkey_bar_English_2-114-1	60.017	-105	1.0.0.18	1	-232683102	Standard	2.0.10.353	2.0.10.353	07-01-2015	7/1/2015 5:06:12 PM	13:06:12	2.0.10.248	90	Bar50-50.bmp	45	4	?	0r_4g.bmp	0r_4g.bmp	0r_2g.bmp	0r_2g.bmp				0r_2g.bmp	TrialProc	TrialList	0	cvbn	-999999	16	357897	0	n	571	358468	282	-350	-68	-2	-94	12	16	10	9	90	0	0	0	0	4	4	2	2	0	2
Hungry_Donkey_bar_English_2	114	1	<?xml version="1.0"?>\n<Clock xmlns:dt="urn:schemas-microsoft-com:datatypes"><Description dt:dt="string">E-Prime Primary Realtime Clock</Description><StartTime><Timestamp dt:dt="int">0</Timestamp><DateUtc dt:dt="string">2015-07-01T17:06:12Z</DateUtc></StartTime><FrequencyChanges><FrequencyChange><Frequency dt:dt="r8">3507685</Frequency><Timestamp dt:dt="r8">1563134716485</Timestamp><Current dt:dt="r8">0</Current><DateUtc dt:dt="string">2015-07-01T17:06:12Z</DateUtc></FrequencyChange></FrequencyChanges></Clock>\n	Hungry_Donkey_bar_English_2-114-1	60.017	-105	1.0.0.18	1	-232683102	Standard	2.0.10.353	2.0.10.353	07-01-2015	7/1/2015 5:06:12 PM	13:06:12	2.0.10.248	91	Bar50-50.bmp	45	4	?	0r_4g.bmp	0r_4g.bmp	0r_2g.bmp	0r_2g.bmp				0r_2g.bmp	TrialProc	TrialList	0	cvbn	-999999	16	360496	0	n	564	361060	284	-350	-66	-2	-94	12	18	9	10	91	0	0	0	0	4	4	2	2	0	2
Hungry_Donkey_bar_English_2	114	1	<?xml version="1.0"?>\n<Clock xmlns:dt="urn:schemas-microsoft-com:datatypes"><Description dt:dt="string">E-Prime Primary Realtime Clock</Description><StartTime><Timestamp dt:dt="int">0</Timestamp><DateUtc dt:dt="string">2015-07-01T17:06:12Z</DateUtc></StartTime><FrequencyChanges><FrequencyChange><Frequency dt:dt="r8">3507685</Frequency><Timestamp dt:dt="r8">1563134716485</Timestamp><Current dt:dt="r8">0</Current><DateUtc dt:dt="string">2015-07-01T17:06:12Z</DateUtc></FrequencyChange></FrequencyChanges></Clock>\n	Hungry_Donkey_bar_English_2-114-1	60.017	-105	1.0.0.18	1	-232683102	Standard	2.0.10.353	2.0.10.353	07-01-2015	7/1/2015 5:06:12 PM	13:06:12	2.0.10.248	92	Bar50-50.bmp	45	4	?	10r_4g.bmp	0r_4g.bmp	2r_2g.bmp	0r_2g.bmp				0r_2g.bmp	TrialProc	TrialList	0	cvbn	-999999	17	363096	0	n	556	363652	286	-350	-64	-2	-94	12	20	3	10	92	-10	0	-2	0	4	4	2	2	0	2
Hungry_Donkey_bar_English_2	114	1	<?xml version="1.0"?>\n<Clock xmlns:dt="urn:schemas-microsoft-com:datatypes"><Description dt:dt="string">E-Prime Primary Realtime Clock</Description><StartTime><Timestamp dt:dt="int">0</Timestamp><DateUtc dt:dt="string">2015-07-01T17:06:12Z</DateUtc></StartTime><FrequencyChanges><FrequencyChange><Frequency dt:dt="r8">3507685</Frequency><Timestamp dt:dt="r8">1563134716485</Timestamp><Current dt:dt="r8">0</Current><DateUtc dt:dt="string">2015-07-01T17:06:12Z</DateUtc></FrequencyChange></FrequencyChanges></Clock>\n	Hungry_Donkey_bar_English_2-114-1	60.017	-105	1.0.0.18	1	-232683102	Standard	2.0.10.353	2.0.10.353	07-01-2015	7/1/2015 5:06:12 PM	13:06:12	2.0.10.248	93	Bar50-50.bmp	45	4	?	12r_4g.bmp	0r_4g.bmp	3r_2g.bmp	0r_2g.bmp				0r_2g.bmp	TrialProc	TrialList	0	cvbn	-999999	16	365678	0	n	469	366147	288	-350	-62	-2	-94	12	22	5	10	93	-12	0	-3	0	4	4	2	2	0	2
Hungry_Donkey_bar_English_2	114	1	<?xml version="1.0"?>\n<Clock xmlns:dt="urn:schemas-microsoft-com:datatypes"><Description dt:dt="string">E-Prime Primary Realtime Clock</Description><StartTime><Timestamp dt:dt="int">0</Timestamp><DateUtc dt:dt="string">2015-07-01T17:06:12Z</DateUtc></StartTime><FrequencyChanges><FrequencyChange><Frequency dt:dt="r8">3507685</Frequency><Timestamp dt:dt="r8">1563134716485</Timestamp><Current dt:dt="r8">0</Current><DateUtc dt:dt="string">2015-07-01T17:06:12Z</DateUtc></FrequencyChange></FrequencyChanges></Clock>\n	Hungry_Donkey_bar_English_2-114-1	60.017	-105	1.0.0.18	1	-232683102	Standard	2.0.10.353	2.0.10.353	07-01-2015	7/1/2015 5:06:12 PM	13:06:12	2.0.10.248	94	Bar50-50.bmp	45	4	?	10r_4g.bmp	0r_4g.bmp	2r_2g.bmp	0r_2g.bmp				0r_2g.bmp	TrialProc	TrialList	0	cvbn	-999999	16	368177	0	n	514	368691	290	-350	-60	-2	-94	12	24	4	10	94	-10	0	-2	0	4	4	2	2	0	2
Hungry_Donkey_bar_English_2	114	1	<?xml version="1.0"?>\n<Clock xmlns:dt="urn:schemas-microsoft-com:datatypes"><Description dt:dt="string">E-Prime Primary Realtime Clock</Description><StartTime><Timestamp dt:dt="int">0</Timestamp><DateUtc dt:dt="string">2015-07-01T17:06:12Z</DateUtc></StartTime><FrequencyChanges><FrequencyChange><Frequency dt:dt="r8">3507685</Frequency><Timestamp dt:dt="r8">1563134716485</Timestamp><Current dt:dt="r8">0</Current><DateUtc dt:dt="string">2015-07-01T17:06:12Z</DateUtc></FrequencyChange></FrequencyChanges></Clock>\n	Hungry_Donkey_bar_English_2-114-1	60.017	-105	1.0.0.18	1	-232683102	Standard	2.0.10.353	2.0.10.353	07-01-2015	7/1/2015 5:06:12 PM	13:06:12	2.0.10.248	95	Bar50-50.bmp	45	4	?	10r_4g.bmp	0r_4g.bmp	2r_2g.bmp	0r_2g.bmp				0r_2g.bmp	TrialProc	TrialList	0	cvbn	-999999	16	370727	0	n	460	371187	292	-350	-58	-2	-94	12	26	2	10	95	-10	0	-2	0	4	4	2	2	0	2
Hungry_Donkey_bar_English_2	114	1	<?xml version="1.0"?>\n<Clock xmlns:dt="urn:schemas-microsoft-com:datatypes"><Description dt:dt="string">E-Prime Primary Realtime Clock</Description><StartTime><Timestamp dt:dt="int">0</Timestamp><DateUtc dt:dt="string">2015-07-01T17:06:12Z</DateUtc></StartTime><FrequencyChanges><FrequencyChange><Frequency dt:dt="r8">3507685</Frequency><Timestamp dt:dt="r8">1563134716485</Timestamp><Current dt:dt="r8">0</Current><DateUtc dt:dt="string">2015-07-01T17:06:12Z</DateUtc></FrequencyChange></FrequencyChanges></Clock>\n	Hungry_Donkey_bar_English_2-114-1	60.017	-105	1.0.0.18	1	-232683102	Standard	2.0.10.353	2.0.10.353	07-01-2015	7/1/2015 5:06:12 PM	13:06:12	2.0.10.248	96	Bar50-50.bmp	46	1	?	0r_4g.bmp	0r_4g.bmp	0r_2g.bmp	0r_2g.bmp	0r_4g.bmp				TrialProc	TrialList	0	cvbn	-999999	16	373226	0	c	713	373939	296	-350	-54	2	-94	12	26	8	10	96	0	0	0	0	4	4	2	2	0	4
Hungry_Donkey_bar_English_2	114	1	<?xml version="1.0"?>\n<Clock xmlns:dt="urn:schemas-microsoft-com:datatypes"><Description dt:dt="string">E-Prime Primary Realtime Clock</Description><StartTime><Timestamp dt:dt="int">0</Timestamp><DateUtc dt:dt="string">2015-07-01T17:06:12Z</DateUtc></StartTime><FrequencyChanges><FrequencyChange><Frequency dt:dt="r8">3507685</Frequency><Timestamp dt:dt="r8">1563134716485</Timestamp><Current dt:dt="r8">0</Current><DateUtc dt:dt="string">2015-07-01T17:06:12Z</DateUtc></FrequencyChange></FrequencyChanges></Clock>\n	Hungry_Donkey_bar_English_2-114-1	60.017	-105	1.0.0.18	1	-232683102	Standard	2.0.10.353	2.0.10.353	07-01-2015	7/1/2015 5:06:12 PM	13:06:12	2.0.10.248	97	Bar50-50.bmp	46	3	?	0r_4g.bmp	0r_4g.bmp	0r_2g.bmp	0r_2g.bmp			0r_2g.bmp		TrialProc	TrialList	0	cvbn	-999999	16	375975	0	b	620	376595	298	-350	-52	2	-94	14	26	7	10	97	0	0	0	0	4	4	2	2	0	2
Hungry_Donkey_bar_English_2	114	1	<?xml version="1.0"?>\n<Clock xmlns:dt="urn:schemas-microsoft-com:datatypes"><Description dt:dt="string">E-Prime Primary Realtime Clock</Description><StartTime><Timestamp dt:dt="int">0</Timestamp><DateUtc dt:dt="string">2015-07-01T17:06:12Z</DateUtc></StartTime><FrequencyChanges><FrequencyChange><Frequency dt:dt="r8">3507685</Frequency><Timestamp dt:dt="r8">1563134716485</Timestamp><Current dt:dt="r8">0</Current><DateUtc dt:dt="string">2015-07-01T17:06:12Z</DateUtc></FrequencyChange></FrequencyChanges></Clock>\n	Hungry_Donkey_bar_English_2-114-1	60.017	-105	1.0.0.18	1	-232683102	Standard	2.0.10.353	2.0.10.353	07-01-2015	7/1/2015 5:06:12 PM	13:06:12	2.0.10.248	98	Bar50-50.bmp	46	2	?	0r_4g.bmp	0r_4g.bmp	0r_2g.bmp	0r_2g.bmp		0r_4g.bmp			TrialProc	TrialList	0	cvbn	-999999	16	378624	0	v	691	379315	302	-350	-48	2	-90	14	26	6	10	98	0	0	0	0	4	4	2	2	0	4
Hungry_Donkey_bar_English_2	114	1	<?xml version="1.0"?>\n<Clock xmlns:dt="urn:schemas-microsoft-com:datatypes"><Description dt:dt="string">E-Prime Primary Realtime Clock</Description><StartTime><Timestamp dt:dt="int">0</Timestamp><DateUtc dt:dt="string">2015-07-01T17:06:12Z</DateUtc></StartTime><FrequencyChanges><FrequencyChange><Frequency dt:dt="r8">3507685</Frequency><Timestamp dt:dt="r8">1563134716485</Timestamp><Current dt:dt="r8">0</Current><DateUtc dt:dt="string">2015-07-01T17:06:12Z</DateUtc></FrequencyChange></FrequencyChanges></Clock>\n	Hungry_Donkey_bar_English_2-114-1	60.017	-105	1.0.0.18	1	-232683102	Standard	2.0.10.353	2.0.10.353	07-01-2015	7/1/2015 5:06:12 PM	13:06:12	2.0.10.248	99	Bar50-50.bmp	46	4	?	0r_4g.bmp	0r_4g.bmp	0r_2g.bmp	0r_2g.bmp				0r_2g.bmp	TrialProc	TrialList	0	cvbn	-999999	16	381340	0	n	423	381763	304	-350	-46	2	-90	14	28	10	10	99	0	0	0	0	4	4	2	2	0	2
Hungry_Donkey_bar_English_2	114	1	<?xml version="1.0"?>\n<Clock xmlns:dt="urn:schemas-microsoft-com:datatypes"><Description dt:dt="string">E-Prime Primary Realtime Clock</Description><StartTime><Timestamp dt:dt="int">0</Timestamp><DateUtc dt:dt="string">2015-07-01T17:06:12Z</DateUtc></StartTime><FrequencyChanges><FrequencyChange><Frequency dt:dt="r8">3507685</Frequency><Timestamp dt:dt="r8">1563134716485</Timestamp><Current dt:dt="r8">0</Current><DateUtc dt:dt="string">2015-07-01T17:06:12Z</DateUtc></FrequencyChange></FrequencyChanges></Clock>\n	Hungry_Donkey_bar_English_2-114-1	60.017	-105	1.0.0.18	1	-232683102	Standard	2.0.10.353	2.0.10.353	07-01-2015	7/1/2015 5:06:12 PM	13:06:12	2.0.10.248	100	Bar50-50.bmp	46	4	?	8r_4g.bmp	50r_4g.bmp	1r_2g.bmp	10r_2g.bmp				10r_2g.bmp	TrialProc	TrialList	0	cvbn	-999999	17	383790	0	n	548	384338	306	-360	-54	2	-90	14	20	1	10	100	-8	-50	-1	-10	4	4	2	2	-10	2
Hungry_Donkey_bar_English_2	114	1	<?xml version="1.0"?>\n<Clock xmlns:dt="urn:schemas-microsoft-com:datatypes"><Description dt:dt="string">E-Prime Primary Realtime Clock</Description><StartTime><Timestamp dt:dt="int">0</Timestamp><DateUtc dt:dt="string">2015-07-01T17:06:12Z</DateUtc></StartTime><FrequencyChanges><FrequencyChange><Frequency dt:dt="r8">3507685</Frequency><Timestamp dt:dt="r8">1563134716485</Timestamp><Current dt:dt="r8">0</Current><DateUtc dt:dt="string">2015-07-01T17:06:12Z</DateUtc></FrequencyChange></FrequencyChanges></Clock>\n	Hungry_Donkey_bar_English_2-114-1	60.017	-105	1.0.0.18	1	-232683102	Standard	2.0.10.353	2.0.10.353	07-01-2015	7/1/2015 5:06:12 PM	13:06:12	2.0.10.248	101	Bar50-50.bmp	46	3	?	0r_4g.bmp	0r_4g.bmp	0r_2g.bmp	0r_2g.bmp			0r_2g.bmp		TrialProc	TrialList	0	cvbn	-999999	16	386372	0	b	1822	388194	308	-360	-52	2	-90	16	20	10	11	101	0	0	0	0	4	4	2	2	0	2
Hungry_Donkey_bar_English_2	114	1	<?xml version="1.0"?>\n<Clock xmlns:dt="urn:schemas-microsoft-com:datatypes"><Description dt:dt="string">E-Prime Primary Realtime Clock</Description><StartTime><Timestamp dt:dt="int">0</Timestamp><DateUtc dt:dt="string">2015-07-01T17:06:12Z</DateUtc></StartTime><FrequencyChanges><FrequencyChange><Frequency dt:dt="r8">3507685</Frequency><Timestamp dt:dt="r8">1563134716485</Timestamp><Current dt:dt="r8">0</Current><DateUtc dt:dt="string">2015-07-01T17:06:12Z</DateUtc></FrequencyChange></FrequencyChanges></Clock>\n	Hungry_Donkey_bar_English_2-114-1	60.017	-105	1.0.0.18	1	-232683102	Standard	2.0.10.353	2.0.10.353	07-01-2015	7/1/2015 5:06:12 PM	13:06:12	2.0.10.248	102	Bar50-50.bmp	46	2	?	12r_4g.bmp	0r_4g.bmp	3r_2g.bmp	0r_2g.bmp		0r_4g.bmp			TrialProc	TrialList	0	cvbn	-999999	16	390221	0	v	325	390546	312	-360	-48	2	-86	16	20	5	11	102	-12	0	-3	0	4	4	2	2	0	4
Hungry_Donkey_bar_English_2	114	1	<?xml version="1.0"?>\n<Clock xmlns:dt="urn:schemas-microsoft-com:datatypes"><Description dt:dt="string">E-Prime Primary Realtime Clock</Description><StartTime><Timestamp dt:dt="int">0</Timestamp><DateUtc dt:dt="string">2015-07-01T17:06:12Z</DateUtc></StartTime><FrequencyChanges><FrequencyChange><Frequency dt:dt="r8">3507685</Frequency><Timestamp dt:dt="r8">1563134716485</Timestamp><Current dt:dt="r8">0</Current><DateUtc dt:dt="string">2015-07-01T17:06:12Z</DateUtc></FrequencyChange></FrequencyChanges></Clock>\n	Hungry_Donkey_bar_English_2-114-1	60.017	-105	1.0.0.18	1	-232683102	Standard	2.0.10.353	2.0.10.353	07-01-2015	7/1/2015 5:06:12 PM	13:06:12	2.0.10.248	103	Bar50-50.bmp	47	1	?	0r_4g.bmp	0r_4g.bmp	0r_2g.bmp	0r_2g.bmp	0r_4g.bmp				TrialProc	TrialList	0	cvbn	-999999	15	392570	0	c	744	393314	316	-360	-44	6	-86	16	20	7	11	103	0	0	0	0	4	4	2	2	0	4
Hungry_Donkey_bar_English_2	114	1	<?xml version="1.0"?>\n<Clock xmlns:dt="urn:schemas-microsoft-com:datatypes"><Description dt:dt="string">E-Prime Primary Realtime Clock</Description><StartTime><Timestamp dt:dt="int">0</Timestamp><DateUtc dt:dt="string">2015-07-01T17:06:12Z</DateUtc></StartTime><FrequencyChanges><FrequencyChange><Frequency dt:dt="r8">3507685</Frequency><Timestamp dt:dt="r8">1563134716485</Timestamp><Current dt:dt="r8">0</Current><DateUtc dt:dt="string">2015-07-01T17:06:12Z</DateUtc></FrequencyChange></FrequencyChanges></Clock>\n	Hungry_Donkey_bar_English_2-114-1	60.017	-105	1.0.0.18	1	-232683102	Standard	2.0.10.353	2.0.10.353	07-01-2015	7/1/2015 5:06:12 PM	13:06:12	2.0.10.248	104	Bar50-50.bmp	47	2	?	0r_4g.bmp	0r_4g.bmp	0r_2g.bmp	0r_2g.bmp		0r_4g.bmp			TrialProc	TrialList	0	cvbn	-999999	16	395353	0	v	617	395970	320	-360	-40	6	-82	16	20	8	11	104	0	0	0	0	4	4	2	2	0	4
Hungry_Donkey_bar_English_2	114	1	<?xml version="1.0"?>\n<Clock xmlns:dt="urn:schemas-microsoft-com:datatypes"><Description dt:dt="string">E-Prime Primary Realtime Clock</Description><StartTime><Timestamp dt:dt="int">0</Timestamp><DateUtc dt:dt="string">2015-07-01T17:06:12Z</DateUtc></StartTime><FrequencyChanges><FrequencyChange><Frequency dt:dt="r8">3507685</Frequency><Timestamp dt:dt="r8">1563134716485</Timestamp><Current dt:dt="r8">0</Current><DateUtc dt:dt="string">2015-07-01T17:06:12Z</DateUtc></FrequencyChange></FrequencyChanges></Clock>\n	Hungry_Donkey_bar_English_2-114-1	60.017	-105	1.0.0.18	1	-232683102	Standard	2.0.10.353	2.0.10.353	07-01-2015	7/1/2015 5:06:12 PM	13:06:12	2.0.10.248	105	Bar50-50.bmp	47	3	?	0r_4g.bmp	0r_4g.bmp	0r_2g.bmp	0r_2g.bmp			0r_2g.bmp		TrialProc	TrialList	0	cvbn	-999999	16	398002	0	b	560	398562	322	-360	-38	6	-82	18	20	6	11	105	0	0	0	0	4	4	2	2	0	2
Hungry_Donkey_bar_English_2	114	1	<?xml version="1.0"?>\n<Clock xmlns:dt="urn:schemas-microsoft-com:datatypes"><Description dt:dt="string">E-Prime Primary Realtime Clock</Description><StartTime><Timestamp dt:dt="int">0</Timestamp><DateUtc dt:dt="string">2015-07-01T17:06:12Z</DateUtc></StartTime><FrequencyChanges><FrequencyChange><Frequency dt:dt="r8">3507685</Frequency><Timestamp dt:dt="r8">1563134716485</Timestamp><Current dt:dt="r8">0</Current><DateUtc dt:dt="string">2015-07-01T17:06:12Z</DateUtc></FrequencyChange></FrequencyChanges></Clock>\n	Hungry_Donkey_bar_English_2-114-1	60.017	-105	1.0.0.18	1	-232683102	Standard	2.0.10.353	2.0.10.353	07-01-2015	7/1/2015 5:06:12 PM	13:06:12	2.0.10.248	106	Bar50-50.bmp	47	1	?	10r_4g.bmp	0r_4g.bmp	2r_2g.bmp	0r_2g.bmp	10r_4g.bmp				TrialProc	TrialList	0	cvbn	-999999	16	400601	0	c	665	401266	326	-370	-44	0	-82	18	20	4	11	106	-10	0	-2	0	4	4	2	2	-10	4
Hungry_Donkey_bar_English_2	114	1	<?xml version="1.0"?>\n<Clock xmlns:dt="urn:schemas-microsoft-com:datatypes"><Description dt:dt="string">E-Prime Primary Realtime Clock</Description><StartTime><Timestamp dt:dt="int">0</Timestamp><DateUtc dt:dt="string">2015-07-01T17:06:12Z</DateUtc></StartTime><FrequencyChanges><FrequencyChange><Frequency dt:dt="r8">3507685</Frequency><Timestamp dt:dt="r8">1563134716485</Timestamp><Current dt:dt="r8">0</Current><DateUtc dt:dt="string">2015-07-01T17:06:12Z</DateUtc></FrequencyChange></FrequencyChanges></Clock>\n	Hungry_Donkey_bar_English_2-114-1	60.017	-105	1.0.0.18	1	-232683102	Standard	2.0.10.353	2.0.10.353	07-01-2015	7/1/2015 5:06:12 PM	13:06:12	2.0.10.248	107	Bar50-50.bmp	47	2	?	0r_4g.bmp	0r_4g.bmp	0r_2g.bmp	0r_2g.bmp		0r_4g.bmp			TrialProc	TrialList	0	cvbn	-999999	16	403301	0	v	428	403729	330	-370	-40	0	-78	18	20	9	11	107	0	0	0	0	4	4	2	2	0	4
Hungry_Donkey_bar_English_2	114	1	<?xml version="1.0"?>\n<Clock xmlns:dt="urn:schemas-microsoft-com:datatypes"><Description dt:dt="string">E-Prime Primary Realtime Clock</Description><StartTime><Timestamp dt:dt="int">0</Timestamp><DateUtc dt:dt="string">2015-07-01T17:06:12Z</DateUtc></StartTime><FrequencyChanges><FrequencyChange><Frequency dt:dt="r8">3507685</Frequency><Timestamp dt:dt="r8">1563134716485</Timestamp><Current dt:dt="r8">0</Current><DateUtc dt:dt="string">2015-07-01T17:06:12Z</DateUtc></FrequencyChange></FrequencyChanges></Clock>\n	Hungry_Donkey_bar_English_2-114-1	60.017	-105	1.0.0.18	1	-232683102	Standard	2.0.10.353	2.0.10.353	07-01-2015	7/1/2015 5:06:12 PM	13:06:12	2.0.10.248	108	Bar50-50.bmp	44	2	?	8r_4g.bmp	50r_4g.bmp	1r_2g.bmp	10r_2g.bmp		50r_4g.bmp			TrialProc	TrialList	0	cvbn	-999999	17	405767	0	v	634	406401	334	-420	-86	0	-124	18	20	1	11	108	-8	-50	-1	-10	4	4	2	2	-50	4
Hungry_Donkey_bar_English_2	114	1	<?xml version="1.0"?>\n<Clock xmlns:dt="urn:schemas-microsoft-com:datatypes"><Description dt:dt="string">E-Prime Primary Realtime Clock</Description><StartTime><Timestamp dt:dt="int">0</Timestamp><DateUtc dt:dt="string">2015-07-01T17:06:12Z</DateUtc></StartTime><FrequencyChanges><FrequencyChange><Frequency dt:dt="r8">3507685</Frequency><Timestamp dt:dt="r8">1563134716485</Timestamp><Current dt:dt="r8">0</Current><DateUtc dt:dt="string">2015-07-01T17:06:12Z</DateUtc></FrequencyChange></FrequencyChanges></Clock>\n	Hungry_Donkey_bar_English_2-114-1	60.017	-105	1.0.0.18	1	-232683102	Standard	2.0.10.353	2.0.10.353	07-01-2015	7/1/2015 5:06:12 PM	13:06:12	2.0.10.248	109	Bar50-50.bmp	44	3	?	10r_4g.bmp	0r_4g.bmp	2r_2g.bmp	0r_2g.bmp			2r_2g.bmp		TrialProc	TrialList	0	cvbn	-999999	16	408432	0	b	721	409153	336	-422	-86	0	-124	18	20	2	11	109	-10	0	-2	0	4	4	2	2	-2	2
Hungry_Donkey_bar_English_2	114	1	<?xml version="1.0"?>\n<Clock xmlns:dt="urn:schemas-microsoft-com:datatypes"><Description dt:dt="string">E-Prime Primary Realtime Clock</Description><StartTime><Timestamp dt:dt="int">0</Timestamp><DateUtc dt:dt="string">2015-07-01T17:06:12Z</DateUtc></StartTime><FrequencyChanges><FrequencyChange><Frequency dt:dt="r8">3507685</Frequency><Timestamp dt:dt="r8">1563134716485</Timestamp><Current dt:dt="r8">0</Current><DateUtc dt:dt="string">2015-07-01T17:06:12Z</DateUtc></FrequencyChange></FrequencyChanges></Clock>\n	Hungry_Donkey_bar_English_2-114-1	60.017	-105	1.0.0.18	1	-232683102	Standard	2.0.10.353	2.0.10.353	07-01-2015	7/1/2015 5:06:12 PM	13:06:12	2.0.10.248	110	Bar50-50.bmp	44	4	?	10r_4g.bmp	0r_4g.bmp	2r_2g.bmp	0r_2g.bmp				0r_2g.bmp	TrialProc	TrialList	0	cvbn	-999999	16	411182	0	n	115	411297	338	-422	-84	0	-124	18	22	3	11	110	-10	0	-2	0	4	4	2	2	0	2
Hungry_Donkey_bar_English_2	114	1	<?xml version="1.0"?>\n<Clock xmlns:dt="urn:schemas-microsoft-com:datatypes"><Description dt:dt="string">E-Prime Primary Realtime Clock</Description><StartTime><Timestamp dt:dt="int">0</Timestamp><DateUtc dt:dt="string">2015-07-01T17:06:12Z</DateUtc></StartTime><FrequencyChanges><FrequencyChange><Frequency dt:dt="r8">3507685</Frequency><Timestamp dt:dt="r8">1563134716485</Timestamp><Current dt:dt="r8">0</Current><DateUtc dt:dt="string">2015-07-01T17:06:12Z</DateUtc></FrequencyChange></FrequencyChanges></Clock>\n	Hungry_Donkey_bar_English_2-114-1	60.017	-105	1.0.0.18	1	-232683102	Standard	2.0.10.353	2.0.10.353	07-01-2015	7/1/2015 5:06:12 PM	13:06:12	2.0.10.248	111	Bar50-50.bmp	45	4	?	10r_4g.bmp	0r_4g.bmp	2r_2g.bmp	0r_2g.bmp				0r_2g.bmp	TrialProc	TrialList	0	cvbn	-999999	16	413331	0	n	494	413825	340	-422	-82	0	-124	18	24	3	12	111	-10	0	-2	0	4	4	2	2	0	2
