ExperimentName	Subject	Session	Clock.Information	DataFile.Basename	Display.RefreshRate	Eindtotaal[Session]	ExperimentVersion	Group	RandomSeed	RuntimeCapabilities	RuntimeVersion	RuntimeVersionExpected	SessionDate	SessionStartDateTimeUtc	SessionTime	StudioVersion	Block	BarImage	BarTotalWinst	DoorChoice	Eindtotaal[Block]	FBDoor1	FBDoor2	FBDoor3	FBDoor4	Image1	Image2	Image3	Image4	Procedure	Running	spel.ACC	spel.CRESP	spel.DurationError	spel.OnsetDelay	spel.OnsetTime	spel.OnsetToOnsetTime	spel.RESP	spel.RT	spel.RTTime	TotalGain	TotalLose	Totalsum	TotalsumD1	TotalsumD2	TotalsumD3	TotalsumD4	TrialList	TrialList.Cycle	TrialList.Sample	varV1	varV2	varV3	varV4	varW1	varW2	varW3	varW4	Verliesbedrag	Winstbedrag
Hungry_Donkey_bar_English_2	127	1	<?xml version="1.0"?>\n<Clock xmlns:dt="urn:schemas-microsoft-com:datatypes"><Description dt:dt="string">E-Prime Primary Realtime Clock</Description><StartTime><Timestamp dt:dt="int">0</Timestamp><DateUtc dt:dt="string">2015-09-14T21:30:18Z</DateUtc></StartTime><FrequencyChanges><FrequencyChange><Frequency dt:dt="r8">3507666</Frequency><Timestamp dt:dt="r8">2135083100349</Timestamp><Current dt:dt="r8">0</Current><DateUtc dt:dt="string">2015-09-14T21:30:18Z</DateUtc></FrequencyChange></FrequencyChanges></Clock>\n	Hungry_Donkey_bar_English_2-127-1	60.017	-117	1.0.0.18	1	484580764	Standard	2.0.10.353	2.0.10.353	09-14-2015	9/14/2015 9:30:18 PM	17:30:18	2.0.10.248	1	Bar37-63.bmp	40	3	?	12r_4g.bmp	0r_4g.bmp	3r_2g.bmp	0r_2g.bmp			3r_2g.bmp		TrialProc	TrialList	0	cvbn	-999999	23	81977	0	b	3096	85073	2	-3	-1	0	0	-1	0	5	1	1	-12	0	-3	0	4	4	2	2	-3	2
Hungry_Donkey_bar_English_2	127	1	<?xml version="1.0"?>\n<Clock xmlns:dt="urn:schemas-microsoft-com:datatypes"><Description dt:dt="string">E-Prime Primary Realtime Clock</Description><StartTime><Timestamp dt:dt="int">0</Timestamp><DateUtc dt:dt="string">2015-09-14T21:30:18Z</DateUtc></StartTime><FrequencyChanges><FrequencyChange><Frequency dt:dt="r8">3507666</Frequency><Timestamp dt:dt="r8">2135083100349</Timestamp><Current dt:dt="r8">0</Current><DateUtc dt:dt="string">2015-09-14T21:30:18Z</DateUtc></FrequencyChange></FrequencyChanges></Clock>\n	Hungry_Donkey_bar_English_2-127-1	60.017	-117	1.0.0.18	1	484580764	Standard	2.0.10.353	2.0.10.353	09-14-2015	9/14/2015 9:30:18 PM	17:30:18	2.0.10.248	2	Bar63-37.bmp	67	1	?	0r_4g.bmp	0r_4g.bmp	0r_2g.bmp	0r_2g.bmp	0r_4g.bmp				TrialProc	TrialList	0	cvbn	-999999	16	87109	0	c	2316	89425	6	-3	3	4	0	-1	0	6	1	2	0	0	0	0	4	4	2	2	0	4
Hungry_Donkey_bar_English_2	127	1	<?xml version="1.0"?>\n<Clock xmlns:dt="urn:schemas-microsoft-com:datatypes"><Description dt:dt="string">E-Prime Primary Realtime Clock</Description><StartTime><Timestamp dt:dt="int">0</Timestamp><DateUtc dt:dt="string">2015-09-14T21:30:18Z</DateUtc></StartTime><FrequencyChanges><FrequencyChange><Frequency dt:dt="r8">3507666</Frequency><Timestamp dt:dt="r8">2135083100349</Timestamp><Current dt:dt="r8">0</Current><DateUtc dt:dt="string">2015-09-14T21:30:18Z</DateUtc></FrequencyChange></FrequencyChanges></Clock>\n	Hungry_Donkey_bar_English_2-127-1	60.017	-117	1.0.0.18	1	484580764	Standard	2.0.10.353	2.0.10.353	09-14-2015	9/14/2015 9:30:18 PM	17:30:18	2.0.10.248	3	Bar75-25.bmp	77	2	?	10r_4g.bmp	0r_4g.bmp	2r_2g.bmp	0r_2g.bmp		0r_4g.bmp			TrialProc	TrialList	0	cvbn	-999999	17	91458	0	v	3167	94625	10	-3	7	4	4	-1	0	2	1	3	-10	0	-2	0	4	4	2	2	0	4
Hungry_Donkey_bar_English_2	127	1	<?xml version="1.0"?>\n<Clock xmlns:dt="urn:schemas-microsoft-com:datatypes"><Description dt:dt="string">E-Prime Primary Realtime Clock</Description><StartTime><Timestamp dt:dt="int">0</Timestamp><DateUtc dt:dt="string">2015-09-14T21:30:18Z</DateUtc></StartTime><FrequencyChanges><FrequencyChange><Frequency dt:dt="r8">3507666</Frequency><Timestamp dt:dt="r8">2135083100349</Timestamp><Current dt:dt="r8">0</Current><DateUtc dt:dt="string">2015-09-14T21:30:18Z</DateUtc></FrequencyChange></FrequencyChanges></Clock>\n	Hungry_Donkey_bar_English_2-127-1	60.017	-117	1.0.0.18	1	484580764	Standard	2.0.10.353	2.0.10.353	09-14-2015	9/14/2015 9:30:18 PM	17:30:18	2.0.10.248	4	Bar75-25.bmp	80	4	?	0r_4g.bmp	0r_4g.bmp	0r_2g.bmp	0r_2g.bmp				0r_2g.bmp	TrialProc	TrialList	0	cvbn	-999999	16	96656	0	n	2561	99217	12	-3	9	4	4	-1	2	7	1	4	0	0	0	0	4	4	2	2	0	2
Hungry_Donkey_bar_English_2	127	1	<?xml version="1.0"?>\n<Clock xmlns:dt="urn:schemas-microsoft-com:datatypes"><Description dt:dt="string">E-Prime Primary Realtime Clock</Description><StartTime><Timestamp dt:dt="int">0</Timestamp><DateUtc dt:dt="string">2015-09-14T21:30:18Z</DateUtc></StartTime><FrequencyChanges><FrequencyChange><Frequency dt:dt="r8">3507666</Frequency><Timestamp dt:dt="r8">2135083100349</Timestamp><Current dt:dt="r8">0</Current><DateUtc dt:dt="string">2015-09-14T21:30:18Z</DateUtc></FrequencyChange></FrequencyChanges></Clock>\n	Hungry_Donkey_bar_English_2-127-1	60.017	-117	1.0.0.18	1	484580764	Standard	2.0.10.353	2.0.10.353	09-14-2015	9/14/2015 9:30:18 PM	17:30:18	2.0.10.248	5	Bar50-50.bmp	55	1	?	10r_4g.bmp	0r_4g.bmp	2r_2g.bmp	0r_2g.bmp	10r_4g.bmp				TrialProc	TrialList	0	cvbn	-999999	16	101255	0	c	1290	102545	16	-13	3	-2	4	-1	2	3	1	5	-10	0	-2	0	4	4	2	2	-10	4
Hungry_Donkey_bar_English_2	127	1	<?xml version="1.0"?>\n<Clock xmlns:dt="urn:schemas-microsoft-com:datatypes"><Description dt:dt="string">E-Prime Primary Realtime Clock</Description><StartTime><Timestamp dt:dt="int">0</Timestamp><DateUtc dt:dt="string">2015-09-14T21:30:18Z</DateUtc></StartTime><FrequencyChanges><FrequencyChange><Frequency dt:dt="r8">3507666</Frequency><Timestamp dt:dt="r8">2135083100349</Timestamp><Current dt:dt="r8">0</Current><DateUtc dt:dt="string">2015-09-14T21:30:18Z</DateUtc></FrequencyChange></FrequencyChanges></Clock>\n	Hungry_Donkey_bar_English_2-127-1	60.017	-117	1.0.0.18	1	484580764	Standard	2.0.10.353	2.0.10.353	09-14-2015	9/14/2015 9:30:18 PM	17:30:18	2.0.10.248	6	Bar63-37.bmp	61	2	?	10r_4g.bmp	0r_4g.bmp	2r_2g.bmp	0r_2g.bmp		0r_4g.bmp			TrialProc	TrialList	0	cvbn	-999999	16	104570	0	v	1334	105904	20	-13	7	-2	8	-1	2	4	1	6	-10	0	-2	0	4	4	2	2	0	4
Hungry_Donkey_bar_English_2	127	1	<?xml version="1.0"?>\n<Clock xmlns:dt="urn:schemas-microsoft-com:datatypes"><Description dt:dt="string">E-Prime Primary Realtime Clock</Description><StartTime><Timestamp dt:dt="int">0</Timestamp><DateUtc dt:dt="string">2015-09-14T21:30:18Z</DateUtc></StartTime><FrequencyChanges><FrequencyChange><Frequency dt:dt="r8">3507666</Frequency><Timestamp dt:dt="r8">2135083100349</Timestamp><Current dt:dt="r8">0</Current><DateUtc dt:dt="string">2015-09-14T21:30:18Z</DateUtc></FrequencyChange></FrequencyChanges></Clock>\n	Hungry_Donkey_bar_English_2-127-1	60.017	-117	1.0.0.18	1	484580764	Standard	2.0.10.353	2.0.10.353	09-14-2015	9/14/2015 9:30:18 PM	17:30:18	2.0.10.248	7	Bar63-37.bmp	63	3	?	0r_4g.bmp	0r_4g.bmp	0r_2g.bmp	0r_2g.bmp			0r_2g.bmp		TrialProc	TrialList	0	cvbn	-999999	16	107936	0	b	1424	109360	22	-13	9	-2	8	1	2	9	1	7	0	0	0	0	4	4	2	2	0	2
Hungry_Donkey_bar_English_2	127	1	<?xml version="1.0"?>\n<Clock xmlns:dt="urn:schemas-microsoft-com:datatypes"><Description dt:dt="string">E-Prime Primary Realtime Clock</Description><StartTime><Timestamp dt:dt="int">0</Timestamp><DateUtc dt:dt="string">2015-09-14T21:30:18Z</DateUtc></StartTime><FrequencyChanges><FrequencyChange><Frequency dt:dt="r8">3507666</Frequency><Timestamp dt:dt="r8">2135083100349</Timestamp><Current dt:dt="r8">0</Current><DateUtc dt:dt="string">2015-09-14T21:30:18Z</DateUtc></FrequencyChange></FrequencyChanges></Clock>\n	Hungry_Donkey_bar_English_2-127-1	60.017	-117	1.0.0.18	1	484580764	Standard	2.0.10.353	2.0.10.353	09-14-2015	9/14/2015 9:30:18 PM	17:30:18	2.0.10.248	8	Bar50-50.bmp	55	1	?	8r_4g.bmp	50r_4g.bmp	1r_2g.bmp	10r_2g.bmp	8r_4g.bmp				TrialProc	TrialList	0	cvbn	-999999	16	111385	0	c	1959	113344	26	-21	5	-6	8	1	2	1	1	8	-8	-50	-1	-10	4	4	2	2	-8	4
Hungry_Donkey_bar_English_2	127	1	<?xml version="1.0"?>\n<Clock xmlns:dt="urn:schemas-microsoft-com:datatypes"><Description dt:dt="string">E-Prime Primary Realtime Clock</Description><StartTime><Timestamp dt:dt="int">0</Timestamp><DateUtc dt:dt="string">2015-09-14T21:30:18Z</DateUtc></StartTime><FrequencyChanges><FrequencyChange><Frequency dt:dt="r8">3507666</Frequency><Timestamp dt:dt="r8">2135083100349</Timestamp><Current dt:dt="r8">0</Current><DateUtc dt:dt="string">2015-09-14T21:30:18Z</DateUtc></FrequencyChange></FrequencyChanges></Clock>\n	Hungry_Donkey_bar_English_2-127-1	60.017	-117	1.0.0.18	1	484580764	Standard	2.0.10.353	2.0.10.353	09-14-2015	9/14/2015 9:30:18 PM	17:30:18	2.0.10.248	9	Bar63-37.bmp	57	4	?	0r_4g.bmp	0r_4g.bmp	0r_2g.bmp	0r_2g.bmp				0r_2g.bmp	TrialProc	TrialList	0	cvbn	-999999	16	115384	0	n	1896	117280	28	-21	7	-6	8	1	4	10	1	9	0	0	0	0	4	4	2	2	0	2
Hungry_Donkey_bar_English_2	127	1	<?xml version="1.0"?>\n<Clock xmlns:dt="urn:schemas-microsoft-com:datatypes"><Description dt:dt="string">E-Prime Primary Realtime Clock</Description><StartTime><Timestamp dt:dt="int">0</Timestamp><DateUtc dt:dt="string">2015-09-14T21:30:18Z</DateUtc></StartTime><FrequencyChanges><FrequencyChange><Frequency dt:dt="r8">3507666</Frequency><Timestamp dt:dt="r8">2135083100349</Timestamp><Current dt:dt="r8">0</Current><DateUtc dt:dt="string">2015-09-14T21:30:18Z</DateUtc></FrequencyChange></FrequencyChanges></Clock>\n	Hungry_Donkey_bar_English_2-127-1	60.017	-117	1.0.0.18	1	484580764	Standard	2.0.10.353	2.0.10.353	09-14-2015	9/14/2015 9:30:18 PM	17:30:18	2.0.10.248	10	Bar63-37.bmp	59	3	?	0r_4g.bmp	0r_4g.bmp	0r_2g.bmp	0r_2g.bmp			0r_2g.bmp		TrialProc	TrialList	0	cvbn	-999999	16	119316	0	b	1084	120400	30	-21	9	-6	8	3	4	8	1	10	0	0	0	0	4	4	2	2	0	2
Hungry_Donkey_bar_English_2	127	1	<?xml version="1.0"?>\n<Clock xmlns:dt="urn:schemas-microsoft-com:datatypes"><Description dt:dt="string">E-Prime Primary Realtime Clock</Description><StartTime><Timestamp dt:dt="int">0</Timestamp><DateUtc dt:dt="string">2015-09-14T21:30:18Z</DateUtc></StartTime><FrequencyChanges><FrequencyChange><Frequency dt:dt="r8">3507666</Frequency><Timestamp dt:dt="r8">2135083100349</Timestamp><Current dt:dt="r8">0</Current><DateUtc dt:dt="string">2015-09-14T21:30:18Z</DateUtc></FrequencyChange></FrequencyChanges></Clock>\n	Hungry_Donkey_bar_English_2-127-1	60.017	-117	1.0.0.18	1	484580764	Standard	2.0.10.353	2.0.10.353	09-14-2015	9/14/2015 9:30:18 PM	17:30:18	2.0.10.248	11	Bar63-37.bmp	62	2	?	0r_4g.bmp	0r_4g.bmp	0r_2g.bmp	0r_2g.bmp		0r_4g.bmp			TrialProc	TrialList	0	cvbn	-999999	16	122432	0	v	1360	123792	34	-21	13	-6	12	3	4	6	2	11	0	0	0	0	4	4	2	2	0	4
Hungry_Donkey_bar_English_2	127	1	<?xml version="1.0"?>\n<Clock xmlns:dt="urn:schemas-microsoft-com:datatypes"><Description dt:dt="string">E-Prime Primary Realtime Clock</Description><StartTime><Timestamp dt:dt="int">0</Timestamp><DateUtc dt:dt="string">2015-09-14T21:30:18Z</DateUtc></StartTime><FrequencyChanges><FrequencyChange><Frequency dt:dt="r8">3507666</Frequency><Timestamp dt:dt="r8">2135083100349</Timestamp><Current dt:dt="r8">0</Current><DateUtc dt:dt="string">2015-09-14T21:30:18Z</DateUtc></FrequencyChange></FrequencyChanges></Clock>\n	Hungry_Donkey_bar_English_2-127-1	60.017	-117	1.0.0.18	1	484580764	Standard	2.0.10.353	2.0.10.353	09-14-2015	9/14/2015 9:30:18 PM	17:30:18	2.0.10.248	12	Bar63-37.bmp	64	1	?	0r_4g.bmp	0r_4g.bmp	0r_2g.bmp	0r_2g.bmp	0r_4g.bmp				TrialProc	TrialList	0	cvbn	-999999	16	125831	0	c	1209	127040	38	-21	17	-2	12	3	4	8	2	12	0	0	0	0	4	4	2	2	0	4
Hungry_Donkey_bar_English_2	127	1	<?xml version="1.0"?>\n<Clock xmlns:dt="urn:schemas-microsoft-com:datatypes"><Description dt:dt="string">E-Prime Primary Realtime Clock</Description><StartTime><Timestamp dt:dt="int">0</Timestamp><DateUtc dt:dt="string">2015-09-14T21:30:18Z</DateUtc></StartTime><FrequencyChanges><FrequencyChange><Frequency dt:dt="r8">3507666</Frequency><Timestamp dt:dt="r8">2135083100349</Timestamp><Current dt:dt="r8">0</Current><DateUtc dt:dt="string">2015-09-14T21:30:18Z</DateUtc></FrequencyChange></FrequencyChanges></Clock>\n	Hungry_Donkey_bar_English_2-127-1	60.017	-117	1.0.0.18	1	484580764	Standard	2.0.10.353	2.0.10.353	09-14-2015	9/14/2015 9:30:18 PM	17:30:18	2.0.10.248	13	Bar63-37.bmp	67	2	?	10r_4g.bmp	0r_4g.bmp	2r_2g.bmp	0r_2g.bmp		0r_4g.bmp			TrialProc	TrialList	0	cvbn	-999999	17	129064	0	v	1047	130111	42	-21	21	-2	16	3	4	2	2	13	-10	0	-2	0	4	4	2	2	0	4
Hungry_Donkey_bar_English_2	127	1	<?xml version="1.0"?>\n<Clock xmlns:dt="urn:schemas-microsoft-com:datatypes"><Description dt:dt="string">E-Prime Primary Realtime Clock</Description><StartTime><Timestamp dt:dt="int">0</Timestamp><DateUtc dt:dt="string">2015-09-14T21:30:18Z</DateUtc></StartTime><FrequencyChanges><FrequencyChange><Frequency dt:dt="r8">3507666</Frequency><Timestamp dt:dt="r8">2135083100349</Timestamp><Current dt:dt="r8">0</Current><DateUtc dt:dt="string">2015-09-14T21:30:18Z</DateUtc></FrequencyChange></FrequencyChanges></Clock>\n	Hungry_Donkey_bar_English_2-127-1	60.017	-117	1.0.0.18	1	484580764	Standard	2.0.10.353	2.0.10.353	09-14-2015	9/14/2015 9:30:18 PM	17:30:18	2.0.10.248	14	Bar63-37.bmp	65	3	?	12r_4g.bmp	0r_4g.bmp	3r_2g.bmp	0r_2g.bmp			3r_2g.bmp		TrialProc	TrialList	0	cvbn	-999999	16	132146	0	b	1661	133807	44	-24	20	-2	16	2	4	5	2	14	-12	0	-3	0	4	4	2	2	-3	2
Hungry_Donkey_bar_English_2	127	1	<?xml version="1.0"?>\n<Clock xmlns:dt="urn:schemas-microsoft-com:datatypes"><Description dt:dt="string">E-Prime Primary Realtime Clock</Description><StartTime><Timestamp dt:dt="int">0</Timestamp><DateUtc dt:dt="string">2015-09-14T21:30:18Z</DateUtc></StartTime><FrequencyChanges><FrequencyChange><Frequency dt:dt="r8">3507666</Frequency><Timestamp dt:dt="r8">2135083100349</Timestamp><Current dt:dt="r8">0</Current><DateUtc dt:dt="string">2015-09-14T21:30:18Z</DateUtc></FrequencyChange></FrequencyChanges></Clock>\n	Hungry_Donkey_bar_English_2-127-1	60.017	-117	1.0.0.18	1	484580764	Standard	2.0.10.353	2.0.10.353	09-14-2015	9/14/2015 9:30:18 PM	17:30:18	2.0.10.248	15	Bar63-37.bmp	66	4	?	0r_4g.bmp	0r_4g.bmp	0r_2g.bmp	0r_2g.bmp				0r_2g.bmp	TrialProc	TrialList	0	cvbn	-999999	16	135845	0	n	1178	137023	46	-24	22	-2	16	2	6	9	2	15	0	0	0	0	4	4	2	2	0	2
Hungry_Donkey_bar_English_2	127	1	<?xml version="1.0"?>\n<Clock xmlns:dt="urn:schemas-microsoft-com:datatypes"><Description dt:dt="string">E-Prime Primary Realtime Clock</Description><StartTime><Timestamp dt:dt="int">0</Timestamp><DateUtc dt:dt="string">2015-09-14T21:30:18Z</DateUtc></StartTime><FrequencyChanges><FrequencyChange><Frequency dt:dt="r8">3507666</Frequency><Timestamp dt:dt="r8">2135083100349</Timestamp><Current dt:dt="r8">0</Current><DateUtc dt:dt="string">2015-09-14T21:30:18Z</DateUtc></FrequencyChange></FrequencyChanges></Clock>\n	Hungry_Donkey_bar_English_2-127-1	60.017	-117	1.0.0.18	1	484580764	Standard	2.0.10.353	2.0.10.353	09-14-2015	9/14/2015 9:30:18 PM	17:30:18	2.0.10.248	16	Bar63-37.bmp	68	1	?	0r_4g.bmp	0r_4g.bmp	0r_2g.bmp	0r_2g.bmp	0r_4g.bmp				TrialProc	TrialList	0	cvbn	-999999	16	139061	0	c	1210	140271	50	-24	26	2	16	2	6	7	2	16	0	0	0	0	4	4	2	2	0	4
Hungry_Donkey_bar_English_2	127	1	<?xml version="1.0"?>\n<Clock xmlns:dt="urn:schemas-microsoft-com:datatypes"><Description dt:dt="string">E-Prime Primary Realtime Clock</Description><StartTime><Timestamp dt:dt="int">0</Timestamp><DateUtc dt:dt="string">2015-09-14T21:30:18Z</DateUtc></StartTime><FrequencyChanges><FrequencyChange><Frequency dt:dt="r8">3507666</Frequency><Timestamp dt:dt="r8">2135083100349</Timestamp><Current dt:dt="r8">0</Current><DateUtc dt:dt="string">2015-09-14T21:30:18Z</DateUtc></FrequencyChange></FrequencyChanges></Clock>\n	Hungry_Donkey_bar_English_2-127-1	60.017	-117	1.0.0.18	1	484580764	Standard	2.0.10.353	2.0.10.353	09-14-2015	9/14/2015 9:30:18 PM	17:30:18	2.0.10.248	17	Bar63-37.bmp	69	2	?	10r_4g.bmp	0r_4g.bmp	2r_2g.bmp	0r_2g.bmp		0r_4g.bmp			TrialProc	TrialList	0	cvbn	-999999	16	142310	0	v	873	143183	54	-24	30	2	20	2	6	3	2	17	-10	0	-2	0	4	4	2	2	0	4
Hungry_Donkey_bar_English_2	127	1	<?xml version="1.0"?>\n<Clock xmlns:dt="urn:schemas-microsoft-com:datatypes"><Description dt:dt="string">E-Prime Primary Realtime Clock</Description><StartTime><Timestamp dt:dt="int">0</Timestamp><DateUtc dt:dt="string">2015-09-14T21:30:18Z</DateUtc></StartTime><FrequencyChanges><FrequencyChange><Frequency dt:dt="r8">3507666</Frequency><Timestamp dt:dt="r8">2135083100349</Timestamp><Current dt:dt="r8">0</Current><DateUtc dt:dt="string">2015-09-14T21:30:18Z</DateUtc></FrequencyChange></FrequencyChanges></Clock>\n	Hungry_Donkey_bar_English_2-127-1	60.017	-117	1.0.0.18	1	484580764	Standard	2.0.10.353	2.0.10.353	09-14-2015	9/14/2015 9:30:18 PM	17:30:18	2.0.10.248	18	Bar63-37.bmp	68	3	?	10r_4g.bmp	0r_4g.bmp	2r_2g.bmp	0r_2g.bmp			2r_2g.bmp		TrialProc	TrialList	0	cvbn	-999999	16	145209	0	b	1670	146879	56	-26	30	2	20	2	6	4	2	18	-10	0	-2	0	4	4	2	2	-2	2
Hungry_Donkey_bar_English_2	127	1	<?xml version="1.0"?>\n<Clock xmlns:dt="urn:schemas-microsoft-com:datatypes"><Description dt:dt="string">E-Prime Primary Realtime Clock</Description><StartTime><Timestamp dt:dt="int">0</Timestamp><DateUtc dt:dt="string">2015-09-14T21:30:18Z</DateUtc></StartTime><FrequencyChanges><FrequencyChange><Frequency dt:dt="r8">3507666</Frequency><Timestamp dt:dt="r8">2135083100349</Timestamp><Current dt:dt="r8">0</Current><DateUtc dt:dt="string">2015-09-14T21:30:18Z</DateUtc></FrequencyChange></FrequencyChanges></Clock>\n	Hungry_Donkey_bar_English_2-127-1	60.017	-117	1.0.0.18	1	484580764	Standard	2.0.10.353	2.0.10.353	09-14-2015	9/14/2015 9:30:18 PM	17:30:18	2.0.10.248	19	Bar50-50.bmp	44	2	?	8r_4g.bmp	50r_4g.bmp	1r_2g.bmp	10r_2g.bmp		50r_4g.bmp			TrialProc	TrialList	0	cvbn	-999999	16	148908	0	v	978	149886	60	-76	-16	2	-26	2	6	1	2	19	-8	-50	-1	-10	4	4	2	2	-50	4
Hungry_Donkey_bar_English_2	127	1	<?xml version="1.0"?>\n<Clock xmlns:dt="urn:schemas-microsoft-com:datatypes"><Description dt:dt="string">E-Prime Primary Realtime Clock</Description><StartTime><Timestamp dt:dt="int">0</Timestamp><DateUtc dt:dt="string">2015-09-14T21:30:18Z</DateUtc></StartTime><FrequencyChanges><FrequencyChange><Frequency dt:dt="r8">3507666</Frequency><Timestamp dt:dt="r8">2135083100349</Timestamp><Current dt:dt="r8">0</Current><DateUtc dt:dt="string">2015-09-14T21:30:18Z</DateUtc></FrequencyChange></FrequencyChanges></Clock>\n	Hungry_Donkey_bar_English_2-127-1	60.017	-117	1.0.0.18	1	484580764	Standard	2.0.10.353	2.0.10.353	09-14-2015	9/14/2015 9:30:18 PM	17:30:18	2.0.10.248	20	Bar50-50.bmp	46	1	?	0r_4g.bmp	0r_4g.bmp	0r_2g.bmp	0r_2g.bmp	0r_4g.bmp				TrialProc	TrialList	0	cvbn	-999999	16	151924	0	c	1994	153918	64	-76	-12	6	-26	2	6	10	2	20	0	0	0	0	4	4	2	2	0	4
Hungry_Donkey_bar_English_2	127	1	<?xml version="1.0"?>\n<Clock xmlns:dt="urn:schemas-microsoft-com:datatypes"><Description dt:dt="string">E-Prime Primary Realtime Clock</Description><StartTime><Timestamp dt:dt="int">0</Timestamp><DateUtc dt:dt="string">2015-09-14T21:30:18Z</DateUtc></StartTime><FrequencyChanges><FrequencyChange><Frequency dt:dt="r8">3507666</Frequency><Timestamp dt:dt="r8">2135083100349</Timestamp><Current dt:dt="r8">0</Current><DateUtc dt:dt="string">2015-09-14T21:30:18Z</DateUtc></FrequencyChange></FrequencyChanges></Clock>\n	Hungry_Donkey_bar_English_2-127-1	60.017	-117	1.0.0.18	1	484580764	Standard	2.0.10.353	2.0.10.353	09-14-2015	9/14/2015 9:30:18 PM	17:30:18	2.0.10.248	21	Bar50-50.bmp	46	3	?	10r_4g.bmp	0r_4g.bmp	2r_2g.bmp	0r_2g.bmp			2r_2g.bmp		TrialProc	TrialList	0	cvbn	-999999	16	155956	0	b	1578	157534	66	-78	-12	6	-26	2	6	2	3	21	-10	0	-2	0	4	4	2	2	-2	2
Hungry_Donkey_bar_English_2	127	1	<?xml version="1.0"?>\n<Clock xmlns:dt="urn:schemas-microsoft-com:datatypes"><Description dt:dt="string">E-Prime Primary Realtime Clock</Description><StartTime><Timestamp dt:dt="int">0</Timestamp><DateUtc dt:dt="string">2015-09-14T21:30:18Z</DateUtc></StartTime><FrequencyChanges><FrequencyChange><Frequency dt:dt="r8">3507666</Frequency><Timestamp dt:dt="r8">2135083100349</Timestamp><Current dt:dt="r8">0</Current><DateUtc dt:dt="string">2015-09-14T21:30:18Z</DateUtc></FrequencyChange></FrequencyChanges></Clock>\n	Hungry_Donkey_bar_English_2-127-1	60.017	-117	1.0.0.18	1	484580764	Standard	2.0.10.353	2.0.10.353	09-14-2015	9/14/2015 9:30:18 PM	17:30:18	2.0.10.248	22	Bar50-50.bmp	47	4	?	10r_4g.bmp	0r_4g.bmp	2r_2g.bmp	0r_2g.bmp				0r_2g.bmp	TrialProc	TrialList	0	cvbn	-999999	17	159572	0	n	1498	161070	68	-78	-10	6	-26	2	8	4	3	22	-10	0	-2	0	4	4	2	2	0	2
Hungry_Donkey_bar_English_2	127	1	<?xml version="1.0"?>\n<Clock xmlns:dt="urn:schemas-microsoft-com:datatypes"><Description dt:dt="string">E-Prime Primary Realtime Clock</Description><StartTime><Timestamp dt:dt="int">0</Timestamp><DateUtc dt:dt="string">2015-09-14T21:30:18Z</DateUtc></StartTime><FrequencyChanges><FrequencyChange><Frequency dt:dt="r8">3507666</Frequency><Timestamp dt:dt="r8">2135083100349</Timestamp><Current dt:dt="r8">0</Current><DateUtc dt:dt="string">2015-09-14T21:30:18Z</DateUtc></FrequencyChange></FrequencyChanges></Clock>\n	Hungry_Donkey_bar_English_2-127-1	60.017	-117	1.0.0.18	1	484580764	Standard	2.0.10.353	2.0.10.353	09-14-2015	9/14/2015 9:30:18 PM	17:30:18	2.0.10.248	23	Bar50-50.bmp	48	2	?	0r_4g.bmp	0r_4g.bmp	0r_2g.bmp	0r_2g.bmp		0r_4g.bmp			TrialProc	TrialList	0	cvbn	-999999	16	163104	0	v	446	163550	72	-78	-6	6	-22	2	8	7	3	23	0	0	0	0	4	4	2	2	0	4
Hungry_Donkey_bar_English_2	127	1	<?xml version="1.0"?>\n<Clock xmlns:dt="urn:schemas-microsoft-com:datatypes"><Description dt:dt="string">E-Prime Primary Realtime Clock</Description><StartTime><Timestamp dt:dt="int">0</Timestamp><DateUtc dt:dt="string">2015-09-14T21:30:18Z</DateUtc></StartTime><FrequencyChanges><FrequencyChange><Frequency dt:dt="r8">3507666</Frequency><Timestamp dt:dt="r8">2135083100349</Timestamp><Current dt:dt="r8">0</Current><DateUtc dt:dt="string">2015-09-14T21:30:18Z</DateUtc></FrequencyChange></FrequencyChanges></Clock>\n	Hungry_Donkey_bar_English_2-127-1	60.017	-117	1.0.0.18	1	484580764	Standard	2.0.10.353	2.0.10.353	09-14-2015	9/14/2015 9:30:18 PM	17:30:18	2.0.10.248	24	Bar50-50.bmp	49	1	?	0r_4g.bmp	0r_4g.bmp	0r_2g.bmp	0r_2g.bmp	0r_4g.bmp				TrialProc	TrialList	0	cvbn	-999999	17	165587	0	c	939	166526	76	-78	-2	10	-22	2	8	10	3	24	0	0	0	0	4	4	2	2	0	4
Hungry_Donkey_bar_English_2	127	1	<?xml version="1.0"?>\n<Clock xmlns:dt="urn:schemas-microsoft-com:datatypes"><Description dt:dt="string">E-Prime Primary Realtime Clock</Description><StartTime><Timestamp dt:dt="int">0</Timestamp><DateUtc dt:dt="string">2015-09-14T21:30:18Z</DateUtc></StartTime><FrequencyChanges><FrequencyChange><Frequency dt:dt="r8">3507666</Frequency><Timestamp dt:dt="r8">2135083100349</Timestamp><Current dt:dt="r8">0</Current><DateUtc dt:dt="string">2015-09-14T21:30:18Z</DateUtc></FrequencyChange></FrequencyChanges></Clock>\n	Hungry_Donkey_bar_English_2-127-1	60.017	-117	1.0.0.18	1	484580764	Standard	2.0.10.353	2.0.10.353	09-14-2015	9/14/2015 9:30:18 PM	17:30:18	2.0.10.248	25	Bar50-50.bmp	51	2	?	12r_4g.bmp	0r_4g.bmp	3r_2g.bmp	0r_2g.bmp		0r_4g.bmp			TrialProc	TrialList	0	cvbn	-999999	16	168552	0	v	774	169326	80	-78	2	10	-18	2	8	5	3	25	-12	0	-3	0	4	4	2	2	0	4
Hungry_Donkey_bar_English_2	127	1	<?xml version="1.0"?>\n<Clock xmlns:dt="urn:schemas-microsoft-com:datatypes"><Description dt:dt="string">E-Prime Primary Realtime Clock</Description><StartTime><Timestamp dt:dt="int">0</Timestamp><DateUtc dt:dt="string">2015-09-14T21:30:18Z</DateUtc></StartTime><FrequencyChanges><FrequencyChange><Frequency dt:dt="r8">3507666</Frequency><Timestamp dt:dt="r8">2135083100349</Timestamp><Current dt:dt="r8">0</Current><DateUtc dt:dt="string">2015-09-14T21:30:18Z</DateUtc></FrequencyChange></FrequencyChanges></Clock>\n	Hungry_Donkey_bar_English_2-127-1	60.017	-117	1.0.0.18	1	484580764	Standard	2.0.10.353	2.0.10.353	09-14-2015	9/14/2015 9:30:18 PM	17:30:18	2.0.10.248	26	Bar50-50.bmp	51	3	?	0r_4g.bmp	0r_4g.bmp	0r_2g.bmp	0r_2g.bmp			0r_2g.bmp		TrialProc	TrialList	0	cvbn	-999999	17	171352	0	b	949	172301	82	-78	4	10	-18	4	8	9	3	26	0	0	0	0	4	4	2	2	0	2
Hungry_Donkey_bar_English_2	127	1	<?xml version="1.0"?>\n<Clock xmlns:dt="urn:schemas-microsoft-com:datatypes"><Description dt:dt="string">E-Prime Primary Realtime Clock</Description><StartTime><Timestamp dt:dt="int">0</Timestamp><DateUtc dt:dt="string">2015-09-14T21:30:18Z</DateUtc></StartTime><FrequencyChanges><FrequencyChange><Frequency dt:dt="r8">3507666</Frequency><Timestamp dt:dt="r8">2135083100349</Timestamp><Current dt:dt="r8">0</Current><DateUtc dt:dt="string">2015-09-14T21:30:18Z</DateUtc></FrequencyChange></FrequencyChanges></Clock>\n	Hungry_Donkey_bar_English_2-127-1	60.017	-117	1.0.0.18	1	484580764	Standard	2.0.10.353	2.0.10.353	09-14-2015	9/14/2015 9:30:18 PM	17:30:18	2.0.10.248	27	Bar50-50.bmp	52	2	?	0r_4g.bmp	0r_4g.bmp	0r_2g.bmp	0r_2g.bmp		0r_4g.bmp			TrialProc	TrialList	0	cvbn	-999999	16	174334	0	v	575	174909	86	-78	8	10	-14	4	8	6	3	27	0	0	0	0	4	4	2	2	0	4
Hungry_Donkey_bar_English_2	127	1	<?xml version="1.0"?>\n<Clock xmlns:dt="urn:schemas-microsoft-com:datatypes"><Description dt:dt="string">E-Prime Primary Realtime Clock</Description><StartTime><Timestamp dt:dt="int">0</Timestamp><DateUtc dt:dt="string">2015-09-14T21:30:18Z</DateUtc></StartTime><FrequencyChanges><FrequencyChange><Frequency dt:dt="r8">3507666</Frequency><Timestamp dt:dt="r8">2135083100349</Timestamp><Current dt:dt="r8">0</Current><DateUtc dt:dt="string">2015-09-14T21:30:18Z</DateUtc></FrequencyChange></FrequencyChanges></Clock>\n	Hungry_Donkey_bar_English_2-127-1	60.017	-117	1.0.0.18	1	484580764	Standard	2.0.10.353	2.0.10.353	09-14-2015	9/14/2015 9:30:18 PM	17:30:18	2.0.10.248	28	Bar50-50.bmp	54	1	?	0r_4g.bmp	0r_4g.bmp	0r_2g.bmp	0r_2g.bmp	0r_4g.bmp				TrialProc	TrialList	0	cvbn	-999999	15	176933	0	c	872	177805	90	-78	12	14	-14	4	8	8	3	28	0	0	0	0	4	4	2	2	0	4
Hungry_Donkey_bar_English_2	127	1	<?xml version="1.0"?>\n<Clock xmlns:dt="urn:schemas-microsoft-com:datatypes"><Description dt:dt="string">E-Prime Primary Realtime Clock</Description><StartTime><Timestamp dt:dt="int">0</Timestamp><DateUtc dt:dt="string">2015-09-14T21:30:18Z</DateUtc></StartTime><FrequencyChanges><FrequencyChange><Frequency dt:dt="r8">3507666</Frequency><Timestamp dt:dt="r8">2135083100349</Timestamp><Current dt:dt="r8">0</Current><DateUtc dt:dt="string">2015-09-14T21:30:18Z</DateUtc></FrequencyChange></FrequencyChanges></Clock>\n	Hungry_Donkey_bar_English_2-127-1	60.017	-117	1.0.0.18	1	484580764	Standard	2.0.10.353	2.0.10.353	09-14-2015	9/14/2015 9:30:18 PM	17:30:18	2.0.10.248	29	Bar50-50.bmp	53	3	?	10r_4g.bmp	0r_4g.bmp	2r_2g.bmp	0r_2g.bmp			2r_2g.bmp		TrialProc	TrialList	0	cvbn	-999999	16	179832	0	b	405	180237	92	-80	12	14	-14	4	8	3	3	29	-10	0	-2	0	4	4	2	2	-2	2
Hungry_Donkey_bar_English_2	127	1	<?xml version="1.0"?>\n<Clock xmlns:dt="urn:schemas-microsoft-com:datatypes"><Description dt:dt="string">E-Prime Primary Realtime Clock</Description><StartTime><Timestamp dt:dt="int">0</Timestamp><DateUtc dt:dt="string">2015-09-14T21:30:18Z</DateUtc></StartTime><FrequencyChanges><FrequencyChange><Frequency dt:dt="r8">3507666</Frequency><Timestamp dt:dt="r8">2135083100349</Timestamp><Current dt:dt="r8">0</Current><DateUtc dt:dt="string">2015-09-14T21:30:18Z</DateUtc></FrequencyChange></FrequencyChanges></Clock>\n	Hungry_Donkey_bar_English_2-127-1	60.017	-117	1.0.0.18	1	484580764	Standard	2.0.10.353	2.0.10.353	09-14-2015	9/14/2015 9:30:18 PM	17:30:18	2.0.10.248	30	Bar37-63.bmp	42	2	?	8r_4g.bmp	50r_4g.bmp	1r_2g.bmp	10r_2g.bmp		50r_4g.bmp			TrialProc	TrialList	0	cvbn	-999999	16	182265	0	v	388	182653	96	-130	-34	14	-60	4	8	1	3	30	-8	-50	-1	-10	4	4	2	2	-50	4
Hungry_Donkey_bar_English_2	127	1	<?xml version="1.0"?>\n<Clock xmlns:dt="urn:schemas-microsoft-com:datatypes"><Description dt:dt="string">E-Prime Primary Realtime Clock</Description><StartTime><Timestamp dt:dt="int">0</Timestamp><DateUtc dt:dt="string">2015-09-14T21:30:18Z</DateUtc></StartTime><FrequencyChanges><FrequencyChange><Frequency dt:dt="r8">3507666</Frequency><Timestamp dt:dt="r8">2135083100349</Timestamp><Current dt:dt="r8">0</Current><DateUtc dt:dt="string">2015-09-14T21:30:18Z</DateUtc></FrequencyChange></FrequencyChanges></Clock>\n	Hungry_Donkey_bar_English_2-127-1	60.017	-117	1.0.0.18	1	484580764	Standard	2.0.10.353	2.0.10.353	09-14-2015	9/14/2015 9:30:18 PM	17:30:18	2.0.10.248	31	Bar37-63.bmp	41	4	?	8r_4g.bmp	50r_4g.bmp	1r_2g.bmp	10r_2g.bmp				10r_2g.bmp	TrialProc	TrialList	0	cvbn	-999999	16	184681	0	n	788	185469	98	-140	-42	14	-60	4	0	1	4	31	-8	-50	-1	-10	4	4	2	2	-10	2
Hungry_Donkey_bar_English_2	127	1	<?xml version="1.0"?>\n<Clock xmlns:dt="urn:schemas-microsoft-com:datatypes"><Description dt:dt="string">E-Prime Primary Realtime Clock</Description><StartTime><Timestamp dt:dt="int">0</Timestamp><DateUtc dt:dt="string">2015-09-14T21:30:18Z</DateUtc></StartTime><FrequencyChanges><FrequencyChange><Frequency dt:dt="r8">3507666</Frequency><Timestamp dt:dt="r8">2135083100349</Timestamp><Current dt:dt="r8">0</Current><DateUtc dt:dt="string">2015-09-14T21:30:18Z</DateUtc></FrequencyChange></FrequencyChanges></Clock>\n	Hungry_Donkey_bar_English_2-127-1	60.017	-117	1.0.0.18	1	484580764	Standard	2.0.10.353	2.0.10.353	09-14-2015	9/14/2015 9:30:18 PM	17:30:18	2.0.10.248	32	Bar37-63.bmp	41	3	?	10r_4g.bmp	0r_4g.bmp	2r_2g.bmp	0r_2g.bmp			2r_2g.bmp		TrialProc	TrialList	0	cvbn	-999999	16	187497	0	b	84	187581	100	-142	-42	14	-60	4	0	2	4	32	-10	0	-2	0	4	4	2	2	-2	2
Hungry_Donkey_bar_English_2	127	1	<?xml version="1.0"?>\n<Clock xmlns:dt="urn:schemas-microsoft-com:datatypes"><Description dt:dt="string">E-Prime Primary Realtime Clock</Description><StartTime><Timestamp dt:dt="int">0</Timestamp><DateUtc dt:dt="string">2015-09-14T21:30:18Z</DateUtc></StartTime><FrequencyChanges><FrequencyChange><Frequency dt:dt="r8">3507666</Frequency><Timestamp dt:dt="r8">2135083100349</Timestamp><Current dt:dt="r8">0</Current><DateUtc dt:dt="string">2015-09-14T21:30:18Z</DateUtc></FrequencyChange></FrequencyChanges></Clock>\n	Hungry_Donkey_bar_English_2-127-1	60.017	-117	1.0.0.18	1	484580764	Standard	2.0.10.353	2.0.10.353	09-14-2015	9/14/2015 9:30:18 PM	17:30:18	2.0.10.248	33	Bar37-63.bmp	42	2	?	0r_4g.bmp	0r_4g.bmp	0r_2g.bmp	0r_2g.bmp		0r_4g.bmp			TrialProc	TrialList	0	cvbn	-999999	16	189613	0	v	128	189741	104	-142	-38	14	-56	4	0	9	4	33	0	0	0	0	4	4	2	2	0	4
Hungry_Donkey_bar_English_2	127	1	<?xml version="1.0"?>\n<Clock xmlns:dt="urn:schemas-microsoft-com:datatypes"><Description dt:dt="string">E-Prime Primary Realtime Clock</Description><StartTime><Timestamp dt:dt="int">0</Timestamp><DateUtc dt:dt="string">2015-09-14T21:30:18Z</DateUtc></StartTime><FrequencyChanges><FrequencyChange><Frequency dt:dt="r8">3507666</Frequency><Timestamp dt:dt="r8">2135083100349</Timestamp><Current dt:dt="r8">0</Current><DateUtc dt:dt="string">2015-09-14T21:30:18Z</DateUtc></FrequencyChange></FrequencyChanges></Clock>\n	Hungry_Donkey_bar_English_2-127-1	60.017	-117	1.0.0.18	1	484580764	Standard	2.0.10.353	2.0.10.353	09-14-2015	9/14/2015 9:30:18 PM	17:30:18	2.0.10.248	34	Bar37-63.bmp	41	1	?	12r_4g.bmp	0r_4g.bmp	3r_2g.bmp	0r_2g.bmp	12r_4g.bmp				TrialProc	TrialList	0	cvbn	-999999	16	191779	0	c	490	192269	108	-154	-46	6	-56	4	0	5	4	34	-12	0	-3	0	4	4	2	2	-12	4
Hungry_Donkey_bar_English_2	127	1	<?xml version="1.0"?>\n<Clock xmlns:dt="urn:schemas-microsoft-com:datatypes"><Description dt:dt="string">E-Prime Primary Realtime Clock</Description><StartTime><Timestamp dt:dt="int">0</Timestamp><DateUtc dt:dt="string">2015-09-14T21:30:18Z</DateUtc></StartTime><FrequencyChanges><FrequencyChange><Frequency dt:dt="r8">3507666</Frequency><Timestamp dt:dt="r8">2135083100349</Timestamp><Current dt:dt="r8">0</Current><DateUtc dt:dt="string">2015-09-14T21:30:18Z</DateUtc></FrequencyChange></FrequencyChanges></Clock>\n	Hungry_Donkey_bar_English_2-127-1	60.017	-117	1.0.0.18	1	484580764	Standard	2.0.10.353	2.0.10.353	09-14-2015	9/14/2015 9:30:18 PM	17:30:18	2.0.10.248	35	Bar37-63.bmp	42	2	?	10r_4g.bmp	0r_4g.bmp	2r_2g.bmp	0r_2g.bmp		0r_4g.bmp			TrialProc	TrialList	0	cvbn	-999999	16	194295	0	v	613	194908	112	-154	-42	6	-52	4	0	4	4	35	-10	0	-2	0	4	4	2	2	0	4
Hungry_Donkey_bar_English_2	127	1	<?xml version="1.0"?>\n<Clock xmlns:dt="urn:schemas-microsoft-com:datatypes"><Description dt:dt="string">E-Prime Primary Realtime Clock</Description><StartTime><Timestamp dt:dt="int">0</Timestamp><DateUtc dt:dt="string">2015-09-14T21:30:18Z</DateUtc></StartTime><FrequencyChanges><FrequencyChange><Frequency dt:dt="r8">3507666</Frequency><Timestamp dt:dt="r8">2135083100349</Timestamp><Current dt:dt="r8">0</Current><DateUtc dt:dt="string">2015-09-14T21:30:18Z</DateUtc></FrequencyChange></FrequencyChanges></Clock>\n	Hungry_Donkey_bar_English_2-127-1	60.017	-117	1.0.0.18	1	484580764	Standard	2.0.10.353	2.0.10.353	09-14-2015	9/14/2015 9:30:18 PM	17:30:18	2.0.10.248	36	Bar37-63.bmp	43	3	?	0r_4g.bmp	0r_4g.bmp	0r_2g.bmp	0r_2g.bmp			0r_2g.bmp		TrialProc	TrialList	0	cvbn	-999999	16	196944	0	b	860	197804	114	-154	-40	6	-52	6	0	6	4	36	0	0	0	0	4	4	2	2	0	2
Hungry_Donkey_bar_English_2	127	1	<?xml version="1.0"?>\n<Clock xmlns:dt="urn:schemas-microsoft-com:datatypes"><Description dt:dt="string">E-Prime Primary Realtime Clock</Description><StartTime><Timestamp dt:dt="int">0</Timestamp><DateUtc dt:dt="string">2015-09-14T21:30:18Z</DateUtc></StartTime><FrequencyChanges><FrequencyChange><Frequency dt:dt="r8">3507666</Frequency><Timestamp dt:dt="r8">2135083100349</Timestamp><Current dt:dt="r8">0</Current><DateUtc dt:dt="string">2015-09-14T21:30:18Z</DateUtc></FrequencyChange></FrequencyChanges></Clock>\n	Hungry_Donkey_bar_English_2-127-1	60.017	-117	1.0.0.18	1	484580764	Standard	2.0.10.353	2.0.10.353	09-14-2015	9/14/2015 9:30:18 PM	17:30:18	2.0.10.248	37	Bar37-63.bmp	43	4	?	10r_4g.bmp	0r_4g.bmp	2r_2g.bmp	0r_2g.bmp				0r_2g.bmp	TrialProc	TrialList	0	cvbn	-999999	16	199843	0	n	1097	200940	116	-154	-38	6	-52	6	2	3	4	37	-10	0	-2	0	4	4	2	2	0	2
Hungry_Donkey_bar_English_2	127	1	<?xml version="1.0"?>\n<Clock xmlns:dt="urn:schemas-microsoft-com:datatypes"><Description dt:dt="string">E-Prime Primary Realtime Clock</Description><StartTime><Timestamp dt:dt="int">0</Timestamp><DateUtc dt:dt="string">2015-09-14T21:30:18Z</DateUtc></StartTime><FrequencyChanges><FrequencyChange><Frequency dt:dt="r8">3507666</Frequency><Timestamp dt:dt="r8">2135083100349</Timestamp><Current dt:dt="r8">0</Current><DateUtc dt:dt="string">2015-09-14T21:30:18Z</DateUtc></FrequencyChange></FrequencyChanges></Clock>\n	Hungry_Donkey_bar_English_2-127-1	60.017	-117	1.0.0.18	1	484580764	Standard	2.0.10.353	2.0.10.353	09-14-2015	9/14/2015 9:30:18 PM	17:30:18	2.0.10.248	38	Bar37-63.bmp	43	3	?	0r_4g.bmp	0r_4g.bmp	0r_2g.bmp	0r_2g.bmp			0r_2g.bmp		TrialProc	TrialList	0	cvbn	-999999	16	202976	0	b	892	203868	118	-154	-36	6	-52	8	2	8	4	38	0	0	0	0	4	4	2	2	0	2
Hungry_Donkey_bar_English_2	127	1	<?xml version="1.0"?>\n<Clock xmlns:dt="urn:schemas-microsoft-com:datatypes"><Description dt:dt="string">E-Prime Primary Realtime Clock</Description><StartTime><Timestamp dt:dt="int">0</Timestamp><DateUtc dt:dt="string">2015-09-14T21:30:18Z</DateUtc></StartTime><FrequencyChanges><FrequencyChange><Frequency dt:dt="r8">3507666</Frequency><Timestamp dt:dt="r8">2135083100349</Timestamp><Current dt:dt="r8">0</Current><DateUtc dt:dt="string">2015-09-14T21:30:18Z</DateUtc></FrequencyChange></FrequencyChanges></Clock>\n	Hungry_Donkey_bar_English_2-127-1	60.017	-117	1.0.0.18	1	484580764	Standard	2.0.10.353	2.0.10.353	09-14-2015	9/14/2015 9:30:18 PM	17:30:18	2.0.10.248	39	Bar50-50.bmp	44	1	?	0r_4g.bmp	0r_4g.bmp	0r_2g.bmp	0r_2g.bmp	0r_4g.bmp				TrialProc	TrialList	0	cvbn	-999999	16	205892	0	c	1144	207036	122	-154	-32	10	-52	8	2	10	4	39	0	0	0	0	4	4	2	2	0	4
Hungry_Donkey_bar_English_2	127	1	<?xml version="1.0"?>\n<Clock xmlns:dt="urn:schemas-microsoft-com:datatypes"><Description dt:dt="string">E-Prime Primary Realtime Clock</Description><StartTime><Timestamp dt:dt="int">0</Timestamp><DateUtc dt:dt="string">2015-09-14T21:30:18Z</DateUtc></StartTime><FrequencyChanges><FrequencyChange><Frequency dt:dt="r8">3507666</Frequency><Timestamp dt:dt="r8">2135083100349</Timestamp><Current dt:dt="r8">0</Current><DateUtc dt:dt="string">2015-09-14T21:30:18Z</DateUtc></FrequencyChange></FrequencyChanges></Clock>\n	Hungry_Donkey_bar_English_2-127-1	60.017	-117	1.0.0.18	1	484580764	Standard	2.0.10.353	2.0.10.353	09-14-2015	9/14/2015 9:30:18 PM	17:30:18	2.0.10.248	40	Bar50-50.bmp	45	2	?	0r_4g.bmp	0r_4g.bmp	0r_2g.bmp	0r_2g.bmp		0r_4g.bmp			TrialProc	TrialList	0	cvbn	-999999	16	209074	0	v	938	210012	126	-154	-28	10	-48	8	2	7	4	40	0	0	0	0	4	4	2	2	0	4
Hungry_Donkey_bar_English_2	127	1	<?xml version="1.0"?>\n<Clock xmlns:dt="urn:schemas-microsoft-com:datatypes"><Description dt:dt="string">E-Prime Primary Realtime Clock</Description><StartTime><Timestamp dt:dt="int">0</Timestamp><DateUtc dt:dt="string">2015-09-14T21:30:18Z</DateUtc></StartTime><FrequencyChanges><FrequencyChange><Frequency dt:dt="r8">3507666</Frequency><Timestamp dt:dt="r8">2135083100349</Timestamp><Current dt:dt="r8">0</Current><DateUtc dt:dt="string">2015-09-14T21:30:18Z</DateUtc></FrequencyChange></FrequencyChanges></Clock>\n	Hungry_Donkey_bar_English_2-127-1	60.017	-117	1.0.0.18	1	484580764	Standard	2.0.10.353	2.0.10.353	09-14-2015	9/14/2015 9:30:18 PM	17:30:18	2.0.10.248	41	Bar50-50.bmp	45	3	?	10r_4g.bmp	0r_4g.bmp	2r_2g.bmp	0r_2g.bmp			2r_2g.bmp		TrialProc	TrialList	0	cvbn	-999999	16	212040	0	b	884	212924	128	-156	-28	10	-48	8	2	2	5	41	-10	0	-2	0	4	4	2	2	-2	2
Hungry_Donkey_bar_English_2	127	1	<?xml version="1.0"?>\n<Clock xmlns:dt="urn:schemas-microsoft-com:datatypes"><Description dt:dt="string">E-Prime Primary Realtime Clock</Description><StartTime><Timestamp dt:dt="int">0</Timestamp><DateUtc dt:dt="string">2015-09-14T21:30:18Z</DateUtc></StartTime><FrequencyChanges><FrequencyChange><Frequency dt:dt="r8">3507666</Frequency><Timestamp dt:dt="r8">2135083100349</Timestamp><Current dt:dt="r8">0</Current><DateUtc dt:dt="string">2015-09-14T21:30:18Z</DateUtc></FrequencyChange></FrequencyChanges></Clock>\n	Hungry_Donkey_bar_English_2-127-1	60.017	-117	1.0.0.18	1	484580764	Standard	2.0.10.353	2.0.10.353	09-14-2015	9/14/2015 9:30:18 PM	17:30:18	2.0.10.248	42	Bar50-50.bmp	46	2	?	0r_4g.bmp	0r_4g.bmp	0r_2g.bmp	0r_2g.bmp		0r_4g.bmp			TrialProc	TrialList	0	cvbn	-999999	16	214956	0	v	687	215643	132	-156	-24	10	-44	8	2	6	5	42	0	0	0	0	4	4	2	2	0	4
Hungry_Donkey_bar_English_2	127	1	<?xml version="1.0"?>\n<Clock xmlns:dt="urn:schemas-microsoft-com:datatypes"><Description dt:dt="string">E-Prime Primary Realtime Clock</Description><StartTime><Timestamp dt:dt="int">0</Timestamp><DateUtc dt:dt="string">2015-09-14T21:30:18Z</DateUtc></StartTime><FrequencyChanges><FrequencyChange><Frequency dt:dt="r8">3507666</Frequency><Timestamp dt:dt="r8">2135083100349</Timestamp><Current dt:dt="r8">0</Current><DateUtc dt:dt="string">2015-09-14T21:30:18Z</DateUtc></FrequencyChange></FrequencyChanges></Clock>\n	Hungry_Donkey_bar_English_2-127-1	60.017	-117	1.0.0.18	1	484580764	Standard	2.0.10.353	2.0.10.353	09-14-2015	9/14/2015 9:30:18 PM	17:30:18	2.0.10.248	43	Bar50-50.bmp	47	1	?	0r_4g.bmp	0r_4g.bmp	0r_2g.bmp	0r_2g.bmp	0r_4g.bmp				TrialProc	TrialList	0	cvbn	-999999	16	217672	0	c	915	218587	136	-156	-20	14	-44	8	2	9	5	43	0	0	0	0	4	4	2	2	0	4
Hungry_Donkey_bar_English_2	127	1	<?xml version="1.0"?>\n<Clock xmlns:dt="urn:schemas-microsoft-com:datatypes"><Description dt:dt="string">E-Prime Primary Realtime Clock</Description><StartTime><Timestamp dt:dt="int">0</Timestamp><DateUtc dt:dt="string">2015-09-14T21:30:18Z</DateUtc></StartTime><FrequencyChanges><FrequencyChange><Frequency dt:dt="r8">3507666</Frequency><Timestamp dt:dt="r8">2135083100349</Timestamp><Current dt:dt="r8">0</Current><DateUtc dt:dt="string">2015-09-14T21:30:18Z</DateUtc></FrequencyChange></FrequencyChanges></Clock>\n	Hungry_Donkey_bar_English_2-127-1	60.017	-117	1.0.0.18	1	484580764	Standard	2.0.10.353	2.0.10.353	09-14-2015	9/14/2015 9:30:18 PM	17:30:18	2.0.10.248	44	Bar50-50.bmp	47	4	?	10r_4g.bmp	0r_4g.bmp	2r_2g.bmp	0r_2g.bmp				0r_2g.bmp	TrialProc	TrialList	0	cvbn	-999999	16	220621	0	n	1294	221915	138	-156	-18	14	-44	8	4	4	5	44	-10	0	-2	0	4	4	2	2	0	2
Hungry_Donkey_bar_English_2	127	1	<?xml version="1.0"?>\n<Clock xmlns:dt="urn:schemas-microsoft-com:datatypes"><Description dt:dt="string">E-Prime Primary Realtime Clock</Description><StartTime><Timestamp dt:dt="int">0</Timestamp><DateUtc dt:dt="string">2015-09-14T21:30:18Z</DateUtc></StartTime><FrequencyChanges><FrequencyChange><Frequency dt:dt="r8">3507666</Frequency><Timestamp dt:dt="r8">2135083100349</Timestamp><Current dt:dt="r8">0</Current><DateUtc dt:dt="string">2015-09-14T21:30:18Z</DateUtc></FrequencyChange></FrequencyChanges></Clock>\n	Hungry_Donkey_bar_English_2-127-1	60.017	-117	1.0.0.18	1	484580764	Standard	2.0.10.353	2.0.10.353	09-14-2015	9/14/2015 9:30:18 PM	17:30:18	2.0.10.248	45	Bar50-50.bmp	48	2	?	0r_4g.bmp	0r_4g.bmp	0r_2g.bmp	0r_2g.bmp		0r_4g.bmp			TrialProc	TrialList	0	cvbn	-999999	16	223953	0	v	426	224379	142	-156	-14	14	-40	8	4	7	5	45	0	0	0	0	4	4	2	2	0	4
Hungry_Donkey_bar_English_2	127	1	<?xml version="1.0"?>\n<Clock xmlns:dt="urn:schemas-microsoft-com:datatypes"><Description dt:dt="string">E-Prime Primary Realtime Clock</Description><StartTime><Timestamp dt:dt="int">0</Timestamp><DateUtc dt:dt="string">2015-09-14T21:30:18Z</DateUtc></StartTime><FrequencyChanges><FrequencyChange><Frequency dt:dt="r8">3507666</Frequency><Timestamp dt:dt="r8">2135083100349</Timestamp><Current dt:dt="r8">0</Current><DateUtc dt:dt="string">2015-09-14T21:30:18Z</DateUtc></FrequencyChange></FrequencyChanges></Clock>\n	Hungry_Donkey_bar_English_2-127-1	60.017	-117	1.0.0.18	1	484580764	Standard	2.0.10.353	2.0.10.353	09-14-2015	9/14/2015 9:30:18 PM	17:30:18	2.0.10.248	46	Bar50-50.bmp	48	3	?	0r_4g.bmp	0r_4g.bmp	0r_2g.bmp	0r_2g.bmp			0r_2g.bmp		TrialProc	TrialList	0	cvbn	-999999	16	226419	0	b	456	226875	144	-156	-12	14	-40	10	4	8	5	46	0	0	0	0	4	4	2	2	0	2
Hungry_Donkey_bar_English_2	127	1	<?xml version="1.0"?>\n<Clock xmlns:dt="urn:schemas-microsoft-com:datatypes"><Description dt:dt="string">E-Prime Primary Realtime Clock</Description><StartTime><Timestamp dt:dt="int">0</Timestamp><DateUtc dt:dt="string">2015-09-14T21:30:18Z</DateUtc></StartTime><FrequencyChanges><FrequencyChange><Frequency dt:dt="r8">3507666</Frequency><Timestamp dt:dt="r8">2135083100349</Timestamp><Current dt:dt="r8">0</Current><DateUtc dt:dt="string">2015-09-14T21:30:18Z</DateUtc></FrequencyChange></FrequencyChanges></Clock>\n	Hungry_Donkey_bar_English_2-127-1	60.017	-117	1.0.0.18	1	484580764	Standard	2.0.10.353	2.0.10.353	09-14-2015	9/14/2015 9:30:18 PM	17:30:18	2.0.10.248	47	Bar50-50.bmp	47	1	?	10r_4g.bmp	0r_4g.bmp	2r_2g.bmp	0r_2g.bmp	10r_4g.bmp				TrialProc	TrialList	0	cvbn	-999999	16	228902	0	c	453	229355	148	-166	-18	8	-40	10	4	3	5	47	-10	0	-2	0	4	4	2	2	-10	4
Hungry_Donkey_bar_English_2	127	1	<?xml version="1.0"?>\n<Clock xmlns:dt="urn:schemas-microsoft-com:datatypes"><Description dt:dt="string">E-Prime Primary Realtime Clock</Description><StartTime><Timestamp dt:dt="int">0</Timestamp><DateUtc dt:dt="string">2015-09-14T21:30:18Z</DateUtc></StartTime><FrequencyChanges><FrequencyChange><Frequency dt:dt="r8">3507666</Frequency><Timestamp dt:dt="r8">2135083100349</Timestamp><Current dt:dt="r8">0</Current><DateUtc dt:dt="string">2015-09-14T21:30:18Z</DateUtc></FrequencyChange></FrequencyChanges></Clock>\n	Hungry_Donkey_bar_English_2-127-1	60.017	-117	1.0.0.18	1	484580764	Standard	2.0.10.353	2.0.10.353	09-14-2015	9/14/2015 9:30:18 PM	17:30:18	2.0.10.248	48	Bar50-50.bmp	47	4	?	0r_4g.bmp	0r_4g.bmp	0r_2g.bmp	0r_2g.bmp				0r_2g.bmp	TrialProc	TrialList	0	cvbn	-999999	17	231385	0	n	834	232219	150	-166	-16	8	-40	10	6	10	5	48	0	0	0	0	4	4	2	2	0	2
Hungry_Donkey_bar_English_2	127	1	<?xml version="1.0"?>\n<Clock xmlns:dt="urn:schemas-microsoft-com:datatypes"><Description dt:dt="string">E-Prime Primary Realtime Clock</Description><StartTime><Timestamp dt:dt="int">0</Timestamp><DateUtc dt:dt="string">2015-09-14T21:30:18Z</DateUtc></StartTime><FrequencyChanges><FrequencyChange><Frequency dt:dt="r8">3507666</Frequency><Timestamp dt:dt="r8">2135083100349</Timestamp><Current dt:dt="r8">0</Current><DateUtc dt:dt="string">2015-09-14T21:30:18Z</DateUtc></FrequencyChange></FrequencyChanges></Clock>\n	Hungry_Donkey_bar_English_2-127-1	60.017	-117	1.0.0.18	1	484580764	Standard	2.0.10.353	2.0.10.353	09-14-2015	9/14/2015 9:30:18 PM	17:30:18	2.0.10.248	49	Bar50-50.bmp	48	3	?	8r_4g.bmp	50r_4g.bmp	1r_2g.bmp	10r_2g.bmp			1r_2g.bmp		TrialProc	TrialList	0	cvbn	-999999	16	234250	0	b	481	234731	152	-167	-15	8	-40	11	6	1	5	49	-8	-50	-1	-10	4	4	2	2	-1	2
Hungry_Donkey_bar_English_2	127	1	<?xml version="1.0"?>\n<Clock xmlns:dt="urn:schemas-microsoft-com:datatypes"><Description dt:dt="string">E-Prime Primary Realtime Clock</Description><StartTime><Timestamp dt:dt="int">0</Timestamp><DateUtc dt:dt="string">2015-09-14T21:30:18Z</DateUtc></StartTime><FrequencyChanges><FrequencyChange><Frequency dt:dt="r8">3507666</Frequency><Timestamp dt:dt="r8">2135083100349</Timestamp><Current dt:dt="r8">0</Current><DateUtc dt:dt="string">2015-09-14T21:30:18Z</DateUtc></FrequencyChange></FrequencyChanges></Clock>\n	Hungry_Donkey_bar_English_2-127-1	60.017	-117	1.0.0.18	1	484580764	Standard	2.0.10.353	2.0.10.353	09-14-2015	9/14/2015 9:30:18 PM	17:30:18	2.0.10.248	50	Bar50-50.bmp	48	2	?	12r_4g.bmp	0r_4g.bmp	3r_2g.bmp	0r_2g.bmp		0r_4g.bmp			TrialProc	TrialList	0	cvbn	-999999	16	236766	0	v	236	237002	156	-167	-11	8	-36	11	6	5	5	50	-12	0	-3	0	4	4	2	2	0	4
Hungry_Donkey_bar_English_2	127	1	<?xml version="1.0"?>\n<Clock xmlns:dt="urn:schemas-microsoft-com:datatypes"><Description dt:dt="string">E-Prime Primary Realtime Clock</Description><StartTime><Timestamp dt:dt="int">0</Timestamp><DateUtc dt:dt="string">2015-09-14T21:30:18Z</DateUtc></StartTime><FrequencyChanges><FrequencyChange><Frequency dt:dt="r8">3507666</Frequency><Timestamp dt:dt="r8">2135083100349</Timestamp><Current dt:dt="r8">0</Current><DateUtc dt:dt="string">2015-09-14T21:30:18Z</DateUtc></FrequencyChange></FrequencyChanges></Clock>\n	Hungry_Donkey_bar_English_2-127-1	60.017	-117	1.0.0.18	1	484580764	Standard	2.0.10.353	2.0.10.353	09-14-2015	9/14/2015 9:30:18 PM	17:30:18	2.0.10.248	51	Bar50-50.bmp	49	1	?	0r_4g.bmp	0r_4g.bmp	0r_2g.bmp	0r_2g.bmp	0r_4g.bmp				TrialProc	TrialList	0	cvbn	-999999	16	239032	0	c	2610	241642	160	-167	-7	12	-36	11	6	10	6	51	0	0	0	0	4	4	2	2	0	4
Hungry_Donkey_bar_English_2	127	1	<?xml version="1.0"?>\n<Clock xmlns:dt="urn:schemas-microsoft-com:datatypes"><Description dt:dt="string">E-Prime Primary Realtime Clock</Description><StartTime><Timestamp dt:dt="int">0</Timestamp><DateUtc dt:dt="string">2015-09-14T21:30:18Z</DateUtc></StartTime><FrequencyChanges><FrequencyChange><Frequency dt:dt="r8">3507666</Frequency><Timestamp dt:dt="r8">2135083100349</Timestamp><Current dt:dt="r8">0</Current><DateUtc dt:dt="string">2015-09-14T21:30:18Z</DateUtc></FrequencyChange></FrequencyChanges></Clock>\n	Hungry_Donkey_bar_English_2-127-1	60.017	-117	1.0.0.18	1	484580764	Standard	2.0.10.353	2.0.10.353	09-14-2015	9/14/2015 9:30:18 PM	17:30:18	2.0.10.248	52	Bar50-50.bmp	49	4	?	0r_4g.bmp	0r_4g.bmp	0r_2g.bmp	0r_2g.bmp				0r_2g.bmp	TrialProc	TrialList	0	cvbn	-999999	16	243681	0	n	1353	245034	162	-167	-5	12	-36	11	8	9	6	52	0	0	0	0	4	4	2	2	0	2
Hungry_Donkey_bar_English_2	127	1	<?xml version="1.0"?>\n<Clock xmlns:dt="urn:schemas-microsoft-com:datatypes"><Description dt:dt="string">E-Prime Primary Realtime Clock</Description><StartTime><Timestamp dt:dt="int">0</Timestamp><DateUtc dt:dt="string">2015-09-14T21:30:18Z</DateUtc></StartTime><FrequencyChanges><FrequencyChange><Frequency dt:dt="r8">3507666</Frequency><Timestamp dt:dt="r8">2135083100349</Timestamp><Current dt:dt="r8">0</Current><DateUtc dt:dt="string">2015-09-14T21:30:18Z</DateUtc></FrequencyChange></FrequencyChanges></Clock>\n	Hungry_Donkey_bar_English_2-127-1	60.017	-117	1.0.0.18	1	484580764	Standard	2.0.10.353	2.0.10.353	09-14-2015	9/14/2015 9:30:18 PM	17:30:18	2.0.10.248	53	Bar50-50.bmp	50	3	?	0r_4g.bmp	0r_4g.bmp	0r_2g.bmp	0r_2g.bmp			0r_2g.bmp		TrialProc	TrialList	0	cvbn	-999999	16	247063	0	b	1187	248250	164	-167	-3	12	-36	13	8	6	6	53	0	0	0	0	4	4	2	2	0	2
Hungry_Donkey_bar_English_2	127	1	<?xml version="1.0"?>\n<Clock xmlns:dt="urn:schemas-microsoft-com:datatypes"><Description dt:dt="string">E-Prime Primary Realtime Clock</Description><StartTime><Timestamp dt:dt="int">0</Timestamp><DateUtc dt:dt="string">2015-09-14T21:30:18Z</DateUtc></StartTime><FrequencyChanges><FrequencyChange><Frequency dt:dt="r8">3507666</Frequency><Timestamp dt:dt="r8">2135083100349</Timestamp><Current dt:dt="r8">0</Current><DateUtc dt:dt="string">2015-09-14T21:30:18Z</DateUtc></FrequencyChange></FrequencyChanges></Clock>\n	Hungry_Donkey_bar_English_2-127-1	60.017	-117	1.0.0.18	1	484580764	Standard	2.0.10.353	2.0.10.353	09-14-2015	9/14/2015 9:30:18 PM	17:30:18	2.0.10.248	54	Bar50-50.bmp	44	2	?	8r_4g.bmp	50r_4g.bmp	1r_2g.bmp	10r_2g.bmp		50r_4g.bmp			TrialProc	TrialList	0	cvbn	-999999	16	250279	0	v	883	251162	168	-217	-49	12	-82	13	8	1	6	54	-8	-50	-1	-10	4	4	2	2	-50	4
Hungry_Donkey_bar_English_2	127	1	<?xml version="1.0"?>\n<Clock xmlns:dt="urn:schemas-microsoft-com:datatypes"><Description dt:dt="string">E-Prime Primary Realtime Clock</Description><StartTime><Timestamp dt:dt="int">0</Timestamp><DateUtc dt:dt="string">2015-09-14T21:30:18Z</DateUtc></StartTime><FrequencyChanges><FrequencyChange><Frequency dt:dt="r8">3507666</Frequency><Timestamp dt:dt="r8">2135083100349</Timestamp><Current dt:dt="r8">0</Current><DateUtc dt:dt="string">2015-09-14T21:30:18Z</DateUtc></FrequencyChange></FrequencyChanges></Clock>\n	Hungry_Donkey_bar_English_2-127-1	60.017	-117	1.0.0.18	1	484580764	Standard	2.0.10.353	2.0.10.353	09-14-2015	9/14/2015 9:30:18 PM	17:30:18	2.0.10.248	55	Bar37-63.bmp	43	1	?	10r_4g.bmp	0r_4g.bmp	2r_2g.bmp	0r_2g.bmp	10r_4g.bmp				TrialProc	TrialList	0	cvbn	-999999	16	253195	0	c	943	254138	172	-227	-55	6	-82	13	8	2	6	55	-10	0	-2	0	4	4	2	2	-10	4
Hungry_Donkey_bar_English_2	127	1	<?xml version="1.0"?>\n<Clock xmlns:dt="urn:schemas-microsoft-com:datatypes"><Description dt:dt="string">E-Prime Primary Realtime Clock</Description><StartTime><Timestamp dt:dt="int">0</Timestamp><DateUtc dt:dt="string">2015-09-14T21:30:18Z</DateUtc></StartTime><FrequencyChanges><FrequencyChange><Frequency dt:dt="r8">3507666</Frequency><Timestamp dt:dt="r8">2135083100349</Timestamp><Current dt:dt="r8">0</Current><DateUtc dt:dt="string">2015-09-14T21:30:18Z</DateUtc></FrequencyChange></FrequencyChanges></Clock>\n	Hungry_Donkey_bar_English_2-127-1	60.017	-117	1.0.0.18	1	484580764	Standard	2.0.10.353	2.0.10.353	09-14-2015	9/14/2015 9:30:18 PM	17:30:18	2.0.10.248	56	Bar50-50.bmp	44	2	?	0r_4g.bmp	0r_4g.bmp	0r_2g.bmp	0r_2g.bmp		0r_4g.bmp			TrialProc	TrialList	0	cvbn	-999999	17	256178	0	v	312	256490	176	-227	-51	6	-78	13	8	8	6	56	0	0	0	0	4	4	2	2	0	4
Hungry_Donkey_bar_English_2	127	1	<?xml version="1.0"?>\n<Clock xmlns:dt="urn:schemas-microsoft-com:datatypes"><Description dt:dt="string">E-Prime Primary Realtime Clock</Description><StartTime><Timestamp dt:dt="int">0</Timestamp><DateUtc dt:dt="string">2015-09-14T21:30:18Z</DateUtc></StartTime><FrequencyChanges><FrequencyChange><Frequency dt:dt="r8">3507666</Frequency><Timestamp dt:dt="r8">2135083100349</Timestamp><Current dt:dt="r8">0</Current><DateUtc dt:dt="string">2015-09-14T21:30:18Z</DateUtc></FrequencyChange></FrequencyChanges></Clock>\n	Hungry_Donkey_bar_English_2-127-1	60.017	-117	1.0.0.18	1	484580764	Standard	2.0.10.353	2.0.10.353	09-14-2015	9/14/2015 9:30:18 PM	17:30:18	2.0.10.248	57	Bar50-50.bmp	44	2	?	0r_4g.bmp	0r_4g.bmp	0r_2g.bmp	0r_2g.bmp		0r_4g.bmp			TrialProc	TrialList	0	cvbn	-999999	16	258527	0	v	666	259193	180	-227	-47	6	-74	13	8	7	6	57	0	0	0	0	4	4	2	2	0	4
Hungry_Donkey_bar_English_2	127	1	<?xml version="1.0"?>\n<Clock xmlns:dt="urn:schemas-microsoft-com:datatypes"><Description dt:dt="string">E-Prime Primary Realtime Clock</Description><StartTime><Timestamp dt:dt="int">0</Timestamp><DateUtc dt:dt="string">2015-09-14T21:30:18Z</DateUtc></StartTime><FrequencyChanges><FrequencyChange><Frequency dt:dt="r8">3507666</Frequency><Timestamp dt:dt="r8">2135083100349</Timestamp><Current dt:dt="r8">0</Current><DateUtc dt:dt="string">2015-09-14T21:30:18Z</DateUtc></FrequencyChange></FrequencyChanges></Clock>\n	Hungry_Donkey_bar_English_2-127-1	60.017	-117	1.0.0.18	1	484580764	Standard	2.0.10.353	2.0.10.353	09-14-2015	9/14/2015 9:30:18 PM	17:30:18	2.0.10.248	58	Bar50-50.bmp	45	2	?	12r_4g.bmp	0r_4g.bmp	3r_2g.bmp	0r_2g.bmp		0r_4g.bmp			TrialProc	TrialList	0	cvbn	-999999	16	261226	0	v	431	261657	184	-227	-43	6	-70	13	8	5	6	58	-12	0	-3	0	4	4	2	2	0	4
Hungry_Donkey_bar_English_2	127	1	<?xml version="1.0"?>\n<Clock xmlns:dt="urn:schemas-microsoft-com:datatypes"><Description dt:dt="string">E-Prime Primary Realtime Clock</Description><StartTime><Timestamp dt:dt="int">0</Timestamp><DateUtc dt:dt="string">2015-09-14T21:30:18Z</DateUtc></StartTime><FrequencyChanges><FrequencyChange><Frequency dt:dt="r8">3507666</Frequency><Timestamp dt:dt="r8">2135083100349</Timestamp><Current dt:dt="r8">0</Current><DateUtc dt:dt="string">2015-09-14T21:30:18Z</DateUtc></FrequencyChange></FrequencyChanges></Clock>\n	Hungry_Donkey_bar_English_2-127-1	60.017	-117	1.0.0.18	1	484580764	Standard	2.0.10.353	2.0.10.353	09-14-2015	9/14/2015 9:30:18 PM	17:30:18	2.0.10.248	59	Bar50-50.bmp	45	2	?	10r_4g.bmp	0r_4g.bmp	2r_2g.bmp	0r_2g.bmp		0r_4g.bmp			TrialProc	TrialList	0	cvbn	-999999	16	263692	0	v	493	264185	188	-227	-39	6	-66	13	8	3	6	59	-10	0	-2	0	4	4	2	2	0	4
Hungry_Donkey_bar_English_2	127	1	<?xml version="1.0"?>\n<Clock xmlns:dt="urn:schemas-microsoft-com:datatypes"><Description dt:dt="string">E-Prime Primary Realtime Clock</Description><StartTime><Timestamp dt:dt="int">0</Timestamp><DateUtc dt:dt="string">2015-09-14T21:30:18Z</DateUtc></StartTime><FrequencyChanges><FrequencyChange><Frequency dt:dt="r8">3507666</Frequency><Timestamp dt:dt="r8">2135083100349</Timestamp><Current dt:dt="r8">0</Current><DateUtc dt:dt="string">2015-09-14T21:30:18Z</DateUtc></FrequencyChange></FrequencyChanges></Clock>\n	Hungry_Donkey_bar_English_2-127-1	60.017	-117	1.0.0.18	1	484580764	Standard	2.0.10.353	2.0.10.353	09-14-2015	9/14/2015 9:30:18 PM	17:30:18	2.0.10.248	60	Bar50-50.bmp	46	2	?	10r_4g.bmp	0r_4g.bmp	2r_2g.bmp	0r_2g.bmp		0r_4g.bmp			TrialProc	TrialList	0	cvbn	-999999	16	266225	0	v	424	266649	192	-227	-35	6	-62	13	8	4	6	60	-10	0	-2	0	4	4	2	2	0	4
Hungry_Donkey_bar_English_2	127	1	<?xml version="1.0"?>\n<Clock xmlns:dt="urn:schemas-microsoft-com:datatypes"><Description dt:dt="string">E-Prime Primary Realtime Clock</Description><StartTime><Timestamp dt:dt="int">0</Timestamp><DateUtc dt:dt="string">2015-09-14T21:30:18Z</DateUtc></StartTime><FrequencyChanges><FrequencyChange><Frequency dt:dt="r8">3507666</Frequency><Timestamp dt:dt="r8">2135083100349</Timestamp><Current dt:dt="r8">0</Current><DateUtc dt:dt="string">2015-09-14T21:30:18Z</DateUtc></FrequencyChange></FrequencyChanges></Clock>\n	Hungry_Donkey_bar_English_2-127-1	60.017	-117	1.0.0.18	1	484580764	Standard	2.0.10.353	2.0.10.353	09-14-2015	9/14/2015 9:30:18 PM	17:30:18	2.0.10.248	61	Bar50-50.bmp	46	2	?	0r_4g.bmp	0r_4g.bmp	0r_2g.bmp	0r_2g.bmp		0r_4g.bmp			TrialProc	TrialList	0	cvbn	-999999	16	268674	0	v	407	269081	196	-227	-31	6	-58	13	8	10	7	61	0	0	0	0	4	4	2	2	0	4
Hungry_Donkey_bar_English_2	127	1	<?xml version="1.0"?>\n<Clock xmlns:dt="urn:schemas-microsoft-com:datatypes"><Description dt:dt="string">E-Prime Primary Realtime Clock</Description><StartTime><Timestamp dt:dt="int">0</Timestamp><DateUtc dt:dt="string">2015-09-14T21:30:18Z</DateUtc></StartTime><FrequencyChanges><FrequencyChange><Frequency dt:dt="r8">3507666</Frequency><Timestamp dt:dt="r8">2135083100349</Timestamp><Current dt:dt="r8">0</Current><DateUtc dt:dt="string">2015-09-14T21:30:18Z</DateUtc></FrequencyChange></FrequencyChanges></Clock>\n	Hungry_Donkey_bar_English_2-127-1	60.017	-117	1.0.0.18	1	484580764	Standard	2.0.10.353	2.0.10.353	09-14-2015	9/14/2015 9:30:18 PM	17:30:18	2.0.10.248	62	Bar37-63.bmp	42	2	?	8r_4g.bmp	50r_4g.bmp	1r_2g.bmp	10r_2g.bmp		50r_4g.bmp			TrialProc	TrialList	0	cvbn	-999999	16	271107	0	v	422	271529	200	-277	-77	6	-104	13	8	1	7	62	-8	-50	-1	-10	4	4	2	2	-50	4
Hungry_Donkey_bar_English_2	127	1	<?xml version="1.0"?>\n<Clock xmlns:dt="urn:schemas-microsoft-com:datatypes"><Description dt:dt="string">E-Prime Primary Realtime Clock</Description><StartTime><Timestamp dt:dt="int">0</Timestamp><DateUtc dt:dt="string">2015-09-14T21:30:18Z</DateUtc></StartTime><FrequencyChanges><FrequencyChange><Frequency dt:dt="r8">3507666</Frequency><Timestamp dt:dt="r8">2135083100349</Timestamp><Current dt:dt="r8">0</Current><DateUtc dt:dt="string">2015-09-14T21:30:18Z</DateUtc></FrequencyChange></FrequencyChanges></Clock>\n	Hungry_Donkey_bar_English_2-127-1	60.017	-117	1.0.0.18	1	484580764	Standard	2.0.10.353	2.0.10.353	09-14-2015	9/14/2015 9:30:18 PM	17:30:18	2.0.10.248	63	Bar37-63.bmp	42	3	?	10r_4g.bmp	0r_4g.bmp	2r_2g.bmp	0r_2g.bmp			2r_2g.bmp		TrialProc	TrialList	0	cvbn	-999999	16	273556	0	b	1349	274905	202	-279	-77	6	-104	13	8	3	7	63	-10	0	-2	0	4	4	2	2	-2	2
Hungry_Donkey_bar_English_2	127	1	<?xml version="1.0"?>\n<Clock xmlns:dt="urn:schemas-microsoft-com:datatypes"><Description dt:dt="string">E-Prime Primary Realtime Clock</Description><StartTime><Timestamp dt:dt="int">0</Timestamp><DateUtc dt:dt="string">2015-09-14T21:30:18Z</DateUtc></StartTime><FrequencyChanges><FrequencyChange><Frequency dt:dt="r8">3507666</Frequency><Timestamp dt:dt="r8">2135083100349</Timestamp><Current dt:dt="r8">0</Current><DateUtc dt:dt="string">2015-09-14T21:30:18Z</DateUtc></FrequencyChange></FrequencyChanges></Clock>\n	Hungry_Donkey_bar_English_2-127-1	60.017	-117	1.0.0.18	1	484580764	Standard	2.0.10.353	2.0.10.353	09-14-2015	9/14/2015 9:30:18 PM	17:30:18	2.0.10.248	64	Bar37-63.bmp	42	3	?	10r_4g.bmp	0r_4g.bmp	2r_2g.bmp	0r_2g.bmp			2r_2g.bmp		TrialProc	TrialList	0	cvbn	-999999	16	276938	0	b	399	277337	204	-281	-77	6	-104	13	8	4	7	64	-10	0	-2	0	4	4	2	2	-2	2
Hungry_Donkey_bar_English_2	127	1	<?xml version="1.0"?>\n<Clock xmlns:dt="urn:schemas-microsoft-com:datatypes"><Description dt:dt="string">E-Prime Primary Realtime Clock</Description><StartTime><Timestamp dt:dt="int">0</Timestamp><DateUtc dt:dt="string">2015-09-14T21:30:18Z</DateUtc></StartTime><FrequencyChanges><FrequencyChange><Frequency dt:dt="r8">3507666</Frequency><Timestamp dt:dt="r8">2135083100349</Timestamp><Current dt:dt="r8">0</Current><DateUtc dt:dt="string">2015-09-14T21:30:18Z</DateUtc></FrequencyChange></FrequencyChanges></Clock>\n	Hungry_Donkey_bar_English_2-127-1	60.017	-117	1.0.0.18	1	484580764	Standard	2.0.10.353	2.0.10.353	09-14-2015	9/14/2015 9:30:18 PM	17:30:18	2.0.10.248	65	Bar37-63.bmp	42	4	?	0r_4g.bmp	0r_4g.bmp	0r_2g.bmp	0r_2g.bmp				0r_2g.bmp	TrialProc	TrialList	0	cvbn	-999999	16	279371	0	n	398	279769	206	-281	-75	6	-104	13	10	7	7	65	0	0	0	0	4	4	2	2	0	2
Hungry_Donkey_bar_English_2	127	1	<?xml version="1.0"?>\n<Clock xmlns:dt="urn:schemas-microsoft-com:datatypes"><Description dt:dt="string">E-Prime Primary Realtime Clock</Description><StartTime><Timestamp dt:dt="int">0</Timestamp><DateUtc dt:dt="string">2015-09-14T21:30:18Z</DateUtc></StartTime><FrequencyChanges><FrequencyChange><Frequency dt:dt="r8">3507666</Frequency><Timestamp dt:dt="r8">2135083100349</Timestamp><Current dt:dt="r8">0</Current><DateUtc dt:dt="string">2015-09-14T21:30:18Z</DateUtc></FrequencyChange></FrequencyChanges></Clock>\n	Hungry_Donkey_bar_English_2-127-1	60.017	-117	1.0.0.18	1	484580764	Standard	2.0.10.353	2.0.10.353	09-14-2015	9/14/2015 9:30:18 PM	17:30:18	2.0.10.248	66	Bar37-63.bmp	42	1	?	10r_4g.bmp	0r_4g.bmp	2r_2g.bmp	0r_2g.bmp	10r_4g.bmp				TrialProc	TrialList	0	cvbn	-999999	17	281804	0	c	940	282744	210	-291	-81	0	-104	13	10	2	7	66	-10	0	-2	0	4	4	2	2	-10	4
Hungry_Donkey_bar_English_2	127	1	<?xml version="1.0"?>\n<Clock xmlns:dt="urn:schemas-microsoft-com:datatypes"><Description dt:dt="string">E-Prime Primary Realtime Clock</Description><StartTime><Timestamp dt:dt="int">0</Timestamp><DateUtc dt:dt="string">2015-09-14T21:30:18Z</DateUtc></StartTime><FrequencyChanges><FrequencyChange><Frequency dt:dt="r8">3507666</Frequency><Timestamp dt:dt="r8">2135083100349</Timestamp><Current dt:dt="r8">0</Current><DateUtc dt:dt="string">2015-09-14T21:30:18Z</DateUtc></FrequencyChange></FrequencyChanges></Clock>\n	Hungry_Donkey_bar_English_2-127-1	60.017	-117	1.0.0.18	1	484580764	Standard	2.0.10.353	2.0.10.353	09-14-2015	9/14/2015 9:30:18 PM	17:30:18	2.0.10.248	67	Bar37-63.bmp	42	3	?	0r_4g.bmp	0r_4g.bmp	0r_2g.bmp	0r_2g.bmp			0r_2g.bmp		TrialProc	TrialList	0	cvbn	-999999	16	284769	0	b	839	285608	212	-291	-79	0	-104	15	10	8	7	67	0	0	0	0	4	4	2	2	0	2
Hungry_Donkey_bar_English_2	127	1	<?xml version="1.0"?>\n<Clock xmlns:dt="urn:schemas-microsoft-com:datatypes"><Description dt:dt="string">E-Prime Primary Realtime Clock</Description><StartTime><Timestamp dt:dt="int">0</Timestamp><DateUtc dt:dt="string">2015-09-14T21:30:18Z</DateUtc></StartTime><FrequencyChanges><FrequencyChange><Frequency dt:dt="r8">3507666</Frequency><Timestamp dt:dt="r8">2135083100349</Timestamp><Current dt:dt="r8">0</Current><DateUtc dt:dt="string">2015-09-14T21:30:18Z</DateUtc></FrequencyChange></FrequencyChanges></Clock>\n	Hungry_Donkey_bar_English_2-127-1	60.017	-117	1.0.0.18	1	484580764	Standard	2.0.10.353	2.0.10.353	09-14-2015	9/14/2015 9:30:18 PM	17:30:18	2.0.10.248	68	Bar37-63.bmp	43	2	?	0r_4g.bmp	0r_4g.bmp	0r_2g.bmp	0r_2g.bmp		0r_4g.bmp			TrialProc	TrialList	0	cvbn	-999999	16	287635	0	v	437	288072	216	-291	-75	0	-100	15	10	6	7	68	0	0	0	0	4	4	2	2	0	4
Hungry_Donkey_bar_English_2	127	1	<?xml version="1.0"?>\n<Clock xmlns:dt="urn:schemas-microsoft-com:datatypes"><Description dt:dt="string">E-Prime Primary Realtime Clock</Description><StartTime><Timestamp dt:dt="int">0</Timestamp><DateUtc dt:dt="string">2015-09-14T21:30:18Z</DateUtc></StartTime><FrequencyChanges><FrequencyChange><Frequency dt:dt="r8">3507666</Frequency><Timestamp dt:dt="r8">2135083100349</Timestamp><Current dt:dt="r8">0</Current><DateUtc dt:dt="string">2015-09-14T21:30:18Z</DateUtc></FrequencyChange></FrequencyChanges></Clock>\n	Hungry_Donkey_bar_English_2-127-1	60.017	-117	1.0.0.18	1	484580764	Standard	2.0.10.353	2.0.10.353	09-14-2015	9/14/2015 9:30:18 PM	17:30:18	2.0.10.248	69	Bar37-63.bmp	43	2	?	0r_4g.bmp	0r_4g.bmp	0r_2g.bmp	0r_2g.bmp		0r_4g.bmp			TrialProc	TrialList	0	cvbn	-999999	16	290101	0	v	419	290520	220	-291	-71	0	-96	15	10	9	7	69	0	0	0	0	4	4	2	2	0	4
Hungry_Donkey_bar_English_2	127	1	<?xml version="1.0"?>\n<Clock xmlns:dt="urn:schemas-microsoft-com:datatypes"><Description dt:dt="string">E-Prime Primary Realtime Clock</Description><StartTime><Timestamp dt:dt="int">0</Timestamp><DateUtc dt:dt="string">2015-09-14T21:30:18Z</DateUtc></StartTime><FrequencyChanges><FrequencyChange><Frequency dt:dt="r8">3507666</Frequency><Timestamp dt:dt="r8">2135083100349</Timestamp><Current dt:dt="r8">0</Current><DateUtc dt:dt="string">2015-09-14T21:30:18Z</DateUtc></FrequencyChange></FrequencyChanges></Clock>\n	Hungry_Donkey_bar_English_2-127-1	60.017	-117	1.0.0.18	1	484580764	Standard	2.0.10.353	2.0.10.353	09-14-2015	9/14/2015 9:30:18 PM	17:30:18	2.0.10.248	70	Bar37-63.bmp	43	2	?	12r_4g.bmp	0r_4g.bmp	3r_2g.bmp	0r_2g.bmp		0r_4g.bmp			TrialProc	TrialList	0	cvbn	-999999	17	292551	0	v	417	292968	224	-291	-67	0	-92	15	10	5	7	70	-12	0	-3	0	4	4	2	2	0	4
Hungry_Donkey_bar_English_2	127	1	<?xml version="1.0"?>\n<Clock xmlns:dt="urn:schemas-microsoft-com:datatypes"><Description dt:dt="string">E-Prime Primary Realtime Clock</Description><StartTime><Timestamp dt:dt="int">0</Timestamp><DateUtc dt:dt="string">2015-09-14T21:30:18Z</DateUtc></StartTime><FrequencyChanges><FrequencyChange><Frequency dt:dt="r8">3507666</Frequency><Timestamp dt:dt="r8">2135083100349</Timestamp><Current dt:dt="r8">0</Current><DateUtc dt:dt="string">2015-09-14T21:30:18Z</DateUtc></FrequencyChange></FrequencyChanges></Clock>\n	Hungry_Donkey_bar_English_2-127-1	60.017	-117	1.0.0.18	1	484580764	Standard	2.0.10.353	2.0.10.353	09-14-2015	9/14/2015 9:30:18 PM	17:30:18	2.0.10.248	71	Bar50-50.bmp	44	1	?	0r_4g.bmp	0r_4g.bmp	0r_2g.bmp	0r_2g.bmp	0r_4g.bmp				TrialProc	TrialList	0	cvbn	-999999	16	295000	0	c	400	295400	228	-291	-63	4	-92	15	10	9	8	71	0	0	0	0	4	4	2	2	0	4
Hungry_Donkey_bar_English_2	127	1	<?xml version="1.0"?>\n<Clock xmlns:dt="urn:schemas-microsoft-com:datatypes"><Description dt:dt="string">E-Prime Primary Realtime Clock</Description><StartTime><Timestamp dt:dt="int">0</Timestamp><DateUtc dt:dt="string">2015-09-14T21:30:18Z</DateUtc></StartTime><FrequencyChanges><FrequencyChange><Frequency dt:dt="r8">3507666</Frequency><Timestamp dt:dt="r8">2135083100349</Timestamp><Current dt:dt="r8">0</Current><DateUtc dt:dt="string">2015-09-14T21:30:18Z</DateUtc></FrequencyChange></FrequencyChanges></Clock>\n	Hungry_Donkey_bar_English_2-127-1	60.017	-117	1.0.0.18	1	484580764	Standard	2.0.10.353	2.0.10.353	09-14-2015	9/14/2015 9:30:18 PM	17:30:18	2.0.10.248	72	Bar50-50.bmp	44	1	?	10r_4g.bmp	0r_4g.bmp	2r_2g.bmp	0r_2g.bmp	10r_4g.bmp				TrialProc	TrialList	0	cvbn	-999999	16	297432	0	c	496	297928	232	-301	-69	-2	-92	15	10	3	8	72	-10	0	-2	0	4	4	2	2	-10	4
Hungry_Donkey_bar_English_2	127	1	<?xml version="1.0"?>\n<Clock xmlns:dt="urn:schemas-microsoft-com:datatypes"><Description dt:dt="string">E-Prime Primary Realtime Clock</Description><StartTime><Timestamp dt:dt="int">0</Timestamp><DateUtc dt:dt="string">2015-09-14T21:30:18Z</DateUtc></StartTime><FrequencyChanges><FrequencyChange><Frequency dt:dt="r8">3507666</Frequency><Timestamp dt:dt="r8">2135083100349</Timestamp><Current dt:dt="r8">0</Current><DateUtc dt:dt="string">2015-09-14T21:30:18Z</DateUtc></FrequencyChange></FrequencyChanges></Clock>\n	Hungry_Donkey_bar_English_2-127-1	60.017	-117	1.0.0.18	1	484580764	Standard	2.0.10.353	2.0.10.353	09-14-2015	9/14/2015 9:30:18 PM	17:30:18	2.0.10.248	73	Bar50-50.bmp	44	3	?	0r_4g.bmp	0r_4g.bmp	0r_2g.bmp	0r_2g.bmp			0r_2g.bmp		TrialProc	TrialList	0	cvbn	-999999	16	299965	0	b	331	300296	234	-301	-67	-2	-92	17	10	8	8	73	0	0	0	0	4	4	2	2	0	2
Hungry_Donkey_bar_English_2	127	1	<?xml version="1.0"?>\n<Clock xmlns:dt="urn:schemas-microsoft-com:datatypes"><Description dt:dt="string">E-Prime Primary Realtime Clock</Description><StartTime><Timestamp dt:dt="int">0</Timestamp><DateUtc dt:dt="string">2015-09-14T21:30:18Z</DateUtc></StartTime><FrequencyChanges><FrequencyChange><Frequency dt:dt="r8">3507666</Frequency><Timestamp dt:dt="r8">2135083100349</Timestamp><Current dt:dt="r8">0</Current><DateUtc dt:dt="string">2015-09-14T21:30:18Z</DateUtc></FrequencyChange></FrequencyChanges></Clock>\n	Hungry_Donkey_bar_English_2-127-1	60.017	-117	1.0.0.18	1	484580764	Standard	2.0.10.353	2.0.10.353	09-14-2015	9/14/2015 9:30:18 PM	17:30:18	2.0.10.248	74	Bar37-63.bmp	43	4	?	8r_4g.bmp	50r_4g.bmp	1r_2g.bmp	10r_2g.bmp				10r_2g.bmp	TrialProc	TrialList	0	cvbn	-999999	16	302331	0	n	668	302999	236	-311	-75	-2	-92	17	2	1	8	74	-8	-50	-1	-10	4	4	2	2	-10	2
Hungry_Donkey_bar_English_2	127	1	<?xml version="1.0"?>\n<Clock xmlns:dt="urn:schemas-microsoft-com:datatypes"><Description dt:dt="string">E-Prime Primary Realtime Clock</Description><StartTime><Timestamp dt:dt="int">0</Timestamp><DateUtc dt:dt="string">2015-09-14T21:30:18Z</DateUtc></StartTime><FrequencyChanges><FrequencyChange><Frequency dt:dt="r8">3507666</Frequency><Timestamp dt:dt="r8">2135083100349</Timestamp><Current dt:dt="r8">0</Current><DateUtc dt:dt="string">2015-09-14T21:30:18Z</DateUtc></FrequencyChange></FrequencyChanges></Clock>\n	Hungry_Donkey_bar_English_2-127-1	60.017	-117	1.0.0.18	1	484580764	Standard	2.0.10.353	2.0.10.353	09-14-2015	9/14/2015 9:30:18 PM	17:30:18	2.0.10.248	75	Bar37-63.bmp	43	3	?	0r_4g.bmp	0r_4g.bmp	0r_2g.bmp	0r_2g.bmp			0r_2g.bmp		TrialProc	TrialList	0	cvbn	-999999	16	305030	0	b	497	305527	238	-311	-73	-2	-92	19	2	6	8	75	0	0	0	0	4	4	2	2	0	2
Hungry_Donkey_bar_English_2	127	1	<?xml version="1.0"?>\n<Clock xmlns:dt="urn:schemas-microsoft-com:datatypes"><Description dt:dt="string">E-Prime Primary Realtime Clock</Description><StartTime><Timestamp dt:dt="int">0</Timestamp><DateUtc dt:dt="string">2015-09-14T21:30:18Z</DateUtc></StartTime><FrequencyChanges><FrequencyChange><Frequency dt:dt="r8">3507666</Frequency><Timestamp dt:dt="r8">2135083100349</Timestamp><Current dt:dt="r8">0</Current><DateUtc dt:dt="string">2015-09-14T21:30:18Z</DateUtc></FrequencyChange></FrequencyChanges></Clock>\n	Hungry_Donkey_bar_English_2-127-1	60.017	-117	1.0.0.18	1	484580764	Standard	2.0.10.353	2.0.10.353	09-14-2015	9/14/2015 9:30:18 PM	17:30:18	2.0.10.248	76	Bar50-50.bmp	44	2	?	10r_4g.bmp	0r_4g.bmp	2r_2g.bmp	0r_2g.bmp		0r_4g.bmp			TrialProc	TrialList	0	cvbn	-999999	16	307563	0	v	1324	308887	242	-311	-69	-2	-88	19	2	4	8	76	-10	0	-2	0	4	4	2	2	0	4
Hungry_Donkey_bar_English_2	127	1	<?xml version="1.0"?>\n<Clock xmlns:dt="urn:schemas-microsoft-com:datatypes"><Description dt:dt="string">E-Prime Primary Realtime Clock</Description><StartTime><Timestamp dt:dt="int">0</Timestamp><DateUtc dt:dt="string">2015-09-14T21:30:18Z</DateUtc></StartTime><FrequencyChanges><FrequencyChange><Frequency dt:dt="r8">3507666</Frequency><Timestamp dt:dt="r8">2135083100349</Timestamp><Current dt:dt="r8">0</Current><DateUtc dt:dt="string">2015-09-14T21:30:18Z</DateUtc></FrequencyChange></FrequencyChanges></Clock>\n	Hungry_Donkey_bar_English_2-127-1	60.017	-117	1.0.0.18	1	484580764	Standard	2.0.10.353	2.0.10.353	09-14-2015	9/14/2015 9:30:18 PM	17:30:18	2.0.10.248	77	Bar50-50.bmp	44	2	?	12r_4g.bmp	0r_4g.bmp	3r_2g.bmp	0r_2g.bmp		0r_4g.bmp			TrialProc	TrialList	0	cvbn	-999999	16	310912	0	v	487	311399	246	-311	-65	-2	-84	19	2	5	8	77	-12	0	-3	0	4	4	2	2	0	4
Hungry_Donkey_bar_English_2	127	1	<?xml version="1.0"?>\n<Clock xmlns:dt="urn:schemas-microsoft-com:datatypes"><Description dt:dt="string">E-Prime Primary Realtime Clock</Description><StartTime><Timestamp dt:dt="int">0</Timestamp><DateUtc dt:dt="string">2015-09-14T21:30:18Z</DateUtc></StartTime><FrequencyChanges><FrequencyChange><Frequency dt:dt="r8">3507666</Frequency><Timestamp dt:dt="r8">2135083100349</Timestamp><Current dt:dt="r8">0</Current><DateUtc dt:dt="string">2015-09-14T21:30:18Z</DateUtc></FrequencyChange></FrequencyChanges></Clock>\n	Hungry_Donkey_bar_English_2-127-1	60.017	-117	1.0.0.18	1	484580764	Standard	2.0.10.353	2.0.10.353	09-14-2015	9/14/2015 9:30:18 PM	17:30:18	2.0.10.248	78	Bar50-50.bmp	44	3	?	10r_4g.bmp	0r_4g.bmp	2r_2g.bmp	0r_2g.bmp			2r_2g.bmp		TrialProc	TrialList	0	cvbn	-999999	16	313428	0	b	179	313607	248	-313	-65	-2	-84	19	2	2	8	78	-10	0	-2	0	4	4	2	2	-2	2
Hungry_Donkey_bar_English_2	127	1	<?xml version="1.0"?>\n<Clock xmlns:dt="urn:schemas-microsoft-com:datatypes"><Description dt:dt="string">E-Prime Primary Realtime Clock</Description><StartTime><Timestamp dt:dt="int">0</Timestamp><DateUtc dt:dt="string">2015-09-14T21:30:18Z</DateUtc></StartTime><FrequencyChanges><FrequencyChange><Frequency dt:dt="r8">3507666</Frequency><Timestamp dt:dt="r8">2135083100349</Timestamp><Current dt:dt="r8">0</Current><DateUtc dt:dt="string">2015-09-14T21:30:18Z</DateUtc></FrequencyChange></FrequencyChanges></Clock>\n	Hungry_Donkey_bar_English_2-127-1	60.017	-117	1.0.0.18	1	484580764	Standard	2.0.10.353	2.0.10.353	09-14-2015	9/14/2015 9:30:18 PM	17:30:18	2.0.10.248	79	Bar50-50.bmp	44	3	?	0r_4g.bmp	0r_4g.bmp	0r_2g.bmp	0r_2g.bmp			0r_2g.bmp		TrialProc	TrialList	0	cvbn	-999999	16	315644	0	b	395	316039	250	-313	-63	-2	-84	21	2	7	8	79	0	0	0	0	4	4	2	2	0	2
Hungry_Donkey_bar_English_2	127	1	<?xml version="1.0"?>\n<Clock xmlns:dt="urn:schemas-microsoft-com:datatypes"><Description dt:dt="string">E-Prime Primary Realtime Clock</Description><StartTime><Timestamp dt:dt="int">0</Timestamp><DateUtc dt:dt="string">2015-09-14T21:30:18Z</DateUtc></StartTime><FrequencyChanges><FrequencyChange><Frequency dt:dt="r8">3507666</Frequency><Timestamp dt:dt="r8">2135083100349</Timestamp><Current dt:dt="r8">0</Current><DateUtc dt:dt="string">2015-09-14T21:30:18Z</DateUtc></FrequencyChange></FrequencyChanges></Clock>\n	Hungry_Donkey_bar_English_2-127-1	60.017	-117	1.0.0.18	1	484580764	Standard	2.0.10.353	2.0.10.353	09-14-2015	9/14/2015 9:30:18 PM	17:30:18	2.0.10.248	80	Bar50-50.bmp	45	4	?	0r_4g.bmp	0r_4g.bmp	0r_2g.bmp	0r_2g.bmp				0r_2g.bmp	TrialProc	TrialList	0	cvbn	-999999	16	318077	0	n	746	318823	252	-313	-61	-2	-84	21	4	10	8	80	0	0	0	0	4	4	2	2	0	2
Hungry_Donkey_bar_English_2	127	1	<?xml version="1.0"?>\n<Clock xmlns:dt="urn:schemas-microsoft-com:datatypes"><Description dt:dt="string">E-Prime Primary Realtime Clock</Description><StartTime><Timestamp dt:dt="int">0</Timestamp><DateUtc dt:dt="string">2015-09-14T21:30:18Z</DateUtc></StartTime><FrequencyChanges><FrequencyChange><Frequency dt:dt="r8">3507666</Frequency><Timestamp dt:dt="r8">2135083100349</Timestamp><Current dt:dt="r8">0</Current><DateUtc dt:dt="string">2015-09-14T21:30:18Z</DateUtc></FrequencyChange></FrequencyChanges></Clock>\n	Hungry_Donkey_bar_English_2-127-1	60.017	-117	1.0.0.18	1	484580764	Standard	2.0.10.353	2.0.10.353	09-14-2015	9/14/2015 9:30:18 PM	17:30:18	2.0.10.248	81	Bar50-50.bmp	45	4	?	0r_4g.bmp	0r_4g.bmp	0r_2g.bmp	0r_2g.bmp				0r_2g.bmp	TrialProc	TrialList	0	cvbn	-999999	16	320859	0	n	588	321447	254	-313	-59	-2	-84	21	6	6	9	81	0	0	0	0	4	4	2	2	0	2
Hungry_Donkey_bar_English_2	127	1	<?xml version="1.0"?>\n<Clock xmlns:dt="urn:schemas-microsoft-com:datatypes"><Description dt:dt="string">E-Prime Primary Realtime Clock</Description><StartTime><Timestamp dt:dt="int">0</Timestamp><DateUtc dt:dt="string">2015-09-14T21:30:18Z</DateUtc></StartTime><FrequencyChanges><FrequencyChange><Frequency dt:dt="r8">3507666</Frequency><Timestamp dt:dt="r8">2135083100349</Timestamp><Current dt:dt="r8">0</Current><DateUtc dt:dt="string">2015-09-14T21:30:18Z</DateUtc></FrequencyChange></FrequencyChanges></Clock>\n	Hungry_Donkey_bar_English_2-127-1	60.017	-117	1.0.0.18	1	484580764	Standard	2.0.10.353	2.0.10.353	09-14-2015	9/14/2015 9:30:18 PM	17:30:18	2.0.10.248	82	Bar50-50.bmp	45	3	?	8r_4g.bmp	50r_4g.bmp	1r_2g.bmp	10r_2g.bmp			1r_2g.bmp		TrialProc	TrialList	0	cvbn	-999999	16	323475	0	b	404	323879	256	-314	-58	-2	-84	22	6	1	9	82	-8	-50	-1	-10	4	4	2	2	-1	2
Hungry_Donkey_bar_English_2	127	1	<?xml version="1.0"?>\n<Clock xmlns:dt="urn:schemas-microsoft-com:datatypes"><Description dt:dt="string">E-Prime Primary Realtime Clock</Description><StartTime><Timestamp dt:dt="int">0</Timestamp><DateUtc dt:dt="string">2015-09-14T21:30:18Z</DateUtc></StartTime><FrequencyChanges><FrequencyChange><Frequency dt:dt="r8">3507666</Frequency><Timestamp dt:dt="r8">2135083100349</Timestamp><Current dt:dt="r8">0</Current><DateUtc dt:dt="string">2015-09-14T21:30:18Z</DateUtc></FrequencyChange></FrequencyChanges></Clock>\n	Hungry_Donkey_bar_English_2-127-1	60.017	-117	1.0.0.18	1	484580764	Standard	2.0.10.353	2.0.10.353	09-14-2015	9/14/2015 9:30:18 PM	17:30:18	2.0.10.248	83	Bar50-50.bmp	45	2	?	0r_4g.bmp	0r_4g.bmp	0r_2g.bmp	0r_2g.bmp		0r_4g.bmp			TrialProc	TrialList	0	cvbn	-999999	16	325908	0	v	418	326326	260	-314	-54	-2	-80	22	6	9	9	83	0	0	0	0	4	4	2	2	0	4
Hungry_Donkey_bar_English_2	127	1	<?xml version="1.0"?>\n<Clock xmlns:dt="urn:schemas-microsoft-com:datatypes"><Description dt:dt="string">E-Prime Primary Realtime Clock</Description><StartTime><Timestamp dt:dt="int">0</Timestamp><DateUtc dt:dt="string">2015-09-14T21:30:18Z</DateUtc></StartTime><FrequencyChanges><FrequencyChange><Frequency dt:dt="r8">3507666</Frequency><Timestamp dt:dt="r8">2135083100349</Timestamp><Current dt:dt="r8">0</Current><DateUtc dt:dt="string">2015-09-14T21:30:18Z</DateUtc></FrequencyChange></FrequencyChanges></Clock>\n	Hungry_Donkey_bar_English_2-127-1	60.017	-117	1.0.0.18	1	484580764	Standard	2.0.10.353	2.0.10.353	09-14-2015	9/14/2015 9:30:18 PM	17:30:18	2.0.10.248	84	Bar50-50.bmp	46	2	?	0r_4g.bmp	0r_4g.bmp	0r_2g.bmp	0r_2g.bmp		0r_4g.bmp			TrialProc	TrialList	0	cvbn	-999999	16	328357	0	v	545	328902	264	-314	-50	-2	-76	22	6	7	9	84	0	0	0	0	4	4	2	2	0	4
Hungry_Donkey_bar_English_2	127	1	<?xml version="1.0"?>\n<Clock xmlns:dt="urn:schemas-microsoft-com:datatypes"><Description dt:dt="string">E-Prime Primary Realtime Clock</Description><StartTime><Timestamp dt:dt="int">0</Timestamp><DateUtc dt:dt="string">2015-09-14T21:30:18Z</DateUtc></StartTime><FrequencyChanges><FrequencyChange><Frequency dt:dt="r8">3507666</Frequency><Timestamp dt:dt="r8">2135083100349</Timestamp><Current dt:dt="r8">0</Current><DateUtc dt:dt="string">2015-09-14T21:30:18Z</DateUtc></FrequencyChange></FrequencyChanges></Clock>\n	Hungry_Donkey_bar_English_2-127-1	60.017	-117	1.0.0.18	1	484580764	Standard	2.0.10.353	2.0.10.353	09-14-2015	9/14/2015 9:30:18 PM	17:30:18	2.0.10.248	85	Bar50-50.bmp	45	1	?	10r_4g.bmp	0r_4g.bmp	2r_2g.bmp	0r_2g.bmp	10r_4g.bmp				TrialProc	TrialList	0	cvbn	-999999	16	330940	0	c	330	331270	268	-324	-56	-8	-76	22	6	2	9	85	-10	0	-2	0	4	4	2	2	-10	4
Hungry_Donkey_bar_English_2	127	1	<?xml version="1.0"?>\n<Clock xmlns:dt="urn:schemas-microsoft-com:datatypes"><Description dt:dt="string">E-Prime Primary Realtime Clock</Description><StartTime><Timestamp dt:dt="int">0</Timestamp><DateUtc dt:dt="string">2015-09-14T21:30:18Z</DateUtc></StartTime><FrequencyChanges><FrequencyChange><Frequency dt:dt="r8">3507666</Frequency><Timestamp dt:dt="r8">2135083100349</Timestamp><Current dt:dt="r8">0</Current><DateUtc dt:dt="string">2015-09-14T21:30:18Z</DateUtc></FrequencyChange></FrequencyChanges></Clock>\n	Hungry_Donkey_bar_English_2-127-1	60.017	-117	1.0.0.18	1	484580764	Standard	2.0.10.353	2.0.10.353	09-14-2015	9/14/2015 9:30:18 PM	17:30:18	2.0.10.248	86	Bar50-50.bmp	46	2	?	12r_4g.bmp	0r_4g.bmp	3r_2g.bmp	0r_2g.bmp		0r_4g.bmp			TrialProc	TrialList	0	cvbn	-999999	16	333306	0	v	492	333798	272	-324	-52	-8	-72	22	6	5	9	86	-12	0	-3	0	4	4	2	2	0	4
Hungry_Donkey_bar_English_2	127	1	<?xml version="1.0"?>\n<Clock xmlns:dt="urn:schemas-microsoft-com:datatypes"><Description dt:dt="string">E-Prime Primary Realtime Clock</Description><StartTime><Timestamp dt:dt="int">0</Timestamp><DateUtc dt:dt="string">2015-09-14T21:30:18Z</DateUtc></StartTime><FrequencyChanges><FrequencyChange><Frequency dt:dt="r8">3507666</Frequency><Timestamp dt:dt="r8">2135083100349</Timestamp><Current dt:dt="r8">0</Current><DateUtc dt:dt="string">2015-09-14T21:30:18Z</DateUtc></FrequencyChange></FrequencyChanges></Clock>\n	Hungry_Donkey_bar_English_2-127-1	60.017	-117	1.0.0.18	1	484580764	Standard	2.0.10.353	2.0.10.353	09-14-2015	9/14/2015 9:30:18 PM	17:30:18	2.0.10.248	87	Bar50-50.bmp	45	1	?	10r_4g.bmp	0r_4g.bmp	2r_2g.bmp	0r_2g.bmp	10r_4g.bmp				TrialProc	TrialList	0	cvbn	-999999	16	335838	0	c	520	336358	276	-334	-58	-14	-72	22	6	3	9	87	-10	0	-2	0	4	4	2	2	-10	4
Hungry_Donkey_bar_English_2	127	1	<?xml version="1.0"?>\n<Clock xmlns:dt="urn:schemas-microsoft-com:datatypes"><Description dt:dt="string">E-Prime Primary Realtime Clock</Description><StartTime><Timestamp dt:dt="int">0</Timestamp><DateUtc dt:dt="string">2015-09-14T21:30:18Z</DateUtc></StartTime><FrequencyChanges><FrequencyChange><Frequency dt:dt="r8">3507666</Frequency><Timestamp dt:dt="r8">2135083100349</Timestamp><Current dt:dt="r8">0</Current><DateUtc dt:dt="string">2015-09-14T21:30:18Z</DateUtc></FrequencyChange></FrequencyChanges></Clock>\n	Hungry_Donkey_bar_English_2-127-1	60.017	-117	1.0.0.18	1	484580764	Standard	2.0.10.353	2.0.10.353	09-14-2015	9/14/2015 9:30:18 PM	17:30:18	2.0.10.248	88	Bar50-50.bmp	46	2	?	10r_4g.bmp	0r_4g.bmp	2r_2g.bmp	0r_2g.bmp		0r_4g.bmp			TrialProc	TrialList	0	cvbn	-999999	17	338388	0	v	802	339190	280	-334	-54	-14	-68	22	6	4	9	88	-10	0	-2	0	4	4	2	2	0	4
Hungry_Donkey_bar_English_2	127	1	<?xml version="1.0"?>\n<Clock xmlns:dt="urn:schemas-microsoft-com:datatypes"><Description dt:dt="string">E-Prime Primary Realtime Clock</Description><StartTime><Timestamp dt:dt="int">0</Timestamp><DateUtc dt:dt="string">2015-09-14T21:30:18Z</DateUtc></StartTime><FrequencyChanges><FrequencyChange><Frequency dt:dt="r8">3507666</Frequency><Timestamp dt:dt="r8">2135083100349</Timestamp><Current dt:dt="r8">0</Current><DateUtc dt:dt="string">2015-09-14T21:30:18Z</DateUtc></FrequencyChange></FrequencyChanges></Clock>\n	Hungry_Donkey_bar_English_2-127-1	60.017	-117	1.0.0.18	1	484580764	Standard	2.0.10.353	2.0.10.353	09-14-2015	9/14/2015 9:30:18 PM	17:30:18	2.0.10.248	89	Bar50-50.bmp	46	1	?	0r_4g.bmp	0r_4g.bmp	0r_2g.bmp	0r_2g.bmp	0r_4g.bmp				TrialProc	TrialList	0	cvbn	-999999	16	341220	0	c	418	341638	284	-334	-50	-10	-68	22	6	10	9	89	0	0	0	0	4	4	2	2	0	4
Hungry_Donkey_bar_English_2	127	1	<?xml version="1.0"?>\n<Clock xmlns:dt="urn:schemas-microsoft-com:datatypes"><Description dt:dt="string">E-Prime Primary Realtime Clock</Description><StartTime><Timestamp dt:dt="int">0</Timestamp><DateUtc dt:dt="string">2015-09-14T21:30:18Z</DateUtc></StartTime><FrequencyChanges><FrequencyChange><Frequency dt:dt="r8">3507666</Frequency><Timestamp dt:dt="r8">2135083100349</Timestamp><Current dt:dt="r8">0</Current><DateUtc dt:dt="string">2015-09-14T21:30:18Z</DateUtc></FrequencyChange></FrequencyChanges></Clock>\n	Hungry_Donkey_bar_English_2-127-1	60.017	-117	1.0.0.18	1	484580764	Standard	2.0.10.353	2.0.10.353	09-14-2015	9/14/2015 9:30:18 PM	17:30:18	2.0.10.248	90	Bar50-50.bmp	46	3	?	0r_4g.bmp	0r_4g.bmp	0r_2g.bmp	0r_2g.bmp			0r_2g.bmp		TrialProc	TrialList	0	cvbn	-999999	16	343669	0	b	369	344038	286	-334	-48	-10	-68	24	6	8	9	90	0	0	0	0	4	4	2	2	0	2
Hungry_Donkey_bar_English_2	127	1	<?xml version="1.0"?>\n<Clock xmlns:dt="urn:schemas-microsoft-com:datatypes"><Description dt:dt="string">E-Prime Primary Realtime Clock</Description><StartTime><Timestamp dt:dt="int">0</Timestamp><DateUtc dt:dt="string">2015-09-14T21:30:18Z</DateUtc></StartTime><FrequencyChanges><FrequencyChange><Frequency dt:dt="r8">3507666</Frequency><Timestamp dt:dt="r8">2135083100349</Timestamp><Current dt:dt="r8">0</Current><DateUtc dt:dt="string">2015-09-14T21:30:18Z</DateUtc></FrequencyChange></FrequencyChanges></Clock>\n	Hungry_Donkey_bar_English_2-127-1	60.017	-117	1.0.0.18	1	484580764	Standard	2.0.10.353	2.0.10.353	09-14-2015	9/14/2015 9:30:18 PM	17:30:18	2.0.10.248	91	Bar50-50.bmp	46	4	?	0r_4g.bmp	0r_4g.bmp	0r_2g.bmp	0r_2g.bmp				0r_2g.bmp	TrialProc	TrialList	0	cvbn	-999999	16	346069	0	n	480	346549	288	-334	-46	-10	-68	24	8	6	10	91	0	0	0	0	4	4	2	2	0	2
Hungry_Donkey_bar_English_2	127	1	<?xml version="1.0"?>\n<Clock xmlns:dt="urn:schemas-microsoft-com:datatypes"><Description dt:dt="string">E-Prime Primary Realtime Clock</Description><StartTime><Timestamp dt:dt="int">0</Timestamp><DateUtc dt:dt="string">2015-09-14T21:30:18Z</DateUtc></StartTime><FrequencyChanges><FrequencyChange><Frequency dt:dt="r8">3507666</Frequency><Timestamp dt:dt="r8">2135083100349</Timestamp><Current dt:dt="r8">0</Current><DateUtc dt:dt="string">2015-09-14T21:30:18Z</DateUtc></FrequencyChange></FrequencyChanges></Clock>\n	Hungry_Donkey_bar_English_2-127-1	60.017	-117	1.0.0.18	1	484580764	Standard	2.0.10.353	2.0.10.353	09-14-2015	9/14/2015 9:30:18 PM	17:30:18	2.0.10.248	92	Bar50-50.bmp	47	2	?	10r_4g.bmp	0r_4g.bmp	2r_2g.bmp	0r_2g.bmp		0r_4g.bmp			TrialProc	TrialList	0	cvbn	-999999	16	348585	0	v	348	348933	292	-334	-42	-10	-64	24	8	3	10	92	-10	0	-2	0	4	4	2	2	0	4
Hungry_Donkey_bar_English_2	127	1	<?xml version="1.0"?>\n<Clock xmlns:dt="urn:schemas-microsoft-com:datatypes"><Description dt:dt="string">E-Prime Primary Realtime Clock</Description><StartTime><Timestamp dt:dt="int">0</Timestamp><DateUtc dt:dt="string">2015-09-14T21:30:18Z</DateUtc></StartTime><FrequencyChanges><FrequencyChange><Frequency dt:dt="r8">3507666</Frequency><Timestamp dt:dt="r8">2135083100349</Timestamp><Current dt:dt="r8">0</Current><DateUtc dt:dt="string">2015-09-14T21:30:18Z</DateUtc></FrequencyChange></FrequencyChanges></Clock>\n	Hungry_Donkey_bar_English_2-127-1	60.017	-117	1.0.0.18	1	484580764	Standard	2.0.10.353	2.0.10.353	09-14-2015	9/14/2015 9:30:18 PM	17:30:18	2.0.10.248	93	Bar50-50.bmp	46	1	?	12r_4g.bmp	0r_4g.bmp	3r_2g.bmp	0r_2g.bmp	12r_4g.bmp				TrialProc	TrialList	0	cvbn	-999999	16	350967	0	c	62	351029	296	-346	-50	-18	-64	24	8	5	10	93	-12	0	-3	0	4	4	2	2	-12	4
Hungry_Donkey_bar_English_2	127	1	<?xml version="1.0"?>\n<Clock xmlns:dt="urn:schemas-microsoft-com:datatypes"><Description dt:dt="string">E-Prime Primary Realtime Clock</Description><StartTime><Timestamp dt:dt="int">0</Timestamp><DateUtc dt:dt="string">2015-09-14T21:30:18Z</DateUtc></StartTime><FrequencyChanges><FrequencyChange><Frequency dt:dt="r8">3507666</Frequency><Timestamp dt:dt="r8">2135083100349</Timestamp><Current dt:dt="r8">0</Current><DateUtc dt:dt="string">2015-09-14T21:30:18Z</DateUtc></FrequencyChange></FrequencyChanges></Clock>\n	Hungry_Donkey_bar_English_2-127-1	60.017	-117	1.0.0.18	1	484580764	Standard	2.0.10.353	2.0.10.353	09-14-2015	9/14/2015 9:30:18 PM	17:30:18	2.0.10.248	94	Bar50-50.bmp	46	3	?	8r_4g.bmp	50r_4g.bmp	1r_2g.bmp	10r_2g.bmp			1r_2g.bmp		TrialProc	TrialList	0	cvbn	-999999	16	353067	0	b	394	353461	298	-347	-49	-18	-64	25	8	1	10	94	-8	-50	-1	-10	4	4	2	2	-1	2
Hungry_Donkey_bar_English_2	127	1	<?xml version="1.0"?>\n<Clock xmlns:dt="urn:schemas-microsoft-com:datatypes"><Description dt:dt="string">E-Prime Primary Realtime Clock</Description><StartTime><Timestamp dt:dt="int">0</Timestamp><DateUtc dt:dt="string">2015-09-14T21:30:18Z</DateUtc></StartTime><FrequencyChanges><FrequencyChange><Frequency dt:dt="r8">3507666</Frequency><Timestamp dt:dt="r8">2135083100349</Timestamp><Current dt:dt="r8">0</Current><DateUtc dt:dt="string">2015-09-14T21:30:18Z</DateUtc></FrequencyChange></FrequencyChanges></Clock>\n	Hungry_Donkey_bar_English_2-127-1	60.017	-117	1.0.0.18	1	484580764	Standard	2.0.10.353	2.0.10.353	09-14-2015	9/14/2015 9:30:18 PM	17:30:18	2.0.10.248	95	Bar50-50.bmp	46	4	?	0r_4g.bmp	0r_4g.bmp	0r_2g.bmp	0r_2g.bmp				0r_2g.bmp	TrialProc	TrialList	0	cvbn	-999999	16	355499	0	n	1306	356805	300	-347	-47	-18	-64	25	10	9	10	95	0	0	0	0	4	4	2	2	0	2
Hungry_Donkey_bar_English_2	127	1	<?xml version="1.0"?>\n<Clock xmlns:dt="urn:schemas-microsoft-com:datatypes"><Description dt:dt="string">E-Prime Primary Realtime Clock</Description><StartTime><Timestamp dt:dt="int">0</Timestamp><DateUtc dt:dt="string">2015-09-14T21:30:18Z</DateUtc></StartTime><FrequencyChanges><FrequencyChange><Frequency dt:dt="r8">3507666</Frequency><Timestamp dt:dt="r8">2135083100349</Timestamp><Current dt:dt="r8">0</Current><DateUtc dt:dt="string">2015-09-14T21:30:18Z</DateUtc></FrequencyChange></FrequencyChanges></Clock>\n	Hungry_Donkey_bar_English_2-127-1	60.017	-117	1.0.0.18	1	484580764	Standard	2.0.10.353	2.0.10.353	09-14-2015	9/14/2015 9:30:18 PM	17:30:18	2.0.10.248	96	Bar50-50.bmp	47	2	?	0r_4g.bmp	0r_4g.bmp	0r_2g.bmp	0r_2g.bmp		0r_4g.bmp			TrialProc	TrialList	0	cvbn	-999999	16	358832	0	v	1061	359893	304	-347	-43	-18	-60	25	10	7	10	96	0	0	0	0	4	4	2	2	0	4
Hungry_Donkey_bar_English_2	127	1	<?xml version="1.0"?>\n<Clock xmlns:dt="urn:schemas-microsoft-com:datatypes"><Description dt:dt="string">E-Prime Primary Realtime Clock</Description><StartTime><Timestamp dt:dt="int">0</Timestamp><DateUtc dt:dt="string">2015-09-14T21:30:18Z</DateUtc></StartTime><FrequencyChanges><FrequencyChange><Frequency dt:dt="r8">3507666</Frequency><Timestamp dt:dt="r8">2135083100349</Timestamp><Current dt:dt="r8">0</Current><DateUtc dt:dt="string">2015-09-14T21:30:18Z</DateUtc></FrequencyChange></FrequencyChanges></Clock>\n	Hungry_Donkey_bar_English_2-127-1	60.017	-117	1.0.0.18	1	484580764	Standard	2.0.10.353	2.0.10.353	09-14-2015	9/14/2015 9:30:18 PM	17:30:18	2.0.10.248	97	Bar50-50.bmp	47	3	?	0r_4g.bmp	0r_4g.bmp	0r_2g.bmp	0r_2g.bmp			0r_2g.bmp		TrialProc	TrialList	0	cvbn	-999999	16	361931	0	b	522	362453	306	-347	-41	-18	-60	27	10	8	10	97	0	0	0	0	4	4	2	2	0	2
Hungry_Donkey_bar_English_2	127	1	<?xml version="1.0"?>\n<Clock xmlns:dt="urn:schemas-microsoft-com:datatypes"><Description dt:dt="string">E-Prime Primary Realtime Clock</Description><StartTime><Timestamp dt:dt="int">0</Timestamp><DateUtc dt:dt="string">2015-09-14T21:30:18Z</DateUtc></StartTime><FrequencyChanges><FrequencyChange><Frequency dt:dt="r8">3507666</Frequency><Timestamp dt:dt="r8">2135083100349</Timestamp><Current dt:dt="r8">0</Current><DateUtc dt:dt="string">2015-09-14T21:30:18Z</DateUtc></FrequencyChange></FrequencyChanges></Clock>\n	Hungry_Donkey_bar_English_2-127-1	60.017	-117	1.0.0.18	1	484580764	Standard	2.0.10.353	2.0.10.353	09-14-2015	9/14/2015 9:30:18 PM	17:30:18	2.0.10.248	98	Bar50-50.bmp	47	2	?	10r_4g.bmp	0r_4g.bmp	2r_2g.bmp	0r_2g.bmp		0r_4g.bmp			TrialProc	TrialList	0	cvbn	-999999	16	364480	0	v	709	365189	310	-347	-37	-18	-56	27	10	2	10	98	-10	0	-2	0	4	4	2	2	0	4
Hungry_Donkey_bar_English_2	127	1	<?xml version="1.0"?>\n<Clock xmlns:dt="urn:schemas-microsoft-com:datatypes"><Description dt:dt="string">E-Prime Primary Realtime Clock</Description><StartTime><Timestamp dt:dt="int">0</Timestamp><DateUtc dt:dt="string">2015-09-14T21:30:18Z</DateUtc></StartTime><FrequencyChanges><FrequencyChange><Frequency dt:dt="r8">3507666</Frequency><Timestamp dt:dt="r8">2135083100349</Timestamp><Current dt:dt="r8">0</Current><DateUtc dt:dt="string">2015-09-14T21:30:18Z</DateUtc></FrequencyChange></FrequencyChanges></Clock>\n	Hungry_Donkey_bar_English_2-127-1	60.017	-117	1.0.0.18	1	484580764	Standard	2.0.10.353	2.0.10.353	09-14-2015	9/14/2015 9:30:18 PM	17:30:18	2.0.10.248	99	Bar50-50.bmp	48	2	?	0r_4g.bmp	0r_4g.bmp	0r_2g.bmp	0r_2g.bmp		0r_4g.bmp			TrialProc	TrialList	0	cvbn	-999999	16	367213	0	v	568	367781	314	-347	-33	-18	-52	27	10	10	10	99	0	0	0	0	4	4	2	2	0	4
Hungry_Donkey_bar_English_2	127	1	<?xml version="1.0"?>\n<Clock xmlns:dt="urn:schemas-microsoft-com:datatypes"><Description dt:dt="string">E-Prime Primary Realtime Clock</Description><StartTime><Timestamp dt:dt="int">0</Timestamp><DateUtc dt:dt="string">2015-09-14T21:30:18Z</DateUtc></StartTime><FrequencyChanges><FrequencyChange><Frequency dt:dt="r8">3507666</Frequency><Timestamp dt:dt="r8">2135083100349</Timestamp><Current dt:dt="r8">0</Current><DateUtc dt:dt="string">2015-09-14T21:30:18Z</DateUtc></FrequencyChange></FrequencyChanges></Clock>\n	Hungry_Donkey_bar_English_2-127-1	60.017	-117	1.0.0.18	1	484580764	Standard	2.0.10.353	2.0.10.353	09-14-2015	9/14/2015 9:30:18 PM	17:30:18	2.0.10.248	100	Bar50-50.bmp	47	1	?	10r_4g.bmp	0r_4g.bmp	2r_2g.bmp	0r_2g.bmp	10r_4g.bmp				TrialProc	TrialList	0	cvbn	-999999	16	369812	0	c	528	370340	318	-357	-39	-24	-52	27	10	4	10	100	-10	0	-2	0	4	4	2	2	-10	4
Hungry_Donkey_bar_English_2	127	1	<?xml version="1.0"?>\n<Clock xmlns:dt="urn:schemas-microsoft-com:datatypes"><Description dt:dt="string">E-Prime Primary Realtime Clock</Description><StartTime><Timestamp dt:dt="int">0</Timestamp><DateUtc dt:dt="string">2015-09-14T21:30:18Z</DateUtc></StartTime><FrequencyChanges><FrequencyChange><Frequency dt:dt="r8">3507666</Frequency><Timestamp dt:dt="r8">2135083100349</Timestamp><Current dt:dt="r8">0</Current><DateUtc dt:dt="string">2015-09-14T21:30:18Z</DateUtc></FrequencyChange></FrequencyChanges></Clock>\n	Hungry_Donkey_bar_English_2-127-1	60.017	-117	1.0.0.18	1	484580764	Standard	2.0.10.353	2.0.10.353	09-14-2015	9/14/2015 9:30:18 PM	17:30:18	2.0.10.248	101	Bar50-50.bmp	47	3	?	0r_4g.bmp	0r_4g.bmp	0r_2g.bmp	0r_2g.bmp			0r_2g.bmp		TrialProc	TrialList	0	cvbn	-999999	16	372378	0	b	1338	373716	320	-357	-37	-24	-52	29	10	9	11	101	0	0	0	0	4	4	2	2	0	2
Hungry_Donkey_bar_English_2	127	1	<?xml version="1.0"?>\n<Clock xmlns:dt="urn:schemas-microsoft-com:datatypes"><Description dt:dt="string">E-Prime Primary Realtime Clock</Description><StartTime><Timestamp dt:dt="int">0</Timestamp><DateUtc dt:dt="string">2015-09-14T21:30:18Z</DateUtc></StartTime><FrequencyChanges><FrequencyChange><Frequency dt:dt="r8">3507666</Frequency><Timestamp dt:dt="r8">2135083100349</Timestamp><Current dt:dt="r8">0</Current><DateUtc dt:dt="string">2015-09-14T21:30:18Z</DateUtc></FrequencyChange></FrequencyChanges></Clock>\n	Hungry_Donkey_bar_English_2-127-1	60.017	-117	1.0.0.18	1	484580764	Standard	2.0.10.353	2.0.10.353	09-14-2015	9/14/2015 9:30:18 PM	17:30:18	2.0.10.248	102	Bar50-50.bmp	47	3	?	0r_4g.bmp	0r_4g.bmp	0r_2g.bmp	0r_2g.bmp			0r_2g.bmp		TrialProc	TrialList	0	cvbn	-999999	16	375744	0	b	772	376516	322	-357	-35	-24	-52	31	10	7	11	102	0	0	0	0	4	4	2	2	0	2
Hungry_Donkey_bar_English_2	127	1	<?xml version="1.0"?>\n<Clock xmlns:dt="urn:schemas-microsoft-com:datatypes"><Description dt:dt="string">E-Prime Primary Realtime Clock</Description><StartTime><Timestamp dt:dt="int">0</Timestamp><DateUtc dt:dt="string">2015-09-14T21:30:18Z</DateUtc></StartTime><FrequencyChanges><FrequencyChange><Frequency dt:dt="r8">3507666</Frequency><Timestamp dt:dt="r8">2135083100349</Timestamp><Current dt:dt="r8">0</Current><DateUtc dt:dt="string">2015-09-14T21:30:18Z</DateUtc></FrequencyChange></FrequencyChanges></Clock>\n	Hungry_Donkey_bar_English_2-127-1	60.017	-117	1.0.0.18	1	484580764	Standard	2.0.10.353	2.0.10.353	09-14-2015	9/14/2015 9:30:18 PM	17:30:18	2.0.10.248	103	Bar50-50.bmp	44	2	?	8r_4g.bmp	50r_4g.bmp	1r_2g.bmp	10r_2g.bmp		50r_4g.bmp			TrialProc	TrialList	0	cvbn	-999999	16	378543	0	v	501	379044	326	-407	-81	-24	-98	31	10	1	11	103	-8	-50	-1	-10	4	4	2	2	-50	4
Hungry_Donkey_bar_English_2	127	1	<?xml version="1.0"?>\n<Clock xmlns:dt="urn:schemas-microsoft-com:datatypes"><Description dt:dt="string">E-Prime Primary Realtime Clock</Description><StartTime><Timestamp dt:dt="int">0</Timestamp><DateUtc dt:dt="string">2015-09-14T21:30:18Z</DateUtc></StartTime><FrequencyChanges><FrequencyChange><Frequency dt:dt="r8">3507666</Frequency><Timestamp dt:dt="r8">2135083100349</Timestamp><Current dt:dt="r8">0</Current><DateUtc dt:dt="string">2015-09-14T21:30:18Z</DateUtc></FrequencyChange></FrequencyChanges></Clock>\n	Hungry_Donkey_bar_English_2-127-1	60.017	-117	1.0.0.18	1	484580764	Standard	2.0.10.353	2.0.10.353	09-14-2015	9/14/2015 9:30:18 PM	17:30:18	2.0.10.248	104	Bar50-50.bmp	45	2	?	0r_4g.bmp	0r_4g.bmp	0r_2g.bmp	0r_2g.bmp		0r_4g.bmp			TrialProc	TrialList	0	cvbn	-999999	16	381075	0	v	849	381924	330	-407	-77	-24	-94	31	10	6	11	104	0	0	0	0	4	4	2	2	0	4
Hungry_Donkey_bar_English_2	127	1	<?xml version="1.0"?>\n<Clock xmlns:dt="urn:schemas-microsoft-com:datatypes"><Description dt:dt="string">E-Prime Primary Realtime Clock</Description><StartTime><Timestamp dt:dt="int">0</Timestamp><DateUtc dt:dt="string">2015-09-14T21:30:18Z</DateUtc></StartTime><FrequencyChanges><FrequencyChange><Frequency dt:dt="r8">3507666</Frequency><Timestamp dt:dt="r8">2135083100349</Timestamp><Current dt:dt="r8">0</Current><DateUtc dt:dt="string">2015-09-14T21:30:18Z</DateUtc></FrequencyChange></FrequencyChanges></Clock>\n	Hungry_Donkey_bar_English_2-127-1	60.017	-117	1.0.0.18	1	484580764	Standard	2.0.10.353	2.0.10.353	09-14-2015	9/14/2015 9:30:18 PM	17:30:18	2.0.10.248	105	Bar50-50.bmp	45	2	?	0r_4g.bmp	0r_4g.bmp	0r_2g.bmp	0r_2g.bmp		0r_4g.bmp			TrialProc	TrialList	0	cvbn	-999999	16	383958	0	v	702	384660	334	-407	-73	-24	-90	31	10	8	11	105	0	0	0	0	4	4	2	2	0	4
Hungry_Donkey_bar_English_2	127	1	<?xml version="1.0"?>\n<Clock xmlns:dt="urn:schemas-microsoft-com:datatypes"><Description dt:dt="string">E-Prime Primary Realtime Clock</Description><StartTime><Timestamp dt:dt="int">0</Timestamp><DateUtc dt:dt="string">2015-09-14T21:30:18Z</DateUtc></StartTime><FrequencyChanges><FrequencyChange><Frequency dt:dt="r8">3507666</Frequency><Timestamp dt:dt="r8">2135083100349</Timestamp><Current dt:dt="r8">0</Current><DateUtc dt:dt="string">2015-09-14T21:30:18Z</DateUtc></FrequencyChange></FrequencyChanges></Clock>\n	Hungry_Donkey_bar_English_2-127-1	60.017	-117	1.0.0.18	1	484580764	Standard	2.0.10.353	2.0.10.353	09-14-2015	9/14/2015 9:30:18 PM	17:30:18	2.0.10.248	106	Bar50-50.bmp	45	2	?	12r_4g.bmp	0r_4g.bmp	3r_2g.bmp	0r_2g.bmp		0r_4g.bmp			TrialProc	TrialList	0	cvbn	-999999	17	386691	0	v	721	387412	338	-407	-69	-24	-86	31	10	5	11	106	-12	0	-3	0	4	4	2	2	0	4
Hungry_Donkey_bar_English_2	127	1	<?xml version="1.0"?>\n<Clock xmlns:dt="urn:schemas-microsoft-com:datatypes"><Description dt:dt="string">E-Prime Primary Realtime Clock</Description><StartTime><Timestamp dt:dt="int">0</Timestamp><DateUtc dt:dt="string">2015-09-14T21:30:18Z</DateUtc></StartTime><FrequencyChanges><FrequencyChange><Frequency dt:dt="r8">3507666</Frequency><Timestamp dt:dt="r8">2135083100349</Timestamp><Current dt:dt="r8">0</Current><DateUtc dt:dt="string">2015-09-14T21:30:18Z</DateUtc></FrequencyChange></FrequencyChanges></Clock>\n	Hungry_Donkey_bar_English_2-127-1	60.017	-117	1.0.0.18	1	484580764	Standard	2.0.10.353	2.0.10.353	09-14-2015	9/14/2015 9:30:18 PM	17:30:18	2.0.10.248	107	Bar50-50.bmp	46	1	?	0r_4g.bmp	0r_4g.bmp	0r_2g.bmp	0r_2g.bmp	0r_4g.bmp				TrialProc	TrialList	0	cvbn	-999999	16	389440	0	c	483	389923	342	-407	-65	-20	-86	31	10	10	11	107	0	0	0	0	4	4	2	2	0	4
Hungry_Donkey_bar_English_2	127	1	<?xml version="1.0"?>\n<Clock xmlns:dt="urn:schemas-microsoft-com:datatypes"><Description dt:dt="string">E-Prime Primary Realtime Clock</Description><StartTime><Timestamp dt:dt="int">0</Timestamp><DateUtc dt:dt="string">2015-09-14T21:30:18Z</DateUtc></StartTime><FrequencyChanges><FrequencyChange><Frequency dt:dt="r8">3507666</Frequency><Timestamp dt:dt="r8">2135083100349</Timestamp><Current dt:dt="r8">0</Current><DateUtc dt:dt="string">2015-09-14T21:30:18Z</DateUtc></FrequencyChange></FrequencyChanges></Clock>\n	Hungry_Donkey_bar_English_2-127-1	60.017	-117	1.0.0.18	1	484580764	Standard	2.0.10.353	2.0.10.353	09-14-2015	9/14/2015 9:30:18 PM	17:30:18	2.0.10.248	108	Bar50-50.bmp	46	4	?	10r_4g.bmp	0r_4g.bmp	2r_2g.bmp	0r_2g.bmp				0r_2g.bmp	TrialProc	TrialList	0	cvbn	-999999	16	391956	0	n	543	392499	344	-407	-63	-20	-86	31	12	2	11	108	-10	0	-2	0	4	4	2	2	0	2
Hungry_Donkey_bar_English_2	127	1	<?xml version="1.0"?>\n<Clock xmlns:dt="urn:schemas-microsoft-com:datatypes"><Description dt:dt="string">E-Prime Primary Realtime Clock</Description><StartTime><Timestamp dt:dt="int">0</Timestamp><DateUtc dt:dt="string">2015-09-14T21:30:18Z</DateUtc></StartTime><FrequencyChanges><FrequencyChange><Frequency dt:dt="r8">3507666</Frequency><Timestamp dt:dt="r8">2135083100349</Timestamp><Current dt:dt="r8">0</Current><DateUtc dt:dt="string">2015-09-14T21:30:18Z</DateUtc></FrequencyChange></FrequencyChanges></Clock>\n	Hungry_Donkey_bar_English_2-127-1	60.017	-117	1.0.0.18	1	484580764	Standard	2.0.10.353	2.0.10.353	09-14-2015	9/14/2015 9:30:18 PM	17:30:18	2.0.10.248	109	Bar50-50.bmp	46	3	?	10r_4g.bmp	0r_4g.bmp	2r_2g.bmp	0r_2g.bmp			2r_2g.bmp		TrialProc	TrialList	0	cvbn	-999999	16	394538	0	b	473	395011	346	-409	-63	-20	-86	31	12	3	11	109	-10	0	-2	0	4	4	2	2	-2	2
Hungry_Donkey_bar_English_2	127	1	<?xml version="1.0"?>\n<Clock xmlns:dt="urn:schemas-microsoft-com:datatypes"><Description dt:dt="string">E-Prime Primary Realtime Clock</Description><StartTime><Timestamp dt:dt="int">0</Timestamp><DateUtc dt:dt="string">2015-09-14T21:30:18Z</DateUtc></StartTime><FrequencyChanges><FrequencyChange><Frequency dt:dt="r8">3507666</Frequency><Timestamp dt:dt="r8">2135083100349</Timestamp><Current dt:dt="r8">0</Current><DateUtc dt:dt="string">2015-09-14T21:30:18Z</DateUtc></FrequencyChange></FrequencyChanges></Clock>\n	Hungry_Donkey_bar_English_2-127-1	60.017	-117	1.0.0.18	1	484580764	Standard	2.0.10.353	2.0.10.353	09-14-2015	9/14/2015 9:30:18 PM	17:30:18	2.0.10.248	110	Bar50-50.bmp	46	3	?	10r_4g.bmp	0r_4g.bmp	2r_2g.bmp	0r_2g.bmp			2r_2g.bmp		TrialProc	TrialList	0	cvbn	-999999	16	397038	0	b	437	397475	348	-411	-63	-20	-86	31	12	4	11	110	-10	0	-2	0	4	4	2	2	-2	2
Hungry_Donkey_bar_English_2	127	1	<?xml version="1.0"?>\n<Clock xmlns:dt="urn:schemas-microsoft-com:datatypes"><Description dt:dt="string">E-Prime Primary Realtime Clock</Description><StartTime><Timestamp dt:dt="int">0</Timestamp><DateUtc dt:dt="string">2015-09-14T21:30:18Z</DateUtc></StartTime><FrequencyChanges><FrequencyChange><Frequency dt:dt="r8">3507666</Frequency><Timestamp dt:dt="r8">2135083100349</Timestamp><Current dt:dt="r8">0</Current><DateUtc dt:dt="string">2015-09-14T21:30:18Z</DateUtc></FrequencyChange></FrequencyChanges></Clock>\n	Hungry_Donkey_bar_English_2-127-1	60.017	-117	1.0.0.18	1	484580764	Standard	2.0.10.353	2.0.10.353	09-14-2015	9/14/2015 9:30:18 PM	17:30:18	2.0.10.248	111	Bar50-50.bmp	46	3	?	0r_4g.bmp	0r_4g.bmp	0r_2g.bmp	0r_2g.bmp			0r_2g.bmp		TrialProc	TrialList	0	cvbn	-999999	17	399504	0	b	579	400083	350	-411	-61	-20	-86	33	12	6	12	111	0	0	0	0	4	4	2	2	0	2
