ExperimentName	Subject	Session	Clock.Information	DataFile.Basename	Display.RefreshRate	Eindtotaal[Session]	ExperimentVersion	Group	RandomSeed	RuntimeCapabilities	RuntimeVersion	RuntimeVersionExpected	SessionDate	SessionStartDateTimeUtc	SessionTime	StudioVersion	Block	BarImage	BarTotalWinst	DoorChoice	Eindtotaal[Block]	FBDoor1	FBDoor2	FBDoor3	FBDoor4	Image1	Image2	Image3	Image4	Procedure	Running	spel.ACC	spel.CRESP	spel.DurationError	spel.OnsetDelay	spel.OnsetTime	spel.OnsetToOnsetTime	spel.RESP	spel.RT	spel.RTTime	TotalGain	TotalLose	Totalsum	TotalsumD1	TotalsumD2	TotalsumD3	TotalsumD4	TrialList	TrialList.Cycle	TrialList.Sample	varV1	varV2	varV3	varV4	varW1	varW2	varW3	varW4	Verliesbedrag	Winstbedrag
Hungry_Donkey_bar_English_2	109	1	<?xml version="1.0"?>\n<Clock xmlns:dt="urn:schemas-microsoft-com:datatypes"><Description dt:dt="string">E-Prime Primary Realtime Clock</Description><StartTime><Timestamp dt:dt="int">0</Timestamp><DateUtc dt:dt="string">2015-06-18T15:33:04Z</DateUtc></StartTime><FrequencyChanges><FrequencyChange><Frequency dt:dt="r8">3507685</Frequency><Timestamp dt:dt="r8">289829818026</Timestamp><Current dt:dt="r8">0</Current><DateUtc dt:dt="string">2015-06-18T15:33:04Z</DateUtc></FrequencyChange></FrequencyChanges></Clock>\n	Hungry_Donkey_bar_English_2-109-1	60.017	99	1.0.0.18	1	2067674760	Standard	2.0.10.353	2.0.10.353	06-18-2015	6/18/2015 3:33:04 PM	11:33:04	2.0.10.248	1	Bar100-0.bmp	100	4	?	0r_4g.bmp	0r_4g.bmp	0r_2g.bmp	0r_2g.bmp				0r_2g.bmp	TrialProc	TrialList	0	cvbn	-999999	28	82366	0	n	3572	85938	2	0	2	0	0	0	2	7	1	1	0	0	0	0	4	4	2	2	0	2
Hungry_Donkey_bar_English_2	109	1	<?xml version="1.0"?>\n<Clock xmlns:dt="urn:schemas-microsoft-com:datatypes"><Description dt:dt="string">E-Prime Primary Realtime Clock</Description><StartTime><Timestamp dt:dt="int">0</Timestamp><DateUtc dt:dt="string">2015-06-18T15:33:04Z</DateUtc></StartTime><FrequencyChanges><FrequencyChange><Frequency dt:dt="r8">3507685</Frequency><Timestamp dt:dt="r8">289829818026</Timestamp><Current dt:dt="r8">0</Current><DateUtc dt:dt="string">2015-06-18T15:33:04Z</DateUtc></FrequencyChange></FrequencyChanges></Clock>\n	Hungry_Donkey_bar_English_2-109-1	60.017	99	1.0.0.18	1	2067674760	Standard	2.0.10.353	2.0.10.353	06-18-2015	6/18/2015 3:33:04 PM	11:33:04	2.0.10.248	2	Bar100-0.bmp	100	2	?	0r_4g.bmp	0r_4g.bmp	0r_2g.bmp	0r_2g.bmp		0r_4g.bmp			TrialProc	TrialList	0	cvbn	-999999	15	87964	0	v	10037	98001	6	0	6	0	4	0	2	6	1	2	0	0	0	0	4	4	2	2	0	4
Hungry_Donkey_bar_English_2	109	1	<?xml version="1.0"?>\n<Clock xmlns:dt="urn:schemas-microsoft-com:datatypes"><Description dt:dt="string">E-Prime Primary Realtime Clock</Description><StartTime><Timestamp dt:dt="int">0</Timestamp><DateUtc dt:dt="string">2015-06-18T15:33:04Z</DateUtc></StartTime><FrequencyChanges><FrequencyChange><Frequency dt:dt="r8">3507685</Frequency><Timestamp dt:dt="r8">289829818026</Timestamp><Current dt:dt="r8">0</Current><DateUtc dt:dt="string">2015-06-18T15:33:04Z</DateUtc></FrequencyChange></FrequencyChanges></Clock>\n	Hungry_Donkey_bar_English_2-109-1	60.017	99	1.0.0.18	1	2067674760	Standard	2.0.10.353	2.0.10.353	06-18-2015	6/18/2015 3:33:04 PM	11:33:04	2.0.10.248	3	Bar50-50.bmp	56	1	?	8r_4g.bmp	50r_4g.bmp	1r_2g.bmp	10r_2g.bmp	8r_4g.bmp				TrialProc	TrialList	0	cvbn	-999999	16	100044	0	c	8789	108833	10	-8	2	-4	4	0	2	1	1	3	-8	-50	-1	-10	4	4	2	2	-8	4
Hungry_Donkey_bar_English_2	109	1	<?xml version="1.0"?>\n<Clock xmlns:dt="urn:schemas-microsoft-com:datatypes"><Description dt:dt="string">E-Prime Primary Realtime Clock</Description><StartTime><Timestamp dt:dt="int">0</Timestamp><DateUtc dt:dt="string">2015-06-18T15:33:04Z</DateUtc></StartTime><FrequencyChanges><FrequencyChange><Frequency dt:dt="r8">3507685</Frequency><Timestamp dt:dt="r8">289829818026</Timestamp><Current dt:dt="r8">0</Current><DateUtc dt:dt="string">2015-06-18T15:33:04Z</DateUtc></FrequencyChange></FrequencyChanges></Clock>\n	Hungry_Donkey_bar_English_2-109-1	60.017	99	1.0.0.18	1	2067674760	Standard	2.0.10.353	2.0.10.353	06-18-2015	6/18/2015 3:33:04 PM	11:33:04	2.0.10.248	4	Bar63-37.bmp	60	3	?	0r_4g.bmp	0r_4g.bmp	0r_2g.bmp	0r_2g.bmp			0r_2g.bmp		TrialProc	TrialList	0	cvbn	-999999	16	110858	0	b	3942	114800	12	-8	4	-4	4	2	2	10	1	4	0	0	0	0	4	4	2	2	0	2
Hungry_Donkey_bar_English_2	109	1	<?xml version="1.0"?>\n<Clock xmlns:dt="urn:schemas-microsoft-com:datatypes"><Description dt:dt="string">E-Prime Primary Realtime Clock</Description><StartTime><Timestamp dt:dt="int">0</Timestamp><DateUtc dt:dt="string">2015-06-18T15:33:04Z</DateUtc></StartTime><FrequencyChanges><FrequencyChange><Frequency dt:dt="r8">3507685</Frequency><Timestamp dt:dt="r8">289829818026</Timestamp><Current dt:dt="r8">0</Current><DateUtc dt:dt="string">2015-06-18T15:33:04Z</DateUtc></FrequencyChange></FrequencyChanges></Clock>\n	Hungry_Donkey_bar_English_2-109-1	60.017	99	1.0.0.18	1	2067674760	Standard	2.0.10.353	2.0.10.353	06-18-2015	6/18/2015 3:33:04 PM	11:33:04	2.0.10.248	5	Bar63-37.bmp	67	2	?	12r_4g.bmp	0r_4g.bmp	3r_2g.bmp	0r_2g.bmp		0r_4g.bmp			TrialProc	TrialList	0	cvbn	-999999	16	116839	0	v	2345	119184	16	-8	8	-4	8	2	2	5	1	5	-12	0	-3	0	4	4	2	2	0	4
Hungry_Donkey_bar_English_2	109	1	<?xml version="1.0"?>\n<Clock xmlns:dt="urn:schemas-microsoft-com:datatypes"><Description dt:dt="string">E-Prime Primary Realtime Clock</Description><StartTime><Timestamp dt:dt="int">0</Timestamp><DateUtc dt:dt="string">2015-06-18T15:33:04Z</DateUtc></StartTime><FrequencyChanges><FrequencyChange><Frequency dt:dt="r8">3507685</Frequency><Timestamp dt:dt="r8">289829818026</Timestamp><Current dt:dt="r8">0</Current><DateUtc dt:dt="string">2015-06-18T15:33:04Z</DateUtc></FrequencyChange></FrequencyChanges></Clock>\n	Hungry_Donkey_bar_English_2-109-1	60.017	99	1.0.0.18	1	2067674760	Standard	2.0.10.353	2.0.10.353	06-18-2015	6/18/2015 3:33:04 PM	11:33:04	2.0.10.248	6	Bar63-37.bmp	69	4	?	10r_4g.bmp	0r_4g.bmp	2r_2g.bmp	0r_2g.bmp				0r_2g.bmp	TrialProc	TrialList	0	cvbn	-999999	16	121221	0	n	3707	124928	18	-8	10	-4	8	2	4	2	1	6	-10	0	-2	0	4	4	2	2	0	2
Hungry_Donkey_bar_English_2	109	1	<?xml version="1.0"?>\n<Clock xmlns:dt="urn:schemas-microsoft-com:datatypes"><Description dt:dt="string">E-Prime Primary Realtime Clock</Description><StartTime><Timestamp dt:dt="int">0</Timestamp><DateUtc dt:dt="string">2015-06-18T15:33:04Z</DateUtc></StartTime><FrequencyChanges><FrequencyChange><Frequency dt:dt="r8">3507685</Frequency><Timestamp dt:dt="r8">289829818026</Timestamp><Current dt:dt="r8">0</Current><DateUtc dt:dt="string">2015-06-18T15:33:04Z</DateUtc></FrequencyChange></FrequencyChanges></Clock>\n	Hungry_Donkey_bar_English_2-109-1	60.017	99	1.0.0.18	1	2067674760	Standard	2.0.10.353	2.0.10.353	06-18-2015	6/18/2015 3:33:04 PM	11:33:04	2.0.10.248	7	Bar75-25.bmp	73	1	?	0r_4g.bmp	0r_4g.bmp	0r_2g.bmp	0r_2g.bmp	0r_4g.bmp				TrialProc	TrialList	0	cvbn	-999999	16	126953	0	c	1799	128752	22	-8	14	0	8	2	4	9	1	7	0	0	0	0	4	4	2	2	0	4
Hungry_Donkey_bar_English_2	109	1	<?xml version="1.0"?>\n<Clock xmlns:dt="urn:schemas-microsoft-com:datatypes"><Description dt:dt="string">E-Prime Primary Realtime Clock</Description><StartTime><Timestamp dt:dt="int">0</Timestamp><DateUtc dt:dt="string">2015-06-18T15:33:04Z</DateUtc></StartTime><FrequencyChanges><FrequencyChange><Frequency dt:dt="r8">3507685</Frequency><Timestamp dt:dt="r8">289829818026</Timestamp><Current dt:dt="r8">0</Current><DateUtc dt:dt="string">2015-06-18T15:33:04Z</DateUtc></FrequencyChange></FrequencyChanges></Clock>\n	Hungry_Donkey_bar_English_2-109-1	60.017	99	1.0.0.18	1	2067674760	Standard	2.0.10.353	2.0.10.353	06-18-2015	6/18/2015 3:33:04 PM	11:33:04	2.0.10.248	8	Bar75-25.bmp	75	3	?	0r_4g.bmp	0r_4g.bmp	0r_2g.bmp	0r_2g.bmp			0r_2g.bmp		TrialProc	TrialList	0	cvbn	-999999	16	130785	0	b	1439	132224	24	-8	16	0	8	4	4	8	1	8	0	0	0	0	4	4	2	2	0	2
Hungry_Donkey_bar_English_2	109	1	<?xml version="1.0"?>\n<Clock xmlns:dt="urn:schemas-microsoft-com:datatypes"><Description dt:dt="string">E-Prime Primary Realtime Clock</Description><StartTime><Timestamp dt:dt="int">0</Timestamp><DateUtc dt:dt="string">2015-06-18T15:33:04Z</DateUtc></StartTime><FrequencyChanges><FrequencyChange><Frequency dt:dt="r8">3507685</Frequency><Timestamp dt:dt="r8">289829818026</Timestamp><Current dt:dt="r8">0</Current><DateUtc dt:dt="string">2015-06-18T15:33:04Z</DateUtc></FrequencyChange></FrequencyChanges></Clock>\n	Hungry_Donkey_bar_English_2-109-1	60.017	99	1.0.0.18	1	2067674760	Standard	2.0.10.353	2.0.10.353	06-18-2015	6/18/2015 3:33:04 PM	11:33:04	2.0.10.248	9	Bar75-25.bmp	78	2	?	10r_4g.bmp	0r_4g.bmp	2r_2g.bmp	0r_2g.bmp		0r_4g.bmp			TrialProc	TrialList	0	cvbn	-999999	16	134251	0	v	1364	135615	28	-8	20	0	12	4	4	4	1	9	-10	0	-2	0	4	4	2	2	0	4
Hungry_Donkey_bar_English_2	109	1	<?xml version="1.0"?>\n<Clock xmlns:dt="urn:schemas-microsoft-com:datatypes"><Description dt:dt="string">E-Prime Primary Realtime Clock</Description><StartTime><Timestamp dt:dt="int">0</Timestamp><DateUtc dt:dt="string">2015-06-18T15:33:04Z</DateUtc></StartTime><FrequencyChanges><FrequencyChange><Frequency dt:dt="r8">3507685</Frequency><Timestamp dt:dt="r8">289829818026</Timestamp><Current dt:dt="r8">0</Current><DateUtc dt:dt="string">2015-06-18T15:33:04Z</DateUtc></FrequencyChange></FrequencyChanges></Clock>\n	Hungry_Donkey_bar_English_2-109-1	60.017	99	1.0.0.18	1	2067674760	Standard	2.0.10.353	2.0.10.353	06-18-2015	6/18/2015 3:33:04 PM	11:33:04	2.0.10.248	10	Bar75-25.bmp	79	4	?	10r_4g.bmp	0r_4g.bmp	2r_2g.bmp	0r_2g.bmp				0r_2g.bmp	TrialProc	TrialList	0	cvbn	-999999	16	137650	0	n	2365	140015	30	-8	22	0	12	4	6	3	1	10	-10	0	-2	0	4	4	2	2	0	2
Hungry_Donkey_bar_English_2	109	1	<?xml version="1.0"?>\n<Clock xmlns:dt="urn:schemas-microsoft-com:datatypes"><Description dt:dt="string">E-Prime Primary Realtime Clock</Description><StartTime><Timestamp dt:dt="int">0</Timestamp><DateUtc dt:dt="string">2015-06-18T15:33:04Z</DateUtc></StartTime><FrequencyChanges><FrequencyChange><Frequency dt:dt="r8">3507685</Frequency><Timestamp dt:dt="r8">289829818026</Timestamp><Current dt:dt="r8">0</Current><DateUtc dt:dt="string">2015-06-18T15:33:04Z</DateUtc></FrequencyChange></FrequencyChanges></Clock>\n	Hungry_Donkey_bar_English_2-109-1	60.017	99	1.0.0.18	1	2067674760	Standard	2.0.10.353	2.0.10.353	06-18-2015	6/18/2015 3:33:04 PM	11:33:04	2.0.10.248	11	Bar75-25.bmp	81	1	?	0r_4g.bmp	0r_4g.bmp	0r_2g.bmp	0r_2g.bmp	0r_4g.bmp				TrialProc	TrialList	0	cvbn	-999999	16	142049	0	c	1390	143439	34	-8	26	4	12	4	6	10	2	11	0	0	0	0	4	4	2	2	0	4
Hungry_Donkey_bar_English_2	109	1	<?xml version="1.0"?>\n<Clock xmlns:dt="urn:schemas-microsoft-com:datatypes"><Description dt:dt="string">E-Prime Primary Realtime Clock</Description><StartTime><Timestamp dt:dt="int">0</Timestamp><DateUtc dt:dt="string">2015-06-18T15:33:04Z</DateUtc></StartTime><FrequencyChanges><FrequencyChange><Frequency dt:dt="r8">3507685</Frequency><Timestamp dt:dt="r8">289829818026</Timestamp><Current dt:dt="r8">0</Current><DateUtc dt:dt="string">2015-06-18T15:33:04Z</DateUtc></FrequencyChange></FrequencyChanges></Clock>\n	Hungry_Donkey_bar_English_2-109-1	60.017	99	1.0.0.18	1	2067674760	Standard	2.0.10.353	2.0.10.353	06-18-2015	6/18/2015 3:33:04 PM	11:33:04	2.0.10.248	12	Bar75-25.bmp	78	3	?	10r_4g.bmp	0r_4g.bmp	2r_2g.bmp	0r_2g.bmp			2r_2g.bmp		TrialProc	TrialList	0	cvbn	-999999	16	145464	0	b	199	145663	36	-10	26	4	12	4	6	3	2	12	-10	0	-2	0	4	4	2	2	-2	2
Hungry_Donkey_bar_English_2	109	1	<?xml version="1.0"?>\n<Clock xmlns:dt="urn:schemas-microsoft-com:datatypes"><Description dt:dt="string">E-Prime Primary Realtime Clock</Description><StartTime><Timestamp dt:dt="int">0</Timestamp><DateUtc dt:dt="string">2015-06-18T15:33:04Z</DateUtc></StartTime><FrequencyChanges><FrequencyChange><Frequency dt:dt="r8">3507685</Frequency><Timestamp dt:dt="r8">289829818026</Timestamp><Current dt:dt="r8">0</Current><DateUtc dt:dt="string">2015-06-18T15:33:04Z</DateUtc></FrequencyChange></FrequencyChanges></Clock>\n	Hungry_Donkey_bar_English_2-109-1	60.017	99	1.0.0.18	1	2067674760	Standard	2.0.10.353	2.0.10.353	06-18-2015	6/18/2015 3:33:04 PM	11:33:04	2.0.10.248	13	Bar63-37.bmp	66	4	?	8r_4g.bmp	50r_4g.bmp	1r_2g.bmp	10r_2g.bmp				10r_2g.bmp	TrialProc	TrialList	0	cvbn	-999999	16	147697	0	n	1278	148975	38	-20	18	4	12	4	-2	1	2	13	-8	-50	-1	-10	4	4	2	2	-10	2
Hungry_Donkey_bar_English_2	109	1	<?xml version="1.0"?>\n<Clock xmlns:dt="urn:schemas-microsoft-com:datatypes"><Description dt:dt="string">E-Prime Primary Realtime Clock</Description><StartTime><Timestamp dt:dt="int">0</Timestamp><DateUtc dt:dt="string">2015-06-18T15:33:04Z</DateUtc></StartTime><FrequencyChanges><FrequencyChange><Frequency dt:dt="r8">3507685</Frequency><Timestamp dt:dt="r8">289829818026</Timestamp><Current dt:dt="r8">0</Current><DateUtc dt:dt="string">2015-06-18T15:33:04Z</DateUtc></FrequencyChange></FrequencyChanges></Clock>\n	Hungry_Donkey_bar_English_2-109-1	60.017	99	1.0.0.18	1	2067674760	Standard	2.0.10.353	2.0.10.353	06-18-2015	6/18/2015 3:33:04 PM	11:33:04	2.0.10.248	14	Bar63-37.bmp	67	3	?	0r_4g.bmp	0r_4g.bmp	0r_2g.bmp	0r_2g.bmp			0r_2g.bmp		TrialProc	TrialList	0	cvbn	-999999	16	151013	0	b	1402	152415	40	-20	20	4	12	6	-2	7	2	14	0	0	0	0	4	4	2	2	0	2
Hungry_Donkey_bar_English_2	109	1	<?xml version="1.0"?>\n<Clock xmlns:dt="urn:schemas-microsoft-com:datatypes"><Description dt:dt="string">E-Prime Primary Realtime Clock</Description><StartTime><Timestamp dt:dt="int">0</Timestamp><DateUtc dt:dt="string">2015-06-18T15:33:04Z</DateUtc></StartTime><FrequencyChanges><FrequencyChange><Frequency dt:dt="r8">3507685</Frequency><Timestamp dt:dt="r8">289829818026</Timestamp><Current dt:dt="r8">0</Current><DateUtc dt:dt="string">2015-06-18T15:33:04Z</DateUtc></FrequencyChange></FrequencyChanges></Clock>\n	Hungry_Donkey_bar_English_2-109-1	60.017	99	1.0.0.18	1	2067674760	Standard	2.0.10.353	2.0.10.353	06-18-2015	6/18/2015 3:33:04 PM	11:33:04	2.0.10.248	15	Bar63-37.bmp	68	3	?	0r_4g.bmp	0r_4g.bmp	0r_2g.bmp	0r_2g.bmp			0r_2g.bmp		TrialProc	TrialList	0	cvbn	-999999	16	154445	0	b	609	155054	42	-20	22	4	12	8	-2	6	2	15	0	0	0	0	4	4	2	2	0	2
Hungry_Donkey_bar_English_2	109	1	<?xml version="1.0"?>\n<Clock xmlns:dt="urn:schemas-microsoft-com:datatypes"><Description dt:dt="string">E-Prime Primary Realtime Clock</Description><StartTime><Timestamp dt:dt="int">0</Timestamp><DateUtc dt:dt="string">2015-06-18T15:33:04Z</DateUtc></StartTime><FrequencyChanges><FrequencyChange><Frequency dt:dt="r8">3507685</Frequency><Timestamp dt:dt="r8">289829818026</Timestamp><Current dt:dt="r8">0</Current><DateUtc dt:dt="string">2015-06-18T15:33:04Z</DateUtc></FrequencyChange></FrequencyChanges></Clock>\n	Hungry_Donkey_bar_English_2-109-1	60.017	99	1.0.0.18	1	2067674760	Standard	2.0.10.353	2.0.10.353	06-18-2015	6/18/2015 3:33:04 PM	11:33:04	2.0.10.248	16	Bar63-37.bmp	67	3	?	10r_4g.bmp	0r_4g.bmp	2r_2g.bmp	0r_2g.bmp			2r_2g.bmp		TrialProc	TrialList	0	cvbn	-999999	16	157094	0	b	536	157630	44	-22	22	4	12	8	-2	2	2	16	-10	0	-2	0	4	4	2	2	-2	2
Hungry_Donkey_bar_English_2	109	1	<?xml version="1.0"?>\n<Clock xmlns:dt="urn:schemas-microsoft-com:datatypes"><Description dt:dt="string">E-Prime Primary Realtime Clock</Description><StartTime><Timestamp dt:dt="int">0</Timestamp><DateUtc dt:dt="string">2015-06-18T15:33:04Z</DateUtc></StartTime><FrequencyChanges><FrequencyChange><Frequency dt:dt="r8">3507685</Frequency><Timestamp dt:dt="r8">289829818026</Timestamp><Current dt:dt="r8">0</Current><DateUtc dt:dt="string">2015-06-18T15:33:04Z</DateUtc></FrequencyChange></FrequencyChanges></Clock>\n	Hungry_Donkey_bar_English_2-109-1	60.017	99	1.0.0.18	1	2067674760	Standard	2.0.10.353	2.0.10.353	06-18-2015	6/18/2015 3:33:04 PM	11:33:04	2.0.10.248	17	Bar63-37.bmp	68	4	?	0r_4g.bmp	0r_4g.bmp	0r_2g.bmp	0r_2g.bmp				0r_2g.bmp	TrialProc	TrialList	0	cvbn	-999999	16	159660	0	n	1938	161598	46	-22	24	4	12	8	0	9	2	17	0	0	0	0	4	4	2	2	0	2
Hungry_Donkey_bar_English_2	109	1	<?xml version="1.0"?>\n<Clock xmlns:dt="urn:schemas-microsoft-com:datatypes"><Description dt:dt="string">E-Prime Primary Realtime Clock</Description><StartTime><Timestamp dt:dt="int">0</Timestamp><DateUtc dt:dt="string">2015-06-18T15:33:04Z</DateUtc></StartTime><FrequencyChanges><FrequencyChange><Frequency dt:dt="r8">3507685</Frequency><Timestamp dt:dt="r8">289829818026</Timestamp><Current dt:dt="r8">0</Current><DateUtc dt:dt="string">2015-06-18T15:33:04Z</DateUtc></FrequencyChange></FrequencyChanges></Clock>\n	Hungry_Donkey_bar_English_2-109-1	60.017	99	1.0.0.18	1	2067674760	Standard	2.0.10.353	2.0.10.353	06-18-2015	6/18/2015 3:33:04 PM	11:33:04	2.0.10.248	18	Bar63-37.bmp	69	4	?	10r_4g.bmp	0r_4g.bmp	2r_2g.bmp	0r_2g.bmp				0r_2g.bmp	TrialProc	TrialList	0	cvbn	-999999	16	163626	0	n	2804	166430	48	-22	26	4	12	8	2	4	2	18	-10	0	-2	0	4	4	2	2	0	2
Hungry_Donkey_bar_English_2	109	1	<?xml version="1.0"?>\n<Clock xmlns:dt="urn:schemas-microsoft-com:datatypes"><Description dt:dt="string">E-Prime Primary Realtime Clock</Description><StartTime><Timestamp dt:dt="int">0</Timestamp><DateUtc dt:dt="string">2015-06-18T15:33:04Z</DateUtc></StartTime><FrequencyChanges><FrequencyChange><Frequency dt:dt="r8">3507685</Frequency><Timestamp dt:dt="r8">289829818026</Timestamp><Current dt:dt="r8">0</Current><DateUtc dt:dt="string">2015-06-18T15:33:04Z</DateUtc></FrequencyChange></FrequencyChanges></Clock>\n	Hungry_Donkey_bar_English_2-109-1	60.017	99	1.0.0.18	1	2067674760	Standard	2.0.10.353	2.0.10.353	06-18-2015	6/18/2015 3:33:04 PM	11:33:04	2.0.10.248	19	Bar63-37.bmp	67	3	?	12r_4g.bmp	0r_4g.bmp	3r_2g.bmp	0r_2g.bmp			3r_2g.bmp		TrialProc	TrialList	0	cvbn	-999999	16	168458	0	b	1684	170142	50	-25	25	4	12	7	2	5	2	19	-12	0	-3	0	4	4	2	2	-3	2
Hungry_Donkey_bar_English_2	109	1	<?xml version="1.0"?>\n<Clock xmlns:dt="urn:schemas-microsoft-com:datatypes"><Description dt:dt="string">E-Prime Primary Realtime Clock</Description><StartTime><Timestamp dt:dt="int">0</Timestamp><DateUtc dt:dt="string">2015-06-18T15:33:04Z</DateUtc></StartTime><FrequencyChanges><FrequencyChange><Frequency dt:dt="r8">3507685</Frequency><Timestamp dt:dt="r8">289829818026</Timestamp><Current dt:dt="r8">0</Current><DateUtc dt:dt="string">2015-06-18T15:33:04Z</DateUtc></FrequencyChange></FrequencyChanges></Clock>\n	Hungry_Donkey_bar_English_2-109-1	60.017	99	1.0.0.18	1	2067674760	Standard	2.0.10.353	2.0.10.353	06-18-2015	6/18/2015 3:33:04 PM	11:33:04	2.0.10.248	20	Bar63-37.bmp	68	2	?	0r_4g.bmp	0r_4g.bmp	0r_2g.bmp	0r_2g.bmp		0r_4g.bmp			TrialProc	TrialList	0	cvbn	-999999	16	172173	0	v	673	172846	54	-25	29	4	16	7	2	8	2	20	0	0	0	0	4	4	2	2	0	4
Hungry_Donkey_bar_English_2	109	1	<?xml version="1.0"?>\n<Clock xmlns:dt="urn:schemas-microsoft-com:datatypes"><Description dt:dt="string">E-Prime Primary Realtime Clock</Description><StartTime><Timestamp dt:dt="int">0</Timestamp><DateUtc dt:dt="string">2015-06-18T15:33:04Z</DateUtc></StartTime><FrequencyChanges><FrequencyChange><Frequency dt:dt="r8">3507685</Frequency><Timestamp dt:dt="r8">289829818026</Timestamp><Current dt:dt="r8">0</Current><DateUtc dt:dt="string">2015-06-18T15:33:04Z</DateUtc></FrequencyChange></FrequencyChanges></Clock>\n	Hungry_Donkey_bar_English_2-109-1	60.017	99	1.0.0.18	1	2067674760	Standard	2.0.10.353	2.0.10.353	06-18-2015	6/18/2015 3:33:04 PM	11:33:04	2.0.10.248	21	Bar63-37.bmp	61	1	?	12r_4g.bmp	0r_4g.bmp	3r_2g.bmp	0r_2g.bmp	12r_4g.bmp				TrialProc	TrialList	0	cvbn	-999999	16	174873	0	c	1492	176365	58	-37	21	-4	16	7	2	5	3	21	-12	0	-3	0	4	4	2	2	-12	4
Hungry_Donkey_bar_English_2	109	1	<?xml version="1.0"?>\n<Clock xmlns:dt="urn:schemas-microsoft-com:datatypes"><Description dt:dt="string">E-Prime Primary Realtime Clock</Description><StartTime><Timestamp dt:dt="int">0</Timestamp><DateUtc dt:dt="string">2015-06-18T15:33:04Z</DateUtc></StartTime><FrequencyChanges><FrequencyChange><Frequency dt:dt="r8">3507685</Frequency><Timestamp dt:dt="r8">289829818026</Timestamp><Current dt:dt="r8">0</Current><DateUtc dt:dt="string">2015-06-18T15:33:04Z</DateUtc></FrequencyChange></FrequencyChanges></Clock>\n	Hungry_Donkey_bar_English_2-109-1	60.017	99	1.0.0.18	1	2067674760	Standard	2.0.10.353	2.0.10.353	06-18-2015	6/18/2015 3:33:04 PM	11:33:04	2.0.10.248	22	Bar63-37.bmp	62	4	?	10r_4g.bmp	0r_4g.bmp	2r_2g.bmp	0r_2g.bmp				0r_2g.bmp	TrialProc	TrialList	0	cvbn	-999999	16	178405	0	n	7704	186109	60	-37	23	-4	16	7	4	3	3	22	-10	0	-2	0	4	4	2	2	0	2
Hungry_Donkey_bar_English_2	109	1	<?xml version="1.0"?>\n<Clock xmlns:dt="urn:schemas-microsoft-com:datatypes"><Description dt:dt="string">E-Prime Primary Realtime Clock</Description><StartTime><Timestamp dt:dt="int">0</Timestamp><DateUtc dt:dt="string">2015-06-18T15:33:04Z</DateUtc></StartTime><FrequencyChanges><FrequencyChange><Frequency dt:dt="r8">3507685</Frequency><Timestamp dt:dt="r8">289829818026</Timestamp><Current dt:dt="r8">0</Current><DateUtc dt:dt="string">2015-06-18T15:33:04Z</DateUtc></FrequencyChange></FrequencyChanges></Clock>\n	Hungry_Donkey_bar_English_2-109-1	60.017	99	1.0.0.18	1	2067674760	Standard	2.0.10.353	2.0.10.353	06-18-2015	6/18/2015 3:33:04 PM	11:33:04	2.0.10.248	23	Bar63-37.bmp	63	3	?	0r_4g.bmp	0r_4g.bmp	0r_2g.bmp	0r_2g.bmp			0r_2g.bmp		TrialProc	TrialList	0	cvbn	-999999	16	188135	0	b	2070	190205	62	-37	25	-4	16	9	4	10	3	23	0	0	0	0	4	4	2	2	0	2
Hungry_Donkey_bar_English_2	109	1	<?xml version="1.0"?>\n<Clock xmlns:dt="urn:schemas-microsoft-com:datatypes"><Description dt:dt="string">E-Prime Primary Realtime Clock</Description><StartTime><Timestamp dt:dt="int">0</Timestamp><DateUtc dt:dt="string">2015-06-18T15:33:04Z</DateUtc></StartTime><FrequencyChanges><FrequencyChange><Frequency dt:dt="r8">3507685</Frequency><Timestamp dt:dt="r8">289829818026</Timestamp><Current dt:dt="r8">0</Current><DateUtc dt:dt="string">2015-06-18T15:33:04Z</DateUtc></FrequencyChange></FrequencyChanges></Clock>\n	Hungry_Donkey_bar_English_2-109-1	60.017	99	1.0.0.18	1	2067674760	Standard	2.0.10.353	2.0.10.353	06-18-2015	6/18/2015 3:33:04 PM	11:33:04	2.0.10.248	24	Bar63-37.bmp	64	2	?	10r_4g.bmp	0r_4g.bmp	2r_2g.bmp	0r_2g.bmp		0r_4g.bmp			TrialProc	TrialList	0	cvbn	-999999	16	192234	0	v	1346	193580	66	-37	29	-4	20	9	4	4	3	24	-10	0	-2	0	4	4	2	2	0	4
Hungry_Donkey_bar_English_2	109	1	<?xml version="1.0"?>\n<Clock xmlns:dt="urn:schemas-microsoft-com:datatypes"><Description dt:dt="string">E-Prime Primary Realtime Clock</Description><StartTime><Timestamp dt:dt="int">0</Timestamp><DateUtc dt:dt="string">2015-06-18T15:33:04Z</DateUtc></StartTime><FrequencyChanges><FrequencyChange><Frequency dt:dt="r8">3507685</Frequency><Timestamp dt:dt="r8">289829818026</Timestamp><Current dt:dt="r8">0</Current><DateUtc dt:dt="string">2015-06-18T15:33:04Z</DateUtc></FrequencyChange></FrequencyChanges></Clock>\n	Hungry_Donkey_bar_English_2-109-1	60.017	99	1.0.0.18	1	2067674760	Standard	2.0.10.353	2.0.10.353	06-18-2015	6/18/2015 3:33:04 PM	11:33:04	2.0.10.248	25	Bar63-37.bmp	65	1	?	0r_4g.bmp	0r_4g.bmp	0r_2g.bmp	0r_2g.bmp	0r_4g.bmp				TrialProc	TrialList	0	cvbn	-999999	16	195617	0	c	459	196076	70	-37	33	0	20	9	4	9	3	25	0	0	0	0	4	4	2	2	0	4
Hungry_Donkey_bar_English_2	109	1	<?xml version="1.0"?>\n<Clock xmlns:dt="urn:schemas-microsoft-com:datatypes"><Description dt:dt="string">E-Prime Primary Realtime Clock</Description><StartTime><Timestamp dt:dt="int">0</Timestamp><DateUtc dt:dt="string">2015-06-18T15:33:04Z</DateUtc></StartTime><FrequencyChanges><FrequencyChange><Frequency dt:dt="r8">3507685</Frequency><Timestamp dt:dt="r8">289829818026</Timestamp><Current dt:dt="r8">0</Current><DateUtc dt:dt="string">2015-06-18T15:33:04Z</DateUtc></FrequencyChange></FrequencyChanges></Clock>\n	Hungry_Donkey_bar_English_2-109-1	60.017	99	1.0.0.18	1	2067674760	Standard	2.0.10.353	2.0.10.353	06-18-2015	6/18/2015 3:33:04 PM	11:33:04	2.0.10.248	26	Bar63-37.bmp	61	4	?	8r_4g.bmp	50r_4g.bmp	1r_2g.bmp	10r_2g.bmp				10r_2g.bmp	TrialProc	TrialList	0	cvbn	-999999	15	198099	0	n	2345	200444	72	-47	25	0	20	9	-4	1	3	26	-8	-50	-1	-10	4	4	2	2	-10	2
Hungry_Donkey_bar_English_2	109	1	<?xml version="1.0"?>\n<Clock xmlns:dt="urn:schemas-microsoft-com:datatypes"><Description dt:dt="string">E-Prime Primary Realtime Clock</Description><StartTime><Timestamp dt:dt="int">0</Timestamp><DateUtc dt:dt="string">2015-06-18T15:33:04Z</DateUtc></StartTime><FrequencyChanges><FrequencyChange><Frequency dt:dt="r8">3507685</Frequency><Timestamp dt:dt="r8">289829818026</Timestamp><Current dt:dt="r8">0</Current><DateUtc dt:dt="string">2015-06-18T15:33:04Z</DateUtc></FrequencyChange></FrequencyChanges></Clock>\n	Hungry_Donkey_bar_English_2-109-1	60.017	99	1.0.0.18	1	2067674760	Standard	2.0.10.353	2.0.10.353	06-18-2015	6/18/2015 3:33:04 PM	11:33:04	2.0.10.248	27	Bar63-37.bmp	62	1	?	0r_4g.bmp	0r_4g.bmp	0r_2g.bmp	0r_2g.bmp	0r_4g.bmp				TrialProc	TrialList	0	cvbn	-999999	16	202481	0	c	1131	203612	76	-47	29	4	20	9	-4	7	3	27	0	0	0	0	4	4	2	2	0	4
Hungry_Donkey_bar_English_2	109	1	<?xml version="1.0"?>\n<Clock xmlns:dt="urn:schemas-microsoft-com:datatypes"><Description dt:dt="string">E-Prime Primary Realtime Clock</Description><StartTime><Timestamp dt:dt="int">0</Timestamp><DateUtc dt:dt="string">2015-06-18T15:33:04Z</DateUtc></StartTime><FrequencyChanges><FrequencyChange><Frequency dt:dt="r8">3507685</Frequency><Timestamp dt:dt="r8">289829818026</Timestamp><Current dt:dt="r8">0</Current><DateUtc dt:dt="string">2015-06-18T15:33:04Z</DateUtc></FrequencyChange></FrequencyChanges></Clock>\n	Hungry_Donkey_bar_English_2-109-1	60.017	99	1.0.0.18	1	2067674760	Standard	2.0.10.353	2.0.10.353	06-18-2015	6/18/2015 3:33:04 PM	11:33:04	2.0.10.248	28	Bar63-37.bmp	63	2	?	0r_4g.bmp	0r_4g.bmp	0r_2g.bmp	0r_2g.bmp		0r_4g.bmp			TrialProc	TrialList	0	cvbn	-999999	16	205647	0	v	1277	206924	80	-47	33	4	24	9	-4	8	3	28	0	0	0	0	4	4	2	2	0	4
Hungry_Donkey_bar_English_2	109	1	<?xml version="1.0"?>\n<Clock xmlns:dt="urn:schemas-microsoft-com:datatypes"><Description dt:dt="string">E-Prime Primary Realtime Clock</Description><StartTime><Timestamp dt:dt="int">0</Timestamp><DateUtc dt:dt="string">2015-06-18T15:33:04Z</DateUtc></StartTime><FrequencyChanges><FrequencyChange><Frequency dt:dt="r8">3507685</Frequency><Timestamp dt:dt="r8">289829818026</Timestamp><Current dt:dt="r8">0</Current><DateUtc dt:dt="string">2015-06-18T15:33:04Z</DateUtc></FrequencyChange></FrequencyChanges></Clock>\n	Hungry_Donkey_bar_English_2-109-1	60.017	99	1.0.0.18	1	2067674760	Standard	2.0.10.353	2.0.10.353	06-18-2015	6/18/2015 3:33:04 PM	11:33:04	2.0.10.248	29	Bar63-37.bmp	64	3	?	0r_4g.bmp	0r_4g.bmp	0r_2g.bmp	0r_2g.bmp			0r_2g.bmp		TrialProc	TrialList	0	cvbn	-999999	16	208963	0	b	825	209788	82	-47	35	4	24	11	-4	6	3	29	0	0	0	0	4	4	2	2	0	2
Hungry_Donkey_bar_English_2	109	1	<?xml version="1.0"?>\n<Clock xmlns:dt="urn:schemas-microsoft-com:datatypes"><Description dt:dt="string">E-Prime Primary Realtime Clock</Description><StartTime><Timestamp dt:dt="int">0</Timestamp><DateUtc dt:dt="string">2015-06-18T15:33:04Z</DateUtc></StartTime><FrequencyChanges><FrequencyChange><Frequency dt:dt="r8">3507685</Frequency><Timestamp dt:dt="r8">289829818026</Timestamp><Current dt:dt="r8">0</Current><DateUtc dt:dt="string">2015-06-18T15:33:04Z</DateUtc></FrequencyChange></FrequencyChanges></Clock>\n	Hungry_Donkey_bar_English_2-109-1	60.017	99	1.0.0.18	1	2067674760	Standard	2.0.10.353	2.0.10.353	06-18-2015	6/18/2015 3:33:04 PM	11:33:04	2.0.10.248	30	Bar63-37.bmp	64	4	?	10r_4g.bmp	0r_4g.bmp	2r_2g.bmp	0r_2g.bmp				0r_2g.bmp	TrialProc	TrialList	0	cvbn	-999999	16	211812	0	n	1015	212827	84	-47	37	4	24	11	-2	2	3	30	-10	0	-2	0	4	4	2	2	0	2
Hungry_Donkey_bar_English_2	109	1	<?xml version="1.0"?>\n<Clock xmlns:dt="urn:schemas-microsoft-com:datatypes"><Description dt:dt="string">E-Prime Primary Realtime Clock</Description><StartTime><Timestamp dt:dt="int">0</Timestamp><DateUtc dt:dt="string">2015-06-18T15:33:04Z</DateUtc></StartTime><FrequencyChanges><FrequencyChange><Frequency dt:dt="r8">3507685</Frequency><Timestamp dt:dt="r8">289829818026</Timestamp><Current dt:dt="r8">0</Current><DateUtc dt:dt="string">2015-06-18T15:33:04Z</DateUtc></FrequencyChange></FrequencyChanges></Clock>\n	Hungry_Donkey_bar_English_2-109-1	60.017	99	1.0.0.18	1	2067674760	Standard	2.0.10.353	2.0.10.353	06-18-2015	6/18/2015 3:33:04 PM	11:33:04	2.0.10.248	31	Bar50-50.bmp	48	2	?	8r_4g.bmp	50r_4g.bmp	1r_2g.bmp	10r_2g.bmp		50r_4g.bmp			TrialProc	TrialList	0	cvbn	-999999	16	214861	0	v	798	215659	88	-97	-9	4	-22	11	-2	1	4	31	-8	-50	-1	-10	4	4	2	2	-50	4
Hungry_Donkey_bar_English_2	109	1	<?xml version="1.0"?>\n<Clock xmlns:dt="urn:schemas-microsoft-com:datatypes"><Description dt:dt="string">E-Prime Primary Realtime Clock</Description><StartTime><Timestamp dt:dt="int">0</Timestamp><DateUtc dt:dt="string">2015-06-18T15:33:04Z</DateUtc></StartTime><FrequencyChanges><FrequencyChange><Frequency dt:dt="r8">3507685</Frequency><Timestamp dt:dt="r8">289829818026</Timestamp><Current dt:dt="r8">0</Current><DateUtc dt:dt="string">2015-06-18T15:33:04Z</DateUtc></FrequencyChange></FrequencyChanges></Clock>\n	Hungry_Donkey_bar_English_2-109-1	60.017	99	1.0.0.18	1	2067674760	Standard	2.0.10.353	2.0.10.353	06-18-2015	6/18/2015 3:33:04 PM	11:33:04	2.0.10.248	32	Bar50-50.bmp	48	4	?	0r_4g.bmp	0r_4g.bmp	0r_2g.bmp	0r_2g.bmp				0r_2g.bmp	TrialProc	TrialList	0	cvbn	-999999	17	217694	0	n	3245	220939	90	-97	-7	4	-22	11	0	7	4	32	0	0	0	0	4	4	2	2	0	2
Hungry_Donkey_bar_English_2	109	1	<?xml version="1.0"?>\n<Clock xmlns:dt="urn:schemas-microsoft-com:datatypes"><Description dt:dt="string">E-Prime Primary Realtime Clock</Description><StartTime><Timestamp dt:dt="int">0</Timestamp><DateUtc dt:dt="string">2015-06-18T15:33:04Z</DateUtc></StartTime><FrequencyChanges><FrequencyChange><Frequency dt:dt="r8">3507685</Frequency><Timestamp dt:dt="r8">289829818026</Timestamp><Current dt:dt="r8">0</Current><DateUtc dt:dt="string">2015-06-18T15:33:04Z</DateUtc></FrequencyChange></FrequencyChanges></Clock>\n	Hungry_Donkey_bar_English_2-109-1	60.017	99	1.0.0.18	1	2067674760	Standard	2.0.10.353	2.0.10.353	06-18-2015	6/18/2015 3:33:04 PM	11:33:04	2.0.10.248	33	Bar50-50.bmp	49	3	?	0r_4g.bmp	0r_4g.bmp	0r_2g.bmp	0r_2g.bmp			0r_2g.bmp		TrialProc	TrialList	0	cvbn	-999999	16	222975	0	b	1596	224571	92	-97	-5	4	-22	13	0	8	4	33	0	0	0	0	4	4	2	2	0	2
Hungry_Donkey_bar_English_2	109	1	<?xml version="1.0"?>\n<Clock xmlns:dt="urn:schemas-microsoft-com:datatypes"><Description dt:dt="string">E-Prime Primary Realtime Clock</Description><StartTime><Timestamp dt:dt="int">0</Timestamp><DateUtc dt:dt="string">2015-06-18T15:33:04Z</DateUtc></StartTime><FrequencyChanges><FrequencyChange><Frequency dt:dt="r8">3507685</Frequency><Timestamp dt:dt="r8">289829818026</Timestamp><Current dt:dt="r8">0</Current><DateUtc dt:dt="string">2015-06-18T15:33:04Z</DateUtc></FrequencyChange></FrequencyChanges></Clock>\n	Hungry_Donkey_bar_English_2-109-1	60.017	99	1.0.0.18	1	2067674760	Standard	2.0.10.353	2.0.10.353	06-18-2015	6/18/2015 3:33:04 PM	11:33:04	2.0.10.248	34	Bar50-50.bmp	50	2	?	12r_4g.bmp	0r_4g.bmp	3r_2g.bmp	0r_2g.bmp		0r_4g.bmp			TrialProc	TrialList	0	cvbn	-999999	16	226608	0	v	571	227179	96	-97	-1	4	-18	13	0	5	4	34	-12	0	-3	0	4	4	2	2	0	4
Hungry_Donkey_bar_English_2	109	1	<?xml version="1.0"?>\n<Clock xmlns:dt="urn:schemas-microsoft-com:datatypes"><Description dt:dt="string">E-Prime Primary Realtime Clock</Description><StartTime><Timestamp dt:dt="int">0</Timestamp><DateUtc dt:dt="string">2015-06-18T15:33:04Z</DateUtc></StartTime><FrequencyChanges><FrequencyChange><Frequency dt:dt="r8">3507685</Frequency><Timestamp dt:dt="r8">289829818026</Timestamp><Current dt:dt="r8">0</Current><DateUtc dt:dt="string">2015-06-18T15:33:04Z</DateUtc></FrequencyChange></FrequencyChanges></Clock>\n	Hungry_Donkey_bar_English_2-109-1	60.017	99	1.0.0.18	1	2067674760	Standard	2.0.10.353	2.0.10.353	06-18-2015	6/18/2015 3:33:04 PM	11:33:04	2.0.10.248	35	Bar50-50.bmp	50	3	?	0r_4g.bmp	0r_4g.bmp	0r_2g.bmp	0r_2g.bmp			0r_2g.bmp		TrialProc	TrialList	0	cvbn	-999999	16	229207	0	b	17187	246394	98	-97	1	4	-18	15	0	9	4	35	0	0	0	0	4	4	2	2	0	2
Hungry_Donkey_bar_English_2	109	1	<?xml version="1.0"?>\n<Clock xmlns:dt="urn:schemas-microsoft-com:datatypes"><Description dt:dt="string">E-Prime Primary Realtime Clock</Description><StartTime><Timestamp dt:dt="int">0</Timestamp><DateUtc dt:dt="string">2015-06-18T15:33:04Z</DateUtc></StartTime><FrequencyChanges><FrequencyChange><Frequency dt:dt="r8">3507685</Frequency><Timestamp dt:dt="r8">289829818026</Timestamp><Current dt:dt="r8">0</Current><DateUtc dt:dt="string">2015-06-18T15:33:04Z</DateUtc></FrequencyChange></FrequencyChanges></Clock>\n	Hungry_Donkey_bar_English_2-109-1	60.017	99	1.0.0.18	1	2067674760	Standard	2.0.10.353	2.0.10.353	06-18-2015	6/18/2015 3:33:04 PM	11:33:04	2.0.10.248	36	Bar50-50.bmp	51	2	?	0r_4g.bmp	0r_4g.bmp	0r_2g.bmp	0r_2g.bmp		0r_4g.bmp			TrialProc	TrialList	0	cvbn	-999999	16	248435	0	v	1335	249770	102	-97	5	4	-14	15	0	10	4	36	0	0	0	0	4	4	2	2	0	4
Hungry_Donkey_bar_English_2	109	1	<?xml version="1.0"?>\n<Clock xmlns:dt="urn:schemas-microsoft-com:datatypes"><Description dt:dt="string">E-Prime Primary Realtime Clock</Description><StartTime><Timestamp dt:dt="int">0</Timestamp><DateUtc dt:dt="string">2015-06-18T15:33:04Z</DateUtc></StartTime><FrequencyChanges><FrequencyChange><Frequency dt:dt="r8">3507685</Frequency><Timestamp dt:dt="r8">289829818026</Timestamp><Current dt:dt="r8">0</Current><DateUtc dt:dt="string">2015-06-18T15:33:04Z</DateUtc></FrequencyChange></FrequencyChanges></Clock>\n	Hungry_Donkey_bar_English_2-109-1	60.017	99	1.0.0.18	1	2067674760	Standard	2.0.10.353	2.0.10.353	06-18-2015	6/18/2015 3:33:04 PM	11:33:04	2.0.10.248	37	Bar50-50.bmp	51	3	?	10r_4g.bmp	0r_4g.bmp	2r_2g.bmp	0r_2g.bmp			2r_2g.bmp		TrialProc	TrialList	0	cvbn	-999999	16	251800	0	b	1457	253257	104	-99	5	4	-14	15	0	2	4	37	-10	0	-2	0	4	4	2	2	-2	2
Hungry_Donkey_bar_English_2	109	1	<?xml version="1.0"?>\n<Clock xmlns:dt="urn:schemas-microsoft-com:datatypes"><Description dt:dt="string">E-Prime Primary Realtime Clock</Description><StartTime><Timestamp dt:dt="int">0</Timestamp><DateUtc dt:dt="string">2015-06-18T15:33:04Z</DateUtc></StartTime><FrequencyChanges><FrequencyChange><Frequency dt:dt="r8">3507685</Frequency><Timestamp dt:dt="r8">289829818026</Timestamp><Current dt:dt="r8">0</Current><DateUtc dt:dt="string">2015-06-18T15:33:04Z</DateUtc></FrequencyChange></FrequencyChanges></Clock>\n	Hungry_Donkey_bar_English_2-109-1	60.017	99	1.0.0.18	1	2067674760	Standard	2.0.10.353	2.0.10.353	06-18-2015	6/18/2015 3:33:04 PM	11:33:04	2.0.10.248	38	Bar50-50.bmp	52	4	?	0r_4g.bmp	0r_4g.bmp	0r_2g.bmp	0r_2g.bmp				0r_2g.bmp	TrialProc	TrialList	0	cvbn	-999999	16	255299	0	n	1126	256425	106	-99	7	4	-14	15	2	6	4	38	0	0	0	0	4	4	2	2	0	2
Hungry_Donkey_bar_English_2	109	1	<?xml version="1.0"?>\n<Clock xmlns:dt="urn:schemas-microsoft-com:datatypes"><Description dt:dt="string">E-Prime Primary Realtime Clock</Description><StartTime><Timestamp dt:dt="int">0</Timestamp><DateUtc dt:dt="string">2015-06-18T15:33:04Z</DateUtc></StartTime><FrequencyChanges><FrequencyChange><Frequency dt:dt="r8">3507685</Frequency><Timestamp dt:dt="r8">289829818026</Timestamp><Current dt:dt="r8">0</Current><DateUtc dt:dt="string">2015-06-18T15:33:04Z</DateUtc></FrequencyChange></FrequencyChanges></Clock>\n	Hungry_Donkey_bar_English_2-109-1	60.017	99	1.0.0.18	1	2067674760	Standard	2.0.10.353	2.0.10.353	06-18-2015	6/18/2015 3:33:04 PM	11:33:04	2.0.10.248	39	Bar50-50.bmp	52	3	?	10r_4g.bmp	0r_4g.bmp	2r_2g.bmp	0r_2g.bmp			2r_2g.bmp		TrialProc	TrialList	0	cvbn	-999999	16	258465	0	b	744	259209	108	-101	7	4	-14	15	2	4	4	39	-10	0	-2	0	4	4	2	2	-2	2
Hungry_Donkey_bar_English_2	109	1	<?xml version="1.0"?>\n<Clock xmlns:dt="urn:schemas-microsoft-com:datatypes"><Description dt:dt="string">E-Prime Primary Realtime Clock</Description><StartTime><Timestamp dt:dt="int">0</Timestamp><DateUtc dt:dt="string">2015-06-18T15:33:04Z</DateUtc></StartTime><FrequencyChanges><FrequencyChange><Frequency dt:dt="r8">3507685</Frequency><Timestamp dt:dt="r8">289829818026</Timestamp><Current dt:dt="r8">0</Current><DateUtc dt:dt="string">2015-06-18T15:33:04Z</DateUtc></FrequencyChange></FrequencyChanges></Clock>\n	Hungry_Donkey_bar_English_2-109-1	60.017	99	1.0.0.18	1	2067674760	Standard	2.0.10.353	2.0.10.353	06-18-2015	6/18/2015 3:33:04 PM	11:33:04	2.0.10.248	40	Bar50-50.bmp	53	2	?	10r_4g.bmp	0r_4g.bmp	2r_2g.bmp	0r_2g.bmp		0r_4g.bmp			TrialProc	TrialList	0	cvbn	-999999	16	261248	0	v	617	261865	112	-101	11	4	-10	15	2	3	4	40	-10	0	-2	0	4	4	2	2	0	4
Hungry_Donkey_bar_English_2	109	1	<?xml version="1.0"?>\n<Clock xmlns:dt="urn:schemas-microsoft-com:datatypes"><Description dt:dt="string">E-Prime Primary Realtime Clock</Description><StartTime><Timestamp dt:dt="int">0</Timestamp><DateUtc dt:dt="string">2015-06-18T15:33:04Z</DateUtc></StartTime><FrequencyChanges><FrequencyChange><Frequency dt:dt="r8">3507685</Frequency><Timestamp dt:dt="r8">289829818026</Timestamp><Current dt:dt="r8">0</Current><DateUtc dt:dt="string">2015-06-18T15:33:04Z</DateUtc></FrequencyChange></FrequencyChanges></Clock>\n	Hungry_Donkey_bar_English_2-109-1	60.017	99	1.0.0.18	1	2067674760	Standard	2.0.10.353	2.0.10.353	06-18-2015	6/18/2015 3:33:04 PM	11:33:04	2.0.10.248	41	Bar50-50.bmp	53	1	?	0r_4g.bmp	0r_4g.bmp	0r_2g.bmp	0r_2g.bmp	0r_4g.bmp				TrialProc	TrialList	0	cvbn	-999999	16	263897	0	c	1120	265017	116	-101	15	8	-10	15	2	8	5	41	0	0	0	0	4	4	2	2	0	4
Hungry_Donkey_bar_English_2	109	1	<?xml version="1.0"?>\n<Clock xmlns:dt="urn:schemas-microsoft-com:datatypes"><Description dt:dt="string">E-Prime Primary Realtime Clock</Description><StartTime><Timestamp dt:dt="int">0</Timestamp><DateUtc dt:dt="string">2015-06-18T15:33:04Z</DateUtc></StartTime><FrequencyChanges><FrequencyChange><Frequency dt:dt="r8">3507685</Frequency><Timestamp dt:dt="r8">289829818026</Timestamp><Current dt:dt="r8">0</Current><DateUtc dt:dt="string">2015-06-18T15:33:04Z</DateUtc></FrequencyChange></FrequencyChanges></Clock>\n	Hungry_Donkey_bar_English_2-109-1	60.017	99	1.0.0.18	1	2067674760	Standard	2.0.10.353	2.0.10.353	06-18-2015	6/18/2015 3:33:04 PM	11:33:04	2.0.10.248	42	Bar50-50.bmp	54	4	?	12r_4g.bmp	0r_4g.bmp	3r_2g.bmp	0r_2g.bmp				0r_2g.bmp	TrialProc	TrialList	0	cvbn	-999999	16	267046	0	n	1939	268985	118	-101	17	8	-10	15	4	5	5	42	-12	0	-3	0	4	4	2	2	0	2
Hungry_Donkey_bar_English_2	109	1	<?xml version="1.0"?>\n<Clock xmlns:dt="urn:schemas-microsoft-com:datatypes"><Description dt:dt="string">E-Prime Primary Realtime Clock</Description><StartTime><Timestamp dt:dt="int">0</Timestamp><DateUtc dt:dt="string">2015-06-18T15:33:04Z</DateUtc></StartTime><FrequencyChanges><FrequencyChange><Frequency dt:dt="r8">3507685</Frequency><Timestamp dt:dt="r8">289829818026</Timestamp><Current dt:dt="r8">0</Current><DateUtc dt:dt="string">2015-06-18T15:33:04Z</DateUtc></FrequencyChange></FrequencyChanges></Clock>\n	Hungry_Donkey_bar_English_2-109-1	60.017	99	1.0.0.18	1	2067674760	Standard	2.0.10.353	2.0.10.353	06-18-2015	6/18/2015 3:33:04 PM	11:33:04	2.0.10.248	43	Bar50-50.bmp	54	3	?	10r_4g.bmp	0r_4g.bmp	2r_2g.bmp	0r_2g.bmp			2r_2g.bmp		TrialProc	TrialList	0	cvbn	-999999	16	271011	0	b	1189	272200	120	-103	17	8	-10	15	4	2	5	43	-10	0	-2	0	4	4	2	2	-2	2
Hungry_Donkey_bar_English_2	109	1	<?xml version="1.0"?>\n<Clock xmlns:dt="urn:schemas-microsoft-com:datatypes"><Description dt:dt="string">E-Prime Primary Realtime Clock</Description><StartTime><Timestamp dt:dt="int">0</Timestamp><DateUtc dt:dt="string">2015-06-18T15:33:04Z</DateUtc></StartTime><FrequencyChanges><FrequencyChange><Frequency dt:dt="r8">3507685</Frequency><Timestamp dt:dt="r8">289829818026</Timestamp><Current dt:dt="r8">0</Current><DateUtc dt:dt="string">2015-06-18T15:33:04Z</DateUtc></FrequencyChange></FrequencyChanges></Clock>\n	Hungry_Donkey_bar_English_2-109-1	60.017	99	1.0.0.18	1	2067674760	Standard	2.0.10.353	2.0.10.353	06-18-2015	6/18/2015 3:33:04 PM	11:33:04	2.0.10.248	44	Bar50-50.bmp	54	3	?	0r_4g.bmp	0r_4g.bmp	0r_2g.bmp	0r_2g.bmp			0r_2g.bmp		TrialProc	TrialList	0	cvbn	-999999	16	274227	0	b	1141	275368	122	-103	19	8	-10	17	4	6	5	44	0	0	0	0	4	4	2	2	0	2
Hungry_Donkey_bar_English_2	109	1	<?xml version="1.0"?>\n<Clock xmlns:dt="urn:schemas-microsoft-com:datatypes"><Description dt:dt="string">E-Prime Primary Realtime Clock</Description><StartTime><Timestamp dt:dt="int">0</Timestamp><DateUtc dt:dt="string">2015-06-18T15:33:04Z</DateUtc></StartTime><FrequencyChanges><FrequencyChange><Frequency dt:dt="r8">3507685</Frequency><Timestamp dt:dt="r8">289829818026</Timestamp><Current dt:dt="r8">0</Current><DateUtc dt:dt="string">2015-06-18T15:33:04Z</DateUtc></FrequencyChange></FrequencyChanges></Clock>\n	Hungry_Donkey_bar_English_2-109-1	60.017	99	1.0.0.18	1	2067674760	Standard	2.0.10.353	2.0.10.353	06-18-2015	6/18/2015 3:33:04 PM	11:33:04	2.0.10.248	45	Bar50-50.bmp	55	2	?	0r_4g.bmp	0r_4g.bmp	0r_2g.bmp	0r_2g.bmp		0r_4g.bmp			TrialProc	TrialList	0	cvbn	-999999	16	277393	0	v	967	278360	126	-103	23	8	-6	17	4	9	5	45	0	0	0	0	4	4	2	2	0	4
Hungry_Donkey_bar_English_2	109	1	<?xml version="1.0"?>\n<Clock xmlns:dt="urn:schemas-microsoft-com:datatypes"><Description dt:dt="string">E-Prime Primary Realtime Clock</Description><StartTime><Timestamp dt:dt="int">0</Timestamp><DateUtc dt:dt="string">2015-06-18T15:33:04Z</DateUtc></StartTime><FrequencyChanges><FrequencyChange><Frequency dt:dt="r8">3507685</Frequency><Timestamp dt:dt="r8">289829818026</Timestamp><Current dt:dt="r8">0</Current><DateUtc dt:dt="string">2015-06-18T15:33:04Z</DateUtc></FrequencyChange></FrequencyChanges></Clock>\n	Hungry_Donkey_bar_English_2-109-1	60.017	99	1.0.0.18	1	2067674760	Standard	2.0.10.353	2.0.10.353	06-18-2015	6/18/2015 3:33:04 PM	11:33:04	2.0.10.248	46	Bar50-50.bmp	56	1	?	0r_4g.bmp	0r_4g.bmp	0r_2g.bmp	0r_2g.bmp	0r_4g.bmp				TrialProc	TrialList	0	cvbn	-999999	16	280392	0	c	2464	282856	130	-103	27	12	-6	17	4	7	5	46	0	0	0	0	4	4	2	2	0	4
Hungry_Donkey_bar_English_2	109	1	<?xml version="1.0"?>\n<Clock xmlns:dt="urn:schemas-microsoft-com:datatypes"><Description dt:dt="string">E-Prime Primary Realtime Clock</Description><StartTime><Timestamp dt:dt="int">0</Timestamp><DateUtc dt:dt="string">2015-06-18T15:33:04Z</DateUtc></StartTime><FrequencyChanges><FrequencyChange><Frequency dt:dt="r8">3507685</Frequency><Timestamp dt:dt="r8">289829818026</Timestamp><Current dt:dt="r8">0</Current><DateUtc dt:dt="string">2015-06-18T15:33:04Z</DateUtc></FrequencyChange></FrequencyChanges></Clock>\n	Hungry_Donkey_bar_English_2-109-1	60.017	99	1.0.0.18	1	2067674760	Standard	2.0.10.353	2.0.10.353	06-18-2015	6/18/2015 3:33:04 PM	11:33:04	2.0.10.248	47	Bar63-37.bmp	57	2	?	10r_4g.bmp	0r_4g.bmp	2r_2g.bmp	0r_2g.bmp		0r_4g.bmp			TrialProc	TrialList	0	cvbn	-999999	16	284891	0	v	1741	286632	134	-103	31	12	-2	17	4	3	5	47	-10	0	-2	0	4	4	2	2	0	4
Hungry_Donkey_bar_English_2	109	1	<?xml version="1.0"?>\n<Clock xmlns:dt="urn:schemas-microsoft-com:datatypes"><Description dt:dt="string">E-Prime Primary Realtime Clock</Description><StartTime><Timestamp dt:dt="int">0</Timestamp><DateUtc dt:dt="string">2015-06-18T15:33:04Z</DateUtc></StartTime><FrequencyChanges><FrequencyChange><Frequency dt:dt="r8">3507685</Frequency><Timestamp dt:dt="r8">289829818026</Timestamp><Current dt:dt="r8">0</Current><DateUtc dt:dt="string">2015-06-18T15:33:04Z</DateUtc></FrequencyChange></FrequencyChanges></Clock>\n	Hungry_Donkey_bar_English_2-109-1	60.017	99	1.0.0.18	1	2067674760	Standard	2.0.10.353	2.0.10.353	06-18-2015	6/18/2015 3:33:04 PM	11:33:04	2.0.10.248	48	Bar50-50.bmp	55	4	?	8r_4g.bmp	50r_4g.bmp	1r_2g.bmp	10r_2g.bmp				10r_2g.bmp	TrialProc	TrialList	0	cvbn	-999999	16	288656	0	n	1272	289928	136	-113	23	12	-2	17	-4	1	5	48	-8	-50	-1	-10	4	4	2	2	-10	2
Hungry_Donkey_bar_English_2	109	1	<?xml version="1.0"?>\n<Clock xmlns:dt="urn:schemas-microsoft-com:datatypes"><Description dt:dt="string">E-Prime Primary Realtime Clock</Description><StartTime><Timestamp dt:dt="int">0</Timestamp><DateUtc dt:dt="string">2015-06-18T15:33:04Z</DateUtc></StartTime><FrequencyChanges><FrequencyChange><Frequency dt:dt="r8">3507685</Frequency><Timestamp dt:dt="r8">289829818026</Timestamp><Current dt:dt="r8">0</Current><DateUtc dt:dt="string">2015-06-18T15:33:04Z</DateUtc></FrequencyChange></FrequencyChanges></Clock>\n	Hungry_Donkey_bar_English_2-109-1	60.017	99	1.0.0.18	1	2067674760	Standard	2.0.10.353	2.0.10.353	06-18-2015	6/18/2015 3:33:04 PM	11:33:04	2.0.10.248	49	Bar50-50.bmp	55	3	?	10r_4g.bmp	0r_4g.bmp	2r_2g.bmp	0r_2g.bmp			2r_2g.bmp		TrialProc	TrialList	0	cvbn	-999999	16	291955	0	b	1716	293671	138	-115	23	12	-2	17	-4	4	5	49	-10	0	-2	0	4	4	2	2	-2	2
Hungry_Donkey_bar_English_2	109	1	<?xml version="1.0"?>\n<Clock xmlns:dt="urn:schemas-microsoft-com:datatypes"><Description dt:dt="string">E-Prime Primary Realtime Clock</Description><StartTime><Timestamp dt:dt="int">0</Timestamp><DateUtc dt:dt="string">2015-06-18T15:33:04Z</DateUtc></StartTime><FrequencyChanges><FrequencyChange><Frequency dt:dt="r8">3507685</Frequency><Timestamp dt:dt="r8">289829818026</Timestamp><Current dt:dt="r8">0</Current><DateUtc dt:dt="string">2015-06-18T15:33:04Z</DateUtc></FrequencyChange></FrequencyChanges></Clock>\n	Hungry_Donkey_bar_English_2-109-1	60.017	99	1.0.0.18	1	2067674760	Standard	2.0.10.353	2.0.10.353	06-18-2015	6/18/2015 3:33:04 PM	11:33:04	2.0.10.248	50	Bar50-50.bmp	55	4	?	0r_4g.bmp	0r_4g.bmp	0r_2g.bmp	0r_2g.bmp				0r_2g.bmp	TrialProc	TrialList	0	cvbn	-999999	16	295704	0	n	959	296663	140	-115	25	12	-2	17	-2	10	5	50	0	0	0	0	4	4	2	2	0	2
Hungry_Donkey_bar_English_2	109	1	<?xml version="1.0"?>\n<Clock xmlns:dt="urn:schemas-microsoft-com:datatypes"><Description dt:dt="string">E-Prime Primary Realtime Clock</Description><StartTime><Timestamp dt:dt="int">0</Timestamp><DateUtc dt:dt="string">2015-06-18T15:33:04Z</DateUtc></StartTime><FrequencyChanges><FrequencyChange><Frequency dt:dt="r8">3507685</Frequency><Timestamp dt:dt="r8">289829818026</Timestamp><Current dt:dt="r8">0</Current><DateUtc dt:dt="string">2015-06-18T15:33:04Z</DateUtc></FrequencyChange></FrequencyChanges></Clock>\n	Hungry_Donkey_bar_English_2-109-1	60.017	99	1.0.0.18	1	2067674760	Standard	2.0.10.353	2.0.10.353	06-18-2015	6/18/2015 3:33:04 PM	11:33:04	2.0.10.248	51	Bar50-50.bmp	56	2	?	0r_4g.bmp	0r_4g.bmp	0r_2g.bmp	0r_2g.bmp		0r_4g.bmp			TrialProc	TrialList	0	cvbn	-999999	16	298687	0	v	1736	300423	144	-115	29	12	2	17	-2	7	6	51	0	0	0	0	4	4	2	2	0	4
Hungry_Donkey_bar_English_2	109	1	<?xml version="1.0"?>\n<Clock xmlns:dt="urn:schemas-microsoft-com:datatypes"><Description dt:dt="string">E-Prime Primary Realtime Clock</Description><StartTime><Timestamp dt:dt="int">0</Timestamp><DateUtc dt:dt="string">2015-06-18T15:33:04Z</DateUtc></StartTime><FrequencyChanges><FrequencyChange><Frequency dt:dt="r8">3507685</Frequency><Timestamp dt:dt="r8">289829818026</Timestamp><Current dt:dt="r8">0</Current><DateUtc dt:dt="string">2015-06-18T15:33:04Z</DateUtc></FrequencyChange></FrequencyChanges></Clock>\n	Hungry_Donkey_bar_English_2-109-1	60.017	99	1.0.0.18	1	2067674760	Standard	2.0.10.353	2.0.10.353	06-18-2015	6/18/2015 3:33:04 PM	11:33:04	2.0.10.248	52	Bar50-50.bmp	56	2	?	10r_4g.bmp	0r_4g.bmp	2r_2g.bmp	0r_2g.bmp		0r_4g.bmp			TrialProc	TrialList	0	cvbn	-999999	16	302452	0	v	1683	304135	148	-115	33	12	6	17	-2	4	6	52	-10	0	-2	0	4	4	2	2	0	4
Hungry_Donkey_bar_English_2	109	1	<?xml version="1.0"?>\n<Clock xmlns:dt="urn:schemas-microsoft-com:datatypes"><Description dt:dt="string">E-Prime Primary Realtime Clock</Description><StartTime><Timestamp dt:dt="int">0</Timestamp><DateUtc dt:dt="string">2015-06-18T15:33:04Z</DateUtc></StartTime><FrequencyChanges><FrequencyChange><Frequency dt:dt="r8">3507685</Frequency><Timestamp dt:dt="r8">289829818026</Timestamp><Current dt:dt="r8">0</Current><DateUtc dt:dt="string">2015-06-18T15:33:04Z</DateUtc></FrequencyChange></FrequencyChanges></Clock>\n	Hungry_Donkey_bar_English_2-109-1	60.017	99	1.0.0.18	1	2067674760	Standard	2.0.10.353	2.0.10.353	06-18-2015	6/18/2015 3:33:04 PM	11:33:04	2.0.10.248	53	Bar63-37.bmp	57	1	?	0r_4g.bmp	0r_4g.bmp	0r_2g.bmp	0r_2g.bmp	0r_4g.bmp				TrialProc	TrialList	0	cvbn	-999999	16	306168	0	c	2175	308343	152	-115	37	16	6	17	-2	8	6	53	0	0	0	0	4	4	2	2	0	4
Hungry_Donkey_bar_English_2	109	1	<?xml version="1.0"?>\n<Clock xmlns:dt="urn:schemas-microsoft-com:datatypes"><Description dt:dt="string">E-Prime Primary Realtime Clock</Description><StartTime><Timestamp dt:dt="int">0</Timestamp><DateUtc dt:dt="string">2015-06-18T15:33:04Z</DateUtc></StartTime><FrequencyChanges><FrequencyChange><Frequency dt:dt="r8">3507685</Frequency><Timestamp dt:dt="r8">289829818026</Timestamp><Current dt:dt="r8">0</Current><DateUtc dt:dt="string">2015-06-18T15:33:04Z</DateUtc></FrequencyChange></FrequencyChanges></Clock>\n	Hungry_Donkey_bar_English_2-109-1	60.017	99	1.0.0.18	1	2067674760	Standard	2.0.10.353	2.0.10.353	06-18-2015	6/18/2015 3:33:04 PM	11:33:04	2.0.10.248	54	Bar63-37.bmp	57	4	?	10r_4g.bmp	0r_4g.bmp	2r_2g.bmp	0r_2g.bmp				0r_2g.bmp	TrialProc	TrialList	0	cvbn	-999999	16	310383	0	n	2359	312742	154	-115	39	16	6	17	0	3	6	54	-10	0	-2	0	4	4	2	2	0	2
Hungry_Donkey_bar_English_2	109	1	<?xml version="1.0"?>\n<Clock xmlns:dt="urn:schemas-microsoft-com:datatypes"><Description dt:dt="string">E-Prime Primary Realtime Clock</Description><StartTime><Timestamp dt:dt="int">0</Timestamp><DateUtc dt:dt="string">2015-06-18T15:33:04Z</DateUtc></StartTime><FrequencyChanges><FrequencyChange><Frequency dt:dt="r8">3507685</Frequency><Timestamp dt:dt="r8">289829818026</Timestamp><Current dt:dt="r8">0</Current><DateUtc dt:dt="string">2015-06-18T15:33:04Z</DateUtc></FrequencyChange></FrequencyChanges></Clock>\n	Hungry_Donkey_bar_English_2-109-1	60.017	99	1.0.0.18	1	2067674760	Standard	2.0.10.353	2.0.10.353	06-18-2015	6/18/2015 3:33:04 PM	11:33:04	2.0.10.248	55	Bar63-37.bmp	58	3	?	0r_4g.bmp	0r_4g.bmp	0r_2g.bmp	0r_2g.bmp			0r_2g.bmp		TrialProc	TrialList	0	cvbn	-999999	16	314766	0	b	1000	315766	156	-115	41	16	6	19	0	9	6	55	0	0	0	0	4	4	2	2	0	2
Hungry_Donkey_bar_English_2	109	1	<?xml version="1.0"?>\n<Clock xmlns:dt="urn:schemas-microsoft-com:datatypes"><Description dt:dt="string">E-Prime Primary Realtime Clock</Description><StartTime><Timestamp dt:dt="int">0</Timestamp><DateUtc dt:dt="string">2015-06-18T15:33:04Z</DateUtc></StartTime><FrequencyChanges><FrequencyChange><Frequency dt:dt="r8">3507685</Frequency><Timestamp dt:dt="r8">289829818026</Timestamp><Current dt:dt="r8">0</Current><DateUtc dt:dt="string">2015-06-18T15:33:04Z</DateUtc></FrequencyChange></FrequencyChanges></Clock>\n	Hungry_Donkey_bar_English_2-109-1	60.017	99	1.0.0.18	1	2067674760	Standard	2.0.10.353	2.0.10.353	06-18-2015	6/18/2015 3:33:04 PM	11:33:04	2.0.10.248	56	Bar63-37.bmp	58	3	?	8r_4g.bmp	50r_4g.bmp	1r_2g.bmp	10r_2g.bmp			1r_2g.bmp		TrialProc	TrialList	0	cvbn	-999999	16	317798	0	b	5104	322902	158	-116	42	16	6	20	0	1	6	56	-8	-50	-1	-10	4	4	2	2	-1	2
Hungry_Donkey_bar_English_2	109	1	<?xml version="1.0"?>\n<Clock xmlns:dt="urn:schemas-microsoft-com:datatypes"><Description dt:dt="string">E-Prime Primary Realtime Clock</Description><StartTime><Timestamp dt:dt="int">0</Timestamp><DateUtc dt:dt="string">2015-06-18T15:33:04Z</DateUtc></StartTime><FrequencyChanges><FrequencyChange><Frequency dt:dt="r8">3507685</Frequency><Timestamp dt:dt="r8">289829818026</Timestamp><Current dt:dt="r8">0</Current><DateUtc dt:dt="string">2015-06-18T15:33:04Z</DateUtc></FrequencyChange></FrequencyChanges></Clock>\n	Hungry_Donkey_bar_English_2-109-1	60.017	99	1.0.0.18	1	2067674760	Standard	2.0.10.353	2.0.10.353	06-18-2015	6/18/2015 3:33:04 PM	11:33:04	2.0.10.248	57	Bar63-37.bmp	58	4	?	10r_4g.bmp	0r_4g.bmp	2r_2g.bmp	0r_2g.bmp				0r_2g.bmp	TrialProc	TrialList	0	cvbn	-999999	16	324929	0	n	1909	326838	160	-116	44	16	6	20	2	2	6	57	-10	0	-2	0	4	4	2	2	0	2
Hungry_Donkey_bar_English_2	109	1	<?xml version="1.0"?>\n<Clock xmlns:dt="urn:schemas-microsoft-com:datatypes"><Description dt:dt="string">E-Prime Primary Realtime Clock</Description><StartTime><Timestamp dt:dt="int">0</Timestamp><DateUtc dt:dt="string">2015-06-18T15:33:04Z</DateUtc></StartTime><FrequencyChanges><FrequencyChange><Frequency dt:dt="r8">3507685</Frequency><Timestamp dt:dt="r8">289829818026</Timestamp><Current dt:dt="r8">0</Current><DateUtc dt:dt="string">2015-06-18T15:33:04Z</DateUtc></FrequencyChange></FrequencyChanges></Clock>\n	Hungry_Donkey_bar_English_2-109-1	60.017	99	1.0.0.18	1	2067674760	Standard	2.0.10.353	2.0.10.353	06-18-2015	6/18/2015 3:33:04 PM	11:33:04	2.0.10.248	58	Bar63-37.bmp	59	2	?	0r_4g.bmp	0r_4g.bmp	0r_2g.bmp	0r_2g.bmp		0r_4g.bmp			TrialProc	TrialList	0	cvbn	-999999	16	328861	0	v	2552	331413	164	-116	48	16	10	20	2	10	6	58	0	0	0	0	4	4	2	2	0	4
Hungry_Donkey_bar_English_2	109	1	<?xml version="1.0"?>\n<Clock xmlns:dt="urn:schemas-microsoft-com:datatypes"><Description dt:dt="string">E-Prime Primary Realtime Clock</Description><StartTime><Timestamp dt:dt="int">0</Timestamp><DateUtc dt:dt="string">2015-06-18T15:33:04Z</DateUtc></StartTime><FrequencyChanges><FrequencyChange><Frequency dt:dt="r8">3507685</Frequency><Timestamp dt:dt="r8">289829818026</Timestamp><Current dt:dt="r8">0</Current><DateUtc dt:dt="string">2015-06-18T15:33:04Z</DateUtc></FrequencyChange></FrequencyChanges></Clock>\n	Hungry_Donkey_bar_English_2-109-1	60.017	99	1.0.0.18	1	2067674760	Standard	2.0.10.353	2.0.10.353	06-18-2015	6/18/2015 3:33:04 PM	11:33:04	2.0.10.248	59	Bar63-37.bmp	58	3	?	12r_4g.bmp	0r_4g.bmp	3r_2g.bmp	0r_2g.bmp			3r_2g.bmp		TrialProc	TrialList	0	cvbn	-999999	16	333443	0	b	2402	335845	166	-119	47	16	10	19	2	5	6	59	-12	0	-3	0	4	4	2	2	-3	2
Hungry_Donkey_bar_English_2	109	1	<?xml version="1.0"?>\n<Clock xmlns:dt="urn:schemas-microsoft-com:datatypes"><Description dt:dt="string">E-Prime Primary Realtime Clock</Description><StartTime><Timestamp dt:dt="int">0</Timestamp><DateUtc dt:dt="string">2015-06-18T15:33:04Z</DateUtc></StartTime><FrequencyChanges><FrequencyChange><Frequency dt:dt="r8">3507685</Frequency><Timestamp dt:dt="r8">289829818026</Timestamp><Current dt:dt="r8">0</Current><DateUtc dt:dt="string">2015-06-18T15:33:04Z</DateUtc></FrequencyChange></FrequencyChanges></Clock>\n	Hungry_Donkey_bar_English_2-109-1	60.017	99	1.0.0.18	1	2067674760	Standard	2.0.10.353	2.0.10.353	06-18-2015	6/18/2015 3:33:04 PM	11:33:04	2.0.10.248	60	Bar63-37.bmp	59	4	?	0r_4g.bmp	0r_4g.bmp	0r_2g.bmp	0r_2g.bmp				0r_2g.bmp	TrialProc	TrialList	0	cvbn	-999999	17	337876	0	n	1521	339397	168	-119	49	16	10	19	4	6	6	60	0	0	0	0	4	4	2	2	0	2
Hungry_Donkey_bar_English_2	109	1	<?xml version="1.0"?>\n<Clock xmlns:dt="urn:schemas-microsoft-com:datatypes"><Description dt:dt="string">E-Prime Primary Realtime Clock</Description><StartTime><Timestamp dt:dt="int">0</Timestamp><DateUtc dt:dt="string">2015-06-18T15:33:04Z</DateUtc></StartTime><FrequencyChanges><FrequencyChange><Frequency dt:dt="r8">3507685</Frequency><Timestamp dt:dt="r8">289829818026</Timestamp><Current dt:dt="r8">0</Current><DateUtc dt:dt="string">2015-06-18T15:33:04Z</DateUtc></FrequencyChange></FrequencyChanges></Clock>\n	Hungry_Donkey_bar_English_2-109-1	60.017	99	1.0.0.18	1	2067674760	Standard	2.0.10.353	2.0.10.353	06-18-2015	6/18/2015 3:33:04 PM	11:33:04	2.0.10.248	61	Bar63-37.bmp	59	1	?	0r_4g.bmp	0r_4g.bmp	0r_2g.bmp	0r_2g.bmp	0r_4g.bmp				TrialProc	TrialList	0	cvbn	-999999	16	341424	0	c	661	342085	172	-119	53	20	10	19	4	6	7	61	0	0	0	0	4	4	2	2	0	4
Hungry_Donkey_bar_English_2	109	1	<?xml version="1.0"?>\n<Clock xmlns:dt="urn:schemas-microsoft-com:datatypes"><Description dt:dt="string">E-Prime Primary Realtime Clock</Description><StartTime><Timestamp dt:dt="int">0</Timestamp><DateUtc dt:dt="string">2015-06-18T15:33:04Z</DateUtc></StartTime><FrequencyChanges><FrequencyChange><Frequency dt:dt="r8">3507685</Frequency><Timestamp dt:dt="r8">289829818026</Timestamp><Current dt:dt="r8">0</Current><DateUtc dt:dt="string">2015-06-18T15:33:04Z</DateUtc></FrequencyChange></FrequencyChanges></Clock>\n	Hungry_Donkey_bar_English_2-109-1	60.017	99	1.0.0.18	1	2067674760	Standard	2.0.10.353	2.0.10.353	06-18-2015	6/18/2015 3:33:04 PM	11:33:04	2.0.10.248	62	Bar63-37.bmp	59	3	?	10r_4g.bmp	0r_4g.bmp	2r_2g.bmp	0r_2g.bmp			2r_2g.bmp		TrialProc	TrialList	0	cvbn	-999999	16	344124	0	b	633	344757	174	-121	53	20	10	19	4	3	7	62	-10	0	-2	0	4	4	2	2	-2	2
Hungry_Donkey_bar_English_2	109	1	<?xml version="1.0"?>\n<Clock xmlns:dt="urn:schemas-microsoft-com:datatypes"><Description dt:dt="string">E-Prime Primary Realtime Clock</Description><StartTime><Timestamp dt:dt="int">0</Timestamp><DateUtc dt:dt="string">2015-06-18T15:33:04Z</DateUtc></StartTime><FrequencyChanges><FrequencyChange><Frequency dt:dt="r8">3507685</Frequency><Timestamp dt:dt="r8">289829818026</Timestamp><Current dt:dt="r8">0</Current><DateUtc dt:dt="string">2015-06-18T15:33:04Z</DateUtc></FrequencyChange></FrequencyChanges></Clock>\n	Hungry_Donkey_bar_English_2-109-1	60.017	99	1.0.0.18	1	2067674760	Standard	2.0.10.353	2.0.10.353	06-18-2015	6/18/2015 3:33:04 PM	11:33:04	2.0.10.248	63	Bar63-37.bmp	59	4	?	10r_4g.bmp	0r_4g.bmp	2r_2g.bmp	0r_2g.bmp				0r_2g.bmp	TrialProc	TrialList	0	cvbn	-999999	16	346790	0	n	2334	349124	176	-121	55	20	10	19	6	4	7	63	-10	0	-2	0	4	4	2	2	0	2
Hungry_Donkey_bar_English_2	109	1	<?xml version="1.0"?>\n<Clock xmlns:dt="urn:schemas-microsoft-com:datatypes"><Description dt:dt="string">E-Prime Primary Realtime Clock</Description><StartTime><Timestamp dt:dt="int">0</Timestamp><DateUtc dt:dt="string">2015-06-18T15:33:04Z</DateUtc></StartTime><FrequencyChanges><FrequencyChange><Frequency dt:dt="r8">3507685</Frequency><Timestamp dt:dt="r8">289829818026</Timestamp><Current dt:dt="r8">0</Current><DateUtc dt:dt="string">2015-06-18T15:33:04Z</DateUtc></FrequencyChange></FrequencyChanges></Clock>\n	Hungry_Donkey_bar_English_2-109-1	60.017	99	1.0.0.18	1	2067674760	Standard	2.0.10.353	2.0.10.353	06-18-2015	6/18/2015 3:33:04 PM	11:33:04	2.0.10.248	64	Bar63-37.bmp	59	3	?	8r_4g.bmp	50r_4g.bmp	1r_2g.bmp	10r_2g.bmp			1r_2g.bmp		TrialProc	TrialList	0	cvbn	-999999	16	351155	0	b	177	351332	178	-122	56	20	10	20	6	1	7	64	-8	-50	-1	-10	4	4	2	2	-1	2
Hungry_Donkey_bar_English_2	109	1	<?xml version="1.0"?>\n<Clock xmlns:dt="urn:schemas-microsoft-com:datatypes"><Description dt:dt="string">E-Prime Primary Realtime Clock</Description><StartTime><Timestamp dt:dt="int">0</Timestamp><DateUtc dt:dt="string">2015-06-18T15:33:04Z</DateUtc></StartTime><FrequencyChanges><FrequencyChange><Frequency dt:dt="r8">3507685</Frequency><Timestamp dt:dt="r8">289829818026</Timestamp><Current dt:dt="r8">0</Current><DateUtc dt:dt="string">2015-06-18T15:33:04Z</DateUtc></FrequencyChange></FrequencyChanges></Clock>\n	Hungry_Donkey_bar_English_2-109-1	60.017	99	1.0.0.18	1	2067674760	Standard	2.0.10.353	2.0.10.353	06-18-2015	6/18/2015 3:33:04 PM	11:33:04	2.0.10.248	65	Bar63-37.bmp	60	4	?	12r_4g.bmp	0r_4g.bmp	3r_2g.bmp	0r_2g.bmp				0r_2g.bmp	TrialProc	TrialList	0	cvbn	-999999	16	353371	0	n	89	353460	180	-122	58	20	10	20	8	5	7	65	-12	0	-3	0	4	4	2	2	0	2
Hungry_Donkey_bar_English_2	109	1	<?xml version="1.0"?>\n<Clock xmlns:dt="urn:schemas-microsoft-com:datatypes"><Description dt:dt="string">E-Prime Primary Realtime Clock</Description><StartTime><Timestamp dt:dt="int">0</Timestamp><DateUtc dt:dt="string">2015-06-18T15:33:04Z</DateUtc></StartTime><FrequencyChanges><FrequencyChange><Frequency dt:dt="r8">3507685</Frequency><Timestamp dt:dt="r8">289829818026</Timestamp><Current dt:dt="r8">0</Current><DateUtc dt:dt="string">2015-06-18T15:33:04Z</DateUtc></FrequencyChange></FrequencyChanges></Clock>\n	Hungry_Donkey_bar_English_2-109-1	60.017	99	1.0.0.18	1	2067674760	Standard	2.0.10.353	2.0.10.353	06-18-2015	6/18/2015 3:33:04 PM	11:33:04	2.0.10.248	66	Bar63-37.bmp	60	4	?	0r_4g.bmp	0r_4g.bmp	0r_2g.bmp	0r_2g.bmp				0r_2g.bmp	TrialProc	TrialList	0	cvbn	-999999	16	355487	0	n	1093	356580	182	-122	60	20	10	20	10	9	7	66	0	0	0	0	4	4	2	2	0	2
Hungry_Donkey_bar_English_2	109	1	<?xml version="1.0"?>\n<Clock xmlns:dt="urn:schemas-microsoft-com:datatypes"><Description dt:dt="string">E-Prime Primary Realtime Clock</Description><StartTime><Timestamp dt:dt="int">0</Timestamp><DateUtc dt:dt="string">2015-06-18T15:33:04Z</DateUtc></StartTime><FrequencyChanges><FrequencyChange><Frequency dt:dt="r8">3507685</Frequency><Timestamp dt:dt="r8">289829818026</Timestamp><Current dt:dt="r8">0</Current><DateUtc dt:dt="string">2015-06-18T15:33:04Z</DateUtc></FrequencyChange></FrequencyChanges></Clock>\n	Hungry_Donkey_bar_English_2-109-1	60.017	99	1.0.0.18	1	2067674760	Standard	2.0.10.353	2.0.10.353	06-18-2015	6/18/2015 3:33:04 PM	11:33:04	2.0.10.248	67	Bar63-37.bmp	60	4	?	0r_4g.bmp	0r_4g.bmp	0r_2g.bmp	0r_2g.bmp				0r_2g.bmp	TrialProc	TrialList	0	cvbn	-999999	17	358620	0	n	600	359220	184	-122	62	20	10	20	12	8	7	67	0	0	0	0	4	4	2	2	0	2
Hungry_Donkey_bar_English_2	109	1	<?xml version="1.0"?>\n<Clock xmlns:dt="urn:schemas-microsoft-com:datatypes"><Description dt:dt="string">E-Prime Primary Realtime Clock</Description><StartTime><Timestamp dt:dt="int">0</Timestamp><DateUtc dt:dt="string">2015-06-18T15:33:04Z</DateUtc></StartTime><FrequencyChanges><FrequencyChange><Frequency dt:dt="r8">3507685</Frequency><Timestamp dt:dt="r8">289829818026</Timestamp><Current dt:dt="r8">0</Current><DateUtc dt:dt="string">2015-06-18T15:33:04Z</DateUtc></FrequencyChange></FrequencyChanges></Clock>\n	Hungry_Donkey_bar_English_2-109-1	60.017	99	1.0.0.18	1	2067674760	Standard	2.0.10.353	2.0.10.353	06-18-2015	6/18/2015 3:33:04 PM	11:33:04	2.0.10.248	68	Bar63-37.bmp	61	2	?	10r_4g.bmp	0r_4g.bmp	2r_2g.bmp	0r_2g.bmp		0r_4g.bmp			TrialProc	TrialList	0	cvbn	-999999	16	361252	0	v	496	361748	188	-122	66	20	14	20	12	2	7	68	-10	0	-2	0	4	4	2	2	0	4
Hungry_Donkey_bar_English_2	109	1	<?xml version="1.0"?>\n<Clock xmlns:dt="urn:schemas-microsoft-com:datatypes"><Description dt:dt="string">E-Prime Primary Realtime Clock</Description><StartTime><Timestamp dt:dt="int">0</Timestamp><DateUtc dt:dt="string">2015-06-18T15:33:04Z</DateUtc></StartTime><FrequencyChanges><FrequencyChange><Frequency dt:dt="r8">3507685</Frequency><Timestamp dt:dt="r8">289829818026</Timestamp><Current dt:dt="r8">0</Current><DateUtc dt:dt="string">2015-06-18T15:33:04Z</DateUtc></FrequencyChange></FrequencyChanges></Clock>\n	Hungry_Donkey_bar_English_2-109-1	60.017	99	1.0.0.18	1	2067674760	Standard	2.0.10.353	2.0.10.353	06-18-2015	6/18/2015 3:33:04 PM	11:33:04	2.0.10.248	69	Bar63-37.bmp	61	3	?	0r_4g.bmp	0r_4g.bmp	0r_2g.bmp	0r_2g.bmp			0r_2g.bmp		TrialProc	TrialList	0	cvbn	-999999	16	363785	0	b	1115	364900	190	-122	68	20	14	22	12	10	7	69	0	0	0	0	4	4	2	2	0	2
Hungry_Donkey_bar_English_2	109	1	<?xml version="1.0"?>\n<Clock xmlns:dt="urn:schemas-microsoft-com:datatypes"><Description dt:dt="string">E-Prime Primary Realtime Clock</Description><StartTime><Timestamp dt:dt="int">0</Timestamp><DateUtc dt:dt="string">2015-06-18T15:33:04Z</DateUtc></StartTime><FrequencyChanges><FrequencyChange><Frequency dt:dt="r8">3507685</Frequency><Timestamp dt:dt="r8">289829818026</Timestamp><Current dt:dt="r8">0</Current><DateUtc dt:dt="string">2015-06-18T15:33:04Z</DateUtc></FrequencyChange></FrequencyChanges></Clock>\n	Hungry_Donkey_bar_English_2-109-1	60.017	99	1.0.0.18	1	2067674760	Standard	2.0.10.353	2.0.10.353	06-18-2015	6/18/2015 3:33:04 PM	11:33:04	2.0.10.248	70	Bar63-37.bmp	61	1	?	0r_4g.bmp	0r_4g.bmp	0r_2g.bmp	0r_2g.bmp	0r_4g.bmp				TrialProc	TrialList	0	cvbn	-999999	16	366934	0	c	1885	368819	194	-122	72	24	14	22	12	7	7	70	0	0	0	0	4	4	2	2	0	4
Hungry_Donkey_bar_English_2	109	1	<?xml version="1.0"?>\n<Clock xmlns:dt="urn:schemas-microsoft-com:datatypes"><Description dt:dt="string">E-Prime Primary Realtime Clock</Description><StartTime><Timestamp dt:dt="int">0</Timestamp><DateUtc dt:dt="string">2015-06-18T15:33:04Z</DateUtc></StartTime><FrequencyChanges><FrequencyChange><Frequency dt:dt="r8">3507685</Frequency><Timestamp dt:dt="r8">289829818026</Timestamp><Current dt:dt="r8">0</Current><DateUtc dt:dt="string">2015-06-18T15:33:04Z</DateUtc></FrequencyChange></FrequencyChanges></Clock>\n	Hungry_Donkey_bar_English_2-109-1	60.017	99	1.0.0.18	1	2067674760	Standard	2.0.10.353	2.0.10.353	06-18-2015	6/18/2015 3:33:04 PM	11:33:04	2.0.10.248	71	Bar63-37.bmp	61	3	?	10r_4g.bmp	0r_4g.bmp	2r_2g.bmp	0r_2g.bmp			2r_2g.bmp		TrialProc	TrialList	0	cvbn	-999999	16	370849	0	b	1122	371971	196	-124	72	24	14	22	12	4	8	71	-10	0	-2	0	4	4	2	2	-2	2
Hungry_Donkey_bar_English_2	109	1	<?xml version="1.0"?>\n<Clock xmlns:dt="urn:schemas-microsoft-com:datatypes"><Description dt:dt="string">E-Prime Primary Realtime Clock</Description><StartTime><Timestamp dt:dt="int">0</Timestamp><DateUtc dt:dt="string">2015-06-18T15:33:04Z</DateUtc></StartTime><FrequencyChanges><FrequencyChange><Frequency dt:dt="r8">3507685</Frequency><Timestamp dt:dt="r8">289829818026</Timestamp><Current dt:dt="r8">0</Current><DateUtc dt:dt="string">2015-06-18T15:33:04Z</DateUtc></FrequencyChange></FrequencyChanges></Clock>\n	Hungry_Donkey_bar_English_2-109-1	60.017	99	1.0.0.18	1	2067674760	Standard	2.0.10.353	2.0.10.353	06-18-2015	6/18/2015 3:33:04 PM	11:33:04	2.0.10.248	72	Bar63-37.bmp	62	2	?	10r_4g.bmp	0r_4g.bmp	2r_2g.bmp	0r_2g.bmp		0r_4g.bmp			TrialProc	TrialList	0	cvbn	-999999	16	373998	0	v	485	374483	200	-124	76	24	18	22	12	3	8	72	-10	0	-2	0	4	4	2	2	0	4
Hungry_Donkey_bar_English_2	109	1	<?xml version="1.0"?>\n<Clock xmlns:dt="urn:schemas-microsoft-com:datatypes"><Description dt:dt="string">E-Prime Primary Realtime Clock</Description><StartTime><Timestamp dt:dt="int">0</Timestamp><DateUtc dt:dt="string">2015-06-18T15:33:04Z</DateUtc></StartTime><FrequencyChanges><FrequencyChange><Frequency dt:dt="r8">3507685</Frequency><Timestamp dt:dt="r8">289829818026</Timestamp><Current dt:dt="r8">0</Current><DateUtc dt:dt="string">2015-06-18T15:33:04Z</DateUtc></FrequencyChange></FrequencyChanges></Clock>\n	Hungry_Donkey_bar_English_2-109-1	60.017	99	1.0.0.18	1	2067674760	Standard	2.0.10.353	2.0.10.353	06-18-2015	6/18/2015 3:33:04 PM	11:33:04	2.0.10.248	73	Bar63-37.bmp	61	3	?	12r_4g.bmp	0r_4g.bmp	3r_2g.bmp	0r_2g.bmp			3r_2g.bmp		TrialProc	TrialList	0	cvbn	-999999	16	376514	0	b	2545	379059	202	-127	75	24	18	21	12	5	8	73	-12	0	-3	0	4	4	2	2	-3	2
Hungry_Donkey_bar_English_2	109	1	<?xml version="1.0"?>\n<Clock xmlns:dt="urn:schemas-microsoft-com:datatypes"><Description dt:dt="string">E-Prime Primary Realtime Clock</Description><StartTime><Timestamp dt:dt="int">0</Timestamp><DateUtc dt:dt="string">2015-06-18T15:33:04Z</DateUtc></StartTime><FrequencyChanges><FrequencyChange><Frequency dt:dt="r8">3507685</Frequency><Timestamp dt:dt="r8">289829818026</Timestamp><Current dt:dt="r8">0</Current><DateUtc dt:dt="string">2015-06-18T15:33:04Z</DateUtc></FrequencyChange></FrequencyChanges></Clock>\n	Hungry_Donkey_bar_English_2-109-1	60.017	99	1.0.0.18	1	2067674760	Standard	2.0.10.353	2.0.10.353	06-18-2015	6/18/2015 3:33:04 PM	11:33:04	2.0.10.248	74	Bar63-37.bmp	60	1	?	8r_4g.bmp	50r_4g.bmp	1r_2g.bmp	10r_2g.bmp	8r_4g.bmp				TrialProc	TrialList	0	cvbn	-999999	16	381096	0	c	8026	389122	206	-135	71	20	18	21	12	1	8	74	-8	-50	-1	-10	4	4	2	2	-8	4
Hungry_Donkey_bar_English_2	109	1	<?xml version="1.0"?>\n<Clock xmlns:dt="urn:schemas-microsoft-com:datatypes"><Description dt:dt="string">E-Prime Primary Realtime Clock</Description><StartTime><Timestamp dt:dt="int">0</Timestamp><DateUtc dt:dt="string">2015-06-18T15:33:04Z</DateUtc></StartTime><FrequencyChanges><FrequencyChange><Frequency dt:dt="r8">3507685</Frequency><Timestamp dt:dt="r8">289829818026</Timestamp><Current dt:dt="r8">0</Current><DateUtc dt:dt="string">2015-06-18T15:33:04Z</DateUtc></FrequencyChange></FrequencyChanges></Clock>\n	Hungry_Donkey_bar_English_2-109-1	60.017	99	1.0.0.18	1	2067674760	Standard	2.0.10.353	2.0.10.353	06-18-2015	6/18/2015 3:33:04 PM	11:33:04	2.0.10.248	75	Bar63-37.bmp	61	2	?	0r_4g.bmp	0r_4g.bmp	0r_2g.bmp	0r_2g.bmp		0r_4g.bmp			TrialProc	TrialList	0	cvbn	-999999	16	391160	0	v	2490	393650	210	-135	75	20	22	21	12	8	8	75	0	0	0	0	4	4	2	2	0	4
Hungry_Donkey_bar_English_2	109	1	<?xml version="1.0"?>\n<Clock xmlns:dt="urn:schemas-microsoft-com:datatypes"><Description dt:dt="string">E-Prime Primary Realtime Clock</Description><StartTime><Timestamp dt:dt="int">0</Timestamp><DateUtc dt:dt="string">2015-06-18T15:33:04Z</DateUtc></StartTime><FrequencyChanges><FrequencyChange><Frequency dt:dt="r8">3507685</Frequency><Timestamp dt:dt="r8">289829818026</Timestamp><Current dt:dt="r8">0</Current><DateUtc dt:dt="string">2015-06-18T15:33:04Z</DateUtc></FrequencyChange></FrequencyChanges></Clock>\n	Hungry_Donkey_bar_English_2-109-1	60.017	99	1.0.0.18	1	2067674760	Standard	2.0.10.353	2.0.10.353	06-18-2015	6/18/2015 3:33:04 PM	11:33:04	2.0.10.248	76	Bar63-37.bmp	61	4	?	0r_4g.bmp	0r_4g.bmp	0r_2g.bmp	0r_2g.bmp				0r_2g.bmp	TrialProc	TrialList	0	cvbn	-999999	16	395692	0	n	4822	400514	212	-135	77	20	22	21	14	10	8	76	0	0	0	0	4	4	2	2	0	2
Hungry_Donkey_bar_English_2	109	1	<?xml version="1.0"?>\n<Clock xmlns:dt="urn:schemas-microsoft-com:datatypes"><Description dt:dt="string">E-Prime Primary Realtime Clock</Description><StartTime><Timestamp dt:dt="int">0</Timestamp><DateUtc dt:dt="string">2015-06-18T15:33:04Z</DateUtc></StartTime><FrequencyChanges><FrequencyChange><Frequency dt:dt="r8">3507685</Frequency><Timestamp dt:dt="r8">289829818026</Timestamp><Current dt:dt="r8">0</Current><DateUtc dt:dt="string">2015-06-18T15:33:04Z</DateUtc></FrequencyChange></FrequencyChanges></Clock>\n	Hungry_Donkey_bar_English_2-109-1	60.017	99	1.0.0.18	1	2067674760	Standard	2.0.10.353	2.0.10.353	06-18-2015	6/18/2015 3:33:04 PM	11:33:04	2.0.10.248	77	Bar63-37.bmp	62	2	?	0r_4g.bmp	0r_4g.bmp	0r_2g.bmp	0r_2g.bmp		0r_4g.bmp			TrialProc	TrialList	0	cvbn	-999999	16	402540	0	v	1622	404162	216	-135	81	20	26	21	14	6	8	77	0	0	0	0	4	4	2	2	0	4
Hungry_Donkey_bar_English_2	109	1	<?xml version="1.0"?>\n<Clock xmlns:dt="urn:schemas-microsoft-com:datatypes"><Description dt:dt="string">E-Prime Primary Realtime Clock</Description><StartTime><Timestamp dt:dt="int">0</Timestamp><DateUtc dt:dt="string">2015-06-18T15:33:04Z</DateUtc></StartTime><FrequencyChanges><FrequencyChange><Frequency dt:dt="r8">3507685</Frequency><Timestamp dt:dt="r8">289829818026</Timestamp><Current dt:dt="r8">0</Current><DateUtc dt:dt="string">2015-06-18T15:33:04Z</DateUtc></FrequencyChange></FrequencyChanges></Clock>\n	Hungry_Donkey_bar_English_2-109-1	60.017	99	1.0.0.18	1	2067674760	Standard	2.0.10.353	2.0.10.353	06-18-2015	6/18/2015 3:33:04 PM	11:33:04	2.0.10.248	78	Bar63-37.bmp	61	3	?	10r_4g.bmp	0r_4g.bmp	2r_2g.bmp	0r_2g.bmp			2r_2g.bmp		TrialProc	TrialList	0	cvbn	-999999	16	406189	0	b	1109	407298	218	-137	81	20	26	21	14	2	8	78	-10	0	-2	0	4	4	2	2	-2	2
Hungry_Donkey_bar_English_2	109	1	<?xml version="1.0"?>\n<Clock xmlns:dt="urn:schemas-microsoft-com:datatypes"><Description dt:dt="string">E-Prime Primary Realtime Clock</Description><StartTime><Timestamp dt:dt="int">0</Timestamp><DateUtc dt:dt="string">2015-06-18T15:33:04Z</DateUtc></StartTime><FrequencyChanges><FrequencyChange><Frequency dt:dt="r8">3507685</Frequency><Timestamp dt:dt="r8">289829818026</Timestamp><Current dt:dt="r8">0</Current><DateUtc dt:dt="string">2015-06-18T15:33:04Z</DateUtc></FrequencyChange></FrequencyChanges></Clock>\n	Hungry_Donkey_bar_English_2-109-1	60.017	99	1.0.0.18	1	2067674760	Standard	2.0.10.353	2.0.10.353	06-18-2015	6/18/2015 3:33:04 PM	11:33:04	2.0.10.248	79	Bar63-37.bmp	62	4	?	0r_4g.bmp	0r_4g.bmp	0r_2g.bmp	0r_2g.bmp				0r_2g.bmp	TrialProc	TrialList	0	cvbn	-999999	17	409322	0	n	519	409841	220	-137	83	20	26	21	16	7	8	79	0	0	0	0	4	4	2	2	0	2
Hungry_Donkey_bar_English_2	109	1	<?xml version="1.0"?>\n<Clock xmlns:dt="urn:schemas-microsoft-com:datatypes"><Description dt:dt="string">E-Prime Primary Realtime Clock</Description><StartTime><Timestamp dt:dt="int">0</Timestamp><DateUtc dt:dt="string">2015-06-18T15:33:04Z</DateUtc></StartTime><FrequencyChanges><FrequencyChange><Frequency dt:dt="r8">3507685</Frequency><Timestamp dt:dt="r8">289829818026</Timestamp><Current dt:dt="r8">0</Current><DateUtc dt:dt="string">2015-06-18T15:33:04Z</DateUtc></FrequencyChange></FrequencyChanges></Clock>\n	Hungry_Donkey_bar_English_2-109-1	60.017	99	1.0.0.18	1	2067674760	Standard	2.0.10.353	2.0.10.353	06-18-2015	6/18/2015 3:33:04 PM	11:33:04	2.0.10.248	80	Bar63-37.bmp	62	1	?	0r_4g.bmp	0r_4g.bmp	0r_2g.bmp	0r_2g.bmp	0r_4g.bmp				TrialProc	TrialList	0	cvbn	-999999	16	411871	0	c	962	412833	224	-137	87	24	26	21	16	9	8	80	0	0	0	0	4	4	2	2	0	4
Hungry_Donkey_bar_English_2	109	1	<?xml version="1.0"?>\n<Clock xmlns:dt="urn:schemas-microsoft-com:datatypes"><Description dt:dt="string">E-Prime Primary Realtime Clock</Description><StartTime><Timestamp dt:dt="int">0</Timestamp><DateUtc dt:dt="string">2015-06-18T15:33:04Z</DateUtc></StartTime><FrequencyChanges><FrequencyChange><Frequency dt:dt="r8">3507685</Frequency><Timestamp dt:dt="r8">289829818026</Timestamp><Current dt:dt="r8">0</Current><DateUtc dt:dt="string">2015-06-18T15:33:04Z</DateUtc></FrequencyChange></FrequencyChanges></Clock>\n	Hungry_Donkey_bar_English_2-109-1	60.017	99	1.0.0.18	1	2067674760	Standard	2.0.10.353	2.0.10.353	06-18-2015	6/18/2015 3:33:04 PM	11:33:04	2.0.10.248	81	Bar63-37.bmp	62	3	?	10r_4g.bmp	0r_4g.bmp	2r_2g.bmp	0r_2g.bmp			2r_2g.bmp		TrialProc	TrialList	0	cvbn	-999999	16	414870	0	b	1563	416433	226	-139	87	24	26	21	16	4	9	81	-10	0	-2	0	4	4	2	2	-2	2
Hungry_Donkey_bar_English_2	109	1	<?xml version="1.0"?>\n<Clock xmlns:dt="urn:schemas-microsoft-com:datatypes"><Description dt:dt="string">E-Prime Primary Realtime Clock</Description><StartTime><Timestamp dt:dt="int">0</Timestamp><DateUtc dt:dt="string">2015-06-18T15:33:04Z</DateUtc></StartTime><FrequencyChanges><FrequencyChange><Frequency dt:dt="r8">3507685</Frequency><Timestamp dt:dt="r8">289829818026</Timestamp><Current dt:dt="r8">0</Current><DateUtc dt:dt="string">2015-06-18T15:33:04Z</DateUtc></FrequencyChange></FrequencyChanges></Clock>\n	Hungry_Donkey_bar_English_2-109-1	60.017	99	1.0.0.18	1	2067674760	Standard	2.0.10.353	2.0.10.353	06-18-2015	6/18/2015 3:33:04 PM	11:33:04	2.0.10.248	82	Bar63-37.bmp	62	4	?	0r_4g.bmp	0r_4g.bmp	0r_2g.bmp	0r_2g.bmp				0r_2g.bmp	TrialProc	TrialList	0	cvbn	-999999	16	418469	0	n	204	418673	228	-139	89	24	26	21	18	7	9	82	0	0	0	0	4	4	2	2	0	2
Hungry_Donkey_bar_English_2	109	1	<?xml version="1.0"?>\n<Clock xmlns:dt="urn:schemas-microsoft-com:datatypes"><Description dt:dt="string">E-Prime Primary Realtime Clock</Description><StartTime><Timestamp dt:dt="int">0</Timestamp><DateUtc dt:dt="string">2015-06-18T15:33:04Z</DateUtc></StartTime><FrequencyChanges><FrequencyChange><Frequency dt:dt="r8">3507685</Frequency><Timestamp dt:dt="r8">289829818026</Timestamp><Current dt:dt="r8">0</Current><DateUtc dt:dt="string">2015-06-18T15:33:04Z</DateUtc></FrequencyChange></FrequencyChanges></Clock>\n	Hungry_Donkey_bar_English_2-109-1	60.017	99	1.0.0.18	1	2067674760	Standard	2.0.10.353	2.0.10.353	06-18-2015	6/18/2015 3:33:04 PM	11:33:04	2.0.10.248	83	Bar63-37.bmp	63	2	?	0r_4g.bmp	0r_4g.bmp	0r_2g.bmp	0r_2g.bmp		0r_4g.bmp			TrialProc	TrialList	0	cvbn	-999999	16	420702	0	v	339	421041	232	-139	93	24	30	21	18	6	9	83	0	0	0	0	4	4	2	2	0	4
Hungry_Donkey_bar_English_2	109	1	<?xml version="1.0"?>\n<Clock xmlns:dt="urn:schemas-microsoft-com:datatypes"><Description dt:dt="string">E-Prime Primary Realtime Clock</Description><StartTime><Timestamp dt:dt="int">0</Timestamp><DateUtc dt:dt="string">2015-06-18T15:33:04Z</DateUtc></StartTime><FrequencyChanges><FrequencyChange><Frequency dt:dt="r8">3507685</Frequency><Timestamp dt:dt="r8">289829818026</Timestamp><Current dt:dt="r8">0</Current><DateUtc dt:dt="string">2015-06-18T15:33:04Z</DateUtc></FrequencyChange></FrequencyChanges></Clock>\n	Hungry_Donkey_bar_English_2-109-1	60.017	99	1.0.0.18	1	2067674760	Standard	2.0.10.353	2.0.10.353	06-18-2015	6/18/2015 3:33:04 PM	11:33:04	2.0.10.248	84	Bar63-37.bmp	63	4	?	0r_4g.bmp	0r_4g.bmp	0r_2g.bmp	0r_2g.bmp				0r_2g.bmp	TrialProc	TrialList	0	cvbn	-999999	17	423068	0	n	181	423249	234	-139	95	24	30	21	20	8	9	84	0	0	0	0	4	4	2	2	0	2
Hungry_Donkey_bar_English_2	109	1	<?xml version="1.0"?>\n<Clock xmlns:dt="urn:schemas-microsoft-com:datatypes"><Description dt:dt="string">E-Prime Primary Realtime Clock</Description><StartTime><Timestamp dt:dt="int">0</Timestamp><DateUtc dt:dt="string">2015-06-18T15:33:04Z</DateUtc></StartTime><FrequencyChanges><FrequencyChange><Frequency dt:dt="r8">3507685</Frequency><Timestamp dt:dt="r8">289829818026</Timestamp><Current dt:dt="r8">0</Current><DateUtc dt:dt="string">2015-06-18T15:33:04Z</DateUtc></FrequencyChange></FrequencyChanges></Clock>\n	Hungry_Donkey_bar_English_2-109-1	60.017	99	1.0.0.18	1	2067674760	Standard	2.0.10.353	2.0.10.353	06-18-2015	6/18/2015 3:33:04 PM	11:33:04	2.0.10.248	85	Bar63-37.bmp	63	3	?	8r_4g.bmp	50r_4g.bmp	1r_2g.bmp	10r_2g.bmp			1r_2g.bmp		TrialProc	TrialList	0	cvbn	-999999	16	425284	0	b	1709	426993	236	-140	96	24	30	22	20	1	9	85	-8	-50	-1	-10	4	4	2	2	-1	2
Hungry_Donkey_bar_English_2	109	1	<?xml version="1.0"?>\n<Clock xmlns:dt="urn:schemas-microsoft-com:datatypes"><Description dt:dt="string">E-Prime Primary Realtime Clock</Description><StartTime><Timestamp dt:dt="int">0</Timestamp><DateUtc dt:dt="string">2015-06-18T15:33:04Z</DateUtc></StartTime><FrequencyChanges><FrequencyChange><Frequency dt:dt="r8">3507685</Frequency><Timestamp dt:dt="r8">289829818026</Timestamp><Current dt:dt="r8">0</Current><DateUtc dt:dt="string">2015-06-18T15:33:04Z</DateUtc></FrequencyChange></FrequencyChanges></Clock>\n	Hungry_Donkey_bar_English_2-109-1	60.017	99	1.0.0.18	1	2067674760	Standard	2.0.10.353	2.0.10.353	06-18-2015	6/18/2015 3:33:04 PM	11:33:04	2.0.10.248	86	Bar63-37.bmp	63	2	?	10r_4g.bmp	0r_4g.bmp	2r_2g.bmp	0r_2g.bmp		0r_4g.bmp			TrialProc	TrialList	0	cvbn	-999999	17	429033	0	v	887	429920	240	-140	100	24	34	22	20	2	9	86	-10	0	-2	0	4	4	2	2	0	4
Hungry_Donkey_bar_English_2	109	1	<?xml version="1.0"?>\n<Clock xmlns:dt="urn:schemas-microsoft-com:datatypes"><Description dt:dt="string">E-Prime Primary Realtime Clock</Description><StartTime><Timestamp dt:dt="int">0</Timestamp><DateUtc dt:dt="string">2015-06-18T15:33:04Z</DateUtc></StartTime><FrequencyChanges><FrequencyChange><Frequency dt:dt="r8">3507685</Frequency><Timestamp dt:dt="r8">289829818026</Timestamp><Current dt:dt="r8">0</Current><DateUtc dt:dt="string">2015-06-18T15:33:04Z</DateUtc></FrequencyChange></FrequencyChanges></Clock>\n	Hungry_Donkey_bar_English_2-109-1	60.017	99	1.0.0.18	1	2067674760	Standard	2.0.10.353	2.0.10.353	06-18-2015	6/18/2015 3:33:04 PM	11:33:04	2.0.10.248	87	Bar63-37.bmp	64	2	?	0r_4g.bmp	0r_4g.bmp	0r_2g.bmp	0r_2g.bmp		0r_4g.bmp			TrialProc	TrialList	0	cvbn	-999999	16	431948	0	v	916	432864	244	-140	104	24	38	22	20	9	9	87	0	0	0	0	4	4	2	2	0	4
Hungry_Donkey_bar_English_2	109	1	<?xml version="1.0"?>\n<Clock xmlns:dt="urn:schemas-microsoft-com:datatypes"><Description dt:dt="string">E-Prime Primary Realtime Clock</Description><StartTime><Timestamp dt:dt="int">0</Timestamp><DateUtc dt:dt="string">2015-06-18T15:33:04Z</DateUtc></StartTime><FrequencyChanges><FrequencyChange><Frequency dt:dt="r8">3507685</Frequency><Timestamp dt:dt="r8">289829818026</Timestamp><Current dt:dt="r8">0</Current><DateUtc dt:dt="string">2015-06-18T15:33:04Z</DateUtc></FrequencyChange></FrequencyChanges></Clock>\n	Hungry_Donkey_bar_English_2-109-1	60.017	99	1.0.0.18	1	2067674760	Standard	2.0.10.353	2.0.10.353	06-18-2015	6/18/2015 3:33:04 PM	11:33:04	2.0.10.248	88	Bar63-37.bmp	64	4	?	12r_4g.bmp	0r_4g.bmp	3r_2g.bmp	0r_2g.bmp				0r_2g.bmp	TrialProc	TrialList	0	cvbn	-999999	17	434898	0	n	398	435296	246	-140	106	24	38	22	22	5	9	88	-12	0	-3	0	4	4	2	2	0	2
Hungry_Donkey_bar_English_2	109	1	<?xml version="1.0"?>\n<Clock xmlns:dt="urn:schemas-microsoft-com:datatypes"><Description dt:dt="string">E-Prime Primary Realtime Clock</Description><StartTime><Timestamp dt:dt="int">0</Timestamp><DateUtc dt:dt="string">2015-06-18T15:33:04Z</DateUtc></StartTime><FrequencyChanges><FrequencyChange><Frequency dt:dt="r8">3507685</Frequency><Timestamp dt:dt="r8">289829818026</Timestamp><Current dt:dt="r8">0</Current><DateUtc dt:dt="string">2015-06-18T15:33:04Z</DateUtc></FrequencyChange></FrequencyChanges></Clock>\n	Hungry_Donkey_bar_English_2-109-1	60.017	99	1.0.0.18	1	2067674760	Standard	2.0.10.353	2.0.10.353	06-18-2015	6/18/2015 3:33:04 PM	11:33:04	2.0.10.248	89	Bar63-37.bmp	64	2	?	0r_4g.bmp	0r_4g.bmp	0r_2g.bmp	0r_2g.bmp		0r_4g.bmp			TrialProc	TrialList	0	cvbn	-999999	16	437330	0	v	622	437952	250	-140	110	24	42	22	22	10	9	89	0	0	0	0	4	4	2	2	0	4
Hungry_Donkey_bar_English_2	109	1	<?xml version="1.0"?>\n<Clock xmlns:dt="urn:schemas-microsoft-com:datatypes"><Description dt:dt="string">E-Prime Primary Realtime Clock</Description><StartTime><Timestamp dt:dt="int">0</Timestamp><DateUtc dt:dt="string">2015-06-18T15:33:04Z</DateUtc></StartTime><FrequencyChanges><FrequencyChange><Frequency dt:dt="r8">3507685</Frequency><Timestamp dt:dt="r8">289829818026</Timestamp><Current dt:dt="r8">0</Current><DateUtc dt:dt="string">2015-06-18T15:33:04Z</DateUtc></FrequencyChange></FrequencyChanges></Clock>\n	Hungry_Donkey_bar_English_2-109-1	60.017	99	1.0.0.18	1	2067674760	Standard	2.0.10.353	2.0.10.353	06-18-2015	6/18/2015 3:33:04 PM	11:33:04	2.0.10.248	90	Bar63-37.bmp	64	4	?	10r_4g.bmp	0r_4g.bmp	2r_2g.bmp	0r_2g.bmp				0r_2g.bmp	TrialProc	TrialList	0	cvbn	-999999	16	439979	0	n	3509	443488	252	-140	112	24	42	22	24	3	9	90	-10	0	-2	0	4	4	2	2	0	2
Hungry_Donkey_bar_English_2	109	1	<?xml version="1.0"?>\n<Clock xmlns:dt="urn:schemas-microsoft-com:datatypes"><Description dt:dt="string">E-Prime Primary Realtime Clock</Description><StartTime><Timestamp dt:dt="int">0</Timestamp><DateUtc dt:dt="string">2015-06-18T15:33:04Z</DateUtc></StartTime><FrequencyChanges><FrequencyChange><Frequency dt:dt="r8">3507685</Frequency><Timestamp dt:dt="r8">289829818026</Timestamp><Current dt:dt="r8">0</Current><DateUtc dt:dt="string">2015-06-18T15:33:04Z</DateUtc></FrequencyChange></FrequencyChanges></Clock>\n	Hungry_Donkey_bar_English_2-109-1	60.017	99	1.0.0.18	1	2067674760	Standard	2.0.10.353	2.0.10.353	06-18-2015	6/18/2015 3:33:04 PM	11:33:04	2.0.10.248	91	Bar63-37.bmp	64	3	?	12r_4g.bmp	0r_4g.bmp	3r_2g.bmp	0r_2g.bmp			3r_2g.bmp		TrialProc	TrialList	0	cvbn	-999999	16	445511	0	b	889	446400	254	-143	111	24	42	21	24	5	10	91	-12	0	-3	0	4	4	2	2	-3	2
Hungry_Donkey_bar_English_2	109	1	<?xml version="1.0"?>\n<Clock xmlns:dt="urn:schemas-microsoft-com:datatypes"><Description dt:dt="string">E-Prime Primary Realtime Clock</Description><StartTime><Timestamp dt:dt="int">0</Timestamp><DateUtc dt:dt="string">2015-06-18T15:33:04Z</DateUtc></StartTime><FrequencyChanges><FrequencyChange><Frequency dt:dt="r8">3507685</Frequency><Timestamp dt:dt="r8">289829818026</Timestamp><Current dt:dt="r8">0</Current><DateUtc dt:dt="string">2015-06-18T15:33:04Z</DateUtc></FrequencyChange></FrequencyChanges></Clock>\n	Hungry_Donkey_bar_English_2-109-1	60.017	99	1.0.0.18	1	2067674760	Standard	2.0.10.353	2.0.10.353	06-18-2015	6/18/2015 3:33:04 PM	11:33:04	2.0.10.248	92	Bar63-37.bmp	64	2	?	0r_4g.bmp	0r_4g.bmp	0r_2g.bmp	0r_2g.bmp		0r_4g.bmp			TrialProc	TrialList	0	cvbn	-999999	16	448427	0	v	1476	449903	258	-143	115	24	46	21	24	9	10	92	0	0	0	0	4	4	2	2	0	4
Hungry_Donkey_bar_English_2	109	1	<?xml version="1.0"?>\n<Clock xmlns:dt="urn:schemas-microsoft-com:datatypes"><Description dt:dt="string">E-Prime Primary Realtime Clock</Description><StartTime><Timestamp dt:dt="int">0</Timestamp><DateUtc dt:dt="string">2015-06-18T15:33:04Z</DateUtc></StartTime><FrequencyChanges><FrequencyChange><Frequency dt:dt="r8">3507685</Frequency><Timestamp dt:dt="r8">289829818026</Timestamp><Current dt:dt="r8">0</Current><DateUtc dt:dt="string">2015-06-18T15:33:04Z</DateUtc></FrequencyChange></FrequencyChanges></Clock>\n	Hungry_Donkey_bar_English_2-109-1	60.017	99	1.0.0.18	1	2067674760	Standard	2.0.10.353	2.0.10.353	06-18-2015	6/18/2015 3:33:04 PM	11:33:04	2.0.10.248	93	Bar63-37.bmp	65	1	?	0r_4g.bmp	0r_4g.bmp	0r_2g.bmp	0r_2g.bmp	0r_4g.bmp				TrialProc	TrialList	0	cvbn	-999999	17	451943	0	c	1992	453935	262	-143	119	28	46	21	24	6	10	93	0	0	0	0	4	4	2	2	0	4
Hungry_Donkey_bar_English_2	109	1	<?xml version="1.0"?>\n<Clock xmlns:dt="urn:schemas-microsoft-com:datatypes"><Description dt:dt="string">E-Prime Primary Realtime Clock</Description><StartTime><Timestamp dt:dt="int">0</Timestamp><DateUtc dt:dt="string">2015-06-18T15:33:04Z</DateUtc></StartTime><FrequencyChanges><FrequencyChange><Frequency dt:dt="r8">3507685</Frequency><Timestamp dt:dt="r8">289829818026</Timestamp><Current dt:dt="r8">0</Current><DateUtc dt:dt="string">2015-06-18T15:33:04Z</DateUtc></FrequencyChange></FrequencyChanges></Clock>\n	Hungry_Donkey_bar_English_2-109-1	60.017	99	1.0.0.18	1	2067674760	Standard	2.0.10.353	2.0.10.353	06-18-2015	6/18/2015 3:33:04 PM	11:33:04	2.0.10.248	94	Bar63-37.bmp	65	3	?	0r_4g.bmp	0r_4g.bmp	0r_2g.bmp	0r_2g.bmp			0r_2g.bmp		TrialProc	TrialList	0	cvbn	-999999	16	455975	0	b	808	456783	264	-143	121	28	46	23	24	10	10	94	0	0	0	0	4	4	2	2	0	2
Hungry_Donkey_bar_English_2	109	1	<?xml version="1.0"?>\n<Clock xmlns:dt="urn:schemas-microsoft-com:datatypes"><Description dt:dt="string">E-Prime Primary Realtime Clock</Description><StartTime><Timestamp dt:dt="int">0</Timestamp><DateUtc dt:dt="string">2015-06-18T15:33:04Z</DateUtc></StartTime><FrequencyChanges><FrequencyChange><Frequency dt:dt="r8">3507685</Frequency><Timestamp dt:dt="r8">289829818026</Timestamp><Current dt:dt="r8">0</Current><DateUtc dt:dt="string">2015-06-18T15:33:04Z</DateUtc></FrequencyChange></FrequencyChanges></Clock>\n	Hungry_Donkey_bar_English_2-109-1	60.017	99	1.0.0.18	1	2067674760	Standard	2.0.10.353	2.0.10.353	06-18-2015	6/18/2015 3:33:04 PM	11:33:04	2.0.10.248	95	Bar63-37.bmp	65	4	?	0r_4g.bmp	0r_4g.bmp	0r_2g.bmp	0r_2g.bmp				0r_2g.bmp	TrialProc	TrialList	0	cvbn	-999999	16	458807	0	n	408	459215	266	-143	123	28	46	23	26	7	10	95	0	0	0	0	4	4	2	2	0	2
Hungry_Donkey_bar_English_2	109	1	<?xml version="1.0"?>\n<Clock xmlns:dt="urn:schemas-microsoft-com:datatypes"><Description dt:dt="string">E-Prime Primary Realtime Clock</Description><StartTime><Timestamp dt:dt="int">0</Timestamp><DateUtc dt:dt="string">2015-06-18T15:33:04Z</DateUtc></StartTime><FrequencyChanges><FrequencyChange><Frequency dt:dt="r8">3507685</Frequency><Timestamp dt:dt="r8">289829818026</Timestamp><Current dt:dt="r8">0</Current><DateUtc dt:dt="string">2015-06-18T15:33:04Z</DateUtc></FrequencyChange></FrequencyChanges></Clock>\n	Hungry_Donkey_bar_English_2-109-1	60.017	99	1.0.0.18	1	2067674760	Standard	2.0.10.353	2.0.10.353	06-18-2015	6/18/2015 3:33:04 PM	11:33:04	2.0.10.248	96	Bar63-37.bmp	64	1	?	10r_4g.bmp	0r_4g.bmp	2r_2g.bmp	0r_2g.bmp	10r_4g.bmp				TrialProc	TrialList	0	cvbn	-999999	16	461240	0	c	423	461663	270	-153	117	22	46	23	26	3	10	96	-10	0	-2	0	4	4	2	2	-10	4
Hungry_Donkey_bar_English_2	109	1	<?xml version="1.0"?>\n<Clock xmlns:dt="urn:schemas-microsoft-com:datatypes"><Description dt:dt="string">E-Prime Primary Realtime Clock</Description><StartTime><Timestamp dt:dt="int">0</Timestamp><DateUtc dt:dt="string">2015-06-18T15:33:04Z</DateUtc></StartTime><FrequencyChanges><FrequencyChange><Frequency dt:dt="r8">3507685</Frequency><Timestamp dt:dt="r8">289829818026</Timestamp><Current dt:dt="r8">0</Current><DateUtc dt:dt="string">2015-06-18T15:33:04Z</DateUtc></FrequencyChange></FrequencyChanges></Clock>\n	Hungry_Donkey_bar_English_2-109-1	60.017	99	1.0.0.18	1	2067674760	Standard	2.0.10.353	2.0.10.353	06-18-2015	6/18/2015 3:33:04 PM	11:33:04	2.0.10.248	97	Bar63-37.bmp	64	4	?	0r_4g.bmp	0r_4g.bmp	0r_2g.bmp	0r_2g.bmp				0r_2g.bmp	TrialProc	TrialList	0	cvbn	-999999	16	463689	0	n	1270	464959	272	-153	119	22	46	23	28	8	10	97	0	0	0	0	4	4	2	2	0	2
Hungry_Donkey_bar_English_2	109	1	<?xml version="1.0"?>\n<Clock xmlns:dt="urn:schemas-microsoft-com:datatypes"><Description dt:dt="string">E-Prime Primary Realtime Clock</Description><StartTime><Timestamp dt:dt="int">0</Timestamp><DateUtc dt:dt="string">2015-06-18T15:33:04Z</DateUtc></StartTime><FrequencyChanges><FrequencyChange><Frequency dt:dt="r8">3507685</Frequency><Timestamp dt:dt="r8">289829818026</Timestamp><Current dt:dt="r8">0</Current><DateUtc dt:dt="string">2015-06-18T15:33:04Z</DateUtc></FrequencyChange></FrequencyChanges></Clock>\n	Hungry_Donkey_bar_English_2-109-1	60.017	99	1.0.0.18	1	2067674760	Standard	2.0.10.353	2.0.10.353	06-18-2015	6/18/2015 3:33:04 PM	11:33:04	2.0.10.248	98	Bar63-37.bmp	64	3	?	8r_4g.bmp	50r_4g.bmp	1r_2g.bmp	10r_2g.bmp			1r_2g.bmp		TrialProc	TrialList	0	cvbn	-999999	16	466988	0	b	834	467822	274	-154	120	22	46	24	28	1	10	98	-8	-50	-1	-10	4	4	2	2	-1	2
Hungry_Donkey_bar_English_2	109	1	<?xml version="1.0"?>\n<Clock xmlns:dt="urn:schemas-microsoft-com:datatypes"><Description dt:dt="string">E-Prime Primary Realtime Clock</Description><StartTime><Timestamp dt:dt="int">0</Timestamp><DateUtc dt:dt="string">2015-06-18T15:33:04Z</DateUtc></StartTime><FrequencyChanges><FrequencyChange><Frequency dt:dt="r8">3507685</Frequency><Timestamp dt:dt="r8">289829818026</Timestamp><Current dt:dt="r8">0</Current><DateUtc dt:dt="string">2015-06-18T15:33:04Z</DateUtc></FrequencyChange></FrequencyChanges></Clock>\n	Hungry_Donkey_bar_English_2-109-1	60.017	99	1.0.0.18	1	2067674760	Standard	2.0.10.353	2.0.10.353	06-18-2015	6/18/2015 3:33:04 PM	11:33:04	2.0.10.248	99	Bar63-37.bmp	64	2	?	10r_4g.bmp	0r_4g.bmp	2r_2g.bmp	0r_2g.bmp		0r_4g.bmp			TrialProc	TrialList	0	cvbn	-999999	16	469854	0	v	464	470318	278	-154	124	22	50	24	28	4	10	99	-10	0	-2	0	4	4	2	2	0	4
Hungry_Donkey_bar_English_2	109	1	<?xml version="1.0"?>\n<Clock xmlns:dt="urn:schemas-microsoft-com:datatypes"><Description dt:dt="string">E-Prime Primary Realtime Clock</Description><StartTime><Timestamp dt:dt="int">0</Timestamp><DateUtc dt:dt="string">2015-06-18T15:33:04Z</DateUtc></StartTime><FrequencyChanges><FrequencyChange><Frequency dt:dt="r8">3507685</Frequency><Timestamp dt:dt="r8">289829818026</Timestamp><Current dt:dt="r8">0</Current><DateUtc dt:dt="string">2015-06-18T15:33:04Z</DateUtc></FrequencyChange></FrequencyChanges></Clock>\n	Hungry_Donkey_bar_English_2-109-1	60.017	99	1.0.0.18	1	2067674760	Standard	2.0.10.353	2.0.10.353	06-18-2015	6/18/2015 3:33:04 PM	11:33:04	2.0.10.248	100	Bar63-37.bmp	65	4	?	10r_4g.bmp	0r_4g.bmp	2r_2g.bmp	0r_2g.bmp				0r_2g.bmp	TrialProc	TrialList	0	cvbn	-999999	16	472353	0	n	541	472894	280	-154	126	22	50	24	30	2	10	100	-10	0	-2	0	4	4	2	2	0	2
Hungry_Donkey_bar_English_2	109	1	<?xml version="1.0"?>\n<Clock xmlns:dt="urn:schemas-microsoft-com:datatypes"><Description dt:dt="string">E-Prime Primary Realtime Clock</Description><StartTime><Timestamp dt:dt="int">0</Timestamp><DateUtc dt:dt="string">2015-06-18T15:33:04Z</DateUtc></StartTime><FrequencyChanges><FrequencyChange><Frequency dt:dt="r8">3507685</Frequency><Timestamp dt:dt="r8">289829818026</Timestamp><Current dt:dt="r8">0</Current><DateUtc dt:dt="string">2015-06-18T15:33:04Z</DateUtc></FrequencyChange></FrequencyChanges></Clock>\n	Hungry_Donkey_bar_English_2-109-1	60.017	99	1.0.0.18	1	2067674760	Standard	2.0.10.353	2.0.10.353	06-18-2015	6/18/2015 3:33:04 PM	11:33:04	2.0.10.248	101	Bar63-37.bmp	65	1	?	0r_4g.bmp	0r_4g.bmp	0r_2g.bmp	0r_2g.bmp	0r_4g.bmp				TrialProc	TrialList	0	cvbn	-999999	16	474919	0	c	663	475582	284	-154	130	26	50	24	30	8	11	101	0	0	0	0	4	4	2	2	0	4
Hungry_Donkey_bar_English_2	109	1	<?xml version="1.0"?>\n<Clock xmlns:dt="urn:schemas-microsoft-com:datatypes"><Description dt:dt="string">E-Prime Primary Realtime Clock</Description><StartTime><Timestamp dt:dt="int">0</Timestamp><DateUtc dt:dt="string">2015-06-18T15:33:04Z</DateUtc></StartTime><FrequencyChanges><FrequencyChange><Frequency dt:dt="r8">3507685</Frequency><Timestamp dt:dt="r8">289829818026</Timestamp><Current dt:dt="r8">0</Current><DateUtc dt:dt="string">2015-06-18T15:33:04Z</DateUtc></FrequencyChange></FrequencyChanges></Clock>\n	Hungry_Donkey_bar_English_2-109-1	60.017	99	1.0.0.18	1	2067674760	Standard	2.0.10.353	2.0.10.353	06-18-2015	6/18/2015 3:33:04 PM	11:33:04	2.0.10.248	102	Bar63-37.bmp	65	3	?	10r_4g.bmp	0r_4g.bmp	2r_2g.bmp	0r_2g.bmp			2r_2g.bmp		TrialProc	TrialList	0	cvbn	-999999	16	477618	0	b	604	478222	286	-156	130	26	50	24	30	3	11	102	-10	0	-2	0	4	4	2	2	-2	2
Hungry_Donkey_bar_English_2	109	1	<?xml version="1.0"?>\n<Clock xmlns:dt="urn:schemas-microsoft-com:datatypes"><Description dt:dt="string">E-Prime Primary Realtime Clock</Description><StartTime><Timestamp dt:dt="int">0</Timestamp><DateUtc dt:dt="string">2015-06-18T15:33:04Z</DateUtc></StartTime><FrequencyChanges><FrequencyChange><Frequency dt:dt="r8">3507685</Frequency><Timestamp dt:dt="r8">289829818026</Timestamp><Current dt:dt="r8">0</Current><DateUtc dt:dt="string">2015-06-18T15:33:04Z</DateUtc></FrequencyChange></FrequencyChanges></Clock>\n	Hungry_Donkey_bar_English_2-109-1	60.017	99	1.0.0.18	1	2067674760	Standard	2.0.10.353	2.0.10.353	06-18-2015	6/18/2015 3:33:04 PM	11:33:04	2.0.10.248	103	Bar63-37.bmp	65	4	?	0r_4g.bmp	0r_4g.bmp	0r_2g.bmp	0r_2g.bmp				0r_2g.bmp	TrialProc	TrialList	0	cvbn	-999999	16	480251	0	n	243	480494	288	-156	132	26	50	24	32	7	11	103	0	0	0	0	4	4	2	2	0	2
Hungry_Donkey_bar_English_2	109	1	<?xml version="1.0"?>\n<Clock xmlns:dt="urn:schemas-microsoft-com:datatypes"><Description dt:dt="string">E-Prime Primary Realtime Clock</Description><StartTime><Timestamp dt:dt="int">0</Timestamp><DateUtc dt:dt="string">2015-06-18T15:33:04Z</DateUtc></StartTime><FrequencyChanges><FrequencyChange><Frequency dt:dt="r8">3507685</Frequency><Timestamp dt:dt="r8">289829818026</Timestamp><Current dt:dt="r8">0</Current><DateUtc dt:dt="string">2015-06-18T15:33:04Z</DateUtc></FrequencyChange></FrequencyChanges></Clock>\n	Hungry_Donkey_bar_English_2-109-1	60.017	99	1.0.0.18	1	2067674760	Standard	2.0.10.353	2.0.10.353	06-18-2015	6/18/2015 3:33:04 PM	11:33:04	2.0.10.248	104	Bar63-37.bmp	65	2	?	10r_4g.bmp	0r_4g.bmp	2r_2g.bmp	0r_2g.bmp		0r_4g.bmp			TrialProc	TrialList	0	cvbn	-999999	16	482534	0	v	1112	483646	292	-156	136	26	54	24	32	2	11	104	-10	0	-2	0	4	4	2	2	0	4
Hungry_Donkey_bar_English_2	109	1	<?xml version="1.0"?>\n<Clock xmlns:dt="urn:schemas-microsoft-com:datatypes"><Description dt:dt="string">E-Prime Primary Realtime Clock</Description><StartTime><Timestamp dt:dt="int">0</Timestamp><DateUtc dt:dt="string">2015-06-18T15:33:04Z</DateUtc></StartTime><FrequencyChanges><FrequencyChange><Frequency dt:dt="r8">3507685</Frequency><Timestamp dt:dt="r8">289829818026</Timestamp><Current dt:dt="r8">0</Current><DateUtc dt:dt="string">2015-06-18T15:33:04Z</DateUtc></FrequencyChange></FrequencyChanges></Clock>\n	Hungry_Donkey_bar_English_2-109-1	60.017	99	1.0.0.18	1	2067674760	Standard	2.0.10.353	2.0.10.353	06-18-2015	6/18/2015 3:33:04 PM	11:33:04	2.0.10.248	105	Bar63-37.bmp	64	1	?	10r_4g.bmp	0r_4g.bmp	2r_2g.bmp	0r_2g.bmp	10r_4g.bmp				TrialProc	TrialList	0	cvbn	-999999	16	485683	0	c	331	486014	296	-166	130	20	54	24	32	4	11	105	-10	0	-2	0	4	4	2	2	-10	4
Hungry_Donkey_bar_English_2	109	1	<?xml version="1.0"?>\n<Clock xmlns:dt="urn:schemas-microsoft-com:datatypes"><Description dt:dt="string">E-Prime Primary Realtime Clock</Description><StartTime><Timestamp dt:dt="int">0</Timestamp><DateUtc dt:dt="string">2015-06-18T15:33:04Z</DateUtc></StartTime><FrequencyChanges><FrequencyChange><Frequency dt:dt="r8">3507685</Frequency><Timestamp dt:dt="r8">289829818026</Timestamp><Current dt:dt="r8">0</Current><DateUtc dt:dt="string">2015-06-18T15:33:04Z</DateUtc></FrequencyChange></FrequencyChanges></Clock>\n	Hungry_Donkey_bar_English_2-109-1	60.017	99	1.0.0.18	1	2067674760	Standard	2.0.10.353	2.0.10.353	06-18-2015	6/18/2015 3:33:04 PM	11:33:04	2.0.10.248	106	Bar63-37.bmp	64	3	?	0r_4g.bmp	0r_4g.bmp	0r_2g.bmp	0r_2g.bmp			0r_2g.bmp		TrialProc	TrialList	0	cvbn	-999999	16	488049	0	b	2364	490413	298	-166	132	20	54	26	32	10	11	106	0	0	0	0	4	4	2	2	0	2
Hungry_Donkey_bar_English_2	109	1	<?xml version="1.0"?>\n<Clock xmlns:dt="urn:schemas-microsoft-com:datatypes"><Description dt:dt="string">E-Prime Primary Realtime Clock</Description><StartTime><Timestamp dt:dt="int">0</Timestamp><DateUtc dt:dt="string">2015-06-18T15:33:04Z</DateUtc></StartTime><FrequencyChanges><FrequencyChange><Frequency dt:dt="r8">3507685</Frequency><Timestamp dt:dt="r8">289829818026</Timestamp><Current dt:dt="r8">0</Current><DateUtc dt:dt="string">2015-06-18T15:33:04Z</DateUtc></FrequencyChange></FrequencyChanges></Clock>\n	Hungry_Donkey_bar_English_2-109-1	60.017	99	1.0.0.18	1	2067674760	Standard	2.0.10.353	2.0.10.353	06-18-2015	6/18/2015 3:33:04 PM	11:33:04	2.0.10.248	107	Bar63-37.bmp	58	2	?	8r_4g.bmp	50r_4g.bmp	1r_2g.bmp	10r_2g.bmp		50r_4g.bmp			TrialProc	TrialList	0	cvbn	-999999	17	492448	0	v	2701	495149	302	-216	86	20	8	26	32	1	11	107	-8	-50	-1	-10	4	4	2	2	-50	4
Hungry_Donkey_bar_English_2	109	1	<?xml version="1.0"?>\n<Clock xmlns:dt="urn:schemas-microsoft-com:datatypes"><Description dt:dt="string">E-Prime Primary Realtime Clock</Description><StartTime><Timestamp dt:dt="int">0</Timestamp><DateUtc dt:dt="string">2015-06-18T15:33:04Z</DateUtc></StartTime><FrequencyChanges><FrequencyChange><Frequency dt:dt="r8">3507685</Frequency><Timestamp dt:dt="r8">289829818026</Timestamp><Current dt:dt="r8">0</Current><DateUtc dt:dt="string">2015-06-18T15:33:04Z</DateUtc></FrequencyChange></FrequencyChanges></Clock>\n	Hungry_Donkey_bar_English_2-109-1	60.017	99	1.0.0.18	1	2067674760	Standard	2.0.10.353	2.0.10.353	06-18-2015	6/18/2015 3:33:04 PM	11:33:04	2.0.10.248	108	Bar63-37.bmp	59	2	?	0r_4g.bmp	0r_4g.bmp	0r_2g.bmp	0r_2g.bmp		0r_4g.bmp			TrialProc	TrialList	0	cvbn	-999999	17	497180	0	v	3857	501037	306	-216	90	20	12	26	32	9	11	108	0	0	0	0	4	4	2	2	0	4
Hungry_Donkey_bar_English_2	109	1	<?xml version="1.0"?>\n<Clock xmlns:dt="urn:schemas-microsoft-com:datatypes"><Description dt:dt="string">E-Prime Primary Realtime Clock</Description><StartTime><Timestamp dt:dt="int">0</Timestamp><DateUtc dt:dt="string">2015-06-18T15:33:04Z</DateUtc></StartTime><FrequencyChanges><FrequencyChange><Frequency dt:dt="r8">3507685</Frequency><Timestamp dt:dt="r8">289829818026</Timestamp><Current dt:dt="r8">0</Current><DateUtc dt:dt="string">2015-06-18T15:33:04Z</DateUtc></FrequencyChange></FrequencyChanges></Clock>\n	Hungry_Donkey_bar_English_2-109-1	60.017	99	1.0.0.18	1	2067674760	Standard	2.0.10.353	2.0.10.353	06-18-2015	6/18/2015 3:33:04 PM	11:33:04	2.0.10.248	109	Bar63-37.bmp	59	1	?	0r_4g.bmp	0r_4g.bmp	0r_2g.bmp	0r_2g.bmp	0r_4g.bmp				TrialProc	TrialList	0	cvbn	-999999	16	503061	0	c	104	503165	310	-216	94	24	12	26	32	6	11	109	0	0	0	0	4	4	2	2	0	4
Hungry_Donkey_bar_English_2	109	1	<?xml version="1.0"?>\n<Clock xmlns:dt="urn:schemas-microsoft-com:datatypes"><Description dt:dt="string">E-Prime Primary Realtime Clock</Description><StartTime><Timestamp dt:dt="int">0</Timestamp><DateUtc dt:dt="string">2015-06-18T15:33:04Z</DateUtc></StartTime><FrequencyChanges><FrequencyChange><Frequency dt:dt="r8">3507685</Frequency><Timestamp dt:dt="r8">289829818026</Timestamp><Current dt:dt="r8">0</Current><DateUtc dt:dt="string">2015-06-18T15:33:04Z</DateUtc></FrequencyChange></FrequencyChanges></Clock>\n	Hungry_Donkey_bar_English_2-109-1	60.017	99	1.0.0.18	1	2067674760	Standard	2.0.10.353	2.0.10.353	06-18-2015	6/18/2015 3:33:04 PM	11:33:04	2.0.10.248	110	Bar63-37.bmp	59	3	?	12r_4g.bmp	0r_4g.bmp	3r_2g.bmp	0r_2g.bmp			3r_2g.bmp		TrialProc	TrialList	0	cvbn	-999999	16	505194	0	b	1362	506556	312	-219	93	24	12	25	32	5	11	110	-12	0	-3	0	4	4	2	2	-3	2
Hungry_Donkey_bar_English_2	109	1	<?xml version="1.0"?>\n<Clock xmlns:dt="urn:schemas-microsoft-com:datatypes"><Description dt:dt="string">E-Prime Primary Realtime Clock</Description><StartTime><Timestamp dt:dt="int">0</Timestamp><DateUtc dt:dt="string">2015-06-18T15:33:04Z</DateUtc></StartTime><FrequencyChanges><FrequencyChange><Frequency dt:dt="r8">3507685</Frequency><Timestamp dt:dt="r8">289829818026</Timestamp><Current dt:dt="r8">0</Current><DateUtc dt:dt="string">2015-06-18T15:33:04Z</DateUtc></FrequencyChange></FrequencyChanges></Clock>\n	Hungry_Donkey_bar_English_2-109-1	60.017	99	1.0.0.18	1	2067674760	Standard	2.0.10.353	2.0.10.353	06-18-2015	6/18/2015 3:33:04 PM	11:33:04	2.0.10.248	111	Bar63-37.bmp	59	4	?	12r_4g.bmp	0r_4g.bmp	3r_2g.bmp	0r_2g.bmp				0r_2g.bmp	TrialProc	TrialList	0	cvbn	-999999	16	508593	0	n	667	509260	314	-219	95	24	12	25	34	5	12	111	-12	0	-3	0	4	4	2	2	0	2
