ExperimentName	Subject	Session	Clock.Information	DataFile.Basename	Display.RefreshRate	Eindtotaal[Session]	ExperimentVersion	Group	RandomSeed	RuntimeCapabilities	RuntimeVersion	RuntimeVersionExpected	SessionDate	SessionStartDateTimeUtc	SessionTime	StudioVersion	Block	BarImage	BarTotalWinst	DoorChoice	Eindtotaal[Block]	FBDoor1	FBDoor2	FBDoor3	FBDoor4	Image1	Image2	Image3	Image4	Procedure	Running	spel.ACC	spel.CRESP	spel.DurationError	spel.OnsetDelay	spel.OnsetTime	spel.OnsetToOnsetTime	spel.RESP	spel.RT	spel.RTTime	TotalGain	TotalLose	Totalsum	TotalsumD1	TotalsumD2	TotalsumD3	TotalsumD4	TrialList	TrialList.Cycle	TrialList.Sample	varV1	varV2	varV3	varV4	varW1	varW2	varW3	varW4	Verliesbedrag	Winstbedrag
Hungry_Donkey_bar_English_2	146	1	<?xml version="1.0"?>\n<Clock xmlns:dt="urn:schemas-microsoft-com:datatypes"><Description dt:dt="string">E-Prime Primary Realtime Clock</Description><StartTime><Timestamp dt:dt="int">0</Timestamp><DateUtc dt:dt="string">2016-05-26T22:01:33Z</DateUtc></StartTime><FrequencyChanges><FrequencyChange><Frequency dt:dt="r8">3507734</Frequency><Timestamp dt:dt="r8">297058136005</Timestamp><Current dt:dt="r8">0</Current><DateUtc dt:dt="string">2016-05-26T22:01:33Z</DateUtc></FrequencyChange></FrequencyChanges></Clock>\n	Hungry_Donkey_bar_English_2-146-1	60.018	-71	1.0.0.18	1	706105876	Standard	2.0.10.353	2.0.10.353	05-26-2016		18:01:33	2.0.10.248	1	Bar100-0.bmp	100	2	?	0r_4g.bmp	0r_4g.bmp	0r_2g.bmp	0r_2g.bmp		0r_4g.bmp			TrialProc	TrialList	0	cvbn	-999999	17	66603	0	v	1807	68410	4	0	4	0	4	0	0	8	1	1	0	0	0	0	4	4	2	2	0	4
Hungry_Donkey_bar_English_2	146	1	<?xml version="1.0"?>\n<Clock xmlns:dt="urn:schemas-microsoft-com:datatypes"><Description dt:dt="string">E-Prime Primary Realtime Clock</Description><StartTime><Timestamp dt:dt="int">0</Timestamp><DateUtc dt:dt="string">2016-05-26T22:01:33Z</DateUtc></StartTime><FrequencyChanges><FrequencyChange><Frequency dt:dt="r8">3507734</Frequency><Timestamp dt:dt="r8">297058136005</Timestamp><Current dt:dt="r8">0</Current><DateUtc dt:dt="string">2016-05-26T22:01:33Z</DateUtc></FrequencyChange></FrequencyChanges></Clock>\n	Hungry_Donkey_bar_English_2-146-1	60.018	-71	1.0.0.18	1	706105876	Standard	2.0.10.353	2.0.10.353	05-26-2016		18:01:33	2.0.10.248	2	Bar50-50.bmp	50	1	?	8r_4g.bmp	50r_4g.bmp	1r_2g.bmp	10r_2g.bmp	8r_4g.bmp				TrialProc	TrialList	0	cvbn	-999999	16	70452	0	c	2310	72762	8	-8	0	-4	4	0	0	1	1	2	-8	-50	-1	-10	4	4	2	2	-8	4
Hungry_Donkey_bar_English_2	146	1	<?xml version="1.0"?>\n<Clock xmlns:dt="urn:schemas-microsoft-com:datatypes"><Description dt:dt="string">E-Prime Primary Realtime Clock</Description><StartTime><Timestamp dt:dt="int">0</Timestamp><DateUtc dt:dt="string">2016-05-26T22:01:33Z</DateUtc></StartTime><FrequencyChanges><FrequencyChange><Frequency dt:dt="r8">3507734</Frequency><Timestamp dt:dt="r8">297058136005</Timestamp><Current dt:dt="r8">0</Current><DateUtc dt:dt="string">2016-05-26T22:01:33Z</DateUtc></FrequencyChange></FrequencyChanges></Clock>\n	Hungry_Donkey_bar_English_2-146-1	60.018	-71	1.0.0.18	1	706105876	Standard	2.0.10.353	2.0.10.353	05-26-2016		18:01:33	2.0.10.248	3	Bar50-50.bmp	56	4	?	0r_4g.bmp	0r_4g.bmp	0r_2g.bmp	0r_2g.bmp				0r_2g.bmp	TrialProc	TrialList	0	cvbn	-999999	16	74800	0	n	21032	95832	10	-8	2	-4	4	0	2	6	1	3	0	0	0	0	4	4	2	2	0	2
Hungry_Donkey_bar_English_2	146	1	<?xml version="1.0"?>\n<Clock xmlns:dt="urn:schemas-microsoft-com:datatypes"><Description dt:dt="string">E-Prime Primary Realtime Clock</Description><StartTime><Timestamp dt:dt="int">0</Timestamp><DateUtc dt:dt="string">2016-05-26T22:01:33Z</DateUtc></StartTime><FrequencyChanges><FrequencyChange><Frequency dt:dt="r8">3507734</Frequency><Timestamp dt:dt="r8">297058136005</Timestamp><Current dt:dt="r8">0</Current><DateUtc dt:dt="string">2016-05-26T22:01:33Z</DateUtc></FrequencyChange></FrequencyChanges></Clock>\n	Hungry_Donkey_bar_English_2-146-1	60.018	-71	1.0.0.18	1	706105876	Standard	2.0.10.353	2.0.10.353	05-26-2016		18:01:33	2.0.10.248	4	Bar63-37.bmp	64	2	?	10r_4g.bmp	0r_4g.bmp	2r_2g.bmp	0r_2g.bmp		0r_4g.bmp			TrialProc	TrialList	0	cvbn	-999999	16	97860	0	v	1588	99448	14	-8	6	-4	8	0	2	3	1	4	-10	0	-2	0	4	4	2	2	0	4
Hungry_Donkey_bar_English_2	146	1	<?xml version="1.0"?>\n<Clock xmlns:dt="urn:schemas-microsoft-com:datatypes"><Description dt:dt="string">E-Prime Primary Realtime Clock</Description><StartTime><Timestamp dt:dt="int">0</Timestamp><DateUtc dt:dt="string">2016-05-26T22:01:33Z</DateUtc></StartTime><FrequencyChanges><FrequencyChange><Frequency dt:dt="r8">3507734</Frequency><Timestamp dt:dt="r8">297058136005</Timestamp><Current dt:dt="r8">0</Current><DateUtc dt:dt="string">2016-05-26T22:01:33Z</DateUtc></FrequencyChange></FrequencyChanges></Clock>\n	Hungry_Donkey_bar_English_2-146-1	60.018	-71	1.0.0.18	1	706105876	Standard	2.0.10.353	2.0.10.353	05-26-2016		18:01:33	2.0.10.248	5	Bar63-37.bmp	69	2	?	0r_4g.bmp	0r_4g.bmp	0r_2g.bmp	0r_2g.bmp		0r_4g.bmp			TrialProc	TrialList	0	cvbn	-999999	16	101476	0	v	2516	103992	18	-8	10	-4	12	0	2	10	1	5	0	0	0	0	4	4	2	2	0	4
Hungry_Donkey_bar_English_2	146	1	<?xml version="1.0"?>\n<Clock xmlns:dt="urn:schemas-microsoft-com:datatypes"><Description dt:dt="string">E-Prime Primary Realtime Clock</Description><StartTime><Timestamp dt:dt="int">0</Timestamp><DateUtc dt:dt="string">2016-05-26T22:01:33Z</DateUtc></StartTime><FrequencyChanges><FrequencyChange><Frequency dt:dt="r8">3507734</Frequency><Timestamp dt:dt="r8">297058136005</Timestamp><Current dt:dt="r8">0</Current><DateUtc dt:dt="string">2016-05-26T22:01:33Z</DateUtc></FrequencyChange></FrequencyChanges></Clock>\n	Hungry_Donkey_bar_English_2-146-1	60.018	-71	1.0.0.18	1	706105876	Standard	2.0.10.353	2.0.10.353	05-26-2016		18:01:33	2.0.10.248	6	Bar75-25.bmp	73	2	?	12r_4g.bmp	0r_4g.bmp	3r_2g.bmp	0r_2g.bmp		0r_4g.bmp			TrialProc	TrialList	0	cvbn	-999999	16	106024	0	v	1263	107287	22	-8	14	-4	16	0	2	5	1	6	-12	0	-3	0	4	4	2	2	0	4
Hungry_Donkey_bar_English_2	146	1	<?xml version="1.0"?>\n<Clock xmlns:dt="urn:schemas-microsoft-com:datatypes"><Description dt:dt="string">E-Prime Primary Realtime Clock</Description><StartTime><Timestamp dt:dt="int">0</Timestamp><DateUtc dt:dt="string">2016-05-26T22:01:33Z</DateUtc></StartTime><FrequencyChanges><FrequencyChange><Frequency dt:dt="r8">3507734</Frequency><Timestamp dt:dt="r8">297058136005</Timestamp><Current dt:dt="r8">0</Current><DateUtc dt:dt="string">2016-05-26T22:01:33Z</DateUtc></FrequencyChange></FrequencyChanges></Clock>\n	Hungry_Donkey_bar_English_2-146-1	60.018	-71	1.0.0.18	1	706105876	Standard	2.0.10.353	2.0.10.353	05-26-2016		18:01:33	2.0.10.248	7	Bar75-25.bmp	76	2	?	0r_4g.bmp	0r_4g.bmp	0r_2g.bmp	0r_2g.bmp		0r_4g.bmp			TrialProc	TrialList	0	cvbn	-999999	16	109323	0	v	1612	110935	26	-8	18	-4	20	0	2	7	1	7	0	0	0	0	4	4	2	2	0	4
Hungry_Donkey_bar_English_2	146	1	<?xml version="1.0"?>\n<Clock xmlns:dt="urn:schemas-microsoft-com:datatypes"><Description dt:dt="string">E-Prime Primary Realtime Clock</Description><StartTime><Timestamp dt:dt="int">0</Timestamp><DateUtc dt:dt="string">2016-05-26T22:01:33Z</DateUtc></StartTime><FrequencyChanges><FrequencyChange><Frequency dt:dt="r8">3507734</Frequency><Timestamp dt:dt="r8">297058136005</Timestamp><Current dt:dt="r8">0</Current><DateUtc dt:dt="string">2016-05-26T22:01:33Z</DateUtc></FrequencyChange></FrequencyChanges></Clock>\n	Hungry_Donkey_bar_English_2-146-1	60.018	-71	1.0.0.18	1	706105876	Standard	2.0.10.353	2.0.10.353	05-26-2016		18:01:33	2.0.10.248	8	Bar75-25.bmp	79	2	?	0r_4g.bmp	0r_4g.bmp	0r_2g.bmp	0r_2g.bmp		0r_4g.bmp			TrialProc	TrialList	0	cvbn	-999999	16	112972	0	v	1035	114007	30	-8	22	-4	24	0	2	9	1	8	0	0	0	0	4	4	2	2	0	4
Hungry_Donkey_bar_English_2	146	1	<?xml version="1.0"?>\n<Clock xmlns:dt="urn:schemas-microsoft-com:datatypes"><Description dt:dt="string">E-Prime Primary Realtime Clock</Description><StartTime><Timestamp dt:dt="int">0</Timestamp><DateUtc dt:dt="string">2016-05-26T22:01:33Z</DateUtc></StartTime><FrequencyChanges><FrequencyChange><Frequency dt:dt="r8">3507734</Frequency><Timestamp dt:dt="r8">297058136005</Timestamp><Current dt:dt="r8">0</Current><DateUtc dt:dt="string">2016-05-26T22:01:33Z</DateUtc></FrequencyChange></FrequencyChanges></Clock>\n	Hungry_Donkey_bar_English_2-146-1	60.018	-71	1.0.0.18	1	706105876	Standard	2.0.10.353	2.0.10.353	05-26-2016		18:01:33	2.0.10.248	9	Bar75-25.bmp	81	2	?	10r_4g.bmp	0r_4g.bmp	2r_2g.bmp	0r_2g.bmp		0r_4g.bmp			TrialProc	TrialList	0	cvbn	-999999	16	116038	0	v	609	116647	34	-8	26	-4	28	0	2	2	1	9	-10	0	-2	0	4	4	2	2	0	4
Hungry_Donkey_bar_English_2	146	1	<?xml version="1.0"?>\n<Clock xmlns:dt="urn:schemas-microsoft-com:datatypes"><Description dt:dt="string">E-Prime Primary Realtime Clock</Description><StartTime><Timestamp dt:dt="int">0</Timestamp><DateUtc dt:dt="string">2016-05-26T22:01:33Z</DateUtc></StartTime><FrequencyChanges><FrequencyChange><Frequency dt:dt="r8">3507734</Frequency><Timestamp dt:dt="r8">297058136005</Timestamp><Current dt:dt="r8">0</Current><DateUtc dt:dt="string">2016-05-26T22:01:33Z</DateUtc></FrequencyChange></FrequencyChanges></Clock>\n	Hungry_Donkey_bar_English_2-146-1	60.018	-71	1.0.0.18	1	706105876	Standard	2.0.10.353	2.0.10.353	05-26-2016		18:01:33	2.0.10.248	10	Bar87-13.bmp	83	2	?	10r_4g.bmp	0r_4g.bmp	2r_2g.bmp	0r_2g.bmp		0r_4g.bmp			TrialProc	TrialList	0	cvbn	-999999	16	118687	0	v	856	119543	38	-8	30	-4	32	0	2	4	1	10	-10	0	-2	0	4	4	2	2	0	4
Hungry_Donkey_bar_English_2	146	1	<?xml version="1.0"?>\n<Clock xmlns:dt="urn:schemas-microsoft-com:datatypes"><Description dt:dt="string">E-Prime Primary Realtime Clock</Description><StartTime><Timestamp dt:dt="int">0</Timestamp><DateUtc dt:dt="string">2016-05-26T22:01:33Z</DateUtc></StartTime><FrequencyChanges><FrequencyChange><Frequency dt:dt="r8">3507734</Frequency><Timestamp dt:dt="r8">297058136005</Timestamp><Current dt:dt="r8">0</Current><DateUtc dt:dt="string">2016-05-26T22:01:33Z</DateUtc></FrequencyChange></FrequencyChanges></Clock>\n	Hungry_Donkey_bar_English_2-146-1	60.018	-71	1.0.0.18	1	706105876	Standard	2.0.10.353	2.0.10.353	05-26-2016		18:01:33	2.0.10.248	11	Bar75-25.bmp	80	3	?	10r_4g.bmp	0r_4g.bmp	2r_2g.bmp	0r_2g.bmp			2r_2g.bmp		TrialProc	TrialList	0	cvbn	-999999	15	121569	0	b	3637	125206	40	-10	30	-4	32	0	2	3	2	11	-10	0	-2	0	4	4	2	2	-2	2
Hungry_Donkey_bar_English_2	146	1	<?xml version="1.0"?>\n<Clock xmlns:dt="urn:schemas-microsoft-com:datatypes"><Description dt:dt="string">E-Prime Primary Realtime Clock</Description><StartTime><Timestamp dt:dt="int">0</Timestamp><DateUtc dt:dt="string">2016-05-26T22:01:33Z</DateUtc></StartTime><FrequencyChanges><FrequencyChange><Frequency dt:dt="r8">3507734</Frequency><Timestamp dt:dt="r8">297058136005</Timestamp><Current dt:dt="r8">0</Current><DateUtc dt:dt="string">2016-05-26T22:01:33Z</DateUtc></FrequencyChange></FrequencyChanges></Clock>\n	Hungry_Donkey_bar_English_2-146-1	60.018	-71	1.0.0.18	1	706105876	Standard	2.0.10.353	2.0.10.353	05-26-2016		18:01:33	2.0.10.248	12	Bar75-25.bmp	81	2	?	0r_4g.bmp	0r_4g.bmp	0r_2g.bmp	0r_2g.bmp		0r_4g.bmp			TrialProc	TrialList	0	cvbn	-999999	16	127234	0	v	116	127350	44	-10	34	-4	36	0	2	8	2	12	0	0	0	0	4	4	2	2	0	4
Hungry_Donkey_bar_English_2	146	1	<?xml version="1.0"?>\n<Clock xmlns:dt="urn:schemas-microsoft-com:datatypes"><Description dt:dt="string">E-Prime Primary Realtime Clock</Description><StartTime><Timestamp dt:dt="int">0</Timestamp><DateUtc dt:dt="string">2016-05-26T22:01:33Z</DateUtc></StartTime><FrequencyChanges><FrequencyChange><Frequency dt:dt="r8">3507734</Frequency><Timestamp dt:dt="r8">297058136005</Timestamp><Current dt:dt="r8">0</Current><DateUtc dt:dt="string">2016-05-26T22:01:33Z</DateUtc></FrequencyChange></FrequencyChanges></Clock>\n	Hungry_Donkey_bar_English_2-146-1	60.018	-71	1.0.0.18	1	706105876	Standard	2.0.10.353	2.0.10.353	05-26-2016		18:01:33	2.0.10.248	13	Bar87-13.bmp	83	2	?	0r_4g.bmp	0r_4g.bmp	0r_2g.bmp	0r_2g.bmp		0r_4g.bmp			TrialProc	TrialList	0	cvbn	-999999	16	129384	0	v	782	130166	48	-10	38	-4	40	0	2	10	2	13	0	0	0	0	4	4	2	2	0	4
Hungry_Donkey_bar_English_2	146	1	<?xml version="1.0"?>\n<Clock xmlns:dt="urn:schemas-microsoft-com:datatypes"><Description dt:dt="string">E-Prime Primary Realtime Clock</Description><StartTime><Timestamp dt:dt="int">0</Timestamp><DateUtc dt:dt="string">2016-05-26T22:01:33Z</DateUtc></StartTime><FrequencyChanges><FrequencyChange><Frequency dt:dt="r8">3507734</Frequency><Timestamp dt:dt="r8">297058136005</Timestamp><Current dt:dt="r8">0</Current><DateUtc dt:dt="string">2016-05-26T22:01:33Z</DateUtc></FrequencyChange></FrequencyChanges></Clock>\n	Hungry_Donkey_bar_English_2-146-1	60.018	-71	1.0.0.18	1	706105876	Standard	2.0.10.353	2.0.10.353	05-26-2016		18:01:33	2.0.10.248	14	Bar87-13.bmp	84	2	?	0r_4g.bmp	0r_4g.bmp	0r_2g.bmp	0r_2g.bmp		0r_4g.bmp			TrialProc	TrialList	0	cvbn	-999999	16	132200	0	v	1470	133670	52	-10	42	-4	44	0	2	7	2	14	0	0	0	0	4	4	2	2	0	4
Hungry_Donkey_bar_English_2	146	1	<?xml version="1.0"?>\n<Clock xmlns:dt="urn:schemas-microsoft-com:datatypes"><Description dt:dt="string">E-Prime Primary Realtime Clock</Description><StartTime><Timestamp dt:dt="int">0</Timestamp><DateUtc dt:dt="string">2016-05-26T22:01:33Z</DateUtc></StartTime><FrequencyChanges><FrequencyChange><Frequency dt:dt="r8">3507734</Frequency><Timestamp dt:dt="r8">297058136005</Timestamp><Current dt:dt="r8">0</Current><DateUtc dt:dt="string">2016-05-26T22:01:33Z</DateUtc></FrequencyChange></FrequencyChanges></Clock>\n	Hungry_Donkey_bar_English_2-146-1	60.018	-71	1.0.0.18	1	706105876	Standard	2.0.10.353	2.0.10.353	05-26-2016		18:01:33	2.0.10.248	15	Bar87-13.bmp	85	2	?	0r_4g.bmp	0r_4g.bmp	0r_2g.bmp	0r_2g.bmp		0r_4g.bmp			TrialProc	TrialList	0	cvbn	-999999	17	135699	0	v	867	136566	56	-10	46	-4	48	0	2	9	2	15	0	0	0	0	4	4	2	2	0	4
Hungry_Donkey_bar_English_2	146	1	<?xml version="1.0"?>\n<Clock xmlns:dt="urn:schemas-microsoft-com:datatypes"><Description dt:dt="string">E-Prime Primary Realtime Clock</Description><StartTime><Timestamp dt:dt="int">0</Timestamp><DateUtc dt:dt="string">2016-05-26T22:01:33Z</DateUtc></StartTime><FrequencyChanges><FrequencyChange><Frequency dt:dt="r8">3507734</Frequency><Timestamp dt:dt="r8">297058136005</Timestamp><Current dt:dt="r8">0</Current><DateUtc dt:dt="string">2016-05-26T22:01:33Z</DateUtc></FrequencyChange></FrequencyChanges></Clock>\n	Hungry_Donkey_bar_English_2-146-1	60.018	-71	1.0.0.18	1	706105876	Standard	2.0.10.353	2.0.10.353	05-26-2016		18:01:33	2.0.10.248	16	Bar87-13.bmp	86	2	?	0r_4g.bmp	0r_4g.bmp	0r_2g.bmp	0r_2g.bmp		0r_4g.bmp			TrialProc	TrialList	0	cvbn	-999999	16	138598	0	v	799	139397	60	-10	50	-4	52	0	2	6	2	16	0	0	0	0	4	4	2	2	0	4
Hungry_Donkey_bar_English_2	146	1	<?xml version="1.0"?>\n<Clock xmlns:dt="urn:schemas-microsoft-com:datatypes"><Description dt:dt="string">E-Prime Primary Realtime Clock</Description><StartTime><Timestamp dt:dt="int">0</Timestamp><DateUtc dt:dt="string">2016-05-26T22:01:33Z</DateUtc></StartTime><FrequencyChanges><FrequencyChange><Frequency dt:dt="r8">3507734</Frequency><Timestamp dt:dt="r8">297058136005</Timestamp><Current dt:dt="r8">0</Current><DateUtc dt:dt="string">2016-05-26T22:01:33Z</DateUtc></FrequencyChange></FrequencyChanges></Clock>\n	Hungry_Donkey_bar_English_2-146-1	60.018	-71	1.0.0.18	1	706105876	Standard	2.0.10.353	2.0.10.353	05-26-2016		18:01:33	2.0.10.248	17	Bar50-50.bmp	52	2	?	8r_4g.bmp	50r_4g.bmp	1r_2g.bmp	10r_2g.bmp		50r_4g.bmp			TrialProc	TrialList	0	cvbn	-999999	16	141430	0	v	1327	142757	64	-60	4	-4	6	0	2	1	2	17	-8	-50	-1	-10	4	4	2	2	-50	4
Hungry_Donkey_bar_English_2	146	1	<?xml version="1.0"?>\n<Clock xmlns:dt="urn:schemas-microsoft-com:datatypes"><Description dt:dt="string">E-Prime Primary Realtime Clock</Description><StartTime><Timestamp dt:dt="int">0</Timestamp><DateUtc dt:dt="string">2016-05-26T22:01:33Z</DateUtc></StartTime><FrequencyChanges><FrequencyChange><Frequency dt:dt="r8">3507734</Frequency><Timestamp dt:dt="r8">297058136005</Timestamp><Current dt:dt="r8">0</Current><DateUtc dt:dt="string">2016-05-26T22:01:33Z</DateUtc></FrequencyChange></FrequencyChanges></Clock>\n	Hungry_Donkey_bar_English_2-146-1	60.018	-71	1.0.0.18	1	706105876	Standard	2.0.10.353	2.0.10.353	05-26-2016		18:01:33	2.0.10.248	18	Bar50-50.bmp	49	1	?	10r_4g.bmp	0r_4g.bmp	2r_2g.bmp	0r_2g.bmp	10r_4g.bmp				TrialProc	TrialList	0	cvbn	-999999	16	144796	0	c	5337	150133	68	-70	-2	-10	6	0	2	2	2	18	-10	0	-2	0	4	4	2	2	-10	4
Hungry_Donkey_bar_English_2	146	1	<?xml version="1.0"?>\n<Clock xmlns:dt="urn:schemas-microsoft-com:datatypes"><Description dt:dt="string">E-Prime Primary Realtime Clock</Description><StartTime><Timestamp dt:dt="int">0</Timestamp><DateUtc dt:dt="string">2016-05-26T22:01:33Z</DateUtc></StartTime><FrequencyChanges><FrequencyChange><Frequency dt:dt="r8">3507734</Frequency><Timestamp dt:dt="r8">297058136005</Timestamp><Current dt:dt="r8">0</Current><DateUtc dt:dt="string">2016-05-26T22:01:33Z</DateUtc></FrequencyChange></FrequencyChanges></Clock>\n	Hungry_Donkey_bar_English_2-146-1	60.018	-71	1.0.0.18	1	706105876	Standard	2.0.10.353	2.0.10.353	05-26-2016		18:01:33	2.0.10.248	19	Bar50-50.bmp	49	3	?	12r_4g.bmp	0r_4g.bmp	3r_2g.bmp	0r_2g.bmp			3r_2g.bmp		TrialProc	TrialList	0	cvbn	-999999	16	152160	0	b	2260	154420	70	-73	-3	-10	6	-1	2	5	2	19	-12	0	-3	0	4	4	2	2	-3	2
Hungry_Donkey_bar_English_2	146	1	<?xml version="1.0"?>\n<Clock xmlns:dt="urn:schemas-microsoft-com:datatypes"><Description dt:dt="string">E-Prime Primary Realtime Clock</Description><StartTime><Timestamp dt:dt="int">0</Timestamp><DateUtc dt:dt="string">2016-05-26T22:01:33Z</DateUtc></StartTime><FrequencyChanges><FrequencyChange><Frequency dt:dt="r8">3507734</Frequency><Timestamp dt:dt="r8">297058136005</Timestamp><Current dt:dt="r8">0</Current><DateUtc dt:dt="string">2016-05-26T22:01:33Z</DateUtc></FrequencyChange></FrequencyChanges></Clock>\n	Hungry_Donkey_bar_English_2-146-1	60.018	-71	1.0.0.18	1	706105876	Standard	2.0.10.353	2.0.10.353	05-26-2016		18:01:33	2.0.10.248	20	Bar50-50.bmp	50	4	?	10r_4g.bmp	0r_4g.bmp	2r_2g.bmp	0r_2g.bmp				0r_2g.bmp	TrialProc	TrialList	0	cvbn	-999999	16	156459	0	n	713	157172	72	-73	-1	-10	6	-1	4	4	2	20	-10	0	-2	0	4	4	2	2	0	2
Hungry_Donkey_bar_English_2	146	1	<?xml version="1.0"?>\n<Clock xmlns:dt="urn:schemas-microsoft-com:datatypes"><Description dt:dt="string">E-Prime Primary Realtime Clock</Description><StartTime><Timestamp dt:dt="int">0</Timestamp><DateUtc dt:dt="string">2016-05-26T22:01:33Z</DateUtc></StartTime><FrequencyChanges><FrequencyChange><Frequency dt:dt="r8">3507734</Frequency><Timestamp dt:dt="r8">297058136005</Timestamp><Current dt:dt="r8">0</Current><DateUtc dt:dt="string">2016-05-26T22:01:33Z</DateUtc></FrequencyChange></FrequencyChanges></Clock>\n	Hungry_Donkey_bar_English_2-146-1	60.018	-71	1.0.0.18	1	706105876	Standard	2.0.10.353	2.0.10.353	05-26-2016		18:01:33	2.0.10.248	21	Bar50-50.bmp	50	4	?	12r_4g.bmp	0r_4g.bmp	3r_2g.bmp	0r_2g.bmp				0r_2g.bmp	TrialProc	TrialList	0	cvbn	-999999	16	159208	0	n	3212	162420	74	-73	1	-10	6	-1	6	5	3	21	-12	0	-3	0	4	4	2	2	0	2
Hungry_Donkey_bar_English_2	146	1	<?xml version="1.0"?>\n<Clock xmlns:dt="urn:schemas-microsoft-com:datatypes"><Description dt:dt="string">E-Prime Primary Realtime Clock</Description><StartTime><Timestamp dt:dt="int">0</Timestamp><DateUtc dt:dt="string">2016-05-26T22:01:33Z</DateUtc></StartTime><FrequencyChanges><FrequencyChange><Frequency dt:dt="r8">3507734</Frequency><Timestamp dt:dt="r8">297058136005</Timestamp><Current dt:dt="r8">0</Current><DateUtc dt:dt="string">2016-05-26T22:01:33Z</DateUtc></FrequencyChange></FrequencyChanges></Clock>\n	Hungry_Donkey_bar_English_2-146-1	60.018	-71	1.0.0.18	1	706105876	Standard	2.0.10.353	2.0.10.353	05-26-2016		18:01:33	2.0.10.248	22	Bar50-50.bmp	51	4	?	0r_4g.bmp	0r_4g.bmp	0r_2g.bmp	0r_2g.bmp				0r_2g.bmp	TrialProc	TrialList	0	cvbn	-999999	17	164457	0	n	587	165044	76	-73	3	-10	6	-1	8	10	3	22	0	0	0	0	4	4	2	2	0	2
Hungry_Donkey_bar_English_2	146	1	<?xml version="1.0"?>\n<Clock xmlns:dt="urn:schemas-microsoft-com:datatypes"><Description dt:dt="string">E-Prime Primary Realtime Clock</Description><StartTime><Timestamp dt:dt="int">0</Timestamp><DateUtc dt:dt="string">2016-05-26T22:01:33Z</DateUtc></StartTime><FrequencyChanges><FrequencyChange><Frequency dt:dt="r8">3507734</Frequency><Timestamp dt:dt="r8">297058136005</Timestamp><Current dt:dt="r8">0</Current><DateUtc dt:dt="string">2016-05-26T22:01:33Z</DateUtc></FrequencyChange></FrequencyChanges></Clock>\n	Hungry_Donkey_bar_English_2-146-1	60.018	-71	1.0.0.18	1	706105876	Standard	2.0.10.353	2.0.10.353	05-26-2016		18:01:33	2.0.10.248	23	Bar50-50.bmp	52	4	?	0r_4g.bmp	0r_4g.bmp	0r_2g.bmp	0r_2g.bmp				0r_2g.bmp	TrialProc	TrialList	0	cvbn	-999999	16	167072	0	n	372	167444	78	-73	5	-10	6	-1	10	7	3	23	0	0	0	0	4	4	2	2	0	2
Hungry_Donkey_bar_English_2	146	1	<?xml version="1.0"?>\n<Clock xmlns:dt="urn:schemas-microsoft-com:datatypes"><Description dt:dt="string">E-Prime Primary Realtime Clock</Description><StartTime><Timestamp dt:dt="int">0</Timestamp><DateUtc dt:dt="string">2016-05-26T22:01:33Z</DateUtc></StartTime><FrequencyChanges><FrequencyChange><Frequency dt:dt="r8">3507734</Frequency><Timestamp dt:dt="r8">297058136005</Timestamp><Current dt:dt="r8">0</Current><DateUtc dt:dt="string">2016-05-26T22:01:33Z</DateUtc></FrequencyChange></FrequencyChanges></Clock>\n	Hungry_Donkey_bar_English_2-146-1	60.018	-71	1.0.0.18	1	706105876	Standard	2.0.10.353	2.0.10.353	05-26-2016		18:01:33	2.0.10.248	24	Bar50-50.bmp	52	3	?	0r_4g.bmp	0r_4g.bmp	0r_2g.bmp	0r_2g.bmp			0r_2g.bmp		TrialProc	TrialList	0	cvbn	-999999	16	169472	0	b	2979	172451	80	-73	7	-10	6	1	10	6	3	24	0	0	0	0	4	4	2	2	0	2
Hungry_Donkey_bar_English_2	146	1	<?xml version="1.0"?>\n<Clock xmlns:dt="urn:schemas-microsoft-com:datatypes"><Description dt:dt="string">E-Prime Primary Realtime Clock</Description><StartTime><Timestamp dt:dt="int">0</Timestamp><DateUtc dt:dt="string">2016-05-26T22:01:33Z</DateUtc></StartTime><FrequencyChanges><FrequencyChange><Frequency dt:dt="r8">3507734</Frequency><Timestamp dt:dt="r8">297058136005</Timestamp><Current dt:dt="r8">0</Current><DateUtc dt:dt="string">2016-05-26T22:01:33Z</DateUtc></FrequencyChange></FrequencyChanges></Clock>\n	Hungry_Donkey_bar_English_2-146-1	60.018	-71	1.0.0.18	1	706105876	Standard	2.0.10.353	2.0.10.353	05-26-2016		18:01:33	2.0.10.248	25	Bar50-50.bmp	54	1	?	0r_4g.bmp	0r_4g.bmp	0r_2g.bmp	0r_2g.bmp	0r_4g.bmp				TrialProc	TrialList	0	cvbn	-999999	16	174487	0	c	1324	175811	84	-73	11	-6	6	1	10	8	3	25	0	0	0	0	4	4	2	2	0	4
Hungry_Donkey_bar_English_2	146	1	<?xml version="1.0"?>\n<Clock xmlns:dt="urn:schemas-microsoft-com:datatypes"><Description dt:dt="string">E-Prime Primary Realtime Clock</Description><StartTime><Timestamp dt:dt="int">0</Timestamp><DateUtc dt:dt="string">2016-05-26T22:01:33Z</DateUtc></StartTime><FrequencyChanges><FrequencyChange><Frequency dt:dt="r8">3507734</Frequency><Timestamp dt:dt="r8">297058136005</Timestamp><Current dt:dt="r8">0</Current><DateUtc dt:dt="string">2016-05-26T22:01:33Z</DateUtc></FrequencyChange></FrequencyChanges></Clock>\n	Hungry_Donkey_bar_English_2-146-1	60.018	-71	1.0.0.18	1	706105876	Standard	2.0.10.353	2.0.10.353	05-26-2016		18:01:33	2.0.10.248	26	Bar50-50.bmp	55	2	?	0r_4g.bmp	0r_4g.bmp	0r_2g.bmp	0r_2g.bmp		0r_4g.bmp			TrialProc	TrialList	0	cvbn	-999999	16	177852	0	v	2647	180499	88	-73	15	-6	10	1	10	9	3	26	0	0	0	0	4	4	2	2	0	4
Hungry_Donkey_bar_English_2	146	1	<?xml version="1.0"?>\n<Clock xmlns:dt="urn:schemas-microsoft-com:datatypes"><Description dt:dt="string">E-Prime Primary Realtime Clock</Description><StartTime><Timestamp dt:dt="int">0</Timestamp><DateUtc dt:dt="string">2016-05-26T22:01:33Z</DateUtc></StartTime><FrequencyChanges><FrequencyChange><Frequency dt:dt="r8">3507734</Frequency><Timestamp dt:dt="r8">297058136005</Timestamp><Current dt:dt="r8">0</Current><DateUtc dt:dt="string">2016-05-26T22:01:33Z</DateUtc></FrequencyChange></FrequencyChanges></Clock>\n	Hungry_Donkey_bar_English_2-146-1	60.018	-71	1.0.0.18	1	706105876	Standard	2.0.10.353	2.0.10.353	05-26-2016		18:01:33	2.0.10.248	27	Bar50-50.bmp	55	3	?	10r_4g.bmp	0r_4g.bmp	2r_2g.bmp	0r_2g.bmp			2r_2g.bmp		TrialProc	TrialList	0	cvbn	-999999	16	182534	0	b	493	183027	90	-75	15	-6	10	1	10	2	3	27	-10	0	-2	0	4	4	2	2	-2	2
Hungry_Donkey_bar_English_2	146	1	<?xml version="1.0"?>\n<Clock xmlns:dt="urn:schemas-microsoft-com:datatypes"><Description dt:dt="string">E-Prime Primary Realtime Clock</Description><StartTime><Timestamp dt:dt="int">0</Timestamp><DateUtc dt:dt="string">2016-05-26T22:01:33Z</DateUtc></StartTime><FrequencyChanges><FrequencyChange><Frequency dt:dt="r8">3507734</Frequency><Timestamp dt:dt="r8">297058136005</Timestamp><Current dt:dt="r8">0</Current><DateUtc dt:dt="string">2016-05-26T22:01:33Z</DateUtc></FrequencyChange></FrequencyChanges></Clock>\n	Hungry_Donkey_bar_English_2-146-1	60.018	-71	1.0.0.18	1	706105876	Standard	2.0.10.353	2.0.10.353	05-26-2016		18:01:33	2.0.10.248	28	Bar50-50.bmp	53	1	?	10r_4g.bmp	0r_4g.bmp	2r_2g.bmp	0r_2g.bmp	10r_4g.bmp				TrialProc	TrialList	0	cvbn	-999999	16	185050	0	c	4280	189330	94	-85	9	-12	10	1	10	3	3	28	-10	0	-2	0	4	4	2	2	-10	4
Hungry_Donkey_bar_English_2	146	1	<?xml version="1.0"?>\n<Clock xmlns:dt="urn:schemas-microsoft-com:datatypes"><Description dt:dt="string">E-Prime Primary Realtime Clock</Description><StartTime><Timestamp dt:dt="int">0</Timestamp><DateUtc dt:dt="string">2016-05-26T22:01:33Z</DateUtc></StartTime><FrequencyChanges><FrequencyChange><Frequency dt:dt="r8">3507734</Frequency><Timestamp dt:dt="r8">297058136005</Timestamp><Current dt:dt="r8">0</Current><DateUtc dt:dt="string">2016-05-26T22:01:33Z</DateUtc></FrequencyChange></FrequencyChanges></Clock>\n	Hungry_Donkey_bar_English_2-146-1	60.018	-71	1.0.0.18	1	706105876	Standard	2.0.10.353	2.0.10.353	05-26-2016		18:01:33	2.0.10.248	29	Bar37-63.bmp	42	2	?	8r_4g.bmp	50r_4g.bmp	1r_2g.bmp	10r_2g.bmp		50r_4g.bmp			TrialProc	TrialList	0	cvbn	-999999	16	191365	0	v	1005	192370	98	-135	-37	-12	-36	1	10	1	3	29	-8	-50	-1	-10	4	4	2	2	-50	4
Hungry_Donkey_bar_English_2	146	1	<?xml version="1.0"?>\n<Clock xmlns:dt="urn:schemas-microsoft-com:datatypes"><Description dt:dt="string">E-Prime Primary Realtime Clock</Description><StartTime><Timestamp dt:dt="int">0</Timestamp><DateUtc dt:dt="string">2016-05-26T22:01:33Z</DateUtc></StartTime><FrequencyChanges><FrequencyChange><Frequency dt:dt="r8">3507734</Frequency><Timestamp dt:dt="r8">297058136005</Timestamp><Current dt:dt="r8">0</Current><DateUtc dt:dt="string">2016-05-26T22:01:33Z</DateUtc></FrequencyChange></FrequencyChanges></Clock>\n	Hungry_Donkey_bar_English_2-146-1	60.018	-71	1.0.0.18	1	706105876	Standard	2.0.10.353	2.0.10.353	05-26-2016		18:01:33	2.0.10.248	30	Bar37-63.bmp	42	3	?	10r_4g.bmp	0r_4g.bmp	2r_2g.bmp	0r_2g.bmp			2r_2g.bmp		TrialProc	TrialList	0	cvbn	-999999	16	194397	0	b	2037	196434	100	-137	-37	-12	-36	1	10	4	3	30	-10	0	-2	0	4	4	2	2	-2	2
Hungry_Donkey_bar_English_2	146	1	<?xml version="1.0"?>\n<Clock xmlns:dt="urn:schemas-microsoft-com:datatypes"><Description dt:dt="string">E-Prime Primary Realtime Clock</Description><StartTime><Timestamp dt:dt="int">0</Timestamp><DateUtc dt:dt="string">2016-05-26T22:01:33Z</DateUtc></StartTime><FrequencyChanges><FrequencyChange><Frequency dt:dt="r8">3507734</Frequency><Timestamp dt:dt="r8">297058136005</Timestamp><Current dt:dt="r8">0</Current><DateUtc dt:dt="string">2016-05-26T22:01:33Z</DateUtc></FrequencyChange></FrequencyChanges></Clock>\n	Hungry_Donkey_bar_English_2-146-1	60.018	-71	1.0.0.18	1	706105876	Standard	2.0.10.353	2.0.10.353	05-26-2016		18:01:33	2.0.10.248	31	Bar37-63.bmp	43	4	?	10r_4g.bmp	0r_4g.bmp	2r_2g.bmp	0r_2g.bmp				0r_2g.bmp	TrialProc	TrialList	0	cvbn	-999999	16	198463	0	n	530	198993	102	-137	-35	-12	-36	1	12	4	4	31	-10	0	-2	0	4	4	2	2	0	2
Hungry_Donkey_bar_English_2	146	1	<?xml version="1.0"?>\n<Clock xmlns:dt="urn:schemas-microsoft-com:datatypes"><Description dt:dt="string">E-Prime Primary Realtime Clock</Description><StartTime><Timestamp dt:dt="int">0</Timestamp><DateUtc dt:dt="string">2016-05-26T22:01:33Z</DateUtc></StartTime><FrequencyChanges><FrequencyChange><Frequency dt:dt="r8">3507734</Frequency><Timestamp dt:dt="r8">297058136005</Timestamp><Current dt:dt="r8">0</Current><DateUtc dt:dt="string">2016-05-26T22:01:33Z</DateUtc></FrequencyChange></FrequencyChanges></Clock>\n	Hungry_Donkey_bar_English_2-146-1	60.018	-71	1.0.0.18	1	706105876	Standard	2.0.10.353	2.0.10.353	05-26-2016		18:01:33	2.0.10.248	32	Bar37-63.bmp	43	4	?	10r_4g.bmp	0r_4g.bmp	2r_2g.bmp	0r_2g.bmp				0r_2g.bmp	TrialProc	TrialList	0	cvbn	-999999	16	201029	0	n	2108	203137	104	-137	-33	-12	-36	1	14	3	4	32	-10	0	-2	0	4	4	2	2	0	2
Hungry_Donkey_bar_English_2	146	1	<?xml version="1.0"?>\n<Clock xmlns:dt="urn:schemas-microsoft-com:datatypes"><Description dt:dt="string">E-Prime Primary Realtime Clock</Description><StartTime><Timestamp dt:dt="int">0</Timestamp><DateUtc dt:dt="string">2016-05-26T22:01:33Z</DateUtc></StartTime><FrequencyChanges><FrequencyChange><Frequency dt:dt="r8">3507734</Frequency><Timestamp dt:dt="r8">297058136005</Timestamp><Current dt:dt="r8">0</Current><DateUtc dt:dt="string">2016-05-26T22:01:33Z</DateUtc></FrequencyChange></FrequencyChanges></Clock>\n	Hungry_Donkey_bar_English_2-146-1	60.018	-71	1.0.0.18	1	706105876	Standard	2.0.10.353	2.0.10.353	05-26-2016		18:01:33	2.0.10.248	33	Bar50-50.bmp	44	4	?	10r_4g.bmp	0r_4g.bmp	2r_2g.bmp	0r_2g.bmp				0r_2g.bmp	TrialProc	TrialList	0	cvbn	-999999	17	205178	0	n	599	205777	106	-137	-31	-12	-36	1	16	2	4	33	-10	0	-2	0	4	4	2	2	0	2
Hungry_Donkey_bar_English_2	146	1	<?xml version="1.0"?>\n<Clock xmlns:dt="urn:schemas-microsoft-com:datatypes"><Description dt:dt="string">E-Prime Primary Realtime Clock</Description><StartTime><Timestamp dt:dt="int">0</Timestamp><DateUtc dt:dt="string">2016-05-26T22:01:33Z</DateUtc></StartTime><FrequencyChanges><FrequencyChange><Frequency dt:dt="r8">3507734</Frequency><Timestamp dt:dt="r8">297058136005</Timestamp><Current dt:dt="r8">0</Current><DateUtc dt:dt="string">2016-05-26T22:01:33Z</DateUtc></FrequencyChange></FrequencyChanges></Clock>\n	Hungry_Donkey_bar_English_2-146-1	60.018	-71	1.0.0.18	1	706105876	Standard	2.0.10.353	2.0.10.353	05-26-2016		18:01:33	2.0.10.248	34	Bar50-50.bmp	44	3	?	0r_4g.bmp	0r_4g.bmp	0r_2g.bmp	0r_2g.bmp			0r_2g.bmp		TrialProc	TrialList	0	cvbn	-999999	16	207810	0	b	1551	209361	108	-137	-29	-12	-36	3	16	6	4	34	0	0	0	0	4	4	2	2	0	2
Hungry_Donkey_bar_English_2	146	1	<?xml version="1.0"?>\n<Clock xmlns:dt="urn:schemas-microsoft-com:datatypes"><Description dt:dt="string">E-Prime Primary Realtime Clock</Description><StartTime><Timestamp dt:dt="int">0</Timestamp><DateUtc dt:dt="string">2016-05-26T22:01:33Z</DateUtc></StartTime><FrequencyChanges><FrequencyChange><Frequency dt:dt="r8">3507734</Frequency><Timestamp dt:dt="r8">297058136005</Timestamp><Current dt:dt="r8">0</Current><DateUtc dt:dt="string">2016-05-26T22:01:33Z</DateUtc></FrequencyChange></FrequencyChanges></Clock>\n	Hungry_Donkey_bar_English_2-146-1	60.018	-71	1.0.0.18	1	706105876	Standard	2.0.10.353	2.0.10.353	05-26-2016		18:01:33	2.0.10.248	35	Bar50-50.bmp	45	2	?	12r_4g.bmp	0r_4g.bmp	3r_2g.bmp	0r_2g.bmp		0r_4g.bmp			TrialProc	TrialList	0	cvbn	-999999	16	211392	0	v	1377	212769	112	-137	-25	-12	-32	3	16	5	4	35	-12	0	-3	0	4	4	2	2	0	4
Hungry_Donkey_bar_English_2	146	1	<?xml version="1.0"?>\n<Clock xmlns:dt="urn:schemas-microsoft-com:datatypes"><Description dt:dt="string">E-Prime Primary Realtime Clock</Description><StartTime><Timestamp dt:dt="int">0</Timestamp><DateUtc dt:dt="string">2016-05-26T22:01:33Z</DateUtc></StartTime><FrequencyChanges><FrequencyChange><Frequency dt:dt="r8">3507734</Frequency><Timestamp dt:dt="r8">297058136005</Timestamp><Current dt:dt="r8">0</Current><DateUtc dt:dt="string">2016-05-26T22:01:33Z</DateUtc></FrequencyChange></FrequencyChanges></Clock>\n	Hungry_Donkey_bar_English_2-146-1	60.018	-71	1.0.0.18	1	706105876	Standard	2.0.10.353	2.0.10.353	05-26-2016		18:01:33	2.0.10.248	36	Bar50-50.bmp	46	1	?	0r_4g.bmp	0r_4g.bmp	0r_2g.bmp	0r_2g.bmp	0r_4g.bmp				TrialProc	TrialList	0	cvbn	-999999	16	214808	0	c	904	215712	116	-137	-21	-8	-32	3	16	7	4	36	0	0	0	0	4	4	2	2	0	4
Hungry_Donkey_bar_English_2	146	1	<?xml version="1.0"?>\n<Clock xmlns:dt="urn:schemas-microsoft-com:datatypes"><Description dt:dt="string">E-Prime Primary Realtime Clock</Description><StartTime><Timestamp dt:dt="int">0</Timestamp><DateUtc dt:dt="string">2016-05-26T22:01:33Z</DateUtc></StartTime><FrequencyChanges><FrequencyChange><Frequency dt:dt="r8">3507734</Frequency><Timestamp dt:dt="r8">297058136005</Timestamp><Current dt:dt="r8">0</Current><DateUtc dt:dt="string">2016-05-26T22:01:33Z</DateUtc></FrequencyChange></FrequencyChanges></Clock>\n	Hungry_Donkey_bar_English_2-146-1	60.018	-71	1.0.0.18	1	706105876	Standard	2.0.10.353	2.0.10.353	05-26-2016		18:01:33	2.0.10.248	37	Bar50-50.bmp	46	4	?	0r_4g.bmp	0r_4g.bmp	0r_2g.bmp	0r_2g.bmp				0r_2g.bmp	TrialProc	TrialList	0	cvbn	-999999	16	217740	0	n	820	218560	118	-137	-19	-8	-32	3	18	9	4	37	0	0	0	0	4	4	2	2	0	2
Hungry_Donkey_bar_English_2	146	1	<?xml version="1.0"?>\n<Clock xmlns:dt="urn:schemas-microsoft-com:datatypes"><Description dt:dt="string">E-Prime Primary Realtime Clock</Description><StartTime><Timestamp dt:dt="int">0</Timestamp><DateUtc dt:dt="string">2016-05-26T22:01:33Z</DateUtc></StartTime><FrequencyChanges><FrequencyChange><Frequency dt:dt="r8">3507734</Frequency><Timestamp dt:dt="r8">297058136005</Timestamp><Current dt:dt="r8">0</Current><DateUtc dt:dt="string">2016-05-26T22:01:33Z</DateUtc></FrequencyChange></FrequencyChanges></Clock>\n	Hungry_Donkey_bar_English_2-146-1	60.018	-71	1.0.0.18	1	706105876	Standard	2.0.10.353	2.0.10.353	05-26-2016		18:01:33	2.0.10.248	38	Bar50-50.bmp	47	3	?	0r_4g.bmp	0r_4g.bmp	0r_2g.bmp	0r_2g.bmp			0r_2g.bmp		TrialProc	TrialList	0	cvbn	-999999	17	220590	0	b	2802	223392	120	-137	-17	-8	-32	5	18	10	4	38	0	0	0	0	4	4	2	2	0	2
Hungry_Donkey_bar_English_2	146	1	<?xml version="1.0"?>\n<Clock xmlns:dt="urn:schemas-microsoft-com:datatypes"><Description dt:dt="string">E-Prime Primary Realtime Clock</Description><StartTime><Timestamp dt:dt="int">0</Timestamp><DateUtc dt:dt="string">2016-05-26T22:01:33Z</DateUtc></StartTime><FrequencyChanges><FrequencyChange><Frequency dt:dt="r8">3507734</Frequency><Timestamp dt:dt="r8">297058136005</Timestamp><Current dt:dt="r8">0</Current><DateUtc dt:dt="string">2016-05-26T22:01:33Z</DateUtc></FrequencyChange></FrequencyChanges></Clock>\n	Hungry_Donkey_bar_English_2-146-1	60.018	-71	1.0.0.18	1	706105876	Standard	2.0.10.353	2.0.10.353	05-26-2016		18:01:33	2.0.10.248	39	Bar50-50.bmp	47	3	?	8r_4g.bmp	50r_4g.bmp	1r_2g.bmp	10r_2g.bmp			1r_2g.bmp		TrialProc	TrialList	0	cvbn	-999999	16	225421	0	b	3171	228592	122	-138	-16	-8	-32	6	18	1	4	39	-8	-50	-1	-10	4	4	2	2	-1	2
Hungry_Donkey_bar_English_2	146	1	<?xml version="1.0"?>\n<Clock xmlns:dt="urn:schemas-microsoft-com:datatypes"><Description dt:dt="string">E-Prime Primary Realtime Clock</Description><StartTime><Timestamp dt:dt="int">0</Timestamp><DateUtc dt:dt="string">2016-05-26T22:01:33Z</DateUtc></StartTime><FrequencyChanges><FrequencyChange><Frequency dt:dt="r8">3507734</Frequency><Timestamp dt:dt="r8">297058136005</Timestamp><Current dt:dt="r8">0</Current><DateUtc dt:dt="string">2016-05-26T22:01:33Z</DateUtc></FrequencyChange></FrequencyChanges></Clock>\n	Hungry_Donkey_bar_English_2-146-1	60.018	-71	1.0.0.18	1	706105876	Standard	2.0.10.353	2.0.10.353	05-26-2016		18:01:33	2.0.10.248	40	Bar50-50.bmp	48	2	?	0r_4g.bmp	0r_4g.bmp	0r_2g.bmp	0r_2g.bmp		0r_4g.bmp			TrialProc	TrialList	0	cvbn	-999999	16	230620	0	v	707	231327	126	-138	-12	-8	-28	6	18	8	4	40	0	0	0	0	4	4	2	2	0	4
Hungry_Donkey_bar_English_2	146	1	<?xml version="1.0"?>\n<Clock xmlns:dt="urn:schemas-microsoft-com:datatypes"><Description dt:dt="string">E-Prime Primary Realtime Clock</Description><StartTime><Timestamp dt:dt="int">0</Timestamp><DateUtc dt:dt="string">2016-05-26T22:01:33Z</DateUtc></StartTime><FrequencyChanges><FrequencyChange><Frequency dt:dt="r8">3507734</Frequency><Timestamp dt:dt="r8">297058136005</Timestamp><Current dt:dt="r8">0</Current><DateUtc dt:dt="string">2016-05-26T22:01:33Z</DateUtc></FrequencyChange></FrequencyChanges></Clock>\n	Hungry_Donkey_bar_English_2-146-1	60.018	-71	1.0.0.18	1	706105876	Standard	2.0.10.353	2.0.10.353	05-26-2016		18:01:33	2.0.10.248	41	Bar50-50.bmp	49	1	?	0r_4g.bmp	0r_4g.bmp	0r_2g.bmp	0r_2g.bmp	0r_4g.bmp				TrialProc	TrialList	0	cvbn	-999999	16	233352	0	c	1143	234495	130	-138	-8	-4	-28	6	18	10	5	41	0	0	0	0	4	4	2	2	0	4
Hungry_Donkey_bar_English_2	146	1	<?xml version="1.0"?>\n<Clock xmlns:dt="urn:schemas-microsoft-com:datatypes"><Description dt:dt="string">E-Prime Primary Realtime Clock</Description><StartTime><Timestamp dt:dt="int">0</Timestamp><DateUtc dt:dt="string">2016-05-26T22:01:33Z</DateUtc></StartTime><FrequencyChanges><FrequencyChange><Frequency dt:dt="r8">3507734</Frequency><Timestamp dt:dt="r8">297058136005</Timestamp><Current dt:dt="r8">0</Current><DateUtc dt:dt="string">2016-05-26T22:01:33Z</DateUtc></FrequencyChange></FrequencyChanges></Clock>\n	Hungry_Donkey_bar_English_2-146-1	60.018	-71	1.0.0.18	1	706105876	Standard	2.0.10.353	2.0.10.353	05-26-2016		18:01:33	2.0.10.248	42	Bar50-50.bmp	49	4	?	10r_4g.bmp	0r_4g.bmp	2r_2g.bmp	0r_2g.bmp				0r_2g.bmp	TrialProc	TrialList	0	cvbn	-999999	16	236518	0	n	1321	237839	132	-138	-6	-4	-28	6	20	2	5	42	-10	0	-2	0	4	4	2	2	0	2
Hungry_Donkey_bar_English_2	146	1	<?xml version="1.0"?>\n<Clock xmlns:dt="urn:schemas-microsoft-com:datatypes"><Description dt:dt="string">E-Prime Primary Realtime Clock</Description><StartTime><Timestamp dt:dt="int">0</Timestamp><DateUtc dt:dt="string">2016-05-26T22:01:33Z</DateUtc></StartTime><FrequencyChanges><FrequencyChange><Frequency dt:dt="r8">3507734</Frequency><Timestamp dt:dt="r8">297058136005</Timestamp><Current dt:dt="r8">0</Current><DateUtc dt:dt="string">2016-05-26T22:01:33Z</DateUtc></FrequencyChange></FrequencyChanges></Clock>\n	Hungry_Donkey_bar_English_2-146-1	60.018	-71	1.0.0.18	1	706105876	Standard	2.0.10.353	2.0.10.353	05-26-2016		18:01:33	2.0.10.248	43	Bar50-50.bmp	49	3	?	0r_4g.bmp	0r_4g.bmp	0r_2g.bmp	0r_2g.bmp			0r_2g.bmp		TrialProc	TrialList	0	cvbn	-999999	16	239867	0	b	1028	240895	134	-138	-4	-4	-28	8	20	7	5	43	0	0	0	0	4	4	2	2	0	2
Hungry_Donkey_bar_English_2	146	1	<?xml version="1.0"?>\n<Clock xmlns:dt="urn:schemas-microsoft-com:datatypes"><Description dt:dt="string">E-Prime Primary Realtime Clock</Description><StartTime><Timestamp dt:dt="int">0</Timestamp><DateUtc dt:dt="string">2016-05-26T22:01:33Z</DateUtc></StartTime><FrequencyChanges><FrequencyChange><Frequency dt:dt="r8">3507734</Frequency><Timestamp dt:dt="r8">297058136005</Timestamp><Current dt:dt="r8">0</Current><DateUtc dt:dt="string">2016-05-26T22:01:33Z</DateUtc></FrequencyChange></FrequencyChanges></Clock>\n	Hungry_Donkey_bar_English_2-146-1	60.018	-71	1.0.0.18	1	706105876	Standard	2.0.10.353	2.0.10.353	05-26-2016		18:01:33	2.0.10.248	44	Bar50-50.bmp	50	4	?	0r_4g.bmp	0r_4g.bmp	0r_2g.bmp	0r_2g.bmp				0r_2g.bmp	TrialProc	TrialList	0	cvbn	-999999	16	242933	0	n	5737	248670	136	-138	-2	-4	-28	8	22	9	5	44	0	0	0	0	4	4	2	2	0	2
Hungry_Donkey_bar_English_2	146	1	<?xml version="1.0"?>\n<Clock xmlns:dt="urn:schemas-microsoft-com:datatypes"><Description dt:dt="string">E-Prime Primary Realtime Clock</Description><StartTime><Timestamp dt:dt="int">0</Timestamp><DateUtc dt:dt="string">2016-05-26T22:01:33Z</DateUtc></StartTime><FrequencyChanges><FrequencyChange><Frequency dt:dt="r8">3507734</Frequency><Timestamp dt:dt="r8">297058136005</Timestamp><Current dt:dt="r8">0</Current><DateUtc dt:dt="string">2016-05-26T22:01:33Z</DateUtc></FrequencyChange></FrequencyChanges></Clock>\n	Hungry_Donkey_bar_English_2-146-1	60.018	-71	1.0.0.18	1	706105876	Standard	2.0.10.353	2.0.10.353	05-26-2016		18:01:33	2.0.10.248	45	Bar37-63.bmp	43	2	?	8r_4g.bmp	50r_4g.bmp	1r_2g.bmp	10r_2g.bmp		50r_4g.bmp			TrialProc	TrialList	0	cvbn	-999999	16	250697	0	v	1061	251758	140	-188	-48	-4	-74	8	22	1	5	45	-8	-50	-1	-10	4	4	2	2	-50	4
Hungry_Donkey_bar_English_2	146	1	<?xml version="1.0"?>\n<Clock xmlns:dt="urn:schemas-microsoft-com:datatypes"><Description dt:dt="string">E-Prime Primary Realtime Clock</Description><StartTime><Timestamp dt:dt="int">0</Timestamp><DateUtc dt:dt="string">2016-05-26T22:01:33Z</DateUtc></StartTime><FrequencyChanges><FrequencyChange><Frequency dt:dt="r8">3507734</Frequency><Timestamp dt:dt="r8">297058136005</Timestamp><Current dt:dt="r8">0</Current><DateUtc dt:dt="string">2016-05-26T22:01:33Z</DateUtc></FrequencyChange></FrequencyChanges></Clock>\n	Hungry_Donkey_bar_English_2-146-1	60.018	-71	1.0.0.18	1	706105876	Standard	2.0.10.353	2.0.10.353	05-26-2016		18:01:33	2.0.10.248	46	Bar37-63.bmp	42	1	?	10r_4g.bmp	0r_4g.bmp	2r_2g.bmp	0r_2g.bmp	10r_4g.bmp				TrialProc	TrialList	0	cvbn	-999999	16	253796	0	c	4746	258542	144	-198	-54	-10	-74	8	22	3	5	46	-10	0	-2	0	4	4	2	2	-10	4
Hungry_Donkey_bar_English_2	146	1	<?xml version="1.0"?>\n<Clock xmlns:dt="urn:schemas-microsoft-com:datatypes"><Description dt:dt="string">E-Prime Primary Realtime Clock</Description><StartTime><Timestamp dt:dt="int">0</Timestamp><DateUtc dt:dt="string">2016-05-26T22:01:33Z</DateUtc></StartTime><FrequencyChanges><FrequencyChange><Frequency dt:dt="r8">3507734</Frequency><Timestamp dt:dt="r8">297058136005</Timestamp><Current dt:dt="r8">0</Current><DateUtc dt:dt="string">2016-05-26T22:01:33Z</DateUtc></FrequencyChange></FrequencyChanges></Clock>\n	Hungry_Donkey_bar_English_2-146-1	60.018	-71	1.0.0.18	1	706105876	Standard	2.0.10.353	2.0.10.353	05-26-2016		18:01:33	2.0.10.248	47	Bar37-63.bmp	42	3	?	10r_4g.bmp	0r_4g.bmp	2r_2g.bmp	0r_2g.bmp			2r_2g.bmp		TrialProc	TrialList	0	cvbn	-999999	16	260577	0	b	1340	261917	146	-200	-54	-10	-74	8	22	4	5	47	-10	0	-2	0	4	4	2	2	-2	2
Hungry_Donkey_bar_English_2	146	1	<?xml version="1.0"?>\n<Clock xmlns:dt="urn:schemas-microsoft-com:datatypes"><Description dt:dt="string">E-Prime Primary Realtime Clock</Description><StartTime><Timestamp dt:dt="int">0</Timestamp><DateUtc dt:dt="string">2016-05-26T22:01:33Z</DateUtc></StartTime><FrequencyChanges><FrequencyChange><Frequency dt:dt="r8">3507734</Frequency><Timestamp dt:dt="r8">297058136005</Timestamp><Current dt:dt="r8">0</Current><DateUtc dt:dt="string">2016-05-26T22:01:33Z</DateUtc></FrequencyChange></FrequencyChanges></Clock>\n	Hungry_Donkey_bar_English_2-146-1	60.018	-71	1.0.0.18	1	706105876	Standard	2.0.10.353	2.0.10.353	05-26-2016		18:01:33	2.0.10.248	48	Bar37-63.bmp	43	4	?	0r_4g.bmp	0r_4g.bmp	0r_2g.bmp	0r_2g.bmp				0r_2g.bmp	TrialProc	TrialList	0	cvbn	-999999	16	263943	0	n	646	264589	148	-200	-52	-10	-74	8	24	6	5	48	0	0	0	0	4	4	2	2	0	2
Hungry_Donkey_bar_English_2	146	1	<?xml version="1.0"?>\n<Clock xmlns:dt="urn:schemas-microsoft-com:datatypes"><Description dt:dt="string">E-Prime Primary Realtime Clock</Description><StartTime><Timestamp dt:dt="int">0</Timestamp><DateUtc dt:dt="string">2016-05-26T22:01:33Z</DateUtc></StartTime><FrequencyChanges><FrequencyChange><Frequency dt:dt="r8">3507734</Frequency><Timestamp dt:dt="r8">297058136005</Timestamp><Current dt:dt="r8">0</Current><DateUtc dt:dt="string">2016-05-26T22:01:33Z</DateUtc></FrequencyChange></FrequencyChanges></Clock>\n	Hungry_Donkey_bar_English_2-146-1	60.018	-71	1.0.0.18	1	706105876	Standard	2.0.10.353	2.0.10.353	05-26-2016		18:01:33	2.0.10.248	49	Bar37-63.bmp	43	4	?	0r_4g.bmp	0r_4g.bmp	0r_2g.bmp	0r_2g.bmp				0r_2g.bmp	TrialProc	TrialList	0	cvbn	-999999	16	266626	0	n	4555	271181	150	-200	-50	-10	-74	8	26	8	5	49	0	0	0	0	4	4	2	2	0	2
Hungry_Donkey_bar_English_2	146	1	<?xml version="1.0"?>\n<Clock xmlns:dt="urn:schemas-microsoft-com:datatypes"><Description dt:dt="string">E-Prime Primary Realtime Clock</Description><StartTime><Timestamp dt:dt="int">0</Timestamp><DateUtc dt:dt="string">2016-05-26T22:01:33Z</DateUtc></StartTime><FrequencyChanges><FrequencyChange><Frequency dt:dt="r8">3507734</Frequency><Timestamp dt:dt="r8">297058136005</Timestamp><Current dt:dt="r8">0</Current><DateUtc dt:dt="string">2016-05-26T22:01:33Z</DateUtc></FrequencyChange></FrequencyChanges></Clock>\n	Hungry_Donkey_bar_English_2-146-1	60.018	-71	1.0.0.18	1	706105876	Standard	2.0.10.353	2.0.10.353	05-26-2016		18:01:33	2.0.10.248	50	Bar37-63.bmp	43	4	?	12r_4g.bmp	0r_4g.bmp	3r_2g.bmp	0r_2g.bmp				0r_2g.bmp	TrialProc	TrialList	0	cvbn	-999999	16	273207	0	n	918	274125	152	-200	-48	-10	-74	8	28	5	5	50	-12	0	-3	0	4	4	2	2	0	2
Hungry_Donkey_bar_English_2	146	1	<?xml version="1.0"?>\n<Clock xmlns:dt="urn:schemas-microsoft-com:datatypes"><Description dt:dt="string">E-Prime Primary Realtime Clock</Description><StartTime><Timestamp dt:dt="int">0</Timestamp><DateUtc dt:dt="string">2016-05-26T22:01:33Z</DateUtc></StartTime><FrequencyChanges><FrequencyChange><Frequency dt:dt="r8">3507734</Frequency><Timestamp dt:dt="r8">297058136005</Timestamp><Current dt:dt="r8">0</Current><DateUtc dt:dt="string">2016-05-26T22:01:33Z</DateUtc></FrequencyChange></FrequencyChanges></Clock>\n	Hungry_Donkey_bar_English_2-146-1	60.018	-71	1.0.0.18	1	706105876	Standard	2.0.10.353	2.0.10.353	05-26-2016		18:01:33	2.0.10.248	51	Bar50-50.bmp	44	4	?	0r_4g.bmp	0r_4g.bmp	0r_2g.bmp	0r_2g.bmp				0r_2g.bmp	TrialProc	TrialList	0	cvbn	-999999	16	276156	0	n	1072	277228	154	-200	-46	-10	-74	8	30	7	6	51	0	0	0	0	4	4	2	2	0	2
Hungry_Donkey_bar_English_2	146	1	<?xml version="1.0"?>\n<Clock xmlns:dt="urn:schemas-microsoft-com:datatypes"><Description dt:dt="string">E-Prime Primary Realtime Clock</Description><StartTime><Timestamp dt:dt="int">0</Timestamp><DateUtc dt:dt="string">2016-05-26T22:01:33Z</DateUtc></StartTime><FrequencyChanges><FrequencyChange><Frequency dt:dt="r8">3507734</Frequency><Timestamp dt:dt="r8">297058136005</Timestamp><Current dt:dt="r8">0</Current><DateUtc dt:dt="string">2016-05-26T22:01:33Z</DateUtc></FrequencyChange></FrequencyChanges></Clock>\n	Hungry_Donkey_bar_English_2-146-1	60.018	-71	1.0.0.18	1	706105876	Standard	2.0.10.353	2.0.10.353	05-26-2016		18:01:33	2.0.10.248	52	Bar50-50.bmp	44	4	?	10r_4g.bmp	0r_4g.bmp	2r_2g.bmp	0r_2g.bmp				0r_2g.bmp	TrialProc	TrialList	0	cvbn	-999999	16	279255	0	n	357	279612	156	-200	-44	-10	-74	8	32	3	6	52	-10	0	-2	0	4	4	2	2	0	2
Hungry_Donkey_bar_English_2	146	1	<?xml version="1.0"?>\n<Clock xmlns:dt="urn:schemas-microsoft-com:datatypes"><Description dt:dt="string">E-Prime Primary Realtime Clock</Description><StartTime><Timestamp dt:dt="int">0</Timestamp><DateUtc dt:dt="string">2016-05-26T22:01:33Z</DateUtc></StartTime><FrequencyChanges><FrequencyChange><Frequency dt:dt="r8">3507734</Frequency><Timestamp dt:dt="r8">297058136005</Timestamp><Current dt:dt="r8">0</Current><DateUtc dt:dt="string">2016-05-26T22:01:33Z</DateUtc></FrequencyChange></FrequencyChanges></Clock>\n	Hungry_Donkey_bar_English_2-146-1	60.018	-71	1.0.0.18	1	706105876	Standard	2.0.10.353	2.0.10.353	05-26-2016		18:01:33	2.0.10.248	53	Bar50-50.bmp	44	4	?	0r_4g.bmp	0r_4g.bmp	0r_2g.bmp	0r_2g.bmp				0r_2g.bmp	TrialProc	TrialList	0	cvbn	-999999	16	281638	0	n	22	281660	158	-200	-42	-10	-74	8	34	9	6	53	0	0	0	0	4	4	2	2	0	2
Hungry_Donkey_bar_English_2	146	1	<?xml version="1.0"?>\n<Clock xmlns:dt="urn:schemas-microsoft-com:datatypes"><Description dt:dt="string">E-Prime Primary Realtime Clock</Description><StartTime><Timestamp dt:dt="int">0</Timestamp><DateUtc dt:dt="string">2016-05-26T22:01:33Z</DateUtc></StartTime><FrequencyChanges><FrequencyChange><Frequency dt:dt="r8">3507734</Frequency><Timestamp dt:dt="r8">297058136005</Timestamp><Current dt:dt="r8">0</Current><DateUtc dt:dt="string">2016-05-26T22:01:33Z</DateUtc></FrequencyChange></FrequencyChanges></Clock>\n	Hungry_Donkey_bar_English_2-146-1	60.018	-71	1.0.0.18	1	706105876	Standard	2.0.10.353	2.0.10.353	05-26-2016		18:01:33	2.0.10.248	54	Bar50-50.bmp	44	4	?	12r_4g.bmp	0r_4g.bmp	3r_2g.bmp	0r_2g.bmp				0r_2g.bmp	TrialProc	TrialList	0	cvbn	-999999	16	283687	0	n	613	284300	160	-200	-40	-10	-74	8	36	5	6	54	-12	0	-3	0	4	4	2	2	0	2
Hungry_Donkey_bar_English_2	146	1	<?xml version="1.0"?>\n<Clock xmlns:dt="urn:schemas-microsoft-com:datatypes"><Description dt:dt="string">E-Prime Primary Realtime Clock</Description><StartTime><Timestamp dt:dt="int">0</Timestamp><DateUtc dt:dt="string">2016-05-26T22:01:33Z</DateUtc></StartTime><FrequencyChanges><FrequencyChange><Frequency dt:dt="r8">3507734</Frequency><Timestamp dt:dt="r8">297058136005</Timestamp><Current dt:dt="r8">0</Current><DateUtc dt:dt="string">2016-05-26T22:01:33Z</DateUtc></FrequencyChange></FrequencyChanges></Clock>\n	Hungry_Donkey_bar_English_2-146-1	60.018	-71	1.0.0.18	1	706105876	Standard	2.0.10.353	2.0.10.353	05-26-2016		18:01:33	2.0.10.248	55	Bar50-50.bmp	45	4	?	10r_4g.bmp	0r_4g.bmp	2r_2g.bmp	0r_2g.bmp				0r_2g.bmp	TrialProc	TrialList	0	cvbn	-999999	16	286336	0	n	428	286764	162	-200	-38	-10	-74	8	38	2	6	55	-10	0	-2	0	4	4	2	2	0	2
Hungry_Donkey_bar_English_2	146	1	<?xml version="1.0"?>\n<Clock xmlns:dt="urn:schemas-microsoft-com:datatypes"><Description dt:dt="string">E-Prime Primary Realtime Clock</Description><StartTime><Timestamp dt:dt="int">0</Timestamp><DateUtc dt:dt="string">2016-05-26T22:01:33Z</DateUtc></StartTime><FrequencyChanges><FrequencyChange><Frequency dt:dt="r8">3507734</Frequency><Timestamp dt:dt="r8">297058136005</Timestamp><Current dt:dt="r8">0</Current><DateUtc dt:dt="string">2016-05-26T22:01:33Z</DateUtc></FrequencyChange></FrequencyChanges></Clock>\n	Hungry_Donkey_bar_English_2-146-1	60.018	-71	1.0.0.18	1	706105876	Standard	2.0.10.353	2.0.10.353	05-26-2016		18:01:33	2.0.10.248	56	Bar50-50.bmp	45	3	?	0r_4g.bmp	0r_4g.bmp	0r_2g.bmp	0r_2g.bmp			0r_2g.bmp		TrialProc	TrialList	0	cvbn	-999999	16	288802	0	b	954	289756	164	-200	-36	-10	-74	10	38	10	6	56	0	0	0	0	4	4	2	2	0	2
Hungry_Donkey_bar_English_2	146	1	<?xml version="1.0"?>\n<Clock xmlns:dt="urn:schemas-microsoft-com:datatypes"><Description dt:dt="string">E-Prime Primary Realtime Clock</Description><StartTime><Timestamp dt:dt="int">0</Timestamp><DateUtc dt:dt="string">2016-05-26T22:01:33Z</DateUtc></StartTime><FrequencyChanges><FrequencyChange><Frequency dt:dt="r8">3507734</Frequency><Timestamp dt:dt="r8">297058136005</Timestamp><Current dt:dt="r8">0</Current><DateUtc dt:dt="string">2016-05-26T22:01:33Z</DateUtc></FrequencyChange></FrequencyChanges></Clock>\n	Hungry_Donkey_bar_English_2-146-1	60.018	-71	1.0.0.18	1	706105876	Standard	2.0.10.353	2.0.10.353	05-26-2016		18:01:33	2.0.10.248	57	Bar37-63.bmp	40	2	?	8r_4g.bmp	50r_4g.bmp	1r_2g.bmp	10r_2g.bmp		50r_4g.bmp			TrialProc	TrialList	0	cvbn	-999999	16	291785	0	v	2258	294043	168	-250	-82	-10	-120	10	38	1	6	57	-8	-50	-1	-10	4	4	2	2	-50	4
Hungry_Donkey_bar_English_2	146	1	<?xml version="1.0"?>\n<Clock xmlns:dt="urn:schemas-microsoft-com:datatypes"><Description dt:dt="string">E-Prime Primary Realtime Clock</Description><StartTime><Timestamp dt:dt="int">0</Timestamp><DateUtc dt:dt="string">2016-05-26T22:01:33Z</DateUtc></StartTime><FrequencyChanges><FrequencyChange><Frequency dt:dt="r8">3507734</Frequency><Timestamp dt:dt="r8">297058136005</Timestamp><Current dt:dt="r8">0</Current><DateUtc dt:dt="string">2016-05-26T22:01:33Z</DateUtc></FrequencyChange></FrequencyChanges></Clock>\n	Hungry_Donkey_bar_English_2-146-1	60.018	-71	1.0.0.18	1	706105876	Standard	2.0.10.353	2.0.10.353	05-26-2016		18:01:33	2.0.10.248	58	Bar37-63.bmp	41	1	?	0r_4g.bmp	0r_4g.bmp	0r_2g.bmp	0r_2g.bmp	0r_4g.bmp				TrialProc	TrialList	0	cvbn	-999999	16	296083	0	c	2680	298763	172	-250	-78	-6	-120	10	38	6	6	58	0	0	0	0	4	4	2	2	0	4
Hungry_Donkey_bar_English_2	146	1	<?xml version="1.0"?>\n<Clock xmlns:dt="urn:schemas-microsoft-com:datatypes"><Description dt:dt="string">E-Prime Primary Realtime Clock</Description><StartTime><Timestamp dt:dt="int">0</Timestamp><DateUtc dt:dt="string">2016-05-26T22:01:33Z</DateUtc></StartTime><FrequencyChanges><FrequencyChange><Frequency dt:dt="r8">3507734</Frequency><Timestamp dt:dt="r8">297058136005</Timestamp><Current dt:dt="r8">0</Current><DateUtc dt:dt="string">2016-05-26T22:01:33Z</DateUtc></FrequencyChange></FrequencyChanges></Clock>\n	Hungry_Donkey_bar_English_2-146-1	60.018	-71	1.0.0.18	1	706105876	Standard	2.0.10.353	2.0.10.353	05-26-2016		18:01:33	2.0.10.248	59	Bar37-63.bmp	41	1	?	0r_4g.bmp	0r_4g.bmp	0r_2g.bmp	0r_2g.bmp	0r_4g.bmp				TrialProc	TrialList	0	cvbn	-999999	16	300799	0	c	8139	308938	176	-250	-74	-2	-120	10	38	8	6	59	0	0	0	0	4	4	2	2	0	4
Hungry_Donkey_bar_English_2	146	1	<?xml version="1.0"?>\n<Clock xmlns:dt="urn:schemas-microsoft-com:datatypes"><Description dt:dt="string">E-Prime Primary Realtime Clock</Description><StartTime><Timestamp dt:dt="int">0</Timestamp><DateUtc dt:dt="string">2016-05-26T22:01:33Z</DateUtc></StartTime><FrequencyChanges><FrequencyChange><Frequency dt:dt="r8">3507734</Frequency><Timestamp dt:dt="r8">297058136005</Timestamp><Current dt:dt="r8">0</Current><DateUtc dt:dt="string">2016-05-26T22:01:33Z</DateUtc></FrequencyChange></FrequencyChanges></Clock>\n	Hungry_Donkey_bar_English_2-146-1	60.018	-71	1.0.0.18	1	706105876	Standard	2.0.10.353	2.0.10.353	05-26-2016		18:01:33	2.0.10.248	60	Bar37-63.bmp	42	2	?	10r_4g.bmp	0r_4g.bmp	2r_2g.bmp	0r_2g.bmp		0r_4g.bmp			TrialProc	TrialList	0	cvbn	-999999	15	310962	0	v	280	311242	180	-250	-70	-2	-116	10	38	4	6	60	-10	0	-2	0	4	4	2	2	0	4
Hungry_Donkey_bar_English_2	146	1	<?xml version="1.0"?>\n<Clock xmlns:dt="urn:schemas-microsoft-com:datatypes"><Description dt:dt="string">E-Prime Primary Realtime Clock</Description><StartTime><Timestamp dt:dt="int">0</Timestamp><DateUtc dt:dt="string">2016-05-26T22:01:33Z</DateUtc></StartTime><FrequencyChanges><FrequencyChange><Frequency dt:dt="r8">3507734</Frequency><Timestamp dt:dt="r8">297058136005</Timestamp><Current dt:dt="r8">0</Current><DateUtc dt:dt="string">2016-05-26T22:01:33Z</DateUtc></FrequencyChange></FrequencyChanges></Clock>\n	Hungry_Donkey_bar_English_2-146-1	60.018	-71	1.0.0.18	1	706105876	Standard	2.0.10.353	2.0.10.353	05-26-2016		18:01:33	2.0.10.248	61	Bar37-63.bmp	42	3	?	10r_4g.bmp	0r_4g.bmp	2r_2g.bmp	0r_2g.bmp			2r_2g.bmp		TrialProc	TrialList	0	cvbn	-999999	16	313278	0	b	300	313578	182	-252	-70	-2	-116	10	38	3	7	61	-10	0	-2	0	4	4	2	2	-2	2
Hungry_Donkey_bar_English_2	146	1	<?xml version="1.0"?>\n<Clock xmlns:dt="urn:schemas-microsoft-com:datatypes"><Description dt:dt="string">E-Prime Primary Realtime Clock</Description><StartTime><Timestamp dt:dt="int">0</Timestamp><DateUtc dt:dt="string">2016-05-26T22:01:33Z</DateUtc></StartTime><FrequencyChanges><FrequencyChange><Frequency dt:dt="r8">3507734</Frequency><Timestamp dt:dt="r8">297058136005</Timestamp><Current dt:dt="r8">0</Current><DateUtc dt:dt="string">2016-05-26T22:01:33Z</DateUtc></FrequencyChange></FrequencyChanges></Clock>\n	Hungry_Donkey_bar_English_2-146-1	60.018	-71	1.0.0.18	1	706105876	Standard	2.0.10.353	2.0.10.353	05-26-2016		18:01:33	2.0.10.248	62	Bar37-63.bmp	42	4	?	0r_4g.bmp	0r_4g.bmp	0r_2g.bmp	0r_2g.bmp				0r_2g.bmp	TrialProc	TrialList	0	cvbn	-999999	16	315611	0	n	1759	317370	184	-252	-68	-2	-116	10	40	9	7	62	0	0	0	0	4	4	2	2	0	2
Hungry_Donkey_bar_English_2	146	1	<?xml version="1.0"?>\n<Clock xmlns:dt="urn:schemas-microsoft-com:datatypes"><Description dt:dt="string">E-Prime Primary Realtime Clock</Description><StartTime><Timestamp dt:dt="int">0</Timestamp><DateUtc dt:dt="string">2016-05-26T22:01:33Z</DateUtc></StartTime><FrequencyChanges><FrequencyChange><Frequency dt:dt="r8">3507734</Frequency><Timestamp dt:dt="r8">297058136005</Timestamp><Current dt:dt="r8">0</Current><DateUtc dt:dt="string">2016-05-26T22:01:33Z</DateUtc></FrequencyChange></FrequencyChanges></Clock>\n	Hungry_Donkey_bar_English_2-146-1	60.018	-71	1.0.0.18	1	706105876	Standard	2.0.10.353	2.0.10.353	05-26-2016		18:01:33	2.0.10.248	63	Bar37-63.bmp	42	3	?	0r_4g.bmp	0r_4g.bmp	0r_2g.bmp	0r_2g.bmp			0r_2g.bmp		TrialProc	TrialList	0	cvbn	-999999	16	319393	0	b	1129	320522	186	-252	-66	-2	-116	12	40	7	7	63	0	0	0	0	4	4	2	2	0	2
Hungry_Donkey_bar_English_2	146	1	<?xml version="1.0"?>\n<Clock xmlns:dt="urn:schemas-microsoft-com:datatypes"><Description dt:dt="string">E-Prime Primary Realtime Clock</Description><StartTime><Timestamp dt:dt="int">0</Timestamp><DateUtc dt:dt="string">2016-05-26T22:01:33Z</DateUtc></StartTime><FrequencyChanges><FrequencyChange><Frequency dt:dt="r8">3507734</Frequency><Timestamp dt:dt="r8">297058136005</Timestamp><Current dt:dt="r8">0</Current><DateUtc dt:dt="string">2016-05-26T22:01:33Z</DateUtc></FrequencyChange></FrequencyChanges></Clock>\n	Hungry_Donkey_bar_English_2-146-1	60.018	-71	1.0.0.18	1	706105876	Standard	2.0.10.353	2.0.10.353	05-26-2016		18:01:33	2.0.10.248	64	Bar37-63.bmp	43	4	?	10r_4g.bmp	0r_4g.bmp	2r_2g.bmp	0r_2g.bmp				0r_2g.bmp	TrialProc	TrialList	0	cvbn	-999999	16	322559	0	n	698	323257	188	-252	-64	-2	-116	12	42	4	7	64	-10	0	-2	0	4	4	2	2	0	2
Hungry_Donkey_bar_English_2	146	1	<?xml version="1.0"?>\n<Clock xmlns:dt="urn:schemas-microsoft-com:datatypes"><Description dt:dt="string">E-Prime Primary Realtime Clock</Description><StartTime><Timestamp dt:dt="int">0</Timestamp><DateUtc dt:dt="string">2016-05-26T22:01:33Z</DateUtc></StartTime><FrequencyChanges><FrequencyChange><Frequency dt:dt="r8">3507734</Frequency><Timestamp dt:dt="r8">297058136005</Timestamp><Current dt:dt="r8">0</Current><DateUtc dt:dt="string">2016-05-26T22:01:33Z</DateUtc></FrequencyChange></FrequencyChanges></Clock>\n	Hungry_Donkey_bar_English_2-146-1	60.018	-71	1.0.0.18	1	706105876	Standard	2.0.10.353	2.0.10.353	05-26-2016		18:01:33	2.0.10.248	65	Bar37-63.bmp	43	2	?	12r_4g.bmp	0r_4g.bmp	3r_2g.bmp	0r_2g.bmp		0r_4g.bmp			TrialProc	TrialList	0	cvbn	-999999	16	325291	0	v	1646	326937	192	-252	-60	-2	-112	12	42	5	7	65	-12	0	-3	0	4	4	2	2	0	4
Hungry_Donkey_bar_English_2	146	1	<?xml version="1.0"?>\n<Clock xmlns:dt="urn:schemas-microsoft-com:datatypes"><Description dt:dt="string">E-Prime Primary Realtime Clock</Description><StartTime><Timestamp dt:dt="int">0</Timestamp><DateUtc dt:dt="string">2016-05-26T22:01:33Z</DateUtc></StartTime><FrequencyChanges><FrequencyChange><Frequency dt:dt="r8">3507734</Frequency><Timestamp dt:dt="r8">297058136005</Timestamp><Current dt:dt="r8">0</Current><DateUtc dt:dt="string">2016-05-26T22:01:33Z</DateUtc></FrequencyChange></FrequencyChanges></Clock>\n	Hungry_Donkey_bar_English_2-146-1	60.018	-71	1.0.0.18	1	706105876	Standard	2.0.10.353	2.0.10.353	05-26-2016		18:01:33	2.0.10.248	66	Bar50-50.bmp	44	1	?	0r_4g.bmp	0r_4g.bmp	0r_2g.bmp	0r_2g.bmp	0r_4g.bmp				TrialProc	TrialList	0	cvbn	-999999	16	328973	0	c	524	329497	196	-252	-56	2	-112	12	42	8	7	66	0	0	0	0	4	4	2	2	0	4
Hungry_Donkey_bar_English_2	146	1	<?xml version="1.0"?>\n<Clock xmlns:dt="urn:schemas-microsoft-com:datatypes"><Description dt:dt="string">E-Prime Primary Realtime Clock</Description><StartTime><Timestamp dt:dt="int">0</Timestamp><DateUtc dt:dt="string">2016-05-26T22:01:33Z</DateUtc></StartTime><FrequencyChanges><FrequencyChange><Frequency dt:dt="r8">3507734</Frequency><Timestamp dt:dt="r8">297058136005</Timestamp><Current dt:dt="r8">0</Current><DateUtc dt:dt="string">2016-05-26T22:01:33Z</DateUtc></FrequencyChange></FrequencyChanges></Clock>\n	Hungry_Donkey_bar_English_2-146-1	60.018	-71	1.0.0.18	1	706105876	Standard	2.0.10.353	2.0.10.353	05-26-2016		18:01:33	2.0.10.248	67	Bar50-50.bmp	44	3	?	8r_4g.bmp	50r_4g.bmp	1r_2g.bmp	10r_2g.bmp			1r_2g.bmp		TrialProc	TrialList	0	cvbn	-999999	16	331523	0	b	3190	334713	198	-253	-55	2	-112	13	42	1	7	67	-8	-50	-1	-10	4	4	2	2	-1	2
Hungry_Donkey_bar_English_2	146	1	<?xml version="1.0"?>\n<Clock xmlns:dt="urn:schemas-microsoft-com:datatypes"><Description dt:dt="string">E-Prime Primary Realtime Clock</Description><StartTime><Timestamp dt:dt="int">0</Timestamp><DateUtc dt:dt="string">2016-05-26T22:01:33Z</DateUtc></StartTime><FrequencyChanges><FrequencyChange><Frequency dt:dt="r8">3507734</Frequency><Timestamp dt:dt="r8">297058136005</Timestamp><Current dt:dt="r8">0</Current><DateUtc dt:dt="string">2016-05-26T22:01:33Z</DateUtc></FrequencyChange></FrequencyChanges></Clock>\n	Hungry_Donkey_bar_English_2-146-1	60.018	-71	1.0.0.18	1	706105876	Standard	2.0.10.353	2.0.10.353	05-26-2016		18:01:33	2.0.10.248	68	Bar50-50.bmp	44	4	?	0r_4g.bmp	0r_4g.bmp	0r_2g.bmp	0r_2g.bmp				0r_2g.bmp	TrialProc	TrialList	0	cvbn	-999999	16	336738	0	n	694	337432	200	-253	-53	2	-112	13	44	6	7	68	0	0	0	0	4	4	2	2	0	2
Hungry_Donkey_bar_English_2	146	1	<?xml version="1.0"?>\n<Clock xmlns:dt="urn:schemas-microsoft-com:datatypes"><Description dt:dt="string">E-Prime Primary Realtime Clock</Description><StartTime><Timestamp dt:dt="int">0</Timestamp><DateUtc dt:dt="string">2016-05-26T22:01:33Z</DateUtc></StartTime><FrequencyChanges><FrequencyChange><Frequency dt:dt="r8">3507734</Frequency><Timestamp dt:dt="r8">297058136005</Timestamp><Current dt:dt="r8">0</Current><DateUtc dt:dt="string">2016-05-26T22:01:33Z</DateUtc></FrequencyChange></FrequencyChanges></Clock>\n	Hungry_Donkey_bar_English_2-146-1	60.018	-71	1.0.0.18	1	706105876	Standard	2.0.10.353	2.0.10.353	05-26-2016		18:01:33	2.0.10.248	69	Bar50-50.bmp	45	2	?	0r_4g.bmp	0r_4g.bmp	0r_2g.bmp	0r_2g.bmp		0r_4g.bmp			TrialProc	TrialList	0	cvbn	-999999	16	339470	0	v	1290	340760	204	-253	-49	2	-108	13	44	10	7	69	0	0	0	0	4	4	2	2	0	4
Hungry_Donkey_bar_English_2	146	1	<?xml version="1.0"?>\n<Clock xmlns:dt="urn:schemas-microsoft-com:datatypes"><Description dt:dt="string">E-Prime Primary Realtime Clock</Description><StartTime><Timestamp dt:dt="int">0</Timestamp><DateUtc dt:dt="string">2016-05-26T22:01:33Z</DateUtc></StartTime><FrequencyChanges><FrequencyChange><Frequency dt:dt="r8">3507734</Frequency><Timestamp dt:dt="r8">297058136005</Timestamp><Current dt:dt="r8">0</Current><DateUtc dt:dt="string">2016-05-26T22:01:33Z</DateUtc></FrequencyChange></FrequencyChanges></Clock>\n	Hungry_Donkey_bar_English_2-146-1	60.018	-71	1.0.0.18	1	706105876	Standard	2.0.10.353	2.0.10.353	05-26-2016		18:01:33	2.0.10.248	70	Bar50-50.bmp	44	1	?	10r_4g.bmp	0r_4g.bmp	2r_2g.bmp	0r_2g.bmp	10r_4g.bmp				TrialProc	TrialList	0	cvbn	-999999	16	342786	0	c	710	343496	208	-263	-55	-4	-108	13	44	2	7	70	-10	0	-2	0	4	4	2	2	-10	4
Hungry_Donkey_bar_English_2	146	1	<?xml version="1.0"?>\n<Clock xmlns:dt="urn:schemas-microsoft-com:datatypes"><Description dt:dt="string">E-Prime Primary Realtime Clock</Description><StartTime><Timestamp dt:dt="int">0</Timestamp><DateUtc dt:dt="string">2016-05-26T22:01:33Z</DateUtc></StartTime><FrequencyChanges><FrequencyChange><Frequency dt:dt="r8">3507734</Frequency><Timestamp dt:dt="r8">297058136005</Timestamp><Current dt:dt="r8">0</Current><DateUtc dt:dt="string">2016-05-26T22:01:33Z</DateUtc></FrequencyChange></FrequencyChanges></Clock>\n	Hungry_Donkey_bar_English_2-146-1	60.018	-71	1.0.0.18	1	706105876	Standard	2.0.10.353	2.0.10.353	05-26-2016		18:01:33	2.0.10.248	71	Bar50-50.bmp	45	1	?	0r_4g.bmp	0r_4g.bmp	0r_2g.bmp	0r_2g.bmp	0r_4g.bmp				TrialProc	TrialList	0	cvbn	-999999	16	345535	0	c	1641	347176	212	-263	-51	0	-108	13	44	7	8	71	0	0	0	0	4	4	2	2	0	4
Hungry_Donkey_bar_English_2	146	1	<?xml version="1.0"?>\n<Clock xmlns:dt="urn:schemas-microsoft-com:datatypes"><Description dt:dt="string">E-Prime Primary Realtime Clock</Description><StartTime><Timestamp dt:dt="int">0</Timestamp><DateUtc dt:dt="string">2016-05-26T22:01:33Z</DateUtc></StartTime><FrequencyChanges><FrequencyChange><Frequency dt:dt="r8">3507734</Frequency><Timestamp dt:dt="r8">297058136005</Timestamp><Current dt:dt="r8">0</Current><DateUtc dt:dt="string">2016-05-26T22:01:33Z</DateUtc></FrequencyChange></FrequencyChanges></Clock>\n	Hungry_Donkey_bar_English_2-146-1	60.018	-71	1.0.0.18	1	706105876	Standard	2.0.10.353	2.0.10.353	05-26-2016		18:01:33	2.0.10.248	72	Bar50-50.bmp	45	4	?	10r_4g.bmp	0r_4g.bmp	2r_2g.bmp	0r_2g.bmp				0r_2g.bmp	TrialProc	TrialList	0	cvbn	-999999	16	349201	0	n	1591	350792	214	-263	-49	0	-108	13	46	4	8	72	-10	0	-2	0	4	4	2	2	0	2
Hungry_Donkey_bar_English_2	146	1	<?xml version="1.0"?>\n<Clock xmlns:dt="urn:schemas-microsoft-com:datatypes"><Description dt:dt="string">E-Prime Primary Realtime Clock</Description><StartTime><Timestamp dt:dt="int">0</Timestamp><DateUtc dt:dt="string">2016-05-26T22:01:33Z</DateUtc></StartTime><FrequencyChanges><FrequencyChange><Frequency dt:dt="r8">3507734</Frequency><Timestamp dt:dt="r8">297058136005</Timestamp><Current dt:dt="r8">0</Current><DateUtc dt:dt="string">2016-05-26T22:01:33Z</DateUtc></FrequencyChange></FrequencyChanges></Clock>\n	Hungry_Donkey_bar_English_2-146-1	60.018	-71	1.0.0.18	1	706105876	Standard	2.0.10.353	2.0.10.353	05-26-2016		18:01:33	2.0.10.248	73	Bar37-63.bmp	41	2	?	8r_4g.bmp	50r_4g.bmp	1r_2g.bmp	10r_2g.bmp		50r_4g.bmp			TrialProc	TrialList	0	cvbn	-999999	16	352816	0	v	375	353191	218	-313	-95	0	-154	13	46	1	8	73	-8	-50	-1	-10	4	4	2	2	-50	4
Hungry_Donkey_bar_English_2	146	1	<?xml version="1.0"?>\n<Clock xmlns:dt="urn:schemas-microsoft-com:datatypes"><Description dt:dt="string">E-Prime Primary Realtime Clock</Description><StartTime><Timestamp dt:dt="int">0</Timestamp><DateUtc dt:dt="string">2016-05-26T22:01:33Z</DateUtc></StartTime><FrequencyChanges><FrequencyChange><Frequency dt:dt="r8">3507734</Frequency><Timestamp dt:dt="r8">297058136005</Timestamp><Current dt:dt="r8">0</Current><DateUtc dt:dt="string">2016-05-26T22:01:33Z</DateUtc></FrequencyChange></FrequencyChanges></Clock>\n	Hungry_Donkey_bar_English_2-146-1	60.018	-71	1.0.0.18	1	706105876	Standard	2.0.10.353	2.0.10.353	05-26-2016		18:01:33	2.0.10.248	74	Bar37-63.bmp	41	3	?	0r_4g.bmp	0r_4g.bmp	0r_2g.bmp	0r_2g.bmp			0r_2g.bmp		TrialProc	TrialList	0	cvbn	-999999	16	355215	0	b	5656	360871	220	-313	-93	0	-154	15	46	9	8	74	0	0	0	0	4	4	2	2	0	2
Hungry_Donkey_bar_English_2	146	1	<?xml version="1.0"?>\n<Clock xmlns:dt="urn:schemas-microsoft-com:datatypes"><Description dt:dt="string">E-Prime Primary Realtime Clock</Description><StartTime><Timestamp dt:dt="int">0</Timestamp><DateUtc dt:dt="string">2016-05-26T22:01:33Z</DateUtc></StartTime><FrequencyChanges><FrequencyChange><Frequency dt:dt="r8">3507734</Frequency><Timestamp dt:dt="r8">297058136005</Timestamp><Current dt:dt="r8">0</Current><DateUtc dt:dt="string">2016-05-26T22:01:33Z</DateUtc></FrequencyChange></FrequencyChanges></Clock>\n	Hungry_Donkey_bar_English_2-146-1	60.018	-71	1.0.0.18	1	706105876	Standard	2.0.10.353	2.0.10.353	05-26-2016		18:01:33	2.0.10.248	75	Bar37-63.bmp	41	1	?	10r_4g.bmp	0r_4g.bmp	2r_2g.bmp	0r_2g.bmp	10r_4g.bmp				TrialProc	TrialList	0	cvbn	-999999	16	362896	0	c	1463	364359	224	-323	-99	-6	-154	15	46	2	8	75	-10	0	-2	0	4	4	2	2	-10	4
Hungry_Donkey_bar_English_2	146	1	<?xml version="1.0"?>\n<Clock xmlns:dt="urn:schemas-microsoft-com:datatypes"><Description dt:dt="string">E-Prime Primary Realtime Clock</Description><StartTime><Timestamp dt:dt="int">0</Timestamp><DateUtc dt:dt="string">2016-05-26T22:01:33Z</DateUtc></StartTime><FrequencyChanges><FrequencyChange><Frequency dt:dt="r8">3507734</Frequency><Timestamp dt:dt="r8">297058136005</Timestamp><Current dt:dt="r8">0</Current><DateUtc dt:dt="string">2016-05-26T22:01:33Z</DateUtc></FrequencyChange></FrequencyChanges></Clock>\n	Hungry_Donkey_bar_English_2-146-1	60.018	-71	1.0.0.18	1	706105876	Standard	2.0.10.353	2.0.10.353	05-26-2016		18:01:33	2.0.10.248	76	Bar37-63.bmp	41	4	?	0r_4g.bmp	0r_4g.bmp	0r_2g.bmp	0r_2g.bmp				0r_2g.bmp	TrialProc	TrialList	0	cvbn	-999999	16	366395	0	n	4411	370806	226	-323	-97	-6	-154	15	48	6	8	76	0	0	0	0	4	4	2	2	0	2
Hungry_Donkey_bar_English_2	146	1	<?xml version="1.0"?>\n<Clock xmlns:dt="urn:schemas-microsoft-com:datatypes"><Description dt:dt="string">E-Prime Primary Realtime Clock</Description><StartTime><Timestamp dt:dt="int">0</Timestamp><DateUtc dt:dt="string">2016-05-26T22:01:33Z</DateUtc></StartTime><FrequencyChanges><FrequencyChange><Frequency dt:dt="r8">3507734</Frequency><Timestamp dt:dt="r8">297058136005</Timestamp><Current dt:dt="r8">0</Current><DateUtc dt:dt="string">2016-05-26T22:01:33Z</DateUtc></FrequencyChange></FrequencyChanges></Clock>\n	Hungry_Donkey_bar_English_2-146-1	60.018	-71	1.0.0.18	1	706105876	Standard	2.0.10.353	2.0.10.353	05-26-2016		18:01:33	2.0.10.248	77	Bar37-63.bmp	41	3	?	0r_4g.bmp	0r_4g.bmp	0r_2g.bmp	0r_2g.bmp			0r_2g.bmp		TrialProc	TrialList	0	cvbn	-999999	16	372843	0	b	1403	374246	228	-323	-95	-6	-154	17	48	8	8	77	0	0	0	0	4	4	2	2	0	2
Hungry_Donkey_bar_English_2	146	1	<?xml version="1.0"?>\n<Clock xmlns:dt="urn:schemas-microsoft-com:datatypes"><Description dt:dt="string">E-Prime Primary Realtime Clock</Description><StartTime><Timestamp dt:dt="int">0</Timestamp><DateUtc dt:dt="string">2016-05-26T22:01:33Z</DateUtc></StartTime><FrequencyChanges><FrequencyChange><Frequency dt:dt="r8">3507734</Frequency><Timestamp dt:dt="r8">297058136005</Timestamp><Current dt:dt="r8">0</Current><DateUtc dt:dt="string">2016-05-26T22:01:33Z</DateUtc></FrequencyChange></FrequencyChanges></Clock>\n	Hungry_Donkey_bar_English_2-146-1	60.018	-71	1.0.0.18	1	706105876	Standard	2.0.10.353	2.0.10.353	05-26-2016		18:01:33	2.0.10.248	78	Bar37-63.bmp	42	2	?	0r_4g.bmp	0r_4g.bmp	0r_2g.bmp	0r_2g.bmp		0r_4g.bmp			TrialProc	TrialList	0	cvbn	-999999	16	376276	0	v	322	376598	232	-323	-91	-6	-150	17	48	10	8	78	0	0	0	0	4	4	2	2	0	4
Hungry_Donkey_bar_English_2	146	1	<?xml version="1.0"?>\n<Clock xmlns:dt="urn:schemas-microsoft-com:datatypes"><Description dt:dt="string">E-Prime Primary Realtime Clock</Description><StartTime><Timestamp dt:dt="int">0</Timestamp><DateUtc dt:dt="string">2016-05-26T22:01:33Z</DateUtc></StartTime><FrequencyChanges><FrequencyChange><Frequency dt:dt="r8">3507734</Frequency><Timestamp dt:dt="r8">297058136005</Timestamp><Current dt:dt="r8">0</Current><DateUtc dt:dt="string">2016-05-26T22:01:33Z</DateUtc></FrequencyChange></FrequencyChanges></Clock>\n	Hungry_Donkey_bar_English_2-146-1	60.018	-71	1.0.0.18	1	706105876	Standard	2.0.10.353	2.0.10.353	05-26-2016		18:01:33	2.0.10.248	79	Bar37-63.bmp	41	1	?	10r_4g.bmp	0r_4g.bmp	2r_2g.bmp	0r_2g.bmp	10r_4g.bmp				TrialProc	TrialList	0	cvbn	-999999	16	378625	0	c	309	378934	236	-333	-97	-12	-150	17	48	3	8	79	-10	0	-2	0	4	4	2	2	-10	4
Hungry_Donkey_bar_English_2	146	1	<?xml version="1.0"?>\n<Clock xmlns:dt="urn:schemas-microsoft-com:datatypes"><Description dt:dt="string">E-Prime Primary Realtime Clock</Description><StartTime><Timestamp dt:dt="int">0</Timestamp><DateUtc dt:dt="string">2016-05-26T22:01:33Z</DateUtc></StartTime><FrequencyChanges><FrequencyChange><Frequency dt:dt="r8">3507734</Frequency><Timestamp dt:dt="r8">297058136005</Timestamp><Current dt:dt="r8">0</Current><DateUtc dt:dt="string">2016-05-26T22:01:33Z</DateUtc></FrequencyChange></FrequencyChanges></Clock>\n	Hungry_Donkey_bar_English_2-146-1	60.018	-71	1.0.0.18	1	706105876	Standard	2.0.10.353	2.0.10.353	05-26-2016		18:01:33	2.0.10.248	80	Bar37-63.bmp	41	3	?	12r_4g.bmp	0r_4g.bmp	3r_2g.bmp	0r_2g.bmp			3r_2g.bmp		TrialProc	TrialList	0	cvbn	-999999	16	380958	0	b	6455	387413	238	-336	-98	-12	-150	16	48	5	8	80	-12	0	-3	0	4	4	2	2	-3	2
Hungry_Donkey_bar_English_2	146	1	<?xml version="1.0"?>\n<Clock xmlns:dt="urn:schemas-microsoft-com:datatypes"><Description dt:dt="string">E-Prime Primary Realtime Clock</Description><StartTime><Timestamp dt:dt="int">0</Timestamp><DateUtc dt:dt="string">2016-05-26T22:01:33Z</DateUtc></StartTime><FrequencyChanges><FrequencyChange><Frequency dt:dt="r8">3507734</Frequency><Timestamp dt:dt="r8">297058136005</Timestamp><Current dt:dt="r8">0</Current><DateUtc dt:dt="string">2016-05-26T22:01:33Z</DateUtc></FrequencyChange></FrequencyChanges></Clock>\n	Hungry_Donkey_bar_English_2-146-1	60.018	-71	1.0.0.18	1	706105876	Standard	2.0.10.353	2.0.10.353	05-26-2016		18:01:33	2.0.10.248	81	Bar37-63.bmp	42	2	?	0r_4g.bmp	0r_4g.bmp	0r_2g.bmp	0r_2g.bmp		0r_4g.bmp			TrialProc	TrialList	0	cvbn	-999999	16	389438	0	v	1735	391173	242	-336	-94	-12	-146	16	48	10	9	81	0	0	0	0	4	4	2	2	0	4
Hungry_Donkey_bar_English_2	146	1	<?xml version="1.0"?>\n<Clock xmlns:dt="urn:schemas-microsoft-com:datatypes"><Description dt:dt="string">E-Prime Primary Realtime Clock</Description><StartTime><Timestamp dt:dt="int">0</Timestamp><DateUtc dt:dt="string">2016-05-26T22:01:33Z</DateUtc></StartTime><FrequencyChanges><FrequencyChange><Frequency dt:dt="r8">3507734</Frequency><Timestamp dt:dt="r8">297058136005</Timestamp><Current dt:dt="r8">0</Current><DateUtc dt:dt="string">2016-05-26T22:01:33Z</DateUtc></FrequencyChange></FrequencyChanges></Clock>\n	Hungry_Donkey_bar_English_2-146-1	60.018	-71	1.0.0.18	1	706105876	Standard	2.0.10.353	2.0.10.353	05-26-2016		18:01:33	2.0.10.248	82	Bar37-63.bmp	42	1	?	10r_4g.bmp	0r_4g.bmp	2r_2g.bmp	0r_2g.bmp	10r_4g.bmp				TrialProc	TrialList	0	cvbn	-999999	16	393204	0	c	1313	394517	246	-346	-100	-18	-146	16	48	4	9	82	-10	0	-2	0	4	4	2	2	-10	4
Hungry_Donkey_bar_English_2	146	1	<?xml version="1.0"?>\n<Clock xmlns:dt="urn:schemas-microsoft-com:datatypes"><Description dt:dt="string">E-Prime Primary Realtime Clock</Description><StartTime><Timestamp dt:dt="int">0</Timestamp><DateUtc dt:dt="string">2016-05-26T22:01:33Z</DateUtc></StartTime><FrequencyChanges><FrequencyChange><Frequency dt:dt="r8">3507734</Frequency><Timestamp dt:dt="r8">297058136005</Timestamp><Current dt:dt="r8">0</Current><DateUtc dt:dt="string">2016-05-26T22:01:33Z</DateUtc></FrequencyChange></FrequencyChanges></Clock>\n	Hungry_Donkey_bar_English_2-146-1	60.018	-71	1.0.0.18	1	706105876	Standard	2.0.10.353	2.0.10.353	05-26-2016		18:01:33	2.0.10.248	83	Bar37-63.bmp	42	4	?	10r_4g.bmp	0r_4g.bmp	2r_2g.bmp	0r_2g.bmp				0r_2g.bmp	TrialProc	TrialList	0	cvbn	-999999	16	396553	0	n	3435	399988	248	-346	-98	-18	-146	16	50	3	9	83	-10	0	-2	0	4	4	2	2	0	2
Hungry_Donkey_bar_English_2	146	1	<?xml version="1.0"?>\n<Clock xmlns:dt="urn:schemas-microsoft-com:datatypes"><Description dt:dt="string">E-Prime Primary Realtime Clock</Description><StartTime><Timestamp dt:dt="int">0</Timestamp><DateUtc dt:dt="string">2016-05-26T22:01:33Z</DateUtc></StartTime><FrequencyChanges><FrequencyChange><Frequency dt:dt="r8">3507734</Frequency><Timestamp dt:dt="r8">297058136005</Timestamp><Current dt:dt="r8">0</Current><DateUtc dt:dt="string">2016-05-26T22:01:33Z</DateUtc></FrequencyChange></FrequencyChanges></Clock>\n	Hungry_Donkey_bar_English_2-146-1	60.018	-71	1.0.0.18	1	706105876	Standard	2.0.10.353	2.0.10.353	05-26-2016		18:01:33	2.0.10.248	84	Bar37-63.bmp	42	3	?	0r_4g.bmp	0r_4g.bmp	0r_2g.bmp	0r_2g.bmp			0r_2g.bmp		TrialProc	TrialList	0	cvbn	-999999	16	402018	0	b	1250	403268	250	-346	-96	-18	-146	18	50	7	9	84	0	0	0	0	4	4	2	2	0	2
Hungry_Donkey_bar_English_2	146	1	<?xml version="1.0"?>\n<Clock xmlns:dt="urn:schemas-microsoft-com:datatypes"><Description dt:dt="string">E-Prime Primary Realtime Clock</Description><StartTime><Timestamp dt:dt="int">0</Timestamp><DateUtc dt:dt="string">2016-05-26T22:01:33Z</DateUtc></StartTime><FrequencyChanges><FrequencyChange><Frequency dt:dt="r8">3507734</Frequency><Timestamp dt:dt="r8">297058136005</Timestamp><Current dt:dt="r8">0</Current><DateUtc dt:dt="string">2016-05-26T22:01:33Z</DateUtc></FrequencyChange></FrequencyChanges></Clock>\n	Hungry_Donkey_bar_English_2-146-1	60.018	-71	1.0.0.18	1	706105876	Standard	2.0.10.353	2.0.10.353	05-26-2016		18:01:33	2.0.10.248	85	Bar37-63.bmp	42	3	?	0r_4g.bmp	0r_4g.bmp	0r_2g.bmp	0r_2g.bmp			0r_2g.bmp		TrialProc	TrialList	0	cvbn	-999999	16	405300	0	b	560	405860	252	-346	-94	-18	-146	20	50	8	9	85	0	0	0	0	4	4	2	2	0	2
Hungry_Donkey_bar_English_2	146	1	<?xml version="1.0"?>\n<Clock xmlns:dt="urn:schemas-microsoft-com:datatypes"><Description dt:dt="string">E-Prime Primary Realtime Clock</Description><StartTime><Timestamp dt:dt="int">0</Timestamp><DateUtc dt:dt="string">2016-05-26T22:01:33Z</DateUtc></StartTime><FrequencyChanges><FrequencyChange><Frequency dt:dt="r8">3507734</Frequency><Timestamp dt:dt="r8">297058136005</Timestamp><Current dt:dt="r8">0</Current><DateUtc dt:dt="string">2016-05-26T22:01:33Z</DateUtc></FrequencyChange></FrequencyChanges></Clock>\n	Hungry_Donkey_bar_English_2-146-1	60.018	-71	1.0.0.18	1	706105876	Standard	2.0.10.353	2.0.10.353	05-26-2016		18:01:33	2.0.10.248	86	Bar37-63.bmp	43	2	?	0r_4g.bmp	0r_4g.bmp	0r_2g.bmp	0r_2g.bmp		0r_4g.bmp			TrialProc	TrialList	0	cvbn	-999999	16	407883	0	v	1113	408996	256	-346	-90	-18	-142	20	50	6	9	86	0	0	0	0	4	4	2	2	0	4
Hungry_Donkey_bar_English_2	146	1	<?xml version="1.0"?>\n<Clock xmlns:dt="urn:schemas-microsoft-com:datatypes"><Description dt:dt="string">E-Prime Primary Realtime Clock</Description><StartTime><Timestamp dt:dt="int">0</Timestamp><DateUtc dt:dt="string">2016-05-26T22:01:33Z</DateUtc></StartTime><FrequencyChanges><FrequencyChange><Frequency dt:dt="r8">3507734</Frequency><Timestamp dt:dt="r8">297058136005</Timestamp><Current dt:dt="r8">0</Current><DateUtc dt:dt="string">2016-05-26T22:01:33Z</DateUtc></FrequencyChange></FrequencyChanges></Clock>\n	Hungry_Donkey_bar_English_2-146-1	60.018	-71	1.0.0.18	1	706105876	Standard	2.0.10.353	2.0.10.353	05-26-2016		18:01:33	2.0.10.248	87	Bar37-63.bmp	42	4	?	8r_4g.bmp	50r_4g.bmp	1r_2g.bmp	10r_2g.bmp				10r_2g.bmp	TrialProc	TrialList	0	cvbn	-999999	16	411032	0	n	3627	414659	258	-356	-98	-18	-142	20	42	1	9	87	-8	-50	-1	-10	4	4	2	2	-10	2
Hungry_Donkey_bar_English_2	146	1	<?xml version="1.0"?>\n<Clock xmlns:dt="urn:schemas-microsoft-com:datatypes"><Description dt:dt="string">E-Prime Primary Realtime Clock</Description><StartTime><Timestamp dt:dt="int">0</Timestamp><DateUtc dt:dt="string">2016-05-26T22:01:33Z</DateUtc></StartTime><FrequencyChanges><FrequencyChange><Frequency dt:dt="r8">3507734</Frequency><Timestamp dt:dt="r8">297058136005</Timestamp><Current dt:dt="r8">0</Current><DateUtc dt:dt="string">2016-05-26T22:01:33Z</DateUtc></FrequencyChange></FrequencyChanges></Clock>\n	Hungry_Donkey_bar_English_2-146-1	60.018	-71	1.0.0.18	1	706105876	Standard	2.0.10.353	2.0.10.353	05-26-2016		18:01:33	2.0.10.248	88	Bar37-63.bmp	42	2	?	10r_4g.bmp	0r_4g.bmp	2r_2g.bmp	0r_2g.bmp		0r_4g.bmp			TrialProc	TrialList	0	cvbn	-999999	16	416697	0	v	2074	418771	262	-356	-94	-18	-138	20	42	2	9	88	-10	0	-2	0	4	4	2	2	0	4
Hungry_Donkey_bar_English_2	146	1	<?xml version="1.0"?>\n<Clock xmlns:dt="urn:schemas-microsoft-com:datatypes"><Description dt:dt="string">E-Prime Primary Realtime Clock</Description><StartTime><Timestamp dt:dt="int">0</Timestamp><DateUtc dt:dt="string">2016-05-26T22:01:33Z</DateUtc></StartTime><FrequencyChanges><FrequencyChange><Frequency dt:dt="r8">3507734</Frequency><Timestamp dt:dt="r8">297058136005</Timestamp><Current dt:dt="r8">0</Current><DateUtc dt:dt="string">2016-05-26T22:01:33Z</DateUtc></FrequencyChange></FrequencyChanges></Clock>\n	Hungry_Donkey_bar_English_2-146-1	60.018	-71	1.0.0.18	1	706105876	Standard	2.0.10.353	2.0.10.353	05-26-2016		18:01:33	2.0.10.248	89	Bar37-63.bmp	42	1	?	12r_4g.bmp	0r_4g.bmp	3r_2g.bmp	0r_2g.bmp	12r_4g.bmp				TrialProc	TrialList	0	cvbn	-999999	16	420796	0	c	343	421139	266	-368	-102	-26	-138	20	42	5	9	89	-12	0	-3	0	4	4	2	2	-12	4
Hungry_Donkey_bar_English_2	146	1	<?xml version="1.0"?>\n<Clock xmlns:dt="urn:schemas-microsoft-com:datatypes"><Description dt:dt="string">E-Prime Primary Realtime Clock</Description><StartTime><Timestamp dt:dt="int">0</Timestamp><DateUtc dt:dt="string">2016-05-26T22:01:33Z</DateUtc></StartTime><FrequencyChanges><FrequencyChange><Frequency dt:dt="r8">3507734</Frequency><Timestamp dt:dt="r8">297058136005</Timestamp><Current dt:dt="r8">0</Current><DateUtc dt:dt="string">2016-05-26T22:01:33Z</DateUtc></FrequencyChange></FrequencyChanges></Clock>\n	Hungry_Donkey_bar_English_2-146-1	60.018	-71	1.0.0.18	1	706105876	Standard	2.0.10.353	2.0.10.353	05-26-2016		18:01:33	2.0.10.248	90	Bar37-63.bmp	42	3	?	0r_4g.bmp	0r_4g.bmp	0r_2g.bmp	0r_2g.bmp			0r_2g.bmp		TrialProc	TrialList	0	cvbn	-999999	16	423178	0	b	2377	425555	268	-368	-100	-26	-138	22	42	9	9	90	0	0	0	0	4	4	2	2	0	2
Hungry_Donkey_bar_English_2	146	1	<?xml version="1.0"?>\n<Clock xmlns:dt="urn:schemas-microsoft-com:datatypes"><Description dt:dt="string">E-Prime Primary Realtime Clock</Description><StartTime><Timestamp dt:dt="int">0</Timestamp><DateUtc dt:dt="string">2016-05-26T22:01:33Z</DateUtc></StartTime><FrequencyChanges><FrequencyChange><Frequency dt:dt="r8">3507734</Frequency><Timestamp dt:dt="r8">297058136005</Timestamp><Current dt:dt="r8">0</Current><DateUtc dt:dt="string">2016-05-26T22:01:33Z</DateUtc></FrequencyChange></FrequencyChanges></Clock>\n	Hungry_Donkey_bar_English_2-146-1	60.018	-71	1.0.0.18	1	706105876	Standard	2.0.10.353	2.0.10.353	05-26-2016		18:01:33	2.0.10.248	91	Bar37-63.bmp	42	2	?	0r_4g.bmp	0r_4g.bmp	0r_2g.bmp	0r_2g.bmp		0r_4g.bmp			TrialProc	TrialList	0	cvbn	-999999	17	427594	0	v	617	428211	272	-368	-96	-26	-134	22	42	10	10	91	0	0	0	0	4	4	2	2	0	4
Hungry_Donkey_bar_English_2	146	1	<?xml version="1.0"?>\n<Clock xmlns:dt="urn:schemas-microsoft-com:datatypes"><Description dt:dt="string">E-Prime Primary Realtime Clock</Description><StartTime><Timestamp dt:dt="int">0</Timestamp><DateUtc dt:dt="string">2016-05-26T22:01:33Z</DateUtc></StartTime><FrequencyChanges><FrequencyChange><Frequency dt:dt="r8">3507734</Frequency><Timestamp dt:dt="r8">297058136005</Timestamp><Current dt:dt="r8">0</Current><DateUtc dt:dt="string">2016-05-26T22:01:33Z</DateUtc></FrequencyChange></FrequencyChanges></Clock>\n	Hungry_Donkey_bar_English_2-146-1	60.018	-71	1.0.0.18	1	706105876	Standard	2.0.10.353	2.0.10.353	05-26-2016		18:01:33	2.0.10.248	92	Bar37-63.bmp	42	4	?	8r_4g.bmp	50r_4g.bmp	1r_2g.bmp	10r_2g.bmp				10r_2g.bmp	TrialProc	TrialList	0	cvbn	-999999	16	430243	0	n	511	430754	274	-378	-104	-26	-134	22	34	1	10	92	-8	-50	-1	-10	4	4	2	2	-10	2
Hungry_Donkey_bar_English_2	146	1	<?xml version="1.0"?>\n<Clock xmlns:dt="urn:schemas-microsoft-com:datatypes"><Description dt:dt="string">E-Prime Primary Realtime Clock</Description><StartTime><Timestamp dt:dt="int">0</Timestamp><DateUtc dt:dt="string">2016-05-26T22:01:33Z</DateUtc></StartTime><FrequencyChanges><FrequencyChange><Frequency dt:dt="r8">3507734</Frequency><Timestamp dt:dt="r8">297058136005</Timestamp><Current dt:dt="r8">0</Current><DateUtc dt:dt="string">2016-05-26T22:01:33Z</DateUtc></FrequencyChange></FrequencyChanges></Clock>\n	Hungry_Donkey_bar_English_2-146-1	60.018	-71	1.0.0.18	1	706105876	Standard	2.0.10.353	2.0.10.353	05-26-2016		18:01:33	2.0.10.248	93	Bar37-63.bmp	42	1	?	0r_4g.bmp	0r_4g.bmp	0r_2g.bmp	0r_2g.bmp	0r_4g.bmp				TrialProc	TrialList	0	cvbn	-999999	16	432792	0	c	3130	435922	278	-378	-100	-22	-134	22	34	7	10	93	0	0	0	0	4	4	2	2	0	4
Hungry_Donkey_bar_English_2	146	1	<?xml version="1.0"?>\n<Clock xmlns:dt="urn:schemas-microsoft-com:datatypes"><Description dt:dt="string">E-Prime Primary Realtime Clock</Description><StartTime><Timestamp dt:dt="int">0</Timestamp><DateUtc dt:dt="string">2016-05-26T22:01:33Z</DateUtc></StartTime><FrequencyChanges><FrequencyChange><Frequency dt:dt="r8">3507734</Frequency><Timestamp dt:dt="r8">297058136005</Timestamp><Current dt:dt="r8">0</Current><DateUtc dt:dt="string">2016-05-26T22:01:33Z</DateUtc></FrequencyChange></FrequencyChanges></Clock>\n	Hungry_Donkey_bar_English_2-146-1	60.018	-71	1.0.0.18	1	706105876	Standard	2.0.10.353	2.0.10.353	05-26-2016		18:01:33	2.0.10.248	94	Bar37-63.bmp	43	2	?	10r_4g.bmp	0r_4g.bmp	2r_2g.bmp	0r_2g.bmp		0r_4g.bmp			TrialProc	TrialList	0	cvbn	-999999	16	437957	0	v	621	438578	282	-378	-96	-22	-130	22	34	3	10	94	-10	0	-2	0	4	4	2	2	0	4
Hungry_Donkey_bar_English_2	146	1	<?xml version="1.0"?>\n<Clock xmlns:dt="urn:schemas-microsoft-com:datatypes"><Description dt:dt="string">E-Prime Primary Realtime Clock</Description><StartTime><Timestamp dt:dt="int">0</Timestamp><DateUtc dt:dt="string">2016-05-26T22:01:33Z</DateUtc></StartTime><FrequencyChanges><FrequencyChange><Frequency dt:dt="r8">3507734</Frequency><Timestamp dt:dt="r8">297058136005</Timestamp><Current dt:dt="r8">0</Current><DateUtc dt:dt="string">2016-05-26T22:01:33Z</DateUtc></FrequencyChange></FrequencyChanges></Clock>\n	Hungry_Donkey_bar_English_2-146-1	60.018	-71	1.0.0.18	1	706105876	Standard	2.0.10.353	2.0.10.353	05-26-2016		18:01:33	2.0.10.248	95	Bar37-63.bmp	43	3	?	0r_4g.bmp	0r_4g.bmp	0r_2g.bmp	0r_2g.bmp			0r_2g.bmp		TrialProc	TrialList	0	cvbn	-999999	16	440606	0	b	916	441522	284	-378	-94	-22	-130	24	34	9	10	95	0	0	0	0	4	4	2	2	0	2
Hungry_Donkey_bar_English_2	146	1	<?xml version="1.0"?>\n<Clock xmlns:dt="urn:schemas-microsoft-com:datatypes"><Description dt:dt="string">E-Prime Primary Realtime Clock</Description><StartTime><Timestamp dt:dt="int">0</Timestamp><DateUtc dt:dt="string">2016-05-26T22:01:33Z</DateUtc></StartTime><FrequencyChanges><FrequencyChange><Frequency dt:dt="r8">3507734</Frequency><Timestamp dt:dt="r8">297058136005</Timestamp><Current dt:dt="r8">0</Current><DateUtc dt:dt="string">2016-05-26T22:01:33Z</DateUtc></FrequencyChange></FrequencyChanges></Clock>\n	Hungry_Donkey_bar_English_2-146-1	60.018	-71	1.0.0.18	1	706105876	Standard	2.0.10.353	2.0.10.353	05-26-2016		18:01:33	2.0.10.248	96	Bar37-63.bmp	43	4	?	0r_4g.bmp	0r_4g.bmp	0r_2g.bmp	0r_2g.bmp				0r_2g.bmp	TrialProc	TrialList	0	cvbn	-999999	16	443555	0	n	367	443922	286	-378	-92	-22	-130	24	36	8	10	96	0	0	0	0	4	4	2	2	0	2
Hungry_Donkey_bar_English_2	146	1	<?xml version="1.0"?>\n<Clock xmlns:dt="urn:schemas-microsoft-com:datatypes"><Description dt:dt="string">E-Prime Primary Realtime Clock</Description><StartTime><Timestamp dt:dt="int">0</Timestamp><DateUtc dt:dt="string">2016-05-26T22:01:33Z</DateUtc></StartTime><FrequencyChanges><FrequencyChange><Frequency dt:dt="r8">3507734</Frequency><Timestamp dt:dt="r8">297058136005</Timestamp><Current dt:dt="r8">0</Current><DateUtc dt:dt="string">2016-05-26T22:01:33Z</DateUtc></FrequencyChange></FrequencyChanges></Clock>\n	Hungry_Donkey_bar_English_2-146-1	60.018	-71	1.0.0.18	1	706105876	Standard	2.0.10.353	2.0.10.353	05-26-2016		18:01:33	2.0.10.248	97	Bar37-63.bmp	43	1	?	10r_4g.bmp	0r_4g.bmp	2r_2g.bmp	0r_2g.bmp	10r_4g.bmp				TrialProc	TrialList	0	cvbn	-999999	16	445955	0	c	1678	447633	290	-388	-98	-28	-130	24	36	2	10	97	-10	0	-2	0	4	4	2	2	-10	4
Hungry_Donkey_bar_English_2	146	1	<?xml version="1.0"?>\n<Clock xmlns:dt="urn:schemas-microsoft-com:datatypes"><Description dt:dt="string">E-Prime Primary Realtime Clock</Description><StartTime><Timestamp dt:dt="int">0</Timestamp><DateUtc dt:dt="string">2016-05-26T22:01:33Z</DateUtc></StartTime><FrequencyChanges><FrequencyChange><Frequency dt:dt="r8">3507734</Frequency><Timestamp dt:dt="r8">297058136005</Timestamp><Current dt:dt="r8">0</Current><DateUtc dt:dt="string">2016-05-26T22:01:33Z</DateUtc></FrequencyChange></FrequencyChanges></Clock>\n	Hungry_Donkey_bar_English_2-146-1	60.018	-71	1.0.0.18	1	706105876	Standard	2.0.10.353	2.0.10.353	05-26-2016		18:01:33	2.0.10.248	98	Bar37-63.bmp	43	2	?	10r_4g.bmp	0r_4g.bmp	2r_2g.bmp	0r_2g.bmp		0r_4g.bmp			TrialProc	TrialList	0	cvbn	-999999	16	449670	0	v	939	450609	294	-388	-94	-28	-126	24	36	4	10	98	-10	0	-2	0	4	4	2	2	0	4
Hungry_Donkey_bar_English_2	146	1	<?xml version="1.0"?>\n<Clock xmlns:dt="urn:schemas-microsoft-com:datatypes"><Description dt:dt="string">E-Prime Primary Realtime Clock</Description><StartTime><Timestamp dt:dt="int">0</Timestamp><DateUtc dt:dt="string">2016-05-26T22:01:33Z</DateUtc></StartTime><FrequencyChanges><FrequencyChange><Frequency dt:dt="r8">3507734</Frequency><Timestamp dt:dt="r8">297058136005</Timestamp><Current dt:dt="r8">0</Current><DateUtc dt:dt="string">2016-05-26T22:01:33Z</DateUtc></FrequencyChange></FrequencyChanges></Clock>\n	Hungry_Donkey_bar_English_2-146-1	60.018	-71	1.0.0.18	1	706105876	Standard	2.0.10.353	2.0.10.353	05-26-2016		18:01:33	2.0.10.248	99	Bar37-63.bmp	43	3	?	0r_4g.bmp	0r_4g.bmp	0r_2g.bmp	0r_2g.bmp			0r_2g.bmp		TrialProc	TrialList	0	cvbn	-999999	16	452636	0	b	1381	454017	296	-388	-92	-28	-126	26	36	6	10	99	0	0	0	0	4	4	2	2	0	2
Hungry_Donkey_bar_English_2	146	1	<?xml version="1.0"?>\n<Clock xmlns:dt="urn:schemas-microsoft-com:datatypes"><Description dt:dt="string">E-Prime Primary Realtime Clock</Description><StartTime><Timestamp dt:dt="int">0</Timestamp><DateUtc dt:dt="string">2016-05-26T22:01:33Z</DateUtc></StartTime><FrequencyChanges><FrequencyChange><Frequency dt:dt="r8">3507734</Frequency><Timestamp dt:dt="r8">297058136005</Timestamp><Current dt:dt="r8">0</Current><DateUtc dt:dt="string">2016-05-26T22:01:33Z</DateUtc></FrequencyChange></FrequencyChanges></Clock>\n	Hungry_Donkey_bar_English_2-146-1	60.018	-71	1.0.0.18	1	706105876	Standard	2.0.10.353	2.0.10.353	05-26-2016		18:01:33	2.0.10.248	100	Bar37-63.bmp	43	3	?	12r_4g.bmp	0r_4g.bmp	3r_2g.bmp	0r_2g.bmp			3r_2g.bmp		TrialProc	TrialList	0	cvbn	-999999	16	456052	0	b	1069	457121	298	-391	-93	-28	-126	25	36	5	10	100	-12	0	-3	0	4	4	2	2	-3	2
Hungry_Donkey_bar_English_2	146	1	<?xml version="1.0"?>\n<Clock xmlns:dt="urn:schemas-microsoft-com:datatypes"><Description dt:dt="string">E-Prime Primary Realtime Clock</Description><StartTime><Timestamp dt:dt="int">0</Timestamp><DateUtc dt:dt="string">2016-05-26T22:01:33Z</DateUtc></StartTime><FrequencyChanges><FrequencyChange><Frequency dt:dt="r8">3507734</Frequency><Timestamp dt:dt="r8">297058136005</Timestamp><Current dt:dt="r8">0</Current><DateUtc dt:dt="string">2016-05-26T22:01:33Z</DateUtc></FrequencyChange></FrequencyChanges></Clock>\n	Hungry_Donkey_bar_English_2-146-1	60.018	-71	1.0.0.18	1	706105876	Standard	2.0.10.353	2.0.10.353	05-26-2016		18:01:33	2.0.10.248	101	Bar50-50.bmp	44	2	?	0r_4g.bmp	0r_4g.bmp	0r_2g.bmp	0r_2g.bmp		0r_4g.bmp			TrialProc	TrialList	0	cvbn	-999999	16	459151	0	v	978	460129	302	-391	-89	-28	-122	25	36	6	11	101	0	0	0	0	4	4	2	2	0	4
Hungry_Donkey_bar_English_2	146	1	<?xml version="1.0"?>\n<Clock xmlns:dt="urn:schemas-microsoft-com:datatypes"><Description dt:dt="string">E-Prime Primary Realtime Clock</Description><StartTime><Timestamp dt:dt="int">0</Timestamp><DateUtc dt:dt="string">2016-05-26T22:01:33Z</DateUtc></StartTime><FrequencyChanges><FrequencyChange><Frequency dt:dt="r8">3507734</Frequency><Timestamp dt:dt="r8">297058136005</Timestamp><Current dt:dt="r8">0</Current><DateUtc dt:dt="string">2016-05-26T22:01:33Z</DateUtc></FrequencyChange></FrequencyChanges></Clock>\n	Hungry_Donkey_bar_English_2-146-1	60.018	-71	1.0.0.18	1	706105876	Standard	2.0.10.353	2.0.10.353	05-26-2016		18:01:33	2.0.10.248	102	Bar37-63.bmp	43	1	?	12r_4g.bmp	0r_4g.bmp	3r_2g.bmp	0r_2g.bmp	12r_4g.bmp				TrialProc	TrialList	0	cvbn	-999999	16	462166	0	c	2906	465072	306	-403	-97	-36	-122	25	36	5	11	102	-12	0	-3	0	4	4	2	2	-12	4
Hungry_Donkey_bar_English_2	146	1	<?xml version="1.0"?>\n<Clock xmlns:dt="urn:schemas-microsoft-com:datatypes"><Description dt:dt="string">E-Prime Primary Realtime Clock</Description><StartTime><Timestamp dt:dt="int">0</Timestamp><DateUtc dt:dt="string">2016-05-26T22:01:33Z</DateUtc></StartTime><FrequencyChanges><FrequencyChange><Frequency dt:dt="r8">3507734</Frequency><Timestamp dt:dt="r8">297058136005</Timestamp><Current dt:dt="r8">0</Current><DateUtc dt:dt="string">2016-05-26T22:01:33Z</DateUtc></FrequencyChange></FrequencyChanges></Clock>\n	Hungry_Donkey_bar_English_2-146-1	60.018	-71	1.0.0.18	1	706105876	Standard	2.0.10.353	2.0.10.353	05-26-2016		18:01:33	2.0.10.248	103	Bar37-63.bmp	43	4	?	10r_4g.bmp	0r_4g.bmp	2r_2g.bmp	0r_2g.bmp				0r_2g.bmp	TrialProc	TrialList	0	cvbn	-999999	16	467098	0	n	4118	471216	308	-403	-95	-36	-122	25	38	3	11	103	-10	0	-2	0	4	4	2	2	0	2
Hungry_Donkey_bar_English_2	146	1	<?xml version="1.0"?>\n<Clock xmlns:dt="urn:schemas-microsoft-com:datatypes"><Description dt:dt="string">E-Prime Primary Realtime Clock</Description><StartTime><Timestamp dt:dt="int">0</Timestamp><DateUtc dt:dt="string">2016-05-26T22:01:33Z</DateUtc></StartTime><FrequencyChanges><FrequencyChange><Frequency dt:dt="r8">3507734</Frequency><Timestamp dt:dt="r8">297058136005</Timestamp><Current dt:dt="r8">0</Current><DateUtc dt:dt="string">2016-05-26T22:01:33Z</DateUtc></FrequencyChange></FrequencyChanges></Clock>\n	Hungry_Donkey_bar_English_2-146-1	60.018	-71	1.0.0.18	1	706105876	Standard	2.0.10.353	2.0.10.353	05-26-2016		18:01:33	2.0.10.248	104	Bar37-63.bmp	43	3	?	0r_4g.bmp	0r_4g.bmp	0r_2g.bmp	0r_2g.bmp			0r_2g.bmp		TrialProc	TrialList	0	cvbn	-999999	16	473246	0	b	1170	474416	310	-403	-93	-36	-122	27	38	8	11	104	0	0	0	0	4	4	2	2	0	2
Hungry_Donkey_bar_English_2	146	1	<?xml version="1.0"?>\n<Clock xmlns:dt="urn:schemas-microsoft-com:datatypes"><Description dt:dt="string">E-Prime Primary Realtime Clock</Description><StartTime><Timestamp dt:dt="int">0</Timestamp><DateUtc dt:dt="string">2016-05-26T22:01:33Z</DateUtc></StartTime><FrequencyChanges><FrequencyChange><Frequency dt:dt="r8">3507734</Frequency><Timestamp dt:dt="r8">297058136005</Timestamp><Current dt:dt="r8">0</Current><DateUtc dt:dt="string">2016-05-26T22:01:33Z</DateUtc></FrequencyChange></FrequencyChanges></Clock>\n	Hungry_Donkey_bar_English_2-146-1	60.018	-71	1.0.0.18	1	706105876	Standard	2.0.10.353	2.0.10.353	05-26-2016		18:01:33	2.0.10.248	105	Bar50-50.bmp	44	2	?	0r_4g.bmp	0r_4g.bmp	0r_2g.bmp	0r_2g.bmp		0r_4g.bmp			TrialProc	TrialList	0	cvbn	-999999	16	476445	0	v	786	477231	314	-403	-89	-36	-118	27	38	9	11	105	0	0	0	0	4	4	2	2	0	4
Hungry_Donkey_bar_English_2	146	1	<?xml version="1.0"?>\n<Clock xmlns:dt="urn:schemas-microsoft-com:datatypes"><Description dt:dt="string">E-Prime Primary Realtime Clock</Description><StartTime><Timestamp dt:dt="int">0</Timestamp><DateUtc dt:dt="string">2016-05-26T22:01:33Z</DateUtc></StartTime><FrequencyChanges><FrequencyChange><Frequency dt:dt="r8">3507734</Frequency><Timestamp dt:dt="r8">297058136005</Timestamp><Current dt:dt="r8">0</Current><DateUtc dt:dt="string">2016-05-26T22:01:33Z</DateUtc></FrequencyChange></FrequencyChanges></Clock>\n	Hungry_Donkey_bar_English_2-146-1	60.018	-71	1.0.0.18	1	706105876	Standard	2.0.10.353	2.0.10.353	05-26-2016		18:01:33	2.0.10.248	106	Bar50-50.bmp	44	3	?	0r_4g.bmp	0r_4g.bmp	0r_2g.bmp	0r_2g.bmp			0r_2g.bmp		TrialProc	TrialList	0	cvbn	-999999	16	479261	0	b	1554	480815	316	-403	-87	-36	-118	29	38	7	11	106	0	0	0	0	4	4	2	2	0	2
Hungry_Donkey_bar_English_2	146	1	<?xml version="1.0"?>\n<Clock xmlns:dt="urn:schemas-microsoft-com:datatypes"><Description dt:dt="string">E-Prime Primary Realtime Clock</Description><StartTime><Timestamp dt:dt="int">0</Timestamp><DateUtc dt:dt="string">2016-05-26T22:01:33Z</DateUtc></StartTime><FrequencyChanges><FrequencyChange><Frequency dt:dt="r8">3507734</Frequency><Timestamp dt:dt="r8">297058136005</Timestamp><Current dt:dt="r8">0</Current><DateUtc dt:dt="string">2016-05-26T22:01:33Z</DateUtc></FrequencyChange></FrequencyChanges></Clock>\n	Hungry_Donkey_bar_English_2-146-1	60.018	-71	1.0.0.18	1	706105876	Standard	2.0.10.353	2.0.10.353	05-26-2016		18:01:33	2.0.10.248	107	Bar50-50.bmp	44	4	?	10r_4g.bmp	0r_4g.bmp	2r_2g.bmp	0r_2g.bmp				0r_2g.bmp	TrialProc	TrialList	0	cvbn	-999999	16	482843	0	n	436	483279	318	-403	-85	-36	-118	29	40	2	11	107	-10	0	-2	0	4	4	2	2	0	2
Hungry_Donkey_bar_English_2	146	1	<?xml version="1.0"?>\n<Clock xmlns:dt="urn:schemas-microsoft-com:datatypes"><Description dt:dt="string">E-Prime Primary Realtime Clock</Description><StartTime><Timestamp dt:dt="int">0</Timestamp><DateUtc dt:dt="string">2016-05-26T22:01:33Z</DateUtc></StartTime><FrequencyChanges><FrequencyChange><Frequency dt:dt="r8">3507734</Frequency><Timestamp dt:dt="r8">297058136005</Timestamp><Current dt:dt="r8">0</Current><DateUtc dt:dt="string">2016-05-26T22:01:33Z</DateUtc></FrequencyChange></FrequencyChanges></Clock>\n	Hungry_Donkey_bar_English_2-146-1	60.018	-71	1.0.0.18	1	706105876	Standard	2.0.10.353	2.0.10.353	05-26-2016		18:01:33	2.0.10.248	108	Bar50-50.bmp	44	1	?	0r_4g.bmp	0r_4g.bmp	0r_2g.bmp	0r_2g.bmp	0r_4g.bmp				TrialProc	TrialList	0	cvbn	-999999	16	485309	0	c	3810	489119	322	-403	-81	-32	-118	29	40	10	11	108	0	0	0	0	4	4	2	2	0	4
Hungry_Donkey_bar_English_2	146	1	<?xml version="1.0"?>\n<Clock xmlns:dt="urn:schemas-microsoft-com:datatypes"><Description dt:dt="string">E-Prime Primary Realtime Clock</Description><StartTime><Timestamp dt:dt="int">0</Timestamp><DateUtc dt:dt="string">2016-05-26T22:01:33Z</DateUtc></StartTime><FrequencyChanges><FrequencyChange><Frequency dt:dt="r8">3507734</Frequency><Timestamp dt:dt="r8">297058136005</Timestamp><Current dt:dt="r8">0</Current><DateUtc dt:dt="string">2016-05-26T22:01:33Z</DateUtc></FrequencyChange></FrequencyChanges></Clock>\n	Hungry_Donkey_bar_English_2-146-1	60.018	-71	1.0.0.18	1	706105876	Standard	2.0.10.353	2.0.10.353	05-26-2016		18:01:33	2.0.10.248	109	Bar37-63.bmp	42	2	?	8r_4g.bmp	50r_4g.bmp	1r_2g.bmp	10r_2g.bmp		50r_4g.bmp			TrialProc	TrialList	0	cvbn	-999999	16	491158	0	v	2520	493678	326	-453	-127	-32	-164	29	40	1	11	109	-8	-50	-1	-10	4	4	2	2	-50	4
Hungry_Donkey_bar_English_2	146	1	<?xml version="1.0"?>\n<Clock xmlns:dt="urn:schemas-microsoft-com:datatypes"><Description dt:dt="string">E-Prime Primary Realtime Clock</Description><StartTime><Timestamp dt:dt="int">0</Timestamp><DateUtc dt:dt="string">2016-05-26T22:01:33Z</DateUtc></StartTime><FrequencyChanges><FrequencyChange><Frequency dt:dt="r8">3507734</Frequency><Timestamp dt:dt="r8">297058136005</Timestamp><Current dt:dt="r8">0</Current><DateUtc dt:dt="string">2016-05-26T22:01:33Z</DateUtc></FrequencyChange></FrequencyChanges></Clock>\n	Hungry_Donkey_bar_English_2-146-1	60.018	-71	1.0.0.18	1	706105876	Standard	2.0.10.353	2.0.10.353	05-26-2016		18:01:33	2.0.10.248	110	Bar37-63.bmp	42	3	?	10r_4g.bmp	0r_4g.bmp	2r_2g.bmp	0r_2g.bmp			2r_2g.bmp		TrialProc	TrialList	0	cvbn	-999999	16	495706	0	b	4468	500174	328	-455	-127	-32	-164	29	40	4	11	110	-10	0	-2	0	4	4	2	2	-2	2
Hungry_Donkey_bar_English_2	146	1	<?xml version="1.0"?>\n<Clock xmlns:dt="urn:schemas-microsoft-com:datatypes"><Description dt:dt="string">E-Prime Primary Realtime Clock</Description><StartTime><Timestamp dt:dt="int">0</Timestamp><DateUtc dt:dt="string">2016-05-26T22:01:33Z</DateUtc></StartTime><FrequencyChanges><FrequencyChange><Frequency dt:dt="r8">3507734</Frequency><Timestamp dt:dt="r8">297058136005</Timestamp><Current dt:dt="r8">0</Current><DateUtc dt:dt="string">2016-05-26T22:01:33Z</DateUtc></FrequencyChange></FrequencyChanges></Clock>\n	Hungry_Donkey_bar_English_2-146-1	60.018	-71	1.0.0.18	1	706105876	Standard	2.0.10.353	2.0.10.353	05-26-2016		18:01:33	2.0.10.248	111	Bar37-63.bmp	42	4	?	0r_4g.bmp	0r_4g.bmp	0r_2g.bmp	0r_2g.bmp				0r_2g.bmp	TrialProc	TrialList	0	cvbn	-999999	16	502204	0	n	2546	504750	330	-455	-125	-32	-164	29	42	7	12	111	0	0	0	0	4	4	2	2	0	2
Hungry_Donkey_bar_English_2	146	1	<?xml version="1.0"?>\n<Clock xmlns:dt="urn:schemas-microsoft-com:datatypes"><Description dt:dt="string">E-Prime Primary Realtime Clock</Description><StartTime><Timestamp dt:dt="int">0</Timestamp><DateUtc dt:dt="string">2016-05-26T22:01:33Z</DateUtc></StartTime><FrequencyChanges><FrequencyChange><Frequency dt:dt="r8">3507734</Frequency><Timestamp dt:dt="r8">297058136005</Timestamp><Current dt:dt="r8">0</Current><DateUtc dt:dt="string">2016-05-26T22:01:33Z</DateUtc></FrequencyChange></FrequencyChanges></Clock>\n	Hungry_Donkey_bar_English_2-146-1	60.018	-71	1.0.0.18	1	706105876	Standard	2.0.10.353	2.0.10.353	05-26-2016		18:01:33	2.0.10.248	112	Bar37-63.bmp	42	4	?	10r_4g.bmp	0r_4g.bmp	2r_2g.bmp	0r_2g.bmp				0r_2g.bmp	TrialProc	TrialList	0	cvbn	-999999	16	506786	0	n	2635	509421	332	-455	-123	-32	-164	29	44	2	12	112	-10	0	-2	0	4	4	2	2	0	2
Hungry_Donkey_bar_English_2	146	1	<?xml version="1.0"?>\n<Clock xmlns:dt="urn:schemas-microsoft-com:datatypes"><Description dt:dt="string">E-Prime Primary Realtime Clock</Description><StartTime><Timestamp dt:dt="int">0</Timestamp><DateUtc dt:dt="string">2016-05-26T22:01:33Z</DateUtc></StartTime><FrequencyChanges><FrequencyChange><Frequency dt:dt="r8">3507734</Frequency><Timestamp dt:dt="r8">297058136005</Timestamp><Current dt:dt="r8">0</Current><DateUtc dt:dt="string">2016-05-26T22:01:33Z</DateUtc></FrequencyChange></FrequencyChanges></Clock>\n	Hungry_Donkey_bar_English_2-146-1	60.018	-71	1.0.0.18	1	706105876	Standard	2.0.10.353	2.0.10.353	05-26-2016		18:01:33	2.0.10.248	113	Bar37-63.bmp	42	1	?	0r_4g.bmp	0r_4g.bmp	0r_2g.bmp	0r_2g.bmp	0r_4g.bmp				TrialProc	TrialList	0	cvbn	-999999	16	511451	0	c	562	512013	336	-455	-119	-28	-164	29	44	9	12	113	0	0	0	0	4	4	2	2	0	4
