ExperimentName	Subject	Session	Clock.Information	DataFile.Basename	Display.RefreshRate	Eindtotaal[Session]	ExperimentVersion	Group	RandomSeed	RuntimeCapabilities	RuntimeVersion	RuntimeVersionExpected	SessionDate	SessionStartDateTimeUtc	SessionTime	StudioVersion	Block	BarImage	BarTotalWinst	DoorChoice	Eindtotaal[Block]	FBDoor1	FBDoor2	FBDoor3	FBDoor4	Image1	Image2	Image3	Image4	Procedure	Running	spel.ACC	spel.CRESP	spel.DurationError	spel.OnsetDelay	spel.OnsetTime	spel.OnsetToOnsetTime	spel.RESP	spel.RT	spel.RTTime	TotalGain	TotalLose	Totalsum	TotalsumD1	TotalsumD2	TotalsumD3	TotalsumD4	TrialList	TrialList.Cycle	TrialList.Sample	varV1	varV2	varV3	varV4	varW1	varW2	varW3	varW4	Verliesbedrag	Winstbedrag
Hungry_Donkey_bar_English_2	161	1	<?xml version="1.0"?>\n<Clock xmlns:dt="urn:schemas-microsoft-com:datatypes"><Description dt:dt="string">E-Prime Primary Realtime Clock</Description><StartTime><Timestamp dt:dt="int">0</Timestamp><DateUtc dt:dt="string">2016-07-12T22:17:07Z</DateUtc></StartTime><FrequencyChanges><FrequencyChange><Frequency dt:dt="r8">3507705</Frequency><Timestamp dt:dt="r8">366458999881</Timestamp><Current dt:dt="r8">0</Current><DateUtc dt:dt="string">2016-07-12T22:17:07Z</DateUtc></FrequencyChange></FrequencyChanges></Clock>\n	Hungry_Donkey_bar_English_2-161-1	60.018	-140	1.0.0.18	1	1387488314	Standard	2.0.10.353	2.0.10.353	07-12-2016		18:17:07	2.0.10.248	1	Bar100-0.bmp	100	2	?	12r_4g.bmp	0r_4g.bmp	3r_2g.bmp	0r_2g.bmp		0r_4g.bmp			TrialProc	TrialList	0	cvbn	-999999	23	14993	0	v	6137	21130	4	0	4	0	4	0	0	5	1	1	-12	0	-3	0	4	4	2	2	0	4
Hungry_Donkey_bar_English_2	161	1	<?xml version="1.0"?>\n<Clock xmlns:dt="urn:schemas-microsoft-com:datatypes"><Description dt:dt="string">E-Prime Primary Realtime Clock</Description><StartTime><Timestamp dt:dt="int">0</Timestamp><DateUtc dt:dt="string">2016-07-12T22:17:07Z</DateUtc></StartTime><FrequencyChanges><FrequencyChange><Frequency dt:dt="r8">3507705</Frequency><Timestamp dt:dt="r8">366458999881</Timestamp><Current dt:dt="r8">0</Current><DateUtc dt:dt="string">2016-07-12T22:17:07Z</DateUtc></FrequencyChange></FrequencyChanges></Clock>\n	Hungry_Donkey_bar_English_2-161-1	60.018	-140	1.0.0.18	1	1387488314	Standard	2.0.10.353	2.0.10.353	07-12-2016		18:17:07	2.0.10.248	2	Bar100-0.bmp	100	1	?	0r_4g.bmp	0r_4g.bmp	0r_2g.bmp	0r_2g.bmp	0r_4g.bmp				TrialProc	TrialList	0	cvbn	-999999	16	23174	0	c	5251	28425	8	0	8	4	4	0	0	7	1	2	0	0	0	0	4	4	2	2	0	4
Hungry_Donkey_bar_English_2	161	1	<?xml version="1.0"?>\n<Clock xmlns:dt="urn:schemas-microsoft-com:datatypes"><Description dt:dt="string">E-Prime Primary Realtime Clock</Description><StartTime><Timestamp dt:dt="int">0</Timestamp><DateUtc dt:dt="string">2016-07-12T22:17:07Z</DateUtc></StartTime><FrequencyChanges><FrequencyChange><Frequency dt:dt="r8">3507705</Frequency><Timestamp dt:dt="r8">366458999881</Timestamp><Current dt:dt="r8">0</Current><DateUtc dt:dt="string">2016-07-12T22:17:07Z</DateUtc></FrequencyChange></FrequencyChanges></Clock>\n	Hungry_Donkey_bar_English_2-161-1	60.018	-140	1.0.0.18	1	1387488314	Standard	2.0.10.353	2.0.10.353	07-12-2016		18:17:07	2.0.10.248	3	Bar100-0.bmp	100	4	?	10r_4g.bmp	0r_4g.bmp	2r_2g.bmp	0r_2g.bmp				0r_2g.bmp	TrialProc	TrialList	0	cvbn	-999999	16	30455	0	n	2338	32793	10	0	10	4	4	0	2	3	1	3	-10	0	-2	0	4	4	2	2	0	2
Hungry_Donkey_bar_English_2	161	1	<?xml version="1.0"?>\n<Clock xmlns:dt="urn:schemas-microsoft-com:datatypes"><Description dt:dt="string">E-Prime Primary Realtime Clock</Description><StartTime><Timestamp dt:dt="int">0</Timestamp><DateUtc dt:dt="string">2016-07-12T22:17:07Z</DateUtc></StartTime><FrequencyChanges><FrequencyChange><Frequency dt:dt="r8">3507705</Frequency><Timestamp dt:dt="r8">366458999881</Timestamp><Current dt:dt="r8">0</Current><DateUtc dt:dt="string">2016-07-12T22:17:07Z</DateUtc></FrequencyChange></FrequencyChanges></Clock>\n	Hungry_Donkey_bar_English_2-161-1	60.018	-140	1.0.0.18	1	1387488314	Standard	2.0.10.353	2.0.10.353	07-12-2016		18:17:07	2.0.10.248	4	Bar87-13.bmp	92	3	?	8r_4g.bmp	50r_4g.bmp	1r_2g.bmp	10r_2g.bmp			1r_2g.bmp		TrialProc	TrialList	0	cvbn	-999999	16	34821	0	b	2772	37593	12	-1	11	4	4	1	2	1	1	4	-8	-50	-1	-10	4	4	2	2	-1	2
Hungry_Donkey_bar_English_2	161	1	<?xml version="1.0"?>\n<Clock xmlns:dt="urn:schemas-microsoft-com:datatypes"><Description dt:dt="string">E-Prime Primary Realtime Clock</Description><StartTime><Timestamp dt:dt="int">0</Timestamp><DateUtc dt:dt="string">2016-07-12T22:17:07Z</DateUtc></StartTime><FrequencyChanges><FrequencyChange><Frequency dt:dt="r8">3507705</Frequency><Timestamp dt:dt="r8">366458999881</Timestamp><Current dt:dt="r8">0</Current><DateUtc dt:dt="string">2016-07-12T22:17:07Z</DateUtc></FrequencyChange></FrequencyChanges></Clock>\n	Hungry_Donkey_bar_English_2-161-1	60.018	-140	1.0.0.18	1	1387488314	Standard	2.0.10.353	2.0.10.353	07-12-2016		18:17:07	2.0.10.248	5	Bar100-0.bmp	94	2	?	10r_4g.bmp	0r_4g.bmp	2r_2g.bmp	0r_2g.bmp		0r_4g.bmp			TrialProc	TrialList	0	cvbn	-999999	16	39636	0	v	1237	40873	16	-1	15	4	8	1	2	2	1	5	-10	0	-2	0	4	4	2	2	0	4
Hungry_Donkey_bar_English_2	161	1	<?xml version="1.0"?>\n<Clock xmlns:dt="urn:schemas-microsoft-com:datatypes"><Description dt:dt="string">E-Prime Primary Realtime Clock</Description><StartTime><Timestamp dt:dt="int">0</Timestamp><DateUtc dt:dt="string">2016-07-12T22:17:07Z</DateUtc></StartTime><FrequencyChanges><FrequencyChange><Frequency dt:dt="r8">3507705</Frequency><Timestamp dt:dt="r8">366458999881</Timestamp><Current dt:dt="r8">0</Current><DateUtc dt:dt="string">2016-07-12T22:17:07Z</DateUtc></FrequencyChange></FrequencyChanges></Clock>\n	Hungry_Donkey_bar_English_2-161-1	60.018	-140	1.0.0.18	1	1387488314	Standard	2.0.10.353	2.0.10.353	07-12-2016		18:17:07	2.0.10.248	6	Bar100-0.bmp	95	2	?	10r_4g.bmp	0r_4g.bmp	2r_2g.bmp	0r_2g.bmp		0r_4g.bmp			TrialProc	TrialList	0	cvbn	-999999	16	42902	0	v	1698	44600	20	-1	19	4	12	1	2	4	1	6	-10	0	-2	0	4	4	2	2	0	4
Hungry_Donkey_bar_English_2	161	1	<?xml version="1.0"?>\n<Clock xmlns:dt="urn:schemas-microsoft-com:datatypes"><Description dt:dt="string">E-Prime Primary Realtime Clock</Description><StartTime><Timestamp dt:dt="int">0</Timestamp><DateUtc dt:dt="string">2016-07-12T22:17:07Z</DateUtc></StartTime><FrequencyChanges><FrequencyChange><Frequency dt:dt="r8">3507705</Frequency><Timestamp dt:dt="r8">366458999881</Timestamp><Current dt:dt="r8">0</Current><DateUtc dt:dt="string">2016-07-12T22:17:07Z</DateUtc></FrequencyChange></FrequencyChanges></Clock>\n	Hungry_Donkey_bar_English_2-161-1	60.018	-140	1.0.0.18	1	1387488314	Standard	2.0.10.353	2.0.10.353	07-12-2016		18:17:07	2.0.10.248	7	Bar100-0.bmp	96	1	?	0r_4g.bmp	0r_4g.bmp	0r_2g.bmp	0r_2g.bmp	0r_4g.bmp				TrialProc	TrialList	0	cvbn	-999999	16	46634	0	c	1966	48600	24	-1	23	8	12	1	2	6	1	7	0	0	0	0	4	4	2	2	0	4
Hungry_Donkey_bar_English_2	161	1	<?xml version="1.0"?>\n<Clock xmlns:dt="urn:schemas-microsoft-com:datatypes"><Description dt:dt="string">E-Prime Primary Realtime Clock</Description><StartTime><Timestamp dt:dt="int">0</Timestamp><DateUtc dt:dt="string">2016-07-12T22:17:07Z</DateUtc></StartTime><FrequencyChanges><FrequencyChange><Frequency dt:dt="r8">3507705</Frequency><Timestamp dt:dt="r8">366458999881</Timestamp><Current dt:dt="r8">0</Current><DateUtc dt:dt="string">2016-07-12T22:17:07Z</DateUtc></FrequencyChange></FrequencyChanges></Clock>\n	Hungry_Donkey_bar_English_2-161-1	60.018	-140	1.0.0.18	1	1387488314	Standard	2.0.10.353	2.0.10.353	07-12-2016		18:17:07	2.0.10.248	8	Bar100-0.bmp	96	4	?	0r_4g.bmp	0r_4g.bmp	0r_2g.bmp	0r_2g.bmp				0r_2g.bmp	TrialProc	TrialList	0	cvbn	-999999	16	50633	0	n	911	51544	26	-1	25	8	12	1	4	9	1	8	0	0	0	0	4	4	2	2	0	2
Hungry_Donkey_bar_English_2	161	1	<?xml version="1.0"?>\n<Clock xmlns:dt="urn:schemas-microsoft-com:datatypes"><Description dt:dt="string">E-Prime Primary Realtime Clock</Description><StartTime><Timestamp dt:dt="int">0</Timestamp><DateUtc dt:dt="string">2016-07-12T22:17:07Z</DateUtc></StartTime><FrequencyChanges><FrequencyChange><Frequency dt:dt="r8">3507705</Frequency><Timestamp dt:dt="r8">366458999881</Timestamp><Current dt:dt="r8">0</Current><DateUtc dt:dt="string">2016-07-12T22:17:07Z</DateUtc></FrequencyChange></FrequencyChanges></Clock>\n	Hungry_Donkey_bar_English_2-161-1	60.018	-140	1.0.0.18	1	1387488314	Standard	2.0.10.353	2.0.10.353	07-12-2016		18:17:07	2.0.10.248	9	Bar100-0.bmp	97	3	?	0r_4g.bmp	0r_4g.bmp	0r_2g.bmp	0r_2g.bmp			0r_2g.bmp		TrialProc	TrialList	0	cvbn	-999999	16	53582	0	b	1322	54904	28	-1	27	8	12	3	4	8	1	9	0	0	0	0	4	4	2	2	0	2
Hungry_Donkey_bar_English_2	161	1	<?xml version="1.0"?>\n<Clock xmlns:dt="urn:schemas-microsoft-com:datatypes"><Description dt:dt="string">E-Prime Primary Realtime Clock</Description><StartTime><Timestamp dt:dt="int">0</Timestamp><DateUtc dt:dt="string">2016-07-12T22:17:07Z</DateUtc></StartTime><FrequencyChanges><FrequencyChange><Frequency dt:dt="r8">3507705</Frequency><Timestamp dt:dt="r8">366458999881</Timestamp><Current dt:dt="r8">0</Current><DateUtc dt:dt="string">2016-07-12T22:17:07Z</DateUtc></FrequencyChange></FrequencyChanges></Clock>\n	Hungry_Donkey_bar_English_2-161-1	60.018	-140	1.0.0.18	1	1387488314	Standard	2.0.10.353	2.0.10.353	07-12-2016		18:17:07	2.0.10.248	10	Bar100-0.bmp	97	1	?	0r_4g.bmp	0r_4g.bmp	0r_2g.bmp	0r_2g.bmp	0r_4g.bmp				TrialProc	TrialList	0	cvbn	-999999	16	56931	0	c	869	57800	32	-1	31	12	12	3	4	10	1	10	0	0	0	0	4	4	2	2	0	4
Hungry_Donkey_bar_English_2	161	1	<?xml version="1.0"?>\n<Clock xmlns:dt="urn:schemas-microsoft-com:datatypes"><Description dt:dt="string">E-Prime Primary Realtime Clock</Description><StartTime><Timestamp dt:dt="int">0</Timestamp><DateUtc dt:dt="string">2016-07-12T22:17:07Z</DateUtc></StartTime><FrequencyChanges><FrequencyChange><Frequency dt:dt="r8">3507705</Frequency><Timestamp dt:dt="r8">366458999881</Timestamp><Current dt:dt="r8">0</Current><DateUtc dt:dt="string">2016-07-12T22:17:07Z</DateUtc></FrequencyChange></FrequencyChanges></Clock>\n	Hungry_Donkey_bar_English_2-161-1	60.018	-140	1.0.0.18	1	1387488314	Standard	2.0.10.353	2.0.10.353	07-12-2016		18:17:07	2.0.10.248	11	Bar100-0.bmp	97	2	?	12r_4g.bmp	0r_4g.bmp	3r_2g.bmp	0r_2g.bmp		0r_4g.bmp			TrialProc	TrialList	0	cvbn	-999999	16	59830	0	v	561	60391	36	-1	35	12	16	3	4	5	2	11	-12	0	-3	0	4	4	2	2	0	4
Hungry_Donkey_bar_English_2	161	1	<?xml version="1.0"?>\n<Clock xmlns:dt="urn:schemas-microsoft-com:datatypes"><Description dt:dt="string">E-Prime Primary Realtime Clock</Description><StartTime><Timestamp dt:dt="int">0</Timestamp><DateUtc dt:dt="string">2016-07-12T22:17:07Z</DateUtc></StartTime><FrequencyChanges><FrequencyChange><Frequency dt:dt="r8">3507705</Frequency><Timestamp dt:dt="r8">366458999881</Timestamp><Current dt:dt="r8">0</Current><DateUtc dt:dt="string">2016-07-12T22:17:07Z</DateUtc></FrequencyChange></FrequencyChanges></Clock>\n	Hungry_Donkey_bar_English_2-161-1	60.018	-140	1.0.0.18	1	1387488314	Standard	2.0.10.353	2.0.10.353	07-12-2016		18:17:07	2.0.10.248	12	Bar75-25.bmp	78	4	?	8r_4g.bmp	50r_4g.bmp	1r_2g.bmp	10r_2g.bmp				10r_2g.bmp	TrialProc	TrialList	0	cvbn	-999999	16	62429	0	n	650	63079	38	-11	27	12	16	3	-4	1	2	12	-8	-50	-1	-10	4	4	2	2	-10	2
Hungry_Donkey_bar_English_2	161	1	<?xml version="1.0"?>\n<Clock xmlns:dt="urn:schemas-microsoft-com:datatypes"><Description dt:dt="string">E-Prime Primary Realtime Clock</Description><StartTime><Timestamp dt:dt="int">0</Timestamp><DateUtc dt:dt="string">2016-07-12T22:17:07Z</DateUtc></StartTime><FrequencyChanges><FrequencyChange><Frequency dt:dt="r8">3507705</Frequency><Timestamp dt:dt="r8">366458999881</Timestamp><Current dt:dt="r8">0</Current><DateUtc dt:dt="string">2016-07-12T22:17:07Z</DateUtc></FrequencyChange></FrequencyChanges></Clock>\n	Hungry_Donkey_bar_English_2-161-1	60.018	-140	1.0.0.18	1	1387488314	Standard	2.0.10.353	2.0.10.353	07-12-2016		18:17:07	2.0.10.248	13	Bar75-25.bmp	78	4	?	10r_4g.bmp	0r_4g.bmp	2r_2g.bmp	0r_2g.bmp				0r_2g.bmp	TrialProc	TrialList	0	cvbn	-999999	16	65112	0	n	1839	66951	40	-11	29	12	16	3	-2	4	2	13	-10	0	-2	0	4	4	2	2	0	2
Hungry_Donkey_bar_English_2	161	1	<?xml version="1.0"?>\n<Clock xmlns:dt="urn:schemas-microsoft-com:datatypes"><Description dt:dt="string">E-Prime Primary Realtime Clock</Description><StartTime><Timestamp dt:dt="int">0</Timestamp><DateUtc dt:dt="string">2016-07-12T22:17:07Z</DateUtc></StartTime><FrequencyChanges><FrequencyChange><Frequency dt:dt="r8">3507705</Frequency><Timestamp dt:dt="r8">366458999881</Timestamp><Current dt:dt="r8">0</Current><DateUtc dt:dt="string">2016-07-12T22:17:07Z</DateUtc></FrequencyChange></FrequencyChanges></Clock>\n	Hungry_Donkey_bar_English_2-161-1	60.018	-140	1.0.0.18	1	1387488314	Standard	2.0.10.353	2.0.10.353	07-12-2016		18:17:07	2.0.10.248	14	Bar75-25.bmp	79	3	?	0r_4g.bmp	0r_4g.bmp	0r_2g.bmp	0r_2g.bmp			0r_2g.bmp		TrialProc	TrialList	0	cvbn	-999999	16	68977	0	b	1030	70007	42	-11	31	12	16	5	-2	8	2	14	0	0	0	0	4	4	2	2	0	2
Hungry_Donkey_bar_English_2	161	1	<?xml version="1.0"?>\n<Clock xmlns:dt="urn:schemas-microsoft-com:datatypes"><Description dt:dt="string">E-Prime Primary Realtime Clock</Description><StartTime><Timestamp dt:dt="int">0</Timestamp><DateUtc dt:dt="string">2016-07-12T22:17:07Z</DateUtc></StartTime><FrequencyChanges><FrequencyChange><Frequency dt:dt="r8">3507705</Frequency><Timestamp dt:dt="r8">366458999881</Timestamp><Current dt:dt="r8">0</Current><DateUtc dt:dt="string">2016-07-12T22:17:07Z</DateUtc></FrequencyChange></FrequencyChanges></Clock>\n	Hungry_Donkey_bar_English_2-161-1	60.018	-140	1.0.0.18	1	1387488314	Standard	2.0.10.353	2.0.10.353	07-12-2016		18:17:07	2.0.10.248	15	Bar75-25.bmp	81	2	?	0r_4g.bmp	0r_4g.bmp	0r_2g.bmp	0r_2g.bmp		0r_4g.bmp			TrialProc	TrialList	0	cvbn	-999999	16	72043	0	v	1692	73735	46	-11	35	12	20	5	-2	7	2	15	0	0	0	0	4	4	2	2	0	4
Hungry_Donkey_bar_English_2	161	1	<?xml version="1.0"?>\n<Clock xmlns:dt="urn:schemas-microsoft-com:datatypes"><Description dt:dt="string">E-Prime Primary Realtime Clock</Description><StartTime><Timestamp dt:dt="int">0</Timestamp><DateUtc dt:dt="string">2016-07-12T22:17:07Z</DateUtc></StartTime><FrequencyChanges><FrequencyChange><Frequency dt:dt="r8">3507705</Frequency><Timestamp dt:dt="r8">366458999881</Timestamp><Current dt:dt="r8">0</Current><DateUtc dt:dt="string">2016-07-12T22:17:07Z</DateUtc></FrequencyChange></FrequencyChanges></Clock>\n	Hungry_Donkey_bar_English_2-161-1	60.018	-140	1.0.0.18	1	1387488314	Standard	2.0.10.353	2.0.10.353	07-12-2016		18:17:07	2.0.10.248	16	Bar87-13.bmp	82	1	?	0r_4g.bmp	0r_4g.bmp	0r_2g.bmp	0r_2g.bmp	0r_4g.bmp				TrialProc	TrialList	0	cvbn	-999999	16	75759	0	c	1287	77046	50	-11	39	16	20	5	-2	6	2	16	0	0	0	0	4	4	2	2	0	4
Hungry_Donkey_bar_English_2	161	1	<?xml version="1.0"?>\n<Clock xmlns:dt="urn:schemas-microsoft-com:datatypes"><Description dt:dt="string">E-Prime Primary Realtime Clock</Description><StartTime><Timestamp dt:dt="int">0</Timestamp><DateUtc dt:dt="string">2016-07-12T22:17:07Z</DateUtc></StartTime><FrequencyChanges><FrequencyChange><Frequency dt:dt="r8">3507705</Frequency><Timestamp dt:dt="r8">366458999881</Timestamp><Current dt:dt="r8">0</Current><DateUtc dt:dt="string">2016-07-12T22:17:07Z</DateUtc></FrequencyChange></FrequencyChanges></Clock>\n	Hungry_Donkey_bar_English_2-161-1	60.018	-140	1.0.0.18	1	1387488314	Standard	2.0.10.353	2.0.10.353	07-12-2016		18:17:07	2.0.10.248	17	Bar87-13.bmp	83	2	?	0r_4g.bmp	0r_4g.bmp	0r_2g.bmp	0r_2g.bmp		0r_4g.bmp			TrialProc	TrialList	0	cvbn	-999999	16	79074	0	v	612	79686	54	-11	43	16	24	5	-2	9	2	17	0	0	0	0	4	4	2	2	0	4
Hungry_Donkey_bar_English_2	161	1	<?xml version="1.0"?>\n<Clock xmlns:dt="urn:schemas-microsoft-com:datatypes"><Description dt:dt="string">E-Prime Primary Realtime Clock</Description><StartTime><Timestamp dt:dt="int">0</Timestamp><DateUtc dt:dt="string">2016-07-12T22:17:07Z</DateUtc></StartTime><FrequencyChanges><FrequencyChange><Frequency dt:dt="r8">3507705</Frequency><Timestamp dt:dt="r8">366458999881</Timestamp><Current dt:dt="r8">0</Current><DateUtc dt:dt="string">2016-07-12T22:17:07Z</DateUtc></FrequencyChange></FrequencyChanges></Clock>\n	Hungry_Donkey_bar_English_2-161-1	60.018	-140	1.0.0.18	1	1387488314	Standard	2.0.10.353	2.0.10.353	07-12-2016		18:17:07	2.0.10.248	18	Bar87-13.bmp	84	4	?	10r_4g.bmp	0r_4g.bmp	2r_2g.bmp	0r_2g.bmp				0r_2g.bmp	TrialProc	TrialList	0	cvbn	-999999	17	81724	0	n	698	82422	56	-11	45	16	24	5	0	3	2	18	-10	0	-2	0	4	4	2	2	0	2
Hungry_Donkey_bar_English_2	161	1	<?xml version="1.0"?>\n<Clock xmlns:dt="urn:schemas-microsoft-com:datatypes"><Description dt:dt="string">E-Prime Primary Realtime Clock</Description><StartTime><Timestamp dt:dt="int">0</Timestamp><DateUtc dt:dt="string">2016-07-12T22:17:07Z</DateUtc></StartTime><FrequencyChanges><FrequencyChange><Frequency dt:dt="r8">3507705</Frequency><Timestamp dt:dt="r8">366458999881</Timestamp><Current dt:dt="r8">0</Current><DateUtc dt:dt="string">2016-07-12T22:17:07Z</DateUtc></FrequencyChange></FrequencyChanges></Clock>\n	Hungry_Donkey_bar_English_2-161-1	60.018	-140	1.0.0.18	1	1387488314	Standard	2.0.10.353	2.0.10.353	07-12-2016		18:17:07	2.0.10.248	19	Bar87-13.bmp	84	3	?	0r_4g.bmp	0r_4g.bmp	0r_2g.bmp	0r_2g.bmp			0r_2g.bmp		TrialProc	TrialList	0	cvbn	-999999	16	84456	0	b	286	84742	58	-11	47	16	24	7	0	10	2	19	0	0	0	0	4	4	2	2	0	2
Hungry_Donkey_bar_English_2	161	1	<?xml version="1.0"?>\n<Clock xmlns:dt="urn:schemas-microsoft-com:datatypes"><Description dt:dt="string">E-Prime Primary Realtime Clock</Description><StartTime><Timestamp dt:dt="int">0</Timestamp><DateUtc dt:dt="string">2016-07-12T22:17:07Z</DateUtc></StartTime><FrequencyChanges><FrequencyChange><Frequency dt:dt="r8">3507705</Frequency><Timestamp dt:dt="r8">366458999881</Timestamp><Current dt:dt="r8">0</Current><DateUtc dt:dt="string">2016-07-12T22:17:07Z</DateUtc></FrequencyChange></FrequencyChanges></Clock>\n	Hungry_Donkey_bar_English_2-161-1	60.018	-140	1.0.0.18	1	1387488314	Standard	2.0.10.353	2.0.10.353	07-12-2016		18:17:07	2.0.10.248	20	Bar87-13.bmp	82	3	?	10r_4g.bmp	0r_4g.bmp	2r_2g.bmp	0r_2g.bmp			2r_2g.bmp		TrialProc	TrialList	0	cvbn	-999999	16	86772	0	b	882	87654	60	-13	47	16	24	7	0	2	2	20	-10	0	-2	0	4	4	2	2	-2	2
Hungry_Donkey_bar_English_2	161	1	<?xml version="1.0"?>\n<Clock xmlns:dt="urn:schemas-microsoft-com:datatypes"><Description dt:dt="string">E-Prime Primary Realtime Clock</Description><StartTime><Timestamp dt:dt="int">0</Timestamp><DateUtc dt:dt="string">2016-07-12T22:17:07Z</DateUtc></StartTime><FrequencyChanges><FrequencyChange><Frequency dt:dt="r8">3507705</Frequency><Timestamp dt:dt="r8">366458999881</Timestamp><Current dt:dt="r8">0</Current><DateUtc dt:dt="string">2016-07-12T22:17:07Z</DateUtc></FrequencyChange></FrequencyChanges></Clock>\n	Hungry_Donkey_bar_English_2-161-1	60.018	-140	1.0.0.18	1	1387488314	Standard	2.0.10.353	2.0.10.353	07-12-2016		18:17:07	2.0.10.248	21	Bar87-13.bmp	83	2	?	10r_4g.bmp	0r_4g.bmp	2r_2g.bmp	0r_2g.bmp		0r_4g.bmp			TrialProc	TrialList	0	cvbn	-999999	16	89688	0	v	1294	90982	64	-13	51	16	28	7	0	4	3	21	-10	0	-2	0	4	4	2	2	0	4
Hungry_Donkey_bar_English_2	161	1	<?xml version="1.0"?>\n<Clock xmlns:dt="urn:schemas-microsoft-com:datatypes"><Description dt:dt="string">E-Prime Primary Realtime Clock</Description><StartTime><Timestamp dt:dt="int">0</Timestamp><DateUtc dt:dt="string">2016-07-12T22:17:07Z</DateUtc></StartTime><FrequencyChanges><FrequencyChange><Frequency dt:dt="r8">3507705</Frequency><Timestamp dt:dt="r8">366458999881</Timestamp><Current dt:dt="r8">0</Current><DateUtc dt:dt="string">2016-07-12T22:17:07Z</DateUtc></FrequencyChange></FrequencyChanges></Clock>\n	Hungry_Donkey_bar_English_2-161-1	60.018	-140	1.0.0.18	1	1387488314	Standard	2.0.10.353	2.0.10.353	07-12-2016		18:17:07	2.0.10.248	22	Bar87-13.bmp	84	1	?	0r_4g.bmp	0r_4g.bmp	0r_2g.bmp	0r_2g.bmp	0r_4g.bmp				TrialProc	TrialList	0	cvbn	-999999	16	93020	0	c	1081	94101	68	-13	55	20	28	7	0	10	3	22	0	0	0	0	4	4	2	2	0	4
Hungry_Donkey_bar_English_2	161	1	<?xml version="1.0"?>\n<Clock xmlns:dt="urn:schemas-microsoft-com:datatypes"><Description dt:dt="string">E-Prime Primary Realtime Clock</Description><StartTime><Timestamp dt:dt="int">0</Timestamp><DateUtc dt:dt="string">2016-07-12T22:17:07Z</DateUtc></StartTime><FrequencyChanges><FrequencyChange><Frequency dt:dt="r8">3507705</Frequency><Timestamp dt:dt="r8">366458999881</Timestamp><Current dt:dt="r8">0</Current><DateUtc dt:dt="string">2016-07-12T22:17:07Z</DateUtc></FrequencyChange></FrequencyChanges></Clock>\n	Hungry_Donkey_bar_English_2-161-1	60.018	-140	1.0.0.18	1	1387488314	Standard	2.0.10.353	2.0.10.353	07-12-2016		18:17:07	2.0.10.248	23	Bar87-13.bmp	84	3	?	0r_4g.bmp	0r_4g.bmp	0r_2g.bmp	0r_2g.bmp			0r_2g.bmp		TrialProc	TrialList	0	cvbn	-999999	16	96136	0	b	1037	97173	70	-13	57	20	28	9	0	9	3	23	0	0	0	0	4	4	2	2	0	2
Hungry_Donkey_bar_English_2	161	1	<?xml version="1.0"?>\n<Clock xmlns:dt="urn:schemas-microsoft-com:datatypes"><Description dt:dt="string">E-Prime Primary Realtime Clock</Description><StartTime><Timestamp dt:dt="int">0</Timestamp><DateUtc dt:dt="string">2016-07-12T22:17:07Z</DateUtc></StartTime><FrequencyChanges><FrequencyChange><Frequency dt:dt="r8">3507705</Frequency><Timestamp dt:dt="r8">366458999881</Timestamp><Current dt:dt="r8">0</Current><DateUtc dt:dt="string">2016-07-12T22:17:07Z</DateUtc></FrequencyChange></FrequencyChanges></Clock>\n	Hungry_Donkey_bar_English_2-161-1	60.018	-140	1.0.0.18	1	1387488314	Standard	2.0.10.353	2.0.10.353	07-12-2016		18:17:07	2.0.10.248	24	Bar87-13.bmp	85	2	?	0r_4g.bmp	0r_4g.bmp	0r_2g.bmp	0r_2g.bmp		0r_4g.bmp			TrialProc	TrialList	0	cvbn	-999999	16	99202	0	v	1747	100949	74	-13	61	20	32	9	0	6	3	24	0	0	0	0	4	4	2	2	0	4
Hungry_Donkey_bar_English_2	161	1	<?xml version="1.0"?>\n<Clock xmlns:dt="urn:schemas-microsoft-com:datatypes"><Description dt:dt="string">E-Prime Primary Realtime Clock</Description><StartTime><Timestamp dt:dt="int">0</Timestamp><DateUtc dt:dt="string">2016-07-12T22:17:07Z</DateUtc></StartTime><FrequencyChanges><FrequencyChange><Frequency dt:dt="r8">3507705</Frequency><Timestamp dt:dt="r8">366458999881</Timestamp><Current dt:dt="r8">0</Current><DateUtc dt:dt="string">2016-07-12T22:17:07Z</DateUtc></FrequencyChange></FrequencyChanges></Clock>\n	Hungry_Donkey_bar_English_2-161-1	60.018	-140	1.0.0.18	1	1387488314	Standard	2.0.10.353	2.0.10.353	07-12-2016		18:17:07	2.0.10.248	25	Bar50-50.bmp	55	2	?	8r_4g.bmp	50r_4g.bmp	1r_2g.bmp	10r_2g.bmp		50r_4g.bmp			TrialProc	TrialList	0	cvbn	-999999	16	102984	0	v	2685	105669	78	-63	15	20	-14	9	0	1	3	25	-8	-50	-1	-10	4	4	2	2	-50	4
Hungry_Donkey_bar_English_2	161	1	<?xml version="1.0"?>\n<Clock xmlns:dt="urn:schemas-microsoft-com:datatypes"><Description dt:dt="string">E-Prime Primary Realtime Clock</Description><StartTime><Timestamp dt:dt="int">0</Timestamp><DateUtc dt:dt="string">2016-07-12T22:17:07Z</DateUtc></StartTime><FrequencyChanges><FrequencyChange><Frequency dt:dt="r8">3507705</Frequency><Timestamp dt:dt="r8">366458999881</Timestamp><Current dt:dt="r8">0</Current><DateUtc dt:dt="string">2016-07-12T22:17:07Z</DateUtc></FrequencyChange></FrequencyChanges></Clock>\n	Hungry_Donkey_bar_English_2-161-1	60.018	-140	1.0.0.18	1	1387488314	Standard	2.0.10.353	2.0.10.353	07-12-2016		18:17:07	2.0.10.248	26	Bar50-50.bmp	55	3	?	10r_4g.bmp	0r_4g.bmp	2r_2g.bmp	0r_2g.bmp			2r_2g.bmp		TrialProc	TrialList	0	cvbn	-999999	16	107699	0	b	1986	109685	80	-65	15	20	-14	9	0	3	3	26	-10	0	-2	0	4	4	2	2	-2	2
Hungry_Donkey_bar_English_2	161	1	<?xml version="1.0"?>\n<Clock xmlns:dt="urn:schemas-microsoft-com:datatypes"><Description dt:dt="string">E-Prime Primary Realtime Clock</Description><StartTime><Timestamp dt:dt="int">0</Timestamp><DateUtc dt:dt="string">2016-07-12T22:17:07Z</DateUtc></StartTime><FrequencyChanges><FrequencyChange><Frequency dt:dt="r8">3507705</Frequency><Timestamp dt:dt="r8">366458999881</Timestamp><Current dt:dt="r8">0</Current><DateUtc dt:dt="string">2016-07-12T22:17:07Z</DateUtc></FrequencyChange></FrequencyChanges></Clock>\n	Hungry_Donkey_bar_English_2-161-1	60.018	-140	1.0.0.18	1	1387488314	Standard	2.0.10.353	2.0.10.353	07-12-2016		18:17:07	2.0.10.248	27	Bar50-50.bmp	56	1	?	0r_4g.bmp	0r_4g.bmp	0r_2g.bmp	0r_2g.bmp	0r_4g.bmp				TrialProc	TrialList	0	cvbn	-999999	16	111715	0	c	1201	112916	84	-65	19	24	-14	9	0	8	3	27	0	0	0	0	4	4	2	2	0	4
Hungry_Donkey_bar_English_2	161	1	<?xml version="1.0"?>\n<Clock xmlns:dt="urn:schemas-microsoft-com:datatypes"><Description dt:dt="string">E-Prime Primary Realtime Clock</Description><StartTime><Timestamp dt:dt="int">0</Timestamp><DateUtc dt:dt="string">2016-07-12T22:17:07Z</DateUtc></StartTime><FrequencyChanges><FrequencyChange><Frequency dt:dt="r8">3507705</Frequency><Timestamp dt:dt="r8">366458999881</Timestamp><Current dt:dt="r8">0</Current><DateUtc dt:dt="string">2016-07-12T22:17:07Z</DateUtc></FrequencyChange></FrequencyChanges></Clock>\n	Hungry_Donkey_bar_English_2-161-1	60.018	-140	1.0.0.18	1	1387488314	Standard	2.0.10.353	2.0.10.353	07-12-2016		18:17:07	2.0.10.248	28	Bar63-37.bmp	57	4	?	10r_4g.bmp	0r_4g.bmp	2r_2g.bmp	0r_2g.bmp				0r_2g.bmp	TrialProc	TrialList	0	cvbn	-999999	16	114947	0	n	1457	116404	86	-65	21	24	-14	9	2	2	3	28	-10	0	-2	0	4	4	2	2	0	2
Hungry_Donkey_bar_English_2	161	1	<?xml version="1.0"?>\n<Clock xmlns:dt="urn:schemas-microsoft-com:datatypes"><Description dt:dt="string">E-Prime Primary Realtime Clock</Description><StartTime><Timestamp dt:dt="int">0</Timestamp><DateUtc dt:dt="string">2016-07-12T22:17:07Z</DateUtc></StartTime><FrequencyChanges><FrequencyChange><Frequency dt:dt="r8">3507705</Frequency><Timestamp dt:dt="r8">366458999881</Timestamp><Current dt:dt="r8">0</Current><DateUtc dt:dt="string">2016-07-12T22:17:07Z</DateUtc></FrequencyChange></FrequencyChanges></Clock>\n	Hungry_Donkey_bar_English_2-161-1	60.018	-140	1.0.0.18	1	1387488314	Standard	2.0.10.353	2.0.10.353	07-12-2016		18:17:07	2.0.10.248	29	Bar50-50.bmp	54	1	?	12r_4g.bmp	0r_4g.bmp	3r_2g.bmp	0r_2g.bmp	12r_4g.bmp				TrialProc	TrialList	0	cvbn	-999999	16	118446	0	c	470	118916	90	-77	13	16	-14	9	2	5	3	29	-12	0	-3	0	4	4	2	2	-12	4
Hungry_Donkey_bar_English_2	161	1	<?xml version="1.0"?>\n<Clock xmlns:dt="urn:schemas-microsoft-com:datatypes"><Description dt:dt="string">E-Prime Primary Realtime Clock</Description><StartTime><Timestamp dt:dt="int">0</Timestamp><DateUtc dt:dt="string">2016-07-12T22:17:07Z</DateUtc></StartTime><FrequencyChanges><FrequencyChange><Frequency dt:dt="r8">3507705</Frequency><Timestamp dt:dt="r8">366458999881</Timestamp><Current dt:dt="r8">0</Current><DateUtc dt:dt="string">2016-07-12T22:17:07Z</DateUtc></FrequencyChange></FrequencyChanges></Clock>\n	Hungry_Donkey_bar_English_2-161-1	60.018	-140	1.0.0.18	1	1387488314	Standard	2.0.10.353	2.0.10.353	07-12-2016		18:17:07	2.0.10.248	30	Bar50-50.bmp	55	2	?	0r_4g.bmp	0r_4g.bmp	0r_2g.bmp	0r_2g.bmp		0r_4g.bmp			TrialProc	TrialList	0	cvbn	-999999	16	120945	0	v	1011	121956	94	-77	17	16	-10	9	2	7	3	30	0	0	0	0	4	4	2	2	0	4
Hungry_Donkey_bar_English_2	161	1	<?xml version="1.0"?>\n<Clock xmlns:dt="urn:schemas-microsoft-com:datatypes"><Description dt:dt="string">E-Prime Primary Realtime Clock</Description><StartTime><Timestamp dt:dt="int">0</Timestamp><DateUtc dt:dt="string">2016-07-12T22:17:07Z</DateUtc></StartTime><FrequencyChanges><FrequencyChange><Frequency dt:dt="r8">3507705</Frequency><Timestamp dt:dt="r8">366458999881</Timestamp><Current dt:dt="r8">0</Current><DateUtc dt:dt="string">2016-07-12T22:17:07Z</DateUtc></FrequencyChange></FrequencyChanges></Clock>\n	Hungry_Donkey_bar_English_2-161-1	60.018	-140	1.0.0.18	1	1387488314	Standard	2.0.10.353	2.0.10.353	07-12-2016		18:17:07	2.0.10.248	31	Bar50-50.bmp	55	3	?	0r_4g.bmp	0r_4g.bmp	0r_2g.bmp	0r_2g.bmp			0r_2g.bmp		TrialProc	TrialList	0	cvbn	-999999	16	123994	0	b	1274	125268	96	-77	19	16	-10	11	2	6	4	31	0	0	0	0	4	4	2	2	0	2
Hungry_Donkey_bar_English_2	161	1	<?xml version="1.0"?>\n<Clock xmlns:dt="urn:schemas-microsoft-com:datatypes"><Description dt:dt="string">E-Prime Primary Realtime Clock</Description><StartTime><Timestamp dt:dt="int">0</Timestamp><DateUtc dt:dt="string">2016-07-12T22:17:07Z</DateUtc></StartTime><FrequencyChanges><FrequencyChange><Frequency dt:dt="r8">3507705</Frequency><Timestamp dt:dt="r8">366458999881</Timestamp><Current dt:dt="r8">0</Current><DateUtc dt:dt="string">2016-07-12T22:17:07Z</DateUtc></FrequencyChange></FrequencyChanges></Clock>\n	Hungry_Donkey_bar_English_2-161-1	60.018	-140	1.0.0.18	1	1387488314	Standard	2.0.10.353	2.0.10.353	07-12-2016		18:17:07	2.0.10.248	32	Bar50-50.bmp	56	4	?	0r_4g.bmp	0r_4g.bmp	0r_2g.bmp	0r_2g.bmp				0r_2g.bmp	TrialProc	TrialList	0	cvbn	-999999	16	127293	0	n	503	127796	98	-77	21	16	-10	11	4	10	4	32	0	0	0	0	4	4	2	2	0	2
Hungry_Donkey_bar_English_2	161	1	<?xml version="1.0"?>\n<Clock xmlns:dt="urn:schemas-microsoft-com:datatypes"><Description dt:dt="string">E-Prime Primary Realtime Clock</Description><StartTime><Timestamp dt:dt="int">0</Timestamp><DateUtc dt:dt="string">2016-07-12T22:17:07Z</DateUtc></StartTime><FrequencyChanges><FrequencyChange><Frequency dt:dt="r8">3507705</Frequency><Timestamp dt:dt="r8">366458999881</Timestamp><Current dt:dt="r8">0</Current><DateUtc dt:dt="string">2016-07-12T22:17:07Z</DateUtc></FrequencyChange></FrequencyChanges></Clock>\n	Hungry_Donkey_bar_English_2-161-1	60.018	-140	1.0.0.18	1	1387488314	Standard	2.0.10.353	2.0.10.353	07-12-2016		18:17:07	2.0.10.248	33	Bar50-50.bmp	54	1	?	10r_4g.bmp	0r_4g.bmp	2r_2g.bmp	0r_2g.bmp	10r_4g.bmp				TrialProc	TrialList	0	cvbn	-999999	16	129826	0	c	561	130387	102	-87	15	10	-10	11	4	4	4	33	-10	0	-2	0	4	4	2	2	-10	4
Hungry_Donkey_bar_English_2	161	1	<?xml version="1.0"?>\n<Clock xmlns:dt="urn:schemas-microsoft-com:datatypes"><Description dt:dt="string">E-Prime Primary Realtime Clock</Description><StartTime><Timestamp dt:dt="int">0</Timestamp><DateUtc dt:dt="string">2016-07-12T22:17:07Z</DateUtc></StartTime><FrequencyChanges><FrequencyChange><Frequency dt:dt="r8">3507705</Frequency><Timestamp dt:dt="r8">366458999881</Timestamp><Current dt:dt="r8">0</Current><DateUtc dt:dt="string">2016-07-12T22:17:07Z</DateUtc></FrequencyChange></FrequencyChanges></Clock>\n	Hungry_Donkey_bar_English_2-161-1	60.018	-140	1.0.0.18	1	1387488314	Standard	2.0.10.353	2.0.10.353	07-12-2016		18:17:07	2.0.10.248	34	Bar50-50.bmp	54	3	?	0r_4g.bmp	0r_4g.bmp	0r_2g.bmp	0r_2g.bmp			0r_2g.bmp		TrialProc	TrialList	0	cvbn	-999999	16	132425	0	b	986	133411	104	-87	17	10	-10	13	4	8	4	34	0	0	0	0	4	4	2	2	0	2
Hungry_Donkey_bar_English_2	161	1	<?xml version="1.0"?>\n<Clock xmlns:dt="urn:schemas-microsoft-com:datatypes"><Description dt:dt="string">E-Prime Primary Realtime Clock</Description><StartTime><Timestamp dt:dt="int">0</Timestamp><DateUtc dt:dt="string">2016-07-12T22:17:07Z</DateUtc></StartTime><FrequencyChanges><FrequencyChange><Frequency dt:dt="r8">3507705</Frequency><Timestamp dt:dt="r8">366458999881</Timestamp><Current dt:dt="r8">0</Current><DateUtc dt:dt="string">2016-07-12T22:17:07Z</DateUtc></FrequencyChange></FrequencyChanges></Clock>\n	Hungry_Donkey_bar_English_2-161-1	60.018	-140	1.0.0.18	1	1387488314	Standard	2.0.10.353	2.0.10.353	07-12-2016		18:17:07	2.0.10.248	35	Bar50-50.bmp	55	2	?	0r_4g.bmp	0r_4g.bmp	0r_2g.bmp	0r_2g.bmp		0r_4g.bmp			TrialProc	TrialList	0	cvbn	-999999	16	135441	0	v	802	136243	108	-87	21	10	-6	13	4	7	4	35	0	0	0	0	4	4	2	2	0	4
Hungry_Donkey_bar_English_2	161	1	<?xml version="1.0"?>\n<Clock xmlns:dt="urn:schemas-microsoft-com:datatypes"><Description dt:dt="string">E-Prime Primary Realtime Clock</Description><StartTime><Timestamp dt:dt="int">0</Timestamp><DateUtc dt:dt="string">2016-07-12T22:17:07Z</DateUtc></StartTime><FrequencyChanges><FrequencyChange><Frequency dt:dt="r8">3507705</Frequency><Timestamp dt:dt="r8">366458999881</Timestamp><Current dt:dt="r8">0</Current><DateUtc dt:dt="string">2016-07-12T22:17:07Z</DateUtc></FrequencyChange></FrequencyChanges></Clock>\n	Hungry_Donkey_bar_English_2-161-1	60.018	-140	1.0.0.18	1	1387488314	Standard	2.0.10.353	2.0.10.353	07-12-2016		18:17:07	2.0.10.248	36	Bar50-50.bmp	53	4	?	8r_4g.bmp	50r_4g.bmp	1r_2g.bmp	10r_2g.bmp				10r_2g.bmp	TrialProc	TrialList	0	cvbn	-999999	16	138274	0	n	785	139059	110	-97	13	10	-6	13	-4	1	4	36	-8	-50	-1	-10	4	4	2	2	-10	2
Hungry_Donkey_bar_English_2	161	1	<?xml version="1.0"?>\n<Clock xmlns:dt="urn:schemas-microsoft-com:datatypes"><Description dt:dt="string">E-Prime Primary Realtime Clock</Description><StartTime><Timestamp dt:dt="int">0</Timestamp><DateUtc dt:dt="string">2016-07-12T22:17:07Z</DateUtc></StartTime><FrequencyChanges><FrequencyChange><Frequency dt:dt="r8">3507705</Frequency><Timestamp dt:dt="r8">366458999881</Timestamp><Current dt:dt="r8">0</Current><DateUtc dt:dt="string">2016-07-12T22:17:07Z</DateUtc></FrequencyChange></FrequencyChanges></Clock>\n	Hungry_Donkey_bar_English_2-161-1	60.018	-140	1.0.0.18	1	1387488314	Standard	2.0.10.353	2.0.10.353	07-12-2016		18:17:07	2.0.10.248	37	Bar50-50.bmp	54	3	?	0r_4g.bmp	0r_4g.bmp	0r_2g.bmp	0r_2g.bmp			0r_2g.bmp		TrialProc	TrialList	0	cvbn	-999999	16	141089	0	b	1074	142163	112	-97	15	10	-6	15	-4	9	4	37	0	0	0	0	4	4	2	2	0	2
Hungry_Donkey_bar_English_2	161	1	<?xml version="1.0"?>\n<Clock xmlns:dt="urn:schemas-microsoft-com:datatypes"><Description dt:dt="string">E-Prime Primary Realtime Clock</Description><StartTime><Timestamp dt:dt="int">0</Timestamp><DateUtc dt:dt="string">2016-07-12T22:17:07Z</DateUtc></StartTime><FrequencyChanges><FrequencyChange><Frequency dt:dt="r8">3507705</Frequency><Timestamp dt:dt="r8">366458999881</Timestamp><Current dt:dt="r8">0</Current><DateUtc dt:dt="string">2016-07-12T22:17:07Z</DateUtc></FrequencyChange></FrequencyChanges></Clock>\n	Hungry_Donkey_bar_English_2-161-1	60.018	-140	1.0.0.18	1	1387488314	Standard	2.0.10.353	2.0.10.353	07-12-2016		18:17:07	2.0.10.248	38	Bar50-50.bmp	54	2	?	10r_4g.bmp	0r_4g.bmp	2r_2g.bmp	0r_2g.bmp		0r_4g.bmp			TrialProc	TrialList	0	cvbn	-999999	17	144189	0	v	854	145043	116	-97	19	10	-2	15	-4	2	4	38	-10	0	-2	0	4	4	2	2	0	4
Hungry_Donkey_bar_English_2	161	1	<?xml version="1.0"?>\n<Clock xmlns:dt="urn:schemas-microsoft-com:datatypes"><Description dt:dt="string">E-Prime Primary Realtime Clock</Description><StartTime><Timestamp dt:dt="int">0</Timestamp><DateUtc dt:dt="string">2016-07-12T22:17:07Z</DateUtc></StartTime><FrequencyChanges><FrequencyChange><Frequency dt:dt="r8">3507705</Frequency><Timestamp dt:dt="r8">366458999881</Timestamp><Current dt:dt="r8">0</Current><DateUtc dt:dt="string">2016-07-12T22:17:07Z</DateUtc></FrequencyChange></FrequencyChanges></Clock>\n	Hungry_Donkey_bar_English_2-161-1	60.018	-140	1.0.0.18	1	1387488314	Standard	2.0.10.353	2.0.10.353	07-12-2016		18:17:07	2.0.10.248	39	Bar50-50.bmp	52	1	?	12r_4g.bmp	0r_4g.bmp	3r_2g.bmp	0r_2g.bmp	12r_4g.bmp				TrialProc	TrialList	0	cvbn	-999999	16	147071	0	c	1203	148274	120	-109	11	2	-2	15	-4	5	4	39	-12	0	-3	0	4	4	2	2	-12	4
Hungry_Donkey_bar_English_2	161	1	<?xml version="1.0"?>\n<Clock xmlns:dt="urn:schemas-microsoft-com:datatypes"><Description dt:dt="string">E-Prime Primary Realtime Clock</Description><StartTime><Timestamp dt:dt="int">0</Timestamp><DateUtc dt:dt="string">2016-07-12T22:17:07Z</DateUtc></StartTime><FrequencyChanges><FrequencyChange><Frequency dt:dt="r8">3507705</Frequency><Timestamp dt:dt="r8">366458999881</Timestamp><Current dt:dt="r8">0</Current><DateUtc dt:dt="string">2016-07-12T22:17:07Z</DateUtc></FrequencyChange></FrequencyChanges></Clock>\n	Hungry_Donkey_bar_English_2-161-1	60.018	-140	1.0.0.18	1	1387488314	Standard	2.0.10.353	2.0.10.353	07-12-2016		18:17:07	2.0.10.248	40	Bar50-50.bmp	53	4	?	10r_4g.bmp	0r_4g.bmp	2r_2g.bmp	0r_2g.bmp				0r_2g.bmp	TrialProc	TrialList	0	cvbn	-999999	16	150303	0	n	2003	152306	122	-109	13	2	-2	15	-2	3	4	40	-10	0	-2	0	4	4	2	2	0	2
Hungry_Donkey_bar_English_2	161	1	<?xml version="1.0"?>\n<Clock xmlns:dt="urn:schemas-microsoft-com:datatypes"><Description dt:dt="string">E-Prime Primary Realtime Clock</Description><StartTime><Timestamp dt:dt="int">0</Timestamp><DateUtc dt:dt="string">2016-07-12T22:17:07Z</DateUtc></StartTime><FrequencyChanges><FrequencyChange><Frequency dt:dt="r8">3507705</Frequency><Timestamp dt:dt="r8">366458999881</Timestamp><Current dt:dt="r8">0</Current><DateUtc dt:dt="string">2016-07-12T22:17:07Z</DateUtc></FrequencyChange></FrequencyChanges></Clock>\n	Hungry_Donkey_bar_English_2-161-1	60.018	-140	1.0.0.18	1	1387488314	Standard	2.0.10.353	2.0.10.353	07-12-2016		18:17:07	2.0.10.248	41	Bar50-50.bmp	54	1	?	0r_4g.bmp	0r_4g.bmp	0r_2g.bmp	0r_2g.bmp	0r_4g.bmp				TrialProc	TrialList	0	cvbn	-999999	17	154336	0	c	642	154978	126	-109	17	6	-2	15	-2	8	5	41	0	0	0	0	4	4	2	2	0	4
Hungry_Donkey_bar_English_2	161	1	<?xml version="1.0"?>\n<Clock xmlns:dt="urn:schemas-microsoft-com:datatypes"><Description dt:dt="string">E-Prime Primary Realtime Clock</Description><StartTime><Timestamp dt:dt="int">0</Timestamp><DateUtc dt:dt="string">2016-07-12T22:17:07Z</DateUtc></StartTime><FrequencyChanges><FrequencyChange><Frequency dt:dt="r8">3507705</Frequency><Timestamp dt:dt="r8">366458999881</Timestamp><Current dt:dt="r8">0</Current><DateUtc dt:dt="string">2016-07-12T22:17:07Z</DateUtc></FrequencyChange></FrequencyChanges></Clock>\n	Hungry_Donkey_bar_English_2-161-1	60.018	-140	1.0.0.18	1	1387488314	Standard	2.0.10.353	2.0.10.353	07-12-2016		18:17:07	2.0.10.248	42	Bar50-50.bmp	54	3	?	0r_4g.bmp	0r_4g.bmp	0r_2g.bmp	0r_2g.bmp			0r_2g.bmp		TrialProc	TrialList	0	cvbn	-999999	16	157018	0	b	840	157858	128	-109	19	6	-2	17	-2	10	5	42	0	0	0	0	4	4	2	2	0	2
Hungry_Donkey_bar_English_2	161	1	<?xml version="1.0"?>\n<Clock xmlns:dt="urn:schemas-microsoft-com:datatypes"><Description dt:dt="string">E-Prime Primary Realtime Clock</Description><StartTime><Timestamp dt:dt="int">0</Timestamp><DateUtc dt:dt="string">2016-07-12T22:17:07Z</DateUtc></StartTime><FrequencyChanges><FrequencyChange><Frequency dt:dt="r8">3507705</Frequency><Timestamp dt:dt="r8">366458999881</Timestamp><Current dt:dt="r8">0</Current><DateUtc dt:dt="string">2016-07-12T22:17:07Z</DateUtc></FrequencyChange></FrequencyChanges></Clock>\n	Hungry_Donkey_bar_English_2-161-1	60.018	-140	1.0.0.18	1	1387488314	Standard	2.0.10.353	2.0.10.353	07-12-2016		18:17:07	2.0.10.248	43	Bar50-50.bmp	55	2	?	0r_4g.bmp	0r_4g.bmp	0r_2g.bmp	0r_2g.bmp		0r_4g.bmp			TrialProc	TrialList	0	cvbn	-999999	16	159884	0	v	598	160482	132	-109	23	6	2	17	-2	6	5	43	0	0	0	0	4	4	2	2	0	4
Hungry_Donkey_bar_English_2	161	1	<?xml version="1.0"?>\n<Clock xmlns:dt="urn:schemas-microsoft-com:datatypes"><Description dt:dt="string">E-Prime Primary Realtime Clock</Description><StartTime><Timestamp dt:dt="int">0</Timestamp><DateUtc dt:dt="string">2016-07-12T22:17:07Z</DateUtc></StartTime><FrequencyChanges><FrequencyChange><Frequency dt:dt="r8">3507705</Frequency><Timestamp dt:dt="r8">366458999881</Timestamp><Current dt:dt="r8">0</Current><DateUtc dt:dt="string">2016-07-12T22:17:07Z</DateUtc></FrequencyChange></FrequencyChanges></Clock>\n	Hungry_Donkey_bar_English_2-161-1	60.018	-140	1.0.0.18	1	1387488314	Standard	2.0.10.353	2.0.10.353	07-12-2016		18:17:07	2.0.10.248	44	Bar50-50.bmp	53	1	?	12r_4g.bmp	0r_4g.bmp	3r_2g.bmp	0r_2g.bmp	12r_4g.bmp				TrialProc	TrialList	0	cvbn	-999999	16	162516	0	c	1070	163586	136	-121	15	-2	2	17	-2	5	5	44	-12	0	-3	0	4	4	2	2	-12	4
Hungry_Donkey_bar_English_2	161	1	<?xml version="1.0"?>\n<Clock xmlns:dt="urn:schemas-microsoft-com:datatypes"><Description dt:dt="string">E-Prime Primary Realtime Clock</Description><StartTime><Timestamp dt:dt="int">0</Timestamp><DateUtc dt:dt="string">2016-07-12T22:17:07Z</DateUtc></StartTime><FrequencyChanges><FrequencyChange><Frequency dt:dt="r8">3507705</Frequency><Timestamp dt:dt="r8">366458999881</Timestamp><Current dt:dt="r8">0</Current><DateUtc dt:dt="string">2016-07-12T22:17:07Z</DateUtc></FrequencyChange></FrequencyChanges></Clock>\n	Hungry_Donkey_bar_English_2-161-1	60.018	-140	1.0.0.18	1	1387488314	Standard	2.0.10.353	2.0.10.353	07-12-2016		18:17:07	2.0.10.248	45	Bar50-50.bmp	53	4	?	10r_4g.bmp	0r_4g.bmp	2r_2g.bmp	0r_2g.bmp				0r_2g.bmp	TrialProc	TrialList	0	cvbn	-999999	17	165616	0	n	945	166561	138	-121	17	-2	2	17	0	3	5	45	-10	0	-2	0	4	4	2	2	0	2
Hungry_Donkey_bar_English_2	161	1	<?xml version="1.0"?>\n<Clock xmlns:dt="urn:schemas-microsoft-com:datatypes"><Description dt:dt="string">E-Prime Primary Realtime Clock</Description><StartTime><Timestamp dt:dt="int">0</Timestamp><DateUtc dt:dt="string">2016-07-12T22:17:07Z</DateUtc></StartTime><FrequencyChanges><FrequencyChange><Frequency dt:dt="r8">3507705</Frequency><Timestamp dt:dt="r8">366458999881</Timestamp><Current dt:dt="r8">0</Current><DateUtc dt:dt="string">2016-07-12T22:17:07Z</DateUtc></FrequencyChange></FrequencyChanges></Clock>\n	Hungry_Donkey_bar_English_2-161-1	60.018	-140	1.0.0.18	1	1387488314	Standard	2.0.10.353	2.0.10.353	07-12-2016		18:17:07	2.0.10.248	46	Bar50-50.bmp	54	2	?	10r_4g.bmp	0r_4g.bmp	2r_2g.bmp	0r_2g.bmp		0r_4g.bmp			TrialProc	TrialList	0	cvbn	-999999	16	168598	0	v	395	168993	142	-121	21	-2	6	17	0	4	5	46	-10	0	-2	0	4	4	2	2	0	4
Hungry_Donkey_bar_English_2	161	1	<?xml version="1.0"?>\n<Clock xmlns:dt="urn:schemas-microsoft-com:datatypes"><Description dt:dt="string">E-Prime Primary Realtime Clock</Description><StartTime><Timestamp dt:dt="int">0</Timestamp><DateUtc dt:dt="string">2016-07-12T22:17:07Z</DateUtc></StartTime><FrequencyChanges><FrequencyChange><Frequency dt:dt="r8">3507705</Frequency><Timestamp dt:dt="r8">366458999881</Timestamp><Current dt:dt="r8">0</Current><DateUtc dt:dt="string">2016-07-12T22:17:07Z</DateUtc></FrequencyChange></FrequencyChanges></Clock>\n	Hungry_Donkey_bar_English_2-161-1	60.018	-140	1.0.0.18	1	1387488314	Standard	2.0.10.353	2.0.10.353	07-12-2016		18:17:07	2.0.10.248	47	Bar50-50.bmp	54	3	?	0r_4g.bmp	0r_4g.bmp	0r_2g.bmp	0r_2g.bmp			0r_2g.bmp		TrialProc	TrialList	0	cvbn	-999999	16	171031	0	b	426	171457	144	-121	23	-2	6	19	0	9	5	47	0	0	0	0	4	4	2	2	0	2
Hungry_Donkey_bar_English_2	161	1	<?xml version="1.0"?>\n<Clock xmlns:dt="urn:schemas-microsoft-com:datatypes"><Description dt:dt="string">E-Prime Primary Realtime Clock</Description><StartTime><Timestamp dt:dt="int">0</Timestamp><DateUtc dt:dt="string">2016-07-12T22:17:07Z</DateUtc></StartTime><FrequencyChanges><FrequencyChange><Frequency dt:dt="r8">3507705</Frequency><Timestamp dt:dt="r8">366458999881</Timestamp><Current dt:dt="r8">0</Current><DateUtc dt:dt="string">2016-07-12T22:17:07Z</DateUtc></FrequencyChange></FrequencyChanges></Clock>\n	Hungry_Donkey_bar_English_2-161-1	60.018	-140	1.0.0.18	1	1387488314	Standard	2.0.10.353	2.0.10.353	07-12-2016		18:17:07	2.0.10.248	48	Bar50-50.bmp	55	4	?	0r_4g.bmp	0r_4g.bmp	0r_2g.bmp	0r_2g.bmp				0r_2g.bmp	TrialProc	TrialList	0	cvbn	-999999	16	173480	0	n	505	173985	146	-121	25	-2	6	19	2	7	5	48	0	0	0	0	4	4	2	2	0	2
Hungry_Donkey_bar_English_2	161	1	<?xml version="1.0"?>\n<Clock xmlns:dt="urn:schemas-microsoft-com:datatypes"><Description dt:dt="string">E-Prime Primary Realtime Clock</Description><StartTime><Timestamp dt:dt="int">0</Timestamp><DateUtc dt:dt="string">2016-07-12T22:17:07Z</DateUtc></StartTime><FrequencyChanges><FrequencyChange><Frequency dt:dt="r8">3507705</Frequency><Timestamp dt:dt="r8">366458999881</Timestamp><Current dt:dt="r8">0</Current><DateUtc dt:dt="string">2016-07-12T22:17:07Z</DateUtc></FrequencyChange></FrequencyChanges></Clock>\n	Hungry_Donkey_bar_English_2-161-1	60.018	-140	1.0.0.18	1	1387488314	Standard	2.0.10.353	2.0.10.353	07-12-2016		18:17:07	2.0.10.248	49	Bar50-50.bmp	53	1	?	10r_4g.bmp	0r_4g.bmp	2r_2g.bmp	0r_2g.bmp	10r_4g.bmp				TrialProc	TrialList	0	cvbn	-999999	16	176012	0	c	405	176417	150	-131	19	-8	6	19	2	2	5	49	-10	0	-2	0	4	4	2	2	-10	4
Hungry_Donkey_bar_English_2	161	1	<?xml version="1.0"?>\n<Clock xmlns:dt="urn:schemas-microsoft-com:datatypes"><Description dt:dt="string">E-Prime Primary Realtime Clock</Description><StartTime><Timestamp dt:dt="int">0</Timestamp><DateUtc dt:dt="string">2016-07-12T22:17:07Z</DateUtc></StartTime><FrequencyChanges><FrequencyChange><Frequency dt:dt="r8">3507705</Frequency><Timestamp dt:dt="r8">366458999881</Timestamp><Current dt:dt="r8">0</Current><DateUtc dt:dt="string">2016-07-12T22:17:07Z</DateUtc></FrequencyChange></FrequencyChanges></Clock>\n	Hungry_Donkey_bar_English_2-161-1	60.018	-140	1.0.0.18	1	1387488314	Standard	2.0.10.353	2.0.10.353	07-12-2016		18:17:07	2.0.10.248	50	Bar50-50.bmp	46	2	?	8r_4g.bmp	50r_4g.bmp	1r_2g.bmp	10r_2g.bmp		50r_4g.bmp			TrialProc	TrialList	0	cvbn	-999999	16	178445	0	v	484	178929	154	-181	-27	-8	-40	19	2	1	5	50	-8	-50	-1	-10	4	4	2	2	-50	4
Hungry_Donkey_bar_English_2	161	1	<?xml version="1.0"?>\n<Clock xmlns:dt="urn:schemas-microsoft-com:datatypes"><Description dt:dt="string">E-Prime Primary Realtime Clock</Description><StartTime><Timestamp dt:dt="int">0</Timestamp><DateUtc dt:dt="string">2016-07-12T22:17:07Z</DateUtc></StartTime><FrequencyChanges><FrequencyChange><Frequency dt:dt="r8">3507705</Frequency><Timestamp dt:dt="r8">366458999881</Timestamp><Current dt:dt="r8">0</Current><DateUtc dt:dt="string">2016-07-12T22:17:07Z</DateUtc></FrequencyChange></FrequencyChanges></Clock>\n	Hungry_Donkey_bar_English_2-161-1	60.018	-140	1.0.0.18	1	1387488314	Standard	2.0.10.353	2.0.10.353	07-12-2016		18:17:07	2.0.10.248	51	Bar50-50.bmp	45	1	?	10r_4g.bmp	0r_4g.bmp	2r_2g.bmp	0r_2g.bmp	10r_4g.bmp				TrialProc	TrialList	0	cvbn	-999999	16	180961	0	c	1103	182064	158	-191	-33	-14	-40	19	2	4	6	51	-10	0	-2	0	4	4	2	2	-10	4
Hungry_Donkey_bar_English_2	161	1	<?xml version="1.0"?>\n<Clock xmlns:dt="urn:schemas-microsoft-com:datatypes"><Description dt:dt="string">E-Prime Primary Realtime Clock</Description><StartTime><Timestamp dt:dt="int">0</Timestamp><DateUtc dt:dt="string">2016-07-12T22:17:07Z</DateUtc></StartTime><FrequencyChanges><FrequencyChange><Frequency dt:dt="r8">3507705</Frequency><Timestamp dt:dt="r8">366458999881</Timestamp><Current dt:dt="r8">0</Current><DateUtc dt:dt="string">2016-07-12T22:17:07Z</DateUtc></FrequencyChange></FrequencyChanges></Clock>\n	Hungry_Donkey_bar_English_2-161-1	60.018	-140	1.0.0.18	1	1387488314	Standard	2.0.10.353	2.0.10.353	07-12-2016		18:17:07	2.0.10.248	52	Bar50-50.bmp	45	3	?	10r_4g.bmp	0r_4g.bmp	2r_2g.bmp	0r_2g.bmp			2r_2g.bmp		TrialProc	TrialList	0	cvbn	-999999	16	184093	0	b	1171	185264	160	-193	-33	-14	-40	19	2	3	6	52	-10	0	-2	0	4	4	2	2	-2	2
Hungry_Donkey_bar_English_2	161	1	<?xml version="1.0"?>\n<Clock xmlns:dt="urn:schemas-microsoft-com:datatypes"><Description dt:dt="string">E-Prime Primary Realtime Clock</Description><StartTime><Timestamp dt:dt="int">0</Timestamp><DateUtc dt:dt="string">2016-07-12T22:17:07Z</DateUtc></StartTime><FrequencyChanges><FrequencyChange><Frequency dt:dt="r8">3507705</Frequency><Timestamp dt:dt="r8">366458999881</Timestamp><Current dt:dt="r8">0</Current><DateUtc dt:dt="string">2016-07-12T22:17:07Z</DateUtc></FrequencyChange></FrequencyChanges></Clock>\n	Hungry_Donkey_bar_English_2-161-1	60.018	-140	1.0.0.18	1	1387488314	Standard	2.0.10.353	2.0.10.353	07-12-2016		18:17:07	2.0.10.248	53	Bar50-50.bmp	46	4	?	0r_4g.bmp	0r_4g.bmp	0r_2g.bmp	0r_2g.bmp				0r_2g.bmp	TrialProc	TrialList	0	cvbn	-999999	16	187292	0	n	1124	188416	162	-193	-31	-14	-40	19	4	8	6	53	0	0	0	0	4	4	2	2	0	2
Hungry_Donkey_bar_English_2	161	1	<?xml version="1.0"?>\n<Clock xmlns:dt="urn:schemas-microsoft-com:datatypes"><Description dt:dt="string">E-Prime Primary Realtime Clock</Description><StartTime><Timestamp dt:dt="int">0</Timestamp><DateUtc dt:dt="string">2016-07-12T22:17:07Z</DateUtc></StartTime><FrequencyChanges><FrequencyChange><Frequency dt:dt="r8">3507705</Frequency><Timestamp dt:dt="r8">366458999881</Timestamp><Current dt:dt="r8">0</Current><DateUtc dt:dt="string">2016-07-12T22:17:07Z</DateUtc></FrequencyChange></FrequencyChanges></Clock>\n	Hungry_Donkey_bar_English_2-161-1	60.018	-140	1.0.0.18	1	1387488314	Standard	2.0.10.353	2.0.10.353	07-12-2016		18:17:07	2.0.10.248	54	Bar50-50.bmp	46	3	?	0r_4g.bmp	0r_4g.bmp	0r_2g.bmp	0r_2g.bmp			0r_2g.bmp		TrialProc	TrialList	0	cvbn	-999999	17	190442	0	b	870	191312	164	-193	-29	-14	-40	21	4	7	6	54	0	0	0	0	4	4	2	2	0	2
Hungry_Donkey_bar_English_2	161	1	<?xml version="1.0"?>\n<Clock xmlns:dt="urn:schemas-microsoft-com:datatypes"><Description dt:dt="string">E-Prime Primary Realtime Clock</Description><StartTime><Timestamp dt:dt="int">0</Timestamp><DateUtc dt:dt="string">2016-07-12T22:17:07Z</DateUtc></StartTime><FrequencyChanges><FrequencyChange><Frequency dt:dt="r8">3507705</Frequency><Timestamp dt:dt="r8">366458999881</Timestamp><Current dt:dt="r8">0</Current><DateUtc dt:dt="string">2016-07-12T22:17:07Z</DateUtc></FrequencyChange></FrequencyChanges></Clock>\n	Hungry_Donkey_bar_English_2-161-1	60.018	-140	1.0.0.18	1	1387488314	Standard	2.0.10.353	2.0.10.353	07-12-2016		18:17:07	2.0.10.248	55	Bar50-50.bmp	47	2	?	12r_4g.bmp	0r_4g.bmp	3r_2g.bmp	0r_2g.bmp		0r_4g.bmp			TrialProc	TrialList	0	cvbn	-999999	16	193341	0	v	387	193728	168	-193	-25	-14	-36	21	4	5	6	55	-12	0	-3	0	4	4	2	2	0	4
Hungry_Donkey_bar_English_2	161	1	<?xml version="1.0"?>\n<Clock xmlns:dt="urn:schemas-microsoft-com:datatypes"><Description dt:dt="string">E-Prime Primary Realtime Clock</Description><StartTime><Timestamp dt:dt="int">0</Timestamp><DateUtc dt:dt="string">2016-07-12T22:17:07Z</DateUtc></StartTime><FrequencyChanges><FrequencyChange><Frequency dt:dt="r8">3507705</Frequency><Timestamp dt:dt="r8">366458999881</Timestamp><Current dt:dt="r8">0</Current><DateUtc dt:dt="string">2016-07-12T22:17:07Z</DateUtc></FrequencyChange></FrequencyChanges></Clock>\n	Hungry_Donkey_bar_English_2-161-1	60.018	-140	1.0.0.18	1	1387488314	Standard	2.0.10.353	2.0.10.353	07-12-2016		18:17:07	2.0.10.248	56	Bar50-50.bmp	47	3	?	10r_4g.bmp	0r_4g.bmp	2r_2g.bmp	0r_2g.bmp			2r_2g.bmp		TrialProc	TrialList	0	cvbn	-999999	16	195757	0	b	499	196256	170	-195	-25	-14	-36	21	4	2	6	56	-10	0	-2	0	4	4	2	2	-2	2
Hungry_Donkey_bar_English_2	161	1	<?xml version="1.0"?>\n<Clock xmlns:dt="urn:schemas-microsoft-com:datatypes"><Description dt:dt="string">E-Prime Primary Realtime Clock</Description><StartTime><Timestamp dt:dt="int">0</Timestamp><DateUtc dt:dt="string">2016-07-12T22:17:07Z</DateUtc></StartTime><FrequencyChanges><FrequencyChange><Frequency dt:dt="r8">3507705</Frequency><Timestamp dt:dt="r8">366458999881</Timestamp><Current dt:dt="r8">0</Current><DateUtc dt:dt="string">2016-07-12T22:17:07Z</DateUtc></FrequencyChange></FrequencyChanges></Clock>\n	Hungry_Donkey_bar_English_2-161-1	60.018	-140	1.0.0.18	1	1387488314	Standard	2.0.10.353	2.0.10.353	07-12-2016		18:17:07	2.0.10.248	57	Bar50-50.bmp	47	4	?	0r_4g.bmp	0r_4g.bmp	0r_2g.bmp	0r_2g.bmp				0r_2g.bmp	TrialProc	TrialList	0	cvbn	-999999	16	198289	0	n	1918	200207	172	-195	-23	-14	-36	21	6	9	6	57	0	0	0	0	4	4	2	2	0	2
Hungry_Donkey_bar_English_2	161	1	<?xml version="1.0"?>\n<Clock xmlns:dt="urn:schemas-microsoft-com:datatypes"><Description dt:dt="string">E-Prime Primary Realtime Clock</Description><StartTime><Timestamp dt:dt="int">0</Timestamp><DateUtc dt:dt="string">2016-07-12T22:17:07Z</DateUtc></StartTime><FrequencyChanges><FrequencyChange><Frequency dt:dt="r8">3507705</Frequency><Timestamp dt:dt="r8">366458999881</Timestamp><Current dt:dt="r8">0</Current><DateUtc dt:dt="string">2016-07-12T22:17:07Z</DateUtc></FrequencyChange></FrequencyChanges></Clock>\n	Hungry_Donkey_bar_English_2-161-1	60.018	-140	1.0.0.18	1	1387488314	Standard	2.0.10.353	2.0.10.353	07-12-2016		18:17:07	2.0.10.248	58	Bar50-50.bmp	47	3	?	0r_4g.bmp	0r_4g.bmp	0r_2g.bmp	0r_2g.bmp			0r_2g.bmp		TrialProc	TrialList	0	cvbn	-999999	16	202238	0	b	577	202815	174	-195	-21	-14	-36	23	6	10	6	58	0	0	0	0	4	4	2	2	0	2
Hungry_Donkey_bar_English_2	161	1	<?xml version="1.0"?>\n<Clock xmlns:dt="urn:schemas-microsoft-com:datatypes"><Description dt:dt="string">E-Prime Primary Realtime Clock</Description><StartTime><Timestamp dt:dt="int">0</Timestamp><DateUtc dt:dt="string">2016-07-12T22:17:07Z</DateUtc></StartTime><FrequencyChanges><FrequencyChange><Frequency dt:dt="r8">3507705</Frequency><Timestamp dt:dt="r8">366458999881</Timestamp><Current dt:dt="r8">0</Current><DateUtc dt:dt="string">2016-07-12T22:17:07Z</DateUtc></FrequencyChange></FrequencyChanges></Clock>\n	Hungry_Donkey_bar_English_2-161-1	60.018	-140	1.0.0.18	1	1387488314	Standard	2.0.10.353	2.0.10.353	07-12-2016		18:17:07	2.0.10.248	59	Bar37-63.bmp	42	2	?	8r_4g.bmp	50r_4g.bmp	1r_2g.bmp	10r_2g.bmp		50r_4g.bmp			TrialProc	TrialList	0	cvbn	-999999	16	204854	0	v	729	205583	178	-245	-67	-14	-82	23	6	1	6	59	-8	-50	-1	-10	4	4	2	2	-50	4
Hungry_Donkey_bar_English_2	161	1	<?xml version="1.0"?>\n<Clock xmlns:dt="urn:schemas-microsoft-com:datatypes"><Description dt:dt="string">E-Prime Primary Realtime Clock</Description><StartTime><Timestamp dt:dt="int">0</Timestamp><DateUtc dt:dt="string">2016-07-12T22:17:07Z</DateUtc></StartTime><FrequencyChanges><FrequencyChange><Frequency dt:dt="r8">3507705</Frequency><Timestamp dt:dt="r8">366458999881</Timestamp><Current dt:dt="r8">0</Current><DateUtc dt:dt="string">2016-07-12T22:17:07Z</DateUtc></FrequencyChange></FrequencyChanges></Clock>\n	Hungry_Donkey_bar_English_2-161-1	60.018	-140	1.0.0.18	1	1387488314	Standard	2.0.10.353	2.0.10.353	07-12-2016		18:17:07	2.0.10.248	60	Bar37-63.bmp	43	1	?	0r_4g.bmp	0r_4g.bmp	0r_2g.bmp	0r_2g.bmp	0r_4g.bmp				TrialProc	TrialList	0	cvbn	-999999	16	207620	0	c	1483	209103	182	-245	-63	-10	-82	23	6	6	6	60	0	0	0	0	4	4	2	2	0	4
Hungry_Donkey_bar_English_2	161	1	<?xml version="1.0"?>\n<Clock xmlns:dt="urn:schemas-microsoft-com:datatypes"><Description dt:dt="string">E-Prime Primary Realtime Clock</Description><StartTime><Timestamp dt:dt="int">0</Timestamp><DateUtc dt:dt="string">2016-07-12T22:17:07Z</DateUtc></StartTime><FrequencyChanges><FrequencyChange><Frequency dt:dt="r8">3507705</Frequency><Timestamp dt:dt="r8">366458999881</Timestamp><Current dt:dt="r8">0</Current><DateUtc dt:dt="string">2016-07-12T22:17:07Z</DateUtc></FrequencyChange></FrequencyChanges></Clock>\n	Hungry_Donkey_bar_English_2-161-1	60.018	-140	1.0.0.18	1	1387488314	Standard	2.0.10.353	2.0.10.353	07-12-2016		18:17:07	2.0.10.248	61	Bar37-63.bmp	42	4	?	8r_4g.bmp	50r_4g.bmp	1r_2g.bmp	10r_2g.bmp				10r_2g.bmp	TrialProc	TrialList	0	cvbn	-999999	16	211135	0	n	608	211743	184	-255	-71	-10	-82	23	-2	1	7	61	-8	-50	-1	-10	4	4	2	2	-10	2
Hungry_Donkey_bar_English_2	161	1	<?xml version="1.0"?>\n<Clock xmlns:dt="urn:schemas-microsoft-com:datatypes"><Description dt:dt="string">E-Prime Primary Realtime Clock</Description><StartTime><Timestamp dt:dt="int">0</Timestamp><DateUtc dt:dt="string">2016-07-12T22:17:07Z</DateUtc></StartTime><FrequencyChanges><FrequencyChange><Frequency dt:dt="r8">3507705</Frequency><Timestamp dt:dt="r8">366458999881</Timestamp><Current dt:dt="r8">0</Current><DateUtc dt:dt="string">2016-07-12T22:17:07Z</DateUtc></FrequencyChange></FrequencyChanges></Clock>\n	Hungry_Donkey_bar_English_2-161-1	60.018	-140	1.0.0.18	1	1387488314	Standard	2.0.10.353	2.0.10.353	07-12-2016		18:17:07	2.0.10.248	62	Bar37-63.bmp	42	3	?	10r_4g.bmp	0r_4g.bmp	2r_2g.bmp	0r_2g.bmp			2r_2g.bmp		TrialProc	TrialList	0	cvbn	-999999	16	213785	0	b	726	214511	186	-257	-71	-10	-82	23	-2	3	7	62	-10	0	-2	0	4	4	2	2	-2	2
Hungry_Donkey_bar_English_2	161	1	<?xml version="1.0"?>\n<Clock xmlns:dt="urn:schemas-microsoft-com:datatypes"><Description dt:dt="string">E-Prime Primary Realtime Clock</Description><StartTime><Timestamp dt:dt="int">0</Timestamp><DateUtc dt:dt="string">2016-07-12T22:17:07Z</DateUtc></StartTime><FrequencyChanges><FrequencyChange><Frequency dt:dt="r8">3507705</Frequency><Timestamp dt:dt="r8">366458999881</Timestamp><Current dt:dt="r8">0</Current><DateUtc dt:dt="string">2016-07-12T22:17:07Z</DateUtc></FrequencyChange></FrequencyChanges></Clock>\n	Hungry_Donkey_bar_English_2-161-1	60.018	-140	1.0.0.18	1	1387488314	Standard	2.0.10.353	2.0.10.353	07-12-2016		18:17:07	2.0.10.248	63	Bar37-63.bmp	42	1	?	10r_4g.bmp	0r_4g.bmp	2r_2g.bmp	0r_2g.bmp	10r_4g.bmp				TrialProc	TrialList	0	cvbn	-999999	16	216534	0	c	664	217198	190	-267	-77	-16	-82	23	-2	4	7	63	-10	0	-2	0	4	4	2	2	-10	4
Hungry_Donkey_bar_English_2	161	1	<?xml version="1.0"?>\n<Clock xmlns:dt="urn:schemas-microsoft-com:datatypes"><Description dt:dt="string">E-Prime Primary Realtime Clock</Description><StartTime><Timestamp dt:dt="int">0</Timestamp><DateUtc dt:dt="string">2016-07-12T22:17:07Z</DateUtc></StartTime><FrequencyChanges><FrequencyChange><Frequency dt:dt="r8">3507705</Frequency><Timestamp dt:dt="r8">366458999881</Timestamp><Current dt:dt="r8">0</Current><DateUtc dt:dt="string">2016-07-12T22:17:07Z</DateUtc></FrequencyChange></FrequencyChanges></Clock>\n	Hungry_Donkey_bar_English_2-161-1	60.018	-140	1.0.0.18	1	1387488314	Standard	2.0.10.353	2.0.10.353	07-12-2016		18:17:07	2.0.10.248	64	Bar37-63.bmp	42	2	?	12r_4g.bmp	0r_4g.bmp	3r_2g.bmp	0r_2g.bmp		0r_4g.bmp			TrialProc	TrialList	0	cvbn	-999999	16	219233	0	v	381	219614	194	-267	-73	-16	-78	23	-2	5	7	64	-12	0	-3	0	4	4	2	2	0	4
Hungry_Donkey_bar_English_2	161	1	<?xml version="1.0"?>\n<Clock xmlns:dt="urn:schemas-microsoft-com:datatypes"><Description dt:dt="string">E-Prime Primary Realtime Clock</Description><StartTime><Timestamp dt:dt="int">0</Timestamp><DateUtc dt:dt="string">2016-07-12T22:17:07Z</DateUtc></StartTime><FrequencyChanges><FrequencyChange><Frequency dt:dt="r8">3507705</Frequency><Timestamp dt:dt="r8">366458999881</Timestamp><Current dt:dt="r8">0</Current><DateUtc dt:dt="string">2016-07-12T22:17:07Z</DateUtc></FrequencyChange></FrequencyChanges></Clock>\n	Hungry_Donkey_bar_English_2-161-1	60.018	-140	1.0.0.18	1	1387488314	Standard	2.0.10.353	2.0.10.353	07-12-2016		18:17:07	2.0.10.248	65	Bar37-63.bmp	42	4	?	0r_4g.bmp	0r_4g.bmp	0r_2g.bmp	0r_2g.bmp				0r_2g.bmp	TrialProc	TrialList	0	cvbn	-999999	16	221649	0	n	941	222590	196	-267	-71	-16	-78	23	0	10	7	65	0	0	0	0	4	4	2	2	0	2
Hungry_Donkey_bar_English_2	161	1	<?xml version="1.0"?>\n<Clock xmlns:dt="urn:schemas-microsoft-com:datatypes"><Description dt:dt="string">E-Prime Primary Realtime Clock</Description><StartTime><Timestamp dt:dt="int">0</Timestamp><DateUtc dt:dt="string">2016-07-12T22:17:07Z</DateUtc></StartTime><FrequencyChanges><FrequencyChange><Frequency dt:dt="r8">3507705</Frequency><Timestamp dt:dt="r8">366458999881</Timestamp><Current dt:dt="r8">0</Current><DateUtc dt:dt="string">2016-07-12T22:17:07Z</DateUtc></FrequencyChange></FrequencyChanges></Clock>\n	Hungry_Donkey_bar_English_2-161-1	60.018	-140	1.0.0.18	1	1387488314	Standard	2.0.10.353	2.0.10.353	07-12-2016		18:17:07	2.0.10.248	66	Bar37-63.bmp	43	3	?	0r_4g.bmp	0r_4g.bmp	0r_2g.bmp	0r_2g.bmp			0r_2g.bmp		TrialProc	TrialList	0	cvbn	-999999	16	224615	0	b	791	225406	198	-267	-69	-16	-78	25	0	7	7	66	0	0	0	0	4	4	2	2	0	2
Hungry_Donkey_bar_English_2	161	1	<?xml version="1.0"?>\n<Clock xmlns:dt="urn:schemas-microsoft-com:datatypes"><Description dt:dt="string">E-Prime Primary Realtime Clock</Description><StartTime><Timestamp dt:dt="int">0</Timestamp><DateUtc dt:dt="string">2016-07-12T22:17:07Z</DateUtc></StartTime><FrequencyChanges><FrequencyChange><Frequency dt:dt="r8">3507705</Frequency><Timestamp dt:dt="r8">366458999881</Timestamp><Current dt:dt="r8">0</Current><DateUtc dt:dt="string">2016-07-12T22:17:07Z</DateUtc></FrequencyChange></FrequencyChanges></Clock>\n	Hungry_Donkey_bar_English_2-161-1	60.018	-140	1.0.0.18	1	1387488314	Standard	2.0.10.353	2.0.10.353	07-12-2016		18:17:07	2.0.10.248	67	Bar37-63.bmp	43	2	?	0r_4g.bmp	0r_4g.bmp	0r_2g.bmp	0r_2g.bmp		0r_4g.bmp			TrialProc	TrialList	0	cvbn	-999999	16	227431	0	v	855	228286	202	-267	-65	-16	-74	25	0	9	7	67	0	0	0	0	4	4	2	2	0	4
Hungry_Donkey_bar_English_2	161	1	<?xml version="1.0"?>\n<Clock xmlns:dt="urn:schemas-microsoft-com:datatypes"><Description dt:dt="string">E-Prime Primary Realtime Clock</Description><StartTime><Timestamp dt:dt="int">0</Timestamp><DateUtc dt:dt="string">2016-07-12T22:17:07Z</DateUtc></StartTime><FrequencyChanges><FrequencyChange><Frequency dt:dt="r8">3507705</Frequency><Timestamp dt:dt="r8">366458999881</Timestamp><Current dt:dt="r8">0</Current><DateUtc dt:dt="string">2016-07-12T22:17:07Z</DateUtc></FrequencyChange></FrequencyChanges></Clock>\n	Hungry_Donkey_bar_English_2-161-1	60.018	-140	1.0.0.18	1	1387488314	Standard	2.0.10.353	2.0.10.353	07-12-2016		18:17:07	2.0.10.248	68	Bar37-63.bmp	43	1	?	10r_4g.bmp	0r_4g.bmp	2r_2g.bmp	0r_2g.bmp	10r_4g.bmp				TrialProc	TrialList	0	cvbn	-999999	16	230313	0	c	1509	231822	206	-277	-71	-22	-74	25	0	2	7	68	-10	0	-2	0	4	4	2	2	-10	4
Hungry_Donkey_bar_English_2	161	1	<?xml version="1.0"?>\n<Clock xmlns:dt="urn:schemas-microsoft-com:datatypes"><Description dt:dt="string">E-Prime Primary Realtime Clock</Description><StartTime><Timestamp dt:dt="int">0</Timestamp><DateUtc dt:dt="string">2016-07-12T22:17:07Z</DateUtc></StartTime><FrequencyChanges><FrequencyChange><Frequency dt:dt="r8">3507705</Frequency><Timestamp dt:dt="r8">366458999881</Timestamp><Current dt:dt="r8">0</Current><DateUtc dt:dt="string">2016-07-12T22:17:07Z</DateUtc></FrequencyChange></FrequencyChanges></Clock>\n	Hungry_Donkey_bar_English_2-161-1	60.018	-140	1.0.0.18	1	1387488314	Standard	2.0.10.353	2.0.10.353	07-12-2016		18:17:07	2.0.10.248	69	Bar37-63.bmp	43	3	?	0r_4g.bmp	0r_4g.bmp	0r_2g.bmp	0r_2g.bmp			0r_2g.bmp		TrialProc	TrialList	0	cvbn	-999999	16	233845	0	b	681	234526	208	-277	-69	-22	-74	27	0	8	7	69	0	0	0	0	4	4	2	2	0	2
Hungry_Donkey_bar_English_2	161	1	<?xml version="1.0"?>\n<Clock xmlns:dt="urn:schemas-microsoft-com:datatypes"><Description dt:dt="string">E-Prime Primary Realtime Clock</Description><StartTime><Timestamp dt:dt="int">0</Timestamp><DateUtc dt:dt="string">2016-07-12T22:17:07Z</DateUtc></StartTime><FrequencyChanges><FrequencyChange><Frequency dt:dt="r8">3507705</Frequency><Timestamp dt:dt="r8">366458999881</Timestamp><Current dt:dt="r8">0</Current><DateUtc dt:dt="string">2016-07-12T22:17:07Z</DateUtc></FrequencyChange></FrequencyChanges></Clock>\n	Hungry_Donkey_bar_English_2-161-1	60.018	-140	1.0.0.18	1	1387488314	Standard	2.0.10.353	2.0.10.353	07-12-2016		18:17:07	2.0.10.248	70	Bar37-63.bmp	43	4	?	0r_4g.bmp	0r_4g.bmp	0r_2g.bmp	0r_2g.bmp				0r_2g.bmp	TrialProc	TrialList	0	cvbn	-999999	16	236561	0	n	732	237293	210	-277	-67	-22	-74	27	2	6	7	70	0	0	0	0	4	4	2	2	0	2
Hungry_Donkey_bar_English_2	161	1	<?xml version="1.0"?>\n<Clock xmlns:dt="urn:schemas-microsoft-com:datatypes"><Description dt:dt="string">E-Prime Primary Realtime Clock</Description><StartTime><Timestamp dt:dt="int">0</Timestamp><DateUtc dt:dt="string">2016-07-12T22:17:07Z</DateUtc></StartTime><FrequencyChanges><FrequencyChange><Frequency dt:dt="r8">3507705</Frequency><Timestamp dt:dt="r8">366458999881</Timestamp><Current dt:dt="r8">0</Current><DateUtc dt:dt="string">2016-07-12T22:17:07Z</DateUtc></FrequencyChange></FrequencyChanges></Clock>\n	Hungry_Donkey_bar_English_2-161-1	60.018	-140	1.0.0.18	1	1387488314	Standard	2.0.10.353	2.0.10.353	07-12-2016		18:17:07	2.0.10.248	71	Bar50-50.bmp	44	2	?	0r_4g.bmp	0r_4g.bmp	0r_2g.bmp	0r_2g.bmp		0r_4g.bmp			TrialProc	TrialList	0	cvbn	-999999	16	239327	0	v	1326	240653	214	-277	-63	-22	-70	27	2	9	8	71	0	0	0	0	4	4	2	2	0	4
Hungry_Donkey_bar_English_2	161	1	<?xml version="1.0"?>\n<Clock xmlns:dt="urn:schemas-microsoft-com:datatypes"><Description dt:dt="string">E-Prime Primary Realtime Clock</Description><StartTime><Timestamp dt:dt="int">0</Timestamp><DateUtc dt:dt="string">2016-07-12T22:17:07Z</DateUtc></StartTime><FrequencyChanges><FrequencyChange><Frequency dt:dt="r8">3507705</Frequency><Timestamp dt:dt="r8">366458999881</Timestamp><Current dt:dt="r8">0</Current><DateUtc dt:dt="string">2016-07-12T22:17:07Z</DateUtc></FrequencyChange></FrequencyChanges></Clock>\n	Hungry_Donkey_bar_English_2-161-1	60.018	-140	1.0.0.18	1	1387488314	Standard	2.0.10.353	2.0.10.353	07-12-2016		18:17:07	2.0.10.248	72	Bar50-50.bmp	44	3	?	10r_4g.bmp	0r_4g.bmp	2r_2g.bmp	0r_2g.bmp			2r_2g.bmp		TrialProc	TrialList	0	cvbn	-999999	16	242693	0	b	392	243085	216	-279	-63	-22	-70	27	2	3	8	72	-10	0	-2	0	4	4	2	2	-2	2
Hungry_Donkey_bar_English_2	161	1	<?xml version="1.0"?>\n<Clock xmlns:dt="urn:schemas-microsoft-com:datatypes"><Description dt:dt="string">E-Prime Primary Realtime Clock</Description><StartTime><Timestamp dt:dt="int">0</Timestamp><DateUtc dt:dt="string">2016-07-12T22:17:07Z</DateUtc></StartTime><FrequencyChanges><FrequencyChange><Frequency dt:dt="r8">3507705</Frequency><Timestamp dt:dt="r8">366458999881</Timestamp><Current dt:dt="r8">0</Current><DateUtc dt:dt="string">2016-07-12T22:17:07Z</DateUtc></FrequencyChange></FrequencyChanges></Clock>\n	Hungry_Donkey_bar_English_2-161-1	60.018	-140	1.0.0.18	1	1387488314	Standard	2.0.10.353	2.0.10.353	07-12-2016		18:17:07	2.0.10.248	73	Bar50-50.bmp	44	4	?	10r_4g.bmp	0r_4g.bmp	2r_2g.bmp	0r_2g.bmp				0r_2g.bmp	TrialProc	TrialList	0	cvbn	-999999	16	245109	0	n	632	245741	218	-279	-61	-22	-70	27	4	2	8	73	-10	0	-2	0	4	4	2	2	0	2
Hungry_Donkey_bar_English_2	161	1	<?xml version="1.0"?>\n<Clock xmlns:dt="urn:schemas-microsoft-com:datatypes"><Description dt:dt="string">E-Prime Primary Realtime Clock</Description><StartTime><Timestamp dt:dt="int">0</Timestamp><DateUtc dt:dt="string">2016-07-12T22:17:07Z</DateUtc></StartTime><FrequencyChanges><FrequencyChange><Frequency dt:dt="r8">3507705</Frequency><Timestamp dt:dt="r8">366458999881</Timestamp><Current dt:dt="r8">0</Current><DateUtc dt:dt="string">2016-07-12T22:17:07Z</DateUtc></FrequencyChange></FrequencyChanges></Clock>\n	Hungry_Donkey_bar_English_2-161-1	60.018	-140	1.0.0.18	1	1387488314	Standard	2.0.10.353	2.0.10.353	07-12-2016		18:17:07	2.0.10.248	74	Bar50-50.bmp	44	2	?	0r_4g.bmp	0r_4g.bmp	0r_2g.bmp	0r_2g.bmp		0r_4g.bmp			TrialProc	TrialList	0	cvbn	-999999	16	247775	0	v	414	248189	222	-279	-57	-22	-66	27	4	6	8	74	0	0	0	0	4	4	2	2	0	4
Hungry_Donkey_bar_English_2	161	1	<?xml version="1.0"?>\n<Clock xmlns:dt="urn:schemas-microsoft-com:datatypes"><Description dt:dt="string">E-Prime Primary Realtime Clock</Description><StartTime><Timestamp dt:dt="int">0</Timestamp><DateUtc dt:dt="string">2016-07-12T22:17:07Z</DateUtc></StartTime><FrequencyChanges><FrequencyChange><Frequency dt:dt="r8">3507705</Frequency><Timestamp dt:dt="r8">366458999881</Timestamp><Current dt:dt="r8">0</Current><DateUtc dt:dt="string">2016-07-12T22:17:07Z</DateUtc></FrequencyChange></FrequencyChanges></Clock>\n	Hungry_Donkey_bar_English_2-161-1	60.018	-140	1.0.0.18	1	1387488314	Standard	2.0.10.353	2.0.10.353	07-12-2016		18:17:07	2.0.10.248	75	Bar50-50.bmp	45	4	?	0r_4g.bmp	0r_4g.bmp	0r_2g.bmp	0r_2g.bmp				0r_2g.bmp	TrialProc	TrialList	0	cvbn	-999999	16	250224	0	n	365	250589	224	-279	-55	-22	-66	27	6	8	8	75	0	0	0	0	4	4	2	2	0	2
Hungry_Donkey_bar_English_2	161	1	<?xml version="1.0"?>\n<Clock xmlns:dt="urn:schemas-microsoft-com:datatypes"><Description dt:dt="string">E-Prime Primary Realtime Clock</Description><StartTime><Timestamp dt:dt="int">0</Timestamp><DateUtc dt:dt="string">2016-07-12T22:17:07Z</DateUtc></StartTime><FrequencyChanges><FrequencyChange><Frequency dt:dt="r8">3507705</Frequency><Timestamp dt:dt="r8">366458999881</Timestamp><Current dt:dt="r8">0</Current><DateUtc dt:dt="string">2016-07-12T22:17:07Z</DateUtc></FrequencyChange></FrequencyChanges></Clock>\n	Hungry_Donkey_bar_English_2-161-1	60.018	-140	1.0.0.18	1	1387488314	Standard	2.0.10.353	2.0.10.353	07-12-2016		18:17:07	2.0.10.248	76	Bar50-50.bmp	45	2	?	0r_4g.bmp	0r_4g.bmp	0r_2g.bmp	0r_2g.bmp		0r_4g.bmp			TrialProc	TrialList	0	cvbn	-999999	16	252623	0	v	317	252940	228	-279	-51	-22	-62	27	6	10	8	76	0	0	0	0	4	4	2	2	0	4
Hungry_Donkey_bar_English_2	161	1	<?xml version="1.0"?>\n<Clock xmlns:dt="urn:schemas-microsoft-com:datatypes"><Description dt:dt="string">E-Prime Primary Realtime Clock</Description><StartTime><Timestamp dt:dt="int">0</Timestamp><DateUtc dt:dt="string">2016-07-12T22:17:07Z</DateUtc></StartTime><FrequencyChanges><FrequencyChange><Frequency dt:dt="r8">3507705</Frequency><Timestamp dt:dt="r8">366458999881</Timestamp><Current dt:dt="r8">0</Current><DateUtc dt:dt="string">2016-07-12T22:17:07Z</DateUtc></FrequencyChange></FrequencyChanges></Clock>\n	Hungry_Donkey_bar_English_2-161-1	60.018	-140	1.0.0.18	1	1387488314	Standard	2.0.10.353	2.0.10.353	07-12-2016		18:17:07	2.0.10.248	77	Bar50-50.bmp	45	4	?	10r_4g.bmp	0r_4g.bmp	2r_2g.bmp	0r_2g.bmp				0r_2g.bmp	TrialProc	TrialList	0	cvbn	-999999	17	254973	0	n	463	255436	230	-279	-49	-22	-62	27	8	4	8	77	-10	0	-2	0	4	4	2	2	0	2
Hungry_Donkey_bar_English_2	161	1	<?xml version="1.0"?>\n<Clock xmlns:dt="urn:schemas-microsoft-com:datatypes"><Description dt:dt="string">E-Prime Primary Realtime Clock</Description><StartTime><Timestamp dt:dt="int">0</Timestamp><DateUtc dt:dt="string">2016-07-12T22:17:07Z</DateUtc></StartTime><FrequencyChanges><FrequencyChange><Frequency dt:dt="r8">3507705</Frequency><Timestamp dt:dt="r8">366458999881</Timestamp><Current dt:dt="r8">0</Current><DateUtc dt:dt="string">2016-07-12T22:17:07Z</DateUtc></FrequencyChange></FrequencyChanges></Clock>\n	Hungry_Donkey_bar_English_2-161-1	60.018	-140	1.0.0.18	1	1387488314	Standard	2.0.10.353	2.0.10.353	07-12-2016		18:17:07	2.0.10.248	78	Bar50-50.bmp	46	2	?	12r_4g.bmp	0r_4g.bmp	3r_2g.bmp	0r_2g.bmp		0r_4g.bmp			TrialProc	TrialList	0	cvbn	-999999	16	257472	0	v	412	257884	234	-279	-45	-22	-58	27	8	5	8	78	-12	0	-3	0	4	4	2	2	0	4
Hungry_Donkey_bar_English_2	161	1	<?xml version="1.0"?>\n<Clock xmlns:dt="urn:schemas-microsoft-com:datatypes"><Description dt:dt="string">E-Prime Primary Realtime Clock</Description><StartTime><Timestamp dt:dt="int">0</Timestamp><DateUtc dt:dt="string">2016-07-12T22:17:07Z</DateUtc></StartTime><FrequencyChanges><FrequencyChange><Frequency dt:dt="r8">3507705</Frequency><Timestamp dt:dt="r8">366458999881</Timestamp><Current dt:dt="r8">0</Current><DateUtc dt:dt="string">2016-07-12T22:17:07Z</DateUtc></FrequencyChange></FrequencyChanges></Clock>\n	Hungry_Donkey_bar_English_2-161-1	60.018	-140	1.0.0.18	1	1387488314	Standard	2.0.10.353	2.0.10.353	07-12-2016		18:17:07	2.0.10.248	79	Bar50-50.bmp	45	4	?	8r_4g.bmp	50r_4g.bmp	1r_2g.bmp	10r_2g.bmp				10r_2g.bmp	TrialProc	TrialList	0	cvbn	-999999	16	259921	0	n	363	260284	236	-289	-53	-22	-58	27	0	1	8	79	-8	-50	-1	-10	4	4	2	2	-10	2
Hungry_Donkey_bar_English_2	161	1	<?xml version="1.0"?>\n<Clock xmlns:dt="urn:schemas-microsoft-com:datatypes"><Description dt:dt="string">E-Prime Primary Realtime Clock</Description><StartTime><Timestamp dt:dt="int">0</Timestamp><DateUtc dt:dt="string">2016-07-12T22:17:07Z</DateUtc></StartTime><FrequencyChanges><FrequencyChange><Frequency dt:dt="r8">3507705</Frequency><Timestamp dt:dt="r8">366458999881</Timestamp><Current dt:dt="r8">0</Current><DateUtc dt:dt="string">2016-07-12T22:17:07Z</DateUtc></FrequencyChange></FrequencyChanges></Clock>\n	Hungry_Donkey_bar_English_2-161-1	60.018	-140	1.0.0.18	1	1387488314	Standard	2.0.10.353	2.0.10.353	07-12-2016		18:17:07	2.0.10.248	80	Bar50-50.bmp	45	3	?	0r_4g.bmp	0r_4g.bmp	0r_2g.bmp	0r_2g.bmp			0r_2g.bmp		TrialProc	TrialList	0	cvbn	-999999	16	262320	0	b	540	262860	238	-289	-51	-22	-58	29	0	7	8	80	0	0	0	0	4	4	2	2	0	2
Hungry_Donkey_bar_English_2	161	1	<?xml version="1.0"?>\n<Clock xmlns:dt="urn:schemas-microsoft-com:datatypes"><Description dt:dt="string">E-Prime Primary Realtime Clock</Description><StartTime><Timestamp dt:dt="int">0</Timestamp><DateUtc dt:dt="string">2016-07-12T22:17:07Z</DateUtc></StartTime><FrequencyChanges><FrequencyChange><Frequency dt:dt="r8">3507705</Frequency><Timestamp dt:dt="r8">366458999881</Timestamp><Current dt:dt="r8">0</Current><DateUtc dt:dt="string">2016-07-12T22:17:07Z</DateUtc></FrequencyChange></FrequencyChanges></Clock>\n	Hungry_Donkey_bar_English_2-161-1	60.018	-140	1.0.0.18	1	1387488314	Standard	2.0.10.353	2.0.10.353	07-12-2016		18:17:07	2.0.10.248	81	Bar50-50.bmp	45	1	?	10r_4g.bmp	0r_4g.bmp	2r_2g.bmp	0r_2g.bmp	10r_4g.bmp				TrialProc	TrialList	0	cvbn	-999999	16	264886	0	c	278	265164	242	-299	-57	-28	-58	29	0	4	9	81	-10	0	-2	0	4	4	2	2	-10	4
Hungry_Donkey_bar_English_2	161	1	<?xml version="1.0"?>\n<Clock xmlns:dt="urn:schemas-microsoft-com:datatypes"><Description dt:dt="string">E-Prime Primary Realtime Clock</Description><StartTime><Timestamp dt:dt="int">0</Timestamp><DateUtc dt:dt="string">2016-07-12T22:17:07Z</DateUtc></StartTime><FrequencyChanges><FrequencyChange><Frequency dt:dt="r8">3507705</Frequency><Timestamp dt:dt="r8">366458999881</Timestamp><Current dt:dt="r8">0</Current><DateUtc dt:dt="string">2016-07-12T22:17:07Z</DateUtc></FrequencyChange></FrequencyChanges></Clock>\n	Hungry_Donkey_bar_English_2-161-1	60.018	-140	1.0.0.18	1	1387488314	Standard	2.0.10.353	2.0.10.353	07-12-2016		18:17:07	2.0.10.248	82	Bar50-50.bmp	45	3	?	10r_4g.bmp	0r_4g.bmp	2r_2g.bmp	0r_2g.bmp			2r_2g.bmp		TrialProc	TrialList	0	cvbn	-999999	16	267202	0	b	538	267740	244	-301	-57	-28	-58	29	0	3	9	82	-10	0	-2	0	4	4	2	2	-2	2
Hungry_Donkey_bar_English_2	161	1	<?xml version="1.0"?>\n<Clock xmlns:dt="urn:schemas-microsoft-com:datatypes"><Description dt:dt="string">E-Prime Primary Realtime Clock</Description><StartTime><Timestamp dt:dt="int">0</Timestamp><DateUtc dt:dt="string">2016-07-12T22:17:07Z</DateUtc></StartTime><FrequencyChanges><FrequencyChange><Frequency dt:dt="r8">3507705</Frequency><Timestamp dt:dt="r8">366458999881</Timestamp><Current dt:dt="r8">0</Current><DateUtc dt:dt="string">2016-07-12T22:17:07Z</DateUtc></FrequencyChange></FrequencyChanges></Clock>\n	Hungry_Donkey_bar_English_2-161-1	60.018	-140	1.0.0.18	1	1387488314	Standard	2.0.10.353	2.0.10.353	07-12-2016		18:17:07	2.0.10.248	83	Bar50-50.bmp	45	2	?	0r_4g.bmp	0r_4g.bmp	0r_2g.bmp	0r_2g.bmp		0r_4g.bmp			TrialProc	TrialList	0	cvbn	-999999	16	269768	0	v	851	270619	248	-301	-53	-28	-54	29	0	10	9	83	0	0	0	0	4	4	2	2	0	4
Hungry_Donkey_bar_English_2	161	1	<?xml version="1.0"?>\n<Clock xmlns:dt="urn:schemas-microsoft-com:datatypes"><Description dt:dt="string">E-Prime Primary Realtime Clock</Description><StartTime><Timestamp dt:dt="int">0</Timestamp><DateUtc dt:dt="string">2016-07-12T22:17:07Z</DateUtc></StartTime><FrequencyChanges><FrequencyChange><Frequency dt:dt="r8">3507705</Frequency><Timestamp dt:dt="r8">366458999881</Timestamp><Current dt:dt="r8">0</Current><DateUtc dt:dt="string">2016-07-12T22:17:07Z</DateUtc></FrequencyChange></FrequencyChanges></Clock>\n	Hungry_Donkey_bar_English_2-161-1	60.018	-140	1.0.0.18	1	1387488314	Standard	2.0.10.353	2.0.10.353	07-12-2016		18:17:07	2.0.10.248	84	Bar50-50.bmp	45	4	?	12r_4g.bmp	0r_4g.bmp	3r_2g.bmp	0r_2g.bmp				0r_2g.bmp	TrialProc	TrialList	0	cvbn	-999999	16	272651	0	n	512	273163	250	-301	-51	-28	-54	29	2	5	9	84	-12	0	-3	0	4	4	2	2	0	2
Hungry_Donkey_bar_English_2	161	1	<?xml version="1.0"?>\n<Clock xmlns:dt="urn:schemas-microsoft-com:datatypes"><Description dt:dt="string">E-Prime Primary Realtime Clock</Description><StartTime><Timestamp dt:dt="int">0</Timestamp><DateUtc dt:dt="string">2016-07-12T22:17:07Z</DateUtc></StartTime><FrequencyChanges><FrequencyChange><Frequency dt:dt="r8">3507705</Frequency><Timestamp dt:dt="r8">366458999881</Timestamp><Current dt:dt="r8">0</Current><DateUtc dt:dt="string">2016-07-12T22:17:07Z</DateUtc></FrequencyChange></FrequencyChanges></Clock>\n	Hungry_Donkey_bar_English_2-161-1	60.018	-140	1.0.0.18	1	1387488314	Standard	2.0.10.353	2.0.10.353	07-12-2016		18:17:07	2.0.10.248	85	Bar50-50.bmp	46	2	?	0r_4g.bmp	0r_4g.bmp	0r_2g.bmp	0r_2g.bmp		0r_4g.bmp			TrialProc	TrialList	0	cvbn	-999999	16	275200	0	v	443	275643	254	-301	-47	-28	-50	29	2	9	9	85	0	0	0	0	4	4	2	2	0	4
Hungry_Donkey_bar_English_2	161	1	<?xml version="1.0"?>\n<Clock xmlns:dt="urn:schemas-microsoft-com:datatypes"><Description dt:dt="string">E-Prime Primary Realtime Clock</Description><StartTime><Timestamp dt:dt="int">0</Timestamp><DateUtc dt:dt="string">2016-07-12T22:17:07Z</DateUtc></StartTime><FrequencyChanges><FrequencyChange><Frequency dt:dt="r8">3507705</Frequency><Timestamp dt:dt="r8">366458999881</Timestamp><Current dt:dt="r8">0</Current><DateUtc dt:dt="string">2016-07-12T22:17:07Z</DateUtc></FrequencyChange></FrequencyChanges></Clock>\n	Hungry_Donkey_bar_English_2-161-1	60.018	-140	1.0.0.18	1	1387488314	Standard	2.0.10.353	2.0.10.353	07-12-2016		18:17:07	2.0.10.248	86	Bar50-50.bmp	45	4	?	8r_4g.bmp	50r_4g.bmp	1r_2g.bmp	10r_2g.bmp				10r_2g.bmp	TrialProc	TrialList	0	cvbn	-999999	17	277683	0	n	408	278091	256	-311	-55	-28	-50	29	-6	1	9	86	-8	-50	-1	-10	4	4	2	2	-10	2
Hungry_Donkey_bar_English_2	161	1	<?xml version="1.0"?>\n<Clock xmlns:dt="urn:schemas-microsoft-com:datatypes"><Description dt:dt="string">E-Prime Primary Realtime Clock</Description><StartTime><Timestamp dt:dt="int">0</Timestamp><DateUtc dt:dt="string">2016-07-12T22:17:07Z</DateUtc></StartTime><FrequencyChanges><FrequencyChange><Frequency dt:dt="r8">3507705</Frequency><Timestamp dt:dt="r8">366458999881</Timestamp><Current dt:dt="r8">0</Current><DateUtc dt:dt="string">2016-07-12T22:17:07Z</DateUtc></FrequencyChange></FrequencyChanges></Clock>\n	Hungry_Donkey_bar_English_2-161-1	60.018	-140	1.0.0.18	1	1387488314	Standard	2.0.10.353	2.0.10.353	07-12-2016		18:17:07	2.0.10.248	87	Bar50-50.bmp	45	3	?	0r_4g.bmp	0r_4g.bmp	0r_2g.bmp	0r_2g.bmp			0r_2g.bmp		TrialProc	TrialList	0	cvbn	-999999	16	280115	0	b	584	280699	258	-311	-53	-28	-50	31	-6	7	9	87	0	0	0	0	4	4	2	2	0	2
Hungry_Donkey_bar_English_2	161	1	<?xml version="1.0"?>\n<Clock xmlns:dt="urn:schemas-microsoft-com:datatypes"><Description dt:dt="string">E-Prime Primary Realtime Clock</Description><StartTime><Timestamp dt:dt="int">0</Timestamp><DateUtc dt:dt="string">2016-07-12T22:17:07Z</DateUtc></StartTime><FrequencyChanges><FrequencyChange><Frequency dt:dt="r8">3507705</Frequency><Timestamp dt:dt="r8">366458999881</Timestamp><Current dt:dt="r8">0</Current><DateUtc dt:dt="string">2016-07-12T22:17:07Z</DateUtc></FrequencyChange></FrequencyChanges></Clock>\n	Hungry_Donkey_bar_English_2-161-1	60.018	-140	1.0.0.18	1	1387488314	Standard	2.0.10.353	2.0.10.353	07-12-2016		18:17:07	2.0.10.248	88	Bar50-50.bmp	46	3	?	0r_4g.bmp	0r_4g.bmp	0r_2g.bmp	0r_2g.bmp			0r_2g.bmp		TrialProc	TrialList	0	cvbn	-999999	16	282731	0	b	704	283435	260	-311	-51	-28	-50	33	-6	6	9	88	0	0	0	0	4	4	2	2	0	2
Hungry_Donkey_bar_English_2	161	1	<?xml version="1.0"?>\n<Clock xmlns:dt="urn:schemas-microsoft-com:datatypes"><Description dt:dt="string">E-Prime Primary Realtime Clock</Description><StartTime><Timestamp dt:dt="int">0</Timestamp><DateUtc dt:dt="string">2016-07-12T22:17:07Z</DateUtc></StartTime><FrequencyChanges><FrequencyChange><Frequency dt:dt="r8">3507705</Frequency><Timestamp dt:dt="r8">366458999881</Timestamp><Current dt:dt="r8">0</Current><DateUtc dt:dt="string">2016-07-12T22:17:07Z</DateUtc></FrequencyChange></FrequencyChanges></Clock>\n	Hungry_Donkey_bar_English_2-161-1	60.018	-140	1.0.0.18	1	1387488314	Standard	2.0.10.353	2.0.10.353	07-12-2016		18:17:07	2.0.10.248	89	Bar50-50.bmp	46	2	?	0r_4g.bmp	0r_4g.bmp	0r_2g.bmp	0r_2g.bmp		0r_4g.bmp			TrialProc	TrialList	0	cvbn	-999999	16	285464	0	v	819	286283	264	-311	-47	-28	-46	33	-6	8	9	89	0	0	0	0	4	4	2	2	0	4
Hungry_Donkey_bar_English_2	161	1	<?xml version="1.0"?>\n<Clock xmlns:dt="urn:schemas-microsoft-com:datatypes"><Description dt:dt="string">E-Prime Primary Realtime Clock</Description><StartTime><Timestamp dt:dt="int">0</Timestamp><DateUtc dt:dt="string">2016-07-12T22:17:07Z</DateUtc></StartTime><FrequencyChanges><FrequencyChange><Frequency dt:dt="r8">3507705</Frequency><Timestamp dt:dt="r8">366458999881</Timestamp><Current dt:dt="r8">0</Current><DateUtc dt:dt="string">2016-07-12T22:17:07Z</DateUtc></FrequencyChange></FrequencyChanges></Clock>\n	Hungry_Donkey_bar_English_2-161-1	60.018	-140	1.0.0.18	1	1387488314	Standard	2.0.10.353	2.0.10.353	07-12-2016		18:17:07	2.0.10.248	90	Bar50-50.bmp	46	4	?	10r_4g.bmp	0r_4g.bmp	2r_2g.bmp	0r_2g.bmp				0r_2g.bmp	TrialProc	TrialList	0	cvbn	-999999	16	288313	0	n	513	288826	266	-311	-45	-28	-46	33	-4	2	9	90	-10	0	-2	0	4	4	2	2	0	2
Hungry_Donkey_bar_English_2	161	1	<?xml version="1.0"?>\n<Clock xmlns:dt="urn:schemas-microsoft-com:datatypes"><Description dt:dt="string">E-Prime Primary Realtime Clock</Description><StartTime><Timestamp dt:dt="int">0</Timestamp><DateUtc dt:dt="string">2016-07-12T22:17:07Z</DateUtc></StartTime><FrequencyChanges><FrequencyChange><Frequency dt:dt="r8">3507705</Frequency><Timestamp dt:dt="r8">366458999881</Timestamp><Current dt:dt="r8">0</Current><DateUtc dt:dt="string">2016-07-12T22:17:07Z</DateUtc></FrequencyChange></FrequencyChanges></Clock>\n	Hungry_Donkey_bar_English_2-161-1	60.018	-140	1.0.0.18	1	1387488314	Standard	2.0.10.353	2.0.10.353	07-12-2016		18:17:07	2.0.10.248	91	Bar50-50.bmp	46	3	?	0r_4g.bmp	0r_4g.bmp	0r_2g.bmp	0r_2g.bmp			0r_2g.bmp		TrialProc	TrialList	0	cvbn	-999999	16	290862	0	b	684	291546	268	-311	-43	-28	-46	35	-4	10	10	91	0	0	0	0	4	4	2	2	0	2
Hungry_Donkey_bar_English_2	161	1	<?xml version="1.0"?>\n<Clock xmlns:dt="urn:schemas-microsoft-com:datatypes"><Description dt:dt="string">E-Prime Primary Realtime Clock</Description><StartTime><Timestamp dt:dt="int">0</Timestamp><DateUtc dt:dt="string">2016-07-12T22:17:07Z</DateUtc></StartTime><FrequencyChanges><FrequencyChange><Frequency dt:dt="r8">3507705</Frequency><Timestamp dt:dt="r8">366458999881</Timestamp><Current dt:dt="r8">0</Current><DateUtc dt:dt="string">2016-07-12T22:17:07Z</DateUtc></FrequencyChange></FrequencyChanges></Clock>\n	Hungry_Donkey_bar_English_2-161-1	60.018	-140	1.0.0.18	1	1387488314	Standard	2.0.10.353	2.0.10.353	07-12-2016		18:17:07	2.0.10.248	92	Bar50-50.bmp	47	2	?	0r_4g.bmp	0r_4g.bmp	0r_2g.bmp	0r_2g.bmp		0r_4g.bmp			TrialProc	TrialList	0	cvbn	-999999	16	293578	0	v	512	294090	272	-311	-39	-28	-42	35	-4	9	10	92	0	0	0	0	4	4	2	2	0	4
Hungry_Donkey_bar_English_2	161	1	<?xml version="1.0"?>\n<Clock xmlns:dt="urn:schemas-microsoft-com:datatypes"><Description dt:dt="string">E-Prime Primary Realtime Clock</Description><StartTime><Timestamp dt:dt="int">0</Timestamp><DateUtc dt:dt="string">2016-07-12T22:17:07Z</DateUtc></StartTime><FrequencyChanges><FrequencyChange><Frequency dt:dt="r8">3507705</Frequency><Timestamp dt:dt="r8">366458999881</Timestamp><Current dt:dt="r8">0</Current><DateUtc dt:dt="string">2016-07-12T22:17:07Z</DateUtc></FrequencyChange></FrequencyChanges></Clock>\n	Hungry_Donkey_bar_English_2-161-1	60.018	-140	1.0.0.18	1	1387488314	Standard	2.0.10.353	2.0.10.353	07-12-2016		18:17:07	2.0.10.248	93	Bar50-50.bmp	46	4	?	8r_4g.bmp	50r_4g.bmp	1r_2g.bmp	10r_2g.bmp				10r_2g.bmp	TrialProc	TrialList	0	cvbn	-999999	16	296127	0	n	475	296602	274	-321	-47	-28	-42	35	-12	1	10	93	-8	-50	-1	-10	4	4	2	2	-10	2
Hungry_Donkey_bar_English_2	161	1	<?xml version="1.0"?>\n<Clock xmlns:dt="urn:schemas-microsoft-com:datatypes"><Description dt:dt="string">E-Prime Primary Realtime Clock</Description><StartTime><Timestamp dt:dt="int">0</Timestamp><DateUtc dt:dt="string">2016-07-12T22:17:07Z</DateUtc></StartTime><FrequencyChanges><FrequencyChange><Frequency dt:dt="r8">3507705</Frequency><Timestamp dt:dt="r8">366458999881</Timestamp><Current dt:dt="r8">0</Current><DateUtc dt:dt="string">2016-07-12T22:17:07Z</DateUtc></FrequencyChange></FrequencyChanges></Clock>\n	Hungry_Donkey_bar_English_2-161-1	60.018	-140	1.0.0.18	1	1387488314	Standard	2.0.10.353	2.0.10.353	07-12-2016		18:17:07	2.0.10.248	94	Bar50-50.bmp	46	3	?	12r_4g.bmp	0r_4g.bmp	3r_2g.bmp	0r_2g.bmp			3r_2g.bmp		TrialProc	TrialList	0	cvbn	-999999	16	298626	0	b	520	299146	276	-324	-48	-28	-42	34	-12	5	10	94	-12	0	-3	0	4	4	2	2	-3	2
Hungry_Donkey_bar_English_2	161	1	<?xml version="1.0"?>\n<Clock xmlns:dt="urn:schemas-microsoft-com:datatypes"><Description dt:dt="string">E-Prime Primary Realtime Clock</Description><StartTime><Timestamp dt:dt="int">0</Timestamp><DateUtc dt:dt="string">2016-07-12T22:17:07Z</DateUtc></StartTime><FrequencyChanges><FrequencyChange><Frequency dt:dt="r8">3507705</Frequency><Timestamp dt:dt="r8">366458999881</Timestamp><Current dt:dt="r8">0</Current><DateUtc dt:dt="string">2016-07-12T22:17:07Z</DateUtc></FrequencyChange></FrequencyChanges></Clock>\n	Hungry_Donkey_bar_English_2-161-1	60.018	-140	1.0.0.18	1	1387488314	Standard	2.0.10.353	2.0.10.353	07-12-2016		18:17:07	2.0.10.248	95	Bar50-50.bmp	46	2	?	10r_4g.bmp	0r_4g.bmp	2r_2g.bmp	0r_2g.bmp		0r_4g.bmp			TrialProc	TrialList	0	cvbn	-999999	16	301176	0	v	530	301706	280	-324	-44	-28	-38	34	-12	2	10	95	-10	0	-2	0	4	4	2	2	0	4
Hungry_Donkey_bar_English_2	161	1	<?xml version="1.0"?>\n<Clock xmlns:dt="urn:schemas-microsoft-com:datatypes"><Description dt:dt="string">E-Prime Primary Realtime Clock</Description><StartTime><Timestamp dt:dt="int">0</Timestamp><DateUtc dt:dt="string">2016-07-12T22:17:07Z</DateUtc></StartTime><FrequencyChanges><FrequencyChange><Frequency dt:dt="r8">3507705</Frequency><Timestamp dt:dt="r8">366458999881</Timestamp><Current dt:dt="r8">0</Current><DateUtc dt:dt="string">2016-07-12T22:17:07Z</DateUtc></FrequencyChange></FrequencyChanges></Clock>\n	Hungry_Donkey_bar_English_2-161-1	60.018	-140	1.0.0.18	1	1387488314	Standard	2.0.10.353	2.0.10.353	07-12-2016		18:17:07	2.0.10.248	96	Bar50-50.bmp	47	1	?	0r_4g.bmp	0r_4g.bmp	0r_2g.bmp	0r_2g.bmp	0r_4g.bmp				TrialProc	TrialList	0	cvbn	-999999	17	303742	0	c	364	304106	284	-324	-40	-24	-38	34	-12	6	10	96	0	0	0	0	4	4	2	2	0	4
Hungry_Donkey_bar_English_2	161	1	<?xml version="1.0"?>\n<Clock xmlns:dt="urn:schemas-microsoft-com:datatypes"><Description dt:dt="string">E-Prime Primary Realtime Clock</Description><StartTime><Timestamp dt:dt="int">0</Timestamp><DateUtc dt:dt="string">2016-07-12T22:17:07Z</DateUtc></StartTime><FrequencyChanges><FrequencyChange><Frequency dt:dt="r8">3507705</Frequency><Timestamp dt:dt="r8">366458999881</Timestamp><Current dt:dt="r8">0</Current><DateUtc dt:dt="string">2016-07-12T22:17:07Z</DateUtc></FrequencyChange></FrequencyChanges></Clock>\n	Hungry_Donkey_bar_English_2-161-1	60.018	-140	1.0.0.18	1	1387488314	Standard	2.0.10.353	2.0.10.353	07-12-2016		18:17:07	2.0.10.248	97	Bar50-50.bmp	47	2	?	0r_4g.bmp	0r_4g.bmp	0r_2g.bmp	0r_2g.bmp		0r_4g.bmp			TrialProc	TrialList	0	cvbn	-999999	16	306141	0	v	364	306505	288	-324	-36	-24	-34	34	-12	8	10	97	0	0	0	0	4	4	2	2	0	4
Hungry_Donkey_bar_English_2	161	1	<?xml version="1.0"?>\n<Clock xmlns:dt="urn:schemas-microsoft-com:datatypes"><Description dt:dt="string">E-Prime Primary Realtime Clock</Description><StartTime><Timestamp dt:dt="int">0</Timestamp><DateUtc dt:dt="string">2016-07-12T22:17:07Z</DateUtc></StartTime><FrequencyChanges><FrequencyChange><Frequency dt:dt="r8">3507705</Frequency><Timestamp dt:dt="r8">366458999881</Timestamp><Current dt:dt="r8">0</Current><DateUtc dt:dt="string">2016-07-12T22:17:07Z</DateUtc></FrequencyChange></FrequencyChanges></Clock>\n	Hungry_Donkey_bar_English_2-161-1	60.018	-140	1.0.0.18	1	1387488314	Standard	2.0.10.353	2.0.10.353	07-12-2016		18:17:07	2.0.10.248	98	Bar50-50.bmp	47	3	?	10r_4g.bmp	0r_4g.bmp	2r_2g.bmp	0r_2g.bmp			2r_2g.bmp		TrialProc	TrialList	0	cvbn	-999999	16	308540	0	b	397	308937	290	-326	-36	-24	-34	34	-12	4	10	98	-10	0	-2	0	4	4	2	2	-2	2
Hungry_Donkey_bar_English_2	161	1	<?xml version="1.0"?>\n<Clock xmlns:dt="urn:schemas-microsoft-com:datatypes"><Description dt:dt="string">E-Prime Primary Realtime Clock</Description><StartTime><Timestamp dt:dt="int">0</Timestamp><DateUtc dt:dt="string">2016-07-12T22:17:07Z</DateUtc></StartTime><FrequencyChanges><FrequencyChange><Frequency dt:dt="r8">3507705</Frequency><Timestamp dt:dt="r8">366458999881</Timestamp><Current dt:dt="r8">0</Current><DateUtc dt:dt="string">2016-07-12T22:17:07Z</DateUtc></FrequencyChange></FrequencyChanges></Clock>\n	Hungry_Donkey_bar_English_2-161-1	60.018	-140	1.0.0.18	1	1387488314	Standard	2.0.10.353	2.0.10.353	07-12-2016		18:17:07	2.0.10.248	99	Bar50-50.bmp	47	4	?	0r_4g.bmp	0r_4g.bmp	0r_2g.bmp	0r_2g.bmp				0r_2g.bmp	TrialProc	TrialList	0	cvbn	-999999	16	310973	0	n	1036	312009	292	-326	-34	-24	-34	34	-10	7	10	99	0	0	0	0	4	4	2	2	0	2
Hungry_Donkey_bar_English_2	161	1	<?xml version="1.0"?>\n<Clock xmlns:dt="urn:schemas-microsoft-com:datatypes"><Description dt:dt="string">E-Prime Primary Realtime Clock</Description><StartTime><Timestamp dt:dt="int">0</Timestamp><DateUtc dt:dt="string">2016-07-12T22:17:07Z</DateUtc></StartTime><FrequencyChanges><FrequencyChange><Frequency dt:dt="r8">3507705</Frequency><Timestamp dt:dt="r8">366458999881</Timestamp><Current dt:dt="r8">0</Current><DateUtc dt:dt="string">2016-07-12T22:17:07Z</DateUtc></FrequencyChange></FrequencyChanges></Clock>\n	Hungry_Donkey_bar_English_2-161-1	60.018	-140	1.0.0.18	1	1387488314	Standard	2.0.10.353	2.0.10.353	07-12-2016		18:17:07	2.0.10.248	100	Bar50-50.bmp	47	3	?	10r_4g.bmp	0r_4g.bmp	2r_2g.bmp	0r_2g.bmp			2r_2g.bmp		TrialProc	TrialList	0	cvbn	-999999	16	314038	0	b	563	314601	294	-328	-34	-24	-34	34	-10	3	10	100	-10	0	-2	0	4	4	2	2	-2	2
Hungry_Donkey_bar_English_2	161	1	<?xml version="1.0"?>\n<Clock xmlns:dt="urn:schemas-microsoft-com:datatypes"><Description dt:dt="string">E-Prime Primary Realtime Clock</Description><StartTime><Timestamp dt:dt="int">0</Timestamp><DateUtc dt:dt="string">2016-07-12T22:17:07Z</DateUtc></StartTime><FrequencyChanges><FrequencyChange><Frequency dt:dt="r8">3507705</Frequency><Timestamp dt:dt="r8">366458999881</Timestamp><Current dt:dt="r8">0</Current><DateUtc dt:dt="string">2016-07-12T22:17:07Z</DateUtc></FrequencyChange></FrequencyChanges></Clock>\n	Hungry_Donkey_bar_English_2-161-1	60.018	-140	1.0.0.18	1	1387488314	Standard	2.0.10.353	2.0.10.353	07-12-2016		18:17:07	2.0.10.248	101	Bar50-50.bmp	48	1	?	0r_4g.bmp	0r_4g.bmp	0r_2g.bmp	0r_2g.bmp	0r_4g.bmp				TrialProc	TrialList	0	cvbn	-999999	16	316638	0	c	955	317593	298	-328	-30	-20	-34	34	-10	9	11	101	0	0	0	0	4	4	2	2	0	4
Hungry_Donkey_bar_English_2	161	1	<?xml version="1.0"?>\n<Clock xmlns:dt="urn:schemas-microsoft-com:datatypes"><Description dt:dt="string">E-Prime Primary Realtime Clock</Description><StartTime><Timestamp dt:dt="int">0</Timestamp><DateUtc dt:dt="string">2016-07-12T22:17:07Z</DateUtc></StartTime><FrequencyChanges><FrequencyChange><Frequency dt:dt="r8">3507705</Frequency><Timestamp dt:dt="r8">366458999881</Timestamp><Current dt:dt="r8">0</Current><DateUtc dt:dt="string">2016-07-12T22:17:07Z</DateUtc></FrequencyChange></FrequencyChanges></Clock>\n	Hungry_Donkey_bar_English_2-161-1	60.018	-140	1.0.0.18	1	1387488314	Standard	2.0.10.353	2.0.10.353	07-12-2016		18:17:07	2.0.10.248	102	Bar50-50.bmp	44	2	?	8r_4g.bmp	50r_4g.bmp	1r_2g.bmp	10r_2g.bmp		50r_4g.bmp			TrialProc	TrialList	0	cvbn	-999999	16	319620	0	v	693	320313	302	-378	-76	-20	-80	34	-10	1	11	102	-8	-50	-1	-10	4	4	2	2	-50	4
Hungry_Donkey_bar_English_2	161	1	<?xml version="1.0"?>\n<Clock xmlns:dt="urn:schemas-microsoft-com:datatypes"><Description dt:dt="string">E-Prime Primary Realtime Clock</Description><StartTime><Timestamp dt:dt="int">0</Timestamp><DateUtc dt:dt="string">2016-07-12T22:17:07Z</DateUtc></StartTime><FrequencyChanges><FrequencyChange><Frequency dt:dt="r8">3507705</Frequency><Timestamp dt:dt="r8">366458999881</Timestamp><Current dt:dt="r8">0</Current><DateUtc dt:dt="string">2016-07-12T22:17:07Z</DateUtc></FrequencyChange></FrequencyChanges></Clock>\n	Hungry_Donkey_bar_English_2-161-1	60.018	-140	1.0.0.18	1	1387488314	Standard	2.0.10.353	2.0.10.353	07-12-2016		18:17:07	2.0.10.248	103	Bar50-50.bmp	45	3	?	0r_4g.bmp	0r_4g.bmp	0r_2g.bmp	0r_2g.bmp			0r_2g.bmp		TrialProc	TrialList	0	cvbn	-999999	16	322353	0	b	1063	323416	304	-378	-74	-20	-80	36	-10	6	11	103	0	0	0	0	4	4	2	2	0	2
Hungry_Donkey_bar_English_2	161	1	<?xml version="1.0"?>\n<Clock xmlns:dt="urn:schemas-microsoft-com:datatypes"><Description dt:dt="string">E-Prime Primary Realtime Clock</Description><StartTime><Timestamp dt:dt="int">0</Timestamp><DateUtc dt:dt="string">2016-07-12T22:17:07Z</DateUtc></StartTime><FrequencyChanges><FrequencyChange><Frequency dt:dt="r8">3507705</Frequency><Timestamp dt:dt="r8">366458999881</Timestamp><Current dt:dt="r8">0</Current><DateUtc dt:dt="string">2016-07-12T22:17:07Z</DateUtc></FrequencyChange></FrequencyChanges></Clock>\n	Hungry_Donkey_bar_English_2-161-1	60.018	-140	1.0.0.18	1	1387488314	Standard	2.0.10.353	2.0.10.353	07-12-2016		18:17:07	2.0.10.248	104	Bar50-50.bmp	45	2	?	10r_4g.bmp	0r_4g.bmp	2r_2g.bmp	0r_2g.bmp		0r_4g.bmp			TrialProc	TrialList	0	cvbn	-999999	16	325452	0	v	1196	326648	308	-378	-70	-20	-76	36	-10	4	11	104	-10	0	-2	0	4	4	2	2	0	4
Hungry_Donkey_bar_English_2	161	1	<?xml version="1.0"?>\n<Clock xmlns:dt="urn:schemas-microsoft-com:datatypes"><Description dt:dt="string">E-Prime Primary Realtime Clock</Description><StartTime><Timestamp dt:dt="int">0</Timestamp><DateUtc dt:dt="string">2016-07-12T22:17:07Z</DateUtc></StartTime><FrequencyChanges><FrequencyChange><Frequency dt:dt="r8">3507705</Frequency><Timestamp dt:dt="r8">366458999881</Timestamp><Current dt:dt="r8">0</Current><DateUtc dt:dt="string">2016-07-12T22:17:07Z</DateUtc></FrequencyChange></FrequencyChanges></Clock>\n	Hungry_Donkey_bar_English_2-161-1	60.018	-140	1.0.0.18	1	1387488314	Standard	2.0.10.353	2.0.10.353	07-12-2016		18:17:07	2.0.10.248	105	Bar50-50.bmp	45	4	?	0r_4g.bmp	0r_4g.bmp	0r_2g.bmp	0r_2g.bmp				0r_2g.bmp	TrialProc	TrialList	0	cvbn	-999999	16	328684	0	n	7356	336040	310	-378	-68	-20	-76	36	-8	8	11	105	0	0	0	0	4	4	2	2	0	2
Hungry_Donkey_bar_English_2	161	1	<?xml version="1.0"?>\n<Clock xmlns:dt="urn:schemas-microsoft-com:datatypes"><Description dt:dt="string">E-Prime Primary Realtime Clock</Description><StartTime><Timestamp dt:dt="int">0</Timestamp><DateUtc dt:dt="string">2016-07-12T22:17:07Z</DateUtc></StartTime><FrequencyChanges><FrequencyChange><Frequency dt:dt="r8">3507705</Frequency><Timestamp dt:dt="r8">366458999881</Timestamp><Current dt:dt="r8">0</Current><DateUtc dt:dt="string">2016-07-12T22:17:07Z</DateUtc></FrequencyChange></FrequencyChanges></Clock>\n	Hungry_Donkey_bar_English_2-161-1	60.018	-140	1.0.0.18	1	1387488314	Standard	2.0.10.353	2.0.10.353	07-12-2016		18:17:07	2.0.10.248	106	Bar50-50.bmp	45	2	?	10r_4g.bmp	0r_4g.bmp	2r_2g.bmp	0r_2g.bmp		0r_4g.bmp			TrialProc	TrialList	0	cvbn	-999999	16	338065	0	v	1751	339816	314	-378	-64	-20	-72	36	-8	2	11	106	-10	0	-2	0	4	4	2	2	0	4
Hungry_Donkey_bar_English_2	161	1	<?xml version="1.0"?>\n<Clock xmlns:dt="urn:schemas-microsoft-com:datatypes"><Description dt:dt="string">E-Prime Primary Realtime Clock</Description><StartTime><Timestamp dt:dt="int">0</Timestamp><DateUtc dt:dt="string">2016-07-12T22:17:07Z</DateUtc></StartTime><FrequencyChanges><FrequencyChange><Frequency dt:dt="r8">3507705</Frequency><Timestamp dt:dt="r8">366458999881</Timestamp><Current dt:dt="r8">0</Current><DateUtc dt:dt="string">2016-07-12T22:17:07Z</DateUtc></FrequencyChange></FrequencyChanges></Clock>\n	Hungry_Donkey_bar_English_2-161-1	60.018	-140	1.0.0.18	1	1387488314	Standard	2.0.10.353	2.0.10.353	07-12-2016		18:17:07	2.0.10.248	107	Bar50-50.bmp	46	3	?	0r_4g.bmp	0r_4g.bmp	0r_2g.bmp	0r_2g.bmp			0r_2g.bmp		TrialProc	TrialList	0	cvbn	-999999	16	341847	0	b	960	342807	316	-378	-62	-20	-72	38	-8	7	11	107	0	0	0	0	4	4	2	2	0	2
Hungry_Donkey_bar_English_2	161	1	<?xml version="1.0"?>\n<Clock xmlns:dt="urn:schemas-microsoft-com:datatypes"><Description dt:dt="string">E-Prime Primary Realtime Clock</Description><StartTime><Timestamp dt:dt="int">0</Timestamp><DateUtc dt:dt="string">2016-07-12T22:17:07Z</DateUtc></StartTime><FrequencyChanges><FrequencyChange><Frequency dt:dt="r8">3507705</Frequency><Timestamp dt:dt="r8">366458999881</Timestamp><Current dt:dt="r8">0</Current><DateUtc dt:dt="string">2016-07-12T22:17:07Z</DateUtc></FrequencyChange></FrequencyChanges></Clock>\n	Hungry_Donkey_bar_English_2-161-1	60.018	-140	1.0.0.18	1	1387488314	Standard	2.0.10.353	2.0.10.353	07-12-2016		18:17:07	2.0.10.248	108	Bar50-50.bmp	45	1	?	10r_4g.bmp	0r_4g.bmp	2r_2g.bmp	0r_2g.bmp	10r_4g.bmp				TrialProc	TrialList	0	cvbn	-999999	16	344846	0	c	441	345287	320	-388	-68	-26	-72	38	-8	3	11	108	-10	0	-2	0	4	4	2	2	-10	4
Hungry_Donkey_bar_English_2	161	1	<?xml version="1.0"?>\n<Clock xmlns:dt="urn:schemas-microsoft-com:datatypes"><Description dt:dt="string">E-Prime Primary Realtime Clock</Description><StartTime><Timestamp dt:dt="int">0</Timestamp><DateUtc dt:dt="string">2016-07-12T22:17:07Z</DateUtc></StartTime><FrequencyChanges><FrequencyChange><Frequency dt:dt="r8">3507705</Frequency><Timestamp dt:dt="r8">366458999881</Timestamp><Current dt:dt="r8">0</Current><DateUtc dt:dt="string">2016-07-12T22:17:07Z</DateUtc></FrequencyChange></FrequencyChanges></Clock>\n	Hungry_Donkey_bar_English_2-161-1	60.018	-140	1.0.0.18	1	1387488314	Standard	2.0.10.353	2.0.10.353	07-12-2016		18:17:07	2.0.10.248	109	Bar50-50.bmp	45	3	?	0r_4g.bmp	0r_4g.bmp	0r_2g.bmp	0r_2g.bmp			0r_2g.bmp		TrialProc	TrialList	0	cvbn	-999999	16	347312	0	b	1271	348583	322	-388	-66	-26	-72	40	-8	10	11	109	0	0	0	0	4	4	2	2	0	2
Hungry_Donkey_bar_English_2	161	1	<?xml version="1.0"?>\n<Clock xmlns:dt="urn:schemas-microsoft-com:datatypes"><Description dt:dt="string">E-Prime Primary Realtime Clock</Description><StartTime><Timestamp dt:dt="int">0</Timestamp><DateUtc dt:dt="string">2016-07-12T22:17:07Z</DateUtc></StartTime><FrequencyChanges><FrequencyChange><Frequency dt:dt="r8">3507705</Frequency><Timestamp dt:dt="r8">366458999881</Timestamp><Current dt:dt="r8">0</Current><DateUtc dt:dt="string">2016-07-12T22:17:07Z</DateUtc></FrequencyChange></FrequencyChanges></Clock>\n	Hungry_Donkey_bar_English_2-161-1	60.018	-140	1.0.0.18	1	1387488314	Standard	2.0.10.353	2.0.10.353	07-12-2016		18:17:07	2.0.10.248	110	Bar50-50.bmp	46	2	?	12r_4g.bmp	0r_4g.bmp	3r_2g.bmp	0r_2g.bmp		0r_4g.bmp			TrialProc	TrialList	0	cvbn	-999999	16	350611	0	v	644	351255	326	-388	-62	-26	-68	40	-8	5	11	110	-12	0	-3	0	4	4	2	2	0	4
Hungry_Donkey_bar_English_2	161	1	<?xml version="1.0"?>\n<Clock xmlns:dt="urn:schemas-microsoft-com:datatypes"><Description dt:dt="string">E-Prime Primary Realtime Clock</Description><StartTime><Timestamp dt:dt="int">0</Timestamp><DateUtc dt:dt="string">2016-07-12T22:17:07Z</DateUtc></StartTime><FrequencyChanges><FrequencyChange><Frequency dt:dt="r8">3507705</Frequency><Timestamp dt:dt="r8">366458999881</Timestamp><Current dt:dt="r8">0</Current><DateUtc dt:dt="string">2016-07-12T22:17:07Z</DateUtc></FrequencyChange></FrequencyChanges></Clock>\n	Hungry_Donkey_bar_English_2-161-1	60.018	-140	1.0.0.18	1	1387488314	Standard	2.0.10.353	2.0.10.353	07-12-2016		18:17:07	2.0.10.248	111	Bar50-50.bmp	46	4	?	0r_4g.bmp	0r_4g.bmp	0r_2g.bmp	0r_2g.bmp				0r_2g.bmp	TrialProc	TrialList	0	cvbn	-999999	16	353294	0	n	473	353767	328	-388	-60	-26	-68	40	-6	9	12	111	0	0	0	0	4	4	2	2	0	2
Hungry_Donkey_bar_English_2	161	1	<?xml version="1.0"?>\n<Clock xmlns:dt="urn:schemas-microsoft-com:datatypes"><Description dt:dt="string">E-Prime Primary Realtime Clock</Description><StartTime><Timestamp dt:dt="int">0</Timestamp><DateUtc dt:dt="string">2016-07-12T22:17:07Z</DateUtc></StartTime><FrequencyChanges><FrequencyChange><Frequency dt:dt="r8">3507705</Frequency><Timestamp dt:dt="r8">366458999881</Timestamp><Current dt:dt="r8">0</Current><DateUtc dt:dt="string">2016-07-12T22:17:07Z</DateUtc></FrequencyChange></FrequencyChanges></Clock>\n	Hungry_Donkey_bar_English_2-161-1	60.018	-140	1.0.0.18	1	1387488314	Standard	2.0.10.353	2.0.10.353	07-12-2016		18:17:07	2.0.10.248	112	Bar50-50.bmp	46	4	?	0r_4g.bmp	0r_4g.bmp	0r_2g.bmp	0r_2g.bmp				0r_2g.bmp	TrialProc	TrialList	0	cvbn	-999999	16	355793	0	n	454	356247	330	-388	-58	-26	-68	40	-4	7	12	112	0	0	0	0	4	4	2	2	0	2
Hungry_Donkey_bar_English_2	161	1	<?xml version="1.0"?>\n<Clock xmlns:dt="urn:schemas-microsoft-com:datatypes"><Description dt:dt="string">E-Prime Primary Realtime Clock</Description><StartTime><Timestamp dt:dt="int">0</Timestamp><DateUtc dt:dt="string">2016-07-12T22:17:07Z</DateUtc></StartTime><FrequencyChanges><FrequencyChange><Frequency dt:dt="r8">3507705</Frequency><Timestamp dt:dt="r8">366458999881</Timestamp><Current dt:dt="r8">0</Current><DateUtc dt:dt="string">2016-07-12T22:17:07Z</DateUtc></FrequencyChange></FrequencyChanges></Clock>\n	Hungry_Donkey_bar_English_2-161-1	60.018	-140	1.0.0.18	1	1387488314	Standard	2.0.10.353	2.0.10.353	07-12-2016		18:17:07	2.0.10.248	113	Bar37-63.bmp	43	2	?	8r_4g.bmp	50r_4g.bmp	1r_2g.bmp	10r_2g.bmp		50r_4g.bmp			TrialProc	TrialList	0	cvbn	-999999	16	358275	0	v	467	358742	334	-438	-104	-26	-114	40	-4	1	12	113	-8	-50	-1	-10	4	4	2	2	-50	4
