ExperimentName	Subject	Session	Clock.Information	DataFile.Basename	Display.RefreshRate	Eindtotaal[Session]	ExperimentVersion	Group	RandomSeed	RuntimeCapabilities	RuntimeVersion	RuntimeVersionExpected	SessionDate	SessionStartDateTimeUtc	SessionTime	StudioVersion	Block	BarImage	BarTotalWinst	DoorChoice	Eindtotaal[Block]	FBDoor1	FBDoor2	FBDoor3	FBDoor4	Image1	Image2	Image3	Image4	Procedure	Running	spel.ACC	spel.CRESP	spel.DurationError	spel.OnsetDelay	spel.OnsetTime	spel.OnsetToOnsetTime	spel.RESP	spel.RT	spel.RTTime	TotalGain	TotalLose	Totalsum	TotalsumD1	TotalsumD2	TotalsumD3	TotalsumD4	TrialList	TrialList.Cycle	TrialList.Sample	varV1	varV2	varV3	varV4	varW1	varW2	varW3	varW4	Verliesbedrag	Winstbedrag
Hungry_Donkey_bar_English_2	143	1	<?xml version="1.0"?>\n<Clock xmlns:dt="urn:schemas-microsoft-com:datatypes"><Description dt:dt="string">E-Prime Primary Realtime Clock</Description><StartTime><Timestamp dt:dt="int">0</Timestamp><DateUtc dt:dt="string">2016-04-20T22:08:25Z</DateUtc></StartTime><FrequencyChanges><FrequencyChange><Frequency dt:dt="r8">3507714</Frequency><Timestamp dt:dt="r8">314443561</Timestamp><Current dt:dt="r8">0</Current><DateUtc dt:dt="string">2016-04-20T22:08:25Z</DateUtc></FrequencyChange></FrequencyChanges></Clock>\n	Hungry_Donkey_bar_English_2-143-1	60.018	153	1.0.0.18	1	315126908	Standard	2.0.10.353	2.0.10.353	04-20-2016		18:08:25	2.0.10.248	1	Bar25-75.bmp	25	1	?	12r_4g.bmp	0r_4g.bmp	3r_2g.bmp	0r_2g.bmp	12r_4g.bmp				TrialProc	TrialList	0	cvbn	-999999	17	127263	0	c	6239	133502	4	-12	-8	-8	0	0	0	5	1	1	-12	0	-3	0	4	4	2	2	-12	4
Hungry_Donkey_bar_English_2	143	1	<?xml version="1.0"?>\n<Clock xmlns:dt="urn:schemas-microsoft-com:datatypes"><Description dt:dt="string">E-Prime Primary Realtime Clock</Description><StartTime><Timestamp dt:dt="int">0</Timestamp><DateUtc dt:dt="string">2016-04-20T22:08:25Z</DateUtc></StartTime><FrequencyChanges><FrequencyChange><Frequency dt:dt="r8">3507714</Frequency><Timestamp dt:dt="r8">314443561</Timestamp><Current dt:dt="r8">0</Current><DateUtc dt:dt="string">2016-04-20T22:08:25Z</DateUtc></FrequencyChange></FrequencyChanges></Clock>\n	Hungry_Donkey_bar_English_2-143-1	60.018	153	1.0.0.18	1	315126908	Standard	2.0.10.353	2.0.10.353	04-20-2016		18:08:25	2.0.10.248	2	Bar37-63.bmp	40	2	?	10r_4g.bmp	0r_4g.bmp	2r_2g.bmp	0r_2g.bmp		0r_4g.bmp			TrialProc	TrialList	0	cvbn	-999999	16	135544	0	v	3013	138557	8	-12	-4	-8	4	0	0	4	1	2	-10	0	-2	0	4	4	2	2	0	4
Hungry_Donkey_bar_English_2	143	1	<?xml version="1.0"?>\n<Clock xmlns:dt="urn:schemas-microsoft-com:datatypes"><Description dt:dt="string">E-Prime Primary Realtime Clock</Description><StartTime><Timestamp dt:dt="int">0</Timestamp><DateUtc dt:dt="string">2016-04-20T22:08:25Z</DateUtc></StartTime><FrequencyChanges><FrequencyChange><Frequency dt:dt="r8">3507714</Frequency><Timestamp dt:dt="r8">314443561</Timestamp><Current dt:dt="r8">0</Current><DateUtc dt:dt="string">2016-04-20T22:08:25Z</DateUtc></FrequencyChange></FrequencyChanges></Clock>\n	Hungry_Donkey_bar_English_2-143-1	60.018	153	1.0.0.18	1	315126908	Standard	2.0.10.353	2.0.10.353	04-20-2016		18:08:25	2.0.10.248	3	Bar50-50.bmp	45	4	?	0r_4g.bmp	0r_4g.bmp	0r_2g.bmp	0r_2g.bmp				0r_2g.bmp	TrialProc	TrialList	0	cvbn	-999999	16	140592	0	n	2477	143069	10	-12	-2	-8	4	0	2	8	1	3	0	0	0	0	4	4	2	2	0	2
Hungry_Donkey_bar_English_2	143	1	<?xml version="1.0"?>\n<Clock xmlns:dt="urn:schemas-microsoft-com:datatypes"><Description dt:dt="string">E-Prime Primary Realtime Clock</Description><StartTime><Timestamp dt:dt="int">0</Timestamp><DateUtc dt:dt="string">2016-04-20T22:08:25Z</DateUtc></StartTime><FrequencyChanges><FrequencyChange><Frequency dt:dt="r8">3507714</Frequency><Timestamp dt:dt="r8">314443561</Timestamp><Current dt:dt="r8">0</Current><DateUtc dt:dt="string">2016-04-20T22:08:25Z</DateUtc></FrequencyChange></FrequencyChanges></Clock>\n	Hungry_Donkey_bar_English_2-143-1	60.018	153	1.0.0.18	1	315126908	Standard	2.0.10.353	2.0.10.353	04-20-2016		18:08:25	2.0.10.248	4	Bar50-50.bmp	48	3	?	8r_4g.bmp	50r_4g.bmp	1r_2g.bmp	10r_2g.bmp			1r_2g.bmp		TrialProc	TrialList	0	cvbn	-999999	16	145107	0	b	1962	147069	12	-13	-1	-8	4	1	2	1	1	4	-8	-50	-1	-10	4	4	2	2	-1	2
Hungry_Donkey_bar_English_2	143	1	<?xml version="1.0"?>\n<Clock xmlns:dt="urn:schemas-microsoft-com:datatypes"><Description dt:dt="string">E-Prime Primary Realtime Clock</Description><StartTime><Timestamp dt:dt="int">0</Timestamp><DateUtc dt:dt="string">2016-04-20T22:08:25Z</DateUtc></StartTime><FrequencyChanges><FrequencyChange><Frequency dt:dt="r8">3507714</Frequency><Timestamp dt:dt="r8">314443561</Timestamp><Current dt:dt="r8">0</Current><DateUtc dt:dt="string">2016-04-20T22:08:25Z</DateUtc></FrequencyChange></FrequencyChanges></Clock>\n	Hungry_Donkey_bar_English_2-143-1	60.018	153	1.0.0.18	1	315126908	Standard	2.0.10.353	2.0.10.353	04-20-2016		18:08:25	2.0.10.248	5	Bar50-50.bmp	55	1	?	0r_4g.bmp	0r_4g.bmp	0r_2g.bmp	0r_2g.bmp	0r_4g.bmp				TrialProc	TrialList	0	cvbn	-999999	16	149106	0	c	1947	151053	16	-13	3	-4	4	1	2	7	1	5	0	0	0	0	4	4	2	2	0	4
Hungry_Donkey_bar_English_2	143	1	<?xml version="1.0"?>\n<Clock xmlns:dt="urn:schemas-microsoft-com:datatypes"><Description dt:dt="string">E-Prime Primary Realtime Clock</Description><StartTime><Timestamp dt:dt="int">0</Timestamp><DateUtc dt:dt="string">2016-04-20T22:08:25Z</DateUtc></StartTime><FrequencyChanges><FrequencyChange><Frequency dt:dt="r8">3507714</Frequency><Timestamp dt:dt="r8">314443561</Timestamp><Current dt:dt="r8">0</Current><DateUtc dt:dt="string">2016-04-20T22:08:25Z</DateUtc></FrequencyChange></FrequencyChanges></Clock>\n	Hungry_Donkey_bar_English_2-143-1	60.018	153	1.0.0.18	1	315126908	Standard	2.0.10.353	2.0.10.353	04-20-2016		18:08:25	2.0.10.248	6	Bar63-37.bmp	61	2	?	0r_4g.bmp	0r_4g.bmp	0r_2g.bmp	0r_2g.bmp		0r_4g.bmp			TrialProc	TrialList	0	cvbn	-999999	16	153088	0	v	988	154076	20	-13	7	-4	8	1	2	9	1	6	0	0	0	0	4	4	2	2	0	4
Hungry_Donkey_bar_English_2	143	1	<?xml version="1.0"?>\n<Clock xmlns:dt="urn:schemas-microsoft-com:datatypes"><Description dt:dt="string">E-Prime Primary Realtime Clock</Description><StartTime><Timestamp dt:dt="int">0</Timestamp><DateUtc dt:dt="string">2016-04-20T22:08:25Z</DateUtc></StartTime><FrequencyChanges><FrequencyChange><Frequency dt:dt="r8">3507714</Frequency><Timestamp dt:dt="r8">314443561</Timestamp><Current dt:dt="r8">0</Current><DateUtc dt:dt="string">2016-04-20T22:08:25Z</DateUtc></FrequencyChange></FrequencyChanges></Clock>\n	Hungry_Donkey_bar_English_2-143-1	60.018	153	1.0.0.18	1	315126908	Standard	2.0.10.353	2.0.10.353	04-20-2016		18:08:25	2.0.10.248	7	Bar63-37.bmp	59	3	?	10r_4g.bmp	0r_4g.bmp	2r_2g.bmp	0r_2g.bmp			2r_2g.bmp		TrialProc	TrialList	0	cvbn	-999999	16	156104	0	b	628	156732	22	-15	7	-4	8	1	2	3	1	7	-10	0	-2	0	4	4	2	2	-2	2
Hungry_Donkey_bar_English_2	143	1	<?xml version="1.0"?>\n<Clock xmlns:dt="urn:schemas-microsoft-com:datatypes"><Description dt:dt="string">E-Prime Primary Realtime Clock</Description><StartTime><Timestamp dt:dt="int">0</Timestamp><DateUtc dt:dt="string">2016-04-20T22:08:25Z</DateUtc></StartTime><FrequencyChanges><FrequencyChange><Frequency dt:dt="r8">3507714</Frequency><Timestamp dt:dt="r8">314443561</Timestamp><Current dt:dt="r8">0</Current><DateUtc dt:dt="string">2016-04-20T22:08:25Z</DateUtc></FrequencyChange></FrequencyChanges></Clock>\n	Hungry_Donkey_bar_English_2-143-1	60.018	153	1.0.0.18	1	315126908	Standard	2.0.10.353	2.0.10.353	04-20-2016		18:08:25	2.0.10.248	8	Bar63-37.bmp	62	4	?	10r_4g.bmp	0r_4g.bmp	2r_2g.bmp	0r_2g.bmp				0r_2g.bmp	TrialProc	TrialList	0	cvbn	-999999	16	158770	0	n	554	159324	24	-15	9	-4	8	1	4	2	1	8	-10	0	-2	0	4	4	2	2	0	2
Hungry_Donkey_bar_English_2	143	1	<?xml version="1.0"?>\n<Clock xmlns:dt="urn:schemas-microsoft-com:datatypes"><Description dt:dt="string">E-Prime Primary Realtime Clock</Description><StartTime><Timestamp dt:dt="int">0</Timestamp><DateUtc dt:dt="string">2016-04-20T22:08:25Z</DateUtc></StartTime><FrequencyChanges><FrequencyChange><Frequency dt:dt="r8">3507714</Frequency><Timestamp dt:dt="r8">314443561</Timestamp><Current dt:dt="r8">0</Current><DateUtc dt:dt="string">2016-04-20T22:08:25Z</DateUtc></FrequencyChange></FrequencyChanges></Clock>\n	Hungry_Donkey_bar_English_2-143-1	60.018	153	1.0.0.18	1	315126908	Standard	2.0.10.353	2.0.10.353	04-20-2016		18:08:25	2.0.10.248	9	Bar63-37.bmp	65	2	?	0r_4g.bmp	0r_4g.bmp	0r_2g.bmp	0r_2g.bmp		0r_4g.bmp			TrialProc	TrialList	0	cvbn	-999999	16	161353	0	v	627	161980	28	-15	13	-4	12	1	4	6	1	9	0	0	0	0	4	4	2	2	0	4
Hungry_Donkey_bar_English_2	143	1	<?xml version="1.0"?>\n<Clock xmlns:dt="urn:schemas-microsoft-com:datatypes"><Description dt:dt="string">E-Prime Primary Realtime Clock</Description><StartTime><Timestamp dt:dt="int">0</Timestamp><DateUtc dt:dt="string">2016-04-20T22:08:25Z</DateUtc></StartTime><FrequencyChanges><FrequencyChange><Frequency dt:dt="r8">3507714</Frequency><Timestamp dt:dt="r8">314443561</Timestamp><Current dt:dt="r8">0</Current><DateUtc dt:dt="string">2016-04-20T22:08:25Z</DateUtc></FrequencyChange></FrequencyChanges></Clock>\n	Hungry_Donkey_bar_English_2-143-1	60.018	153	1.0.0.18	1	315126908	Standard	2.0.10.353	2.0.10.353	04-20-2016		18:08:25	2.0.10.248	10	Bar63-37.bmp	68	1	?	0r_4g.bmp	0r_4g.bmp	0r_2g.bmp	0r_2g.bmp	0r_4g.bmp				TrialProc	TrialList	0	cvbn	-999999	16	164018	0	c	506	164524	32	-15	17	0	12	1	4	10	1	10	0	0	0	0	4	4	2	2	0	4
Hungry_Donkey_bar_English_2	143	1	<?xml version="1.0"?>\n<Clock xmlns:dt="urn:schemas-microsoft-com:datatypes"><Description dt:dt="string">E-Prime Primary Realtime Clock</Description><StartTime><Timestamp dt:dt="int">0</Timestamp><DateUtc dt:dt="string">2016-04-20T22:08:25Z</DateUtc></StartTime><FrequencyChanges><FrequencyChange><Frequency dt:dt="r8">3507714</Frequency><Timestamp dt:dt="r8">314443561</Timestamp><Current dt:dt="r8">0</Current><DateUtc dt:dt="string">2016-04-20T22:08:25Z</DateUtc></FrequencyChange></FrequencyChanges></Clock>\n	Hungry_Donkey_bar_English_2-143-1	60.018	153	1.0.0.18	1	315126908	Standard	2.0.10.353	2.0.10.353	04-20-2016		18:08:25	2.0.10.248	11	Bar63-37.bmp	67	3	?	10r_4g.bmp	0r_4g.bmp	2r_2g.bmp	0r_2g.bmp			2r_2g.bmp		TrialProc	TrialList	0	cvbn	-999999	15	166551	0	b	485	167036	34	-17	17	0	12	1	4	2	2	11	-10	0	-2	0	4	4	2	2	-2	2
Hungry_Donkey_bar_English_2	143	1	<?xml version="1.0"?>\n<Clock xmlns:dt="urn:schemas-microsoft-com:datatypes"><Description dt:dt="string">E-Prime Primary Realtime Clock</Description><StartTime><Timestamp dt:dt="int">0</Timestamp><DateUtc dt:dt="string">2016-04-20T22:08:25Z</DateUtc></StartTime><FrequencyChanges><FrequencyChange><Frequency dt:dt="r8">3507714</Frequency><Timestamp dt:dt="r8">314443561</Timestamp><Current dt:dt="r8">0</Current><DateUtc dt:dt="string">2016-04-20T22:08:25Z</DateUtc></FrequencyChange></FrequencyChanges></Clock>\n	Hungry_Donkey_bar_English_2-143-1	60.018	153	1.0.0.18	1	315126908	Standard	2.0.10.353	2.0.10.353	04-20-2016		18:08:25	2.0.10.248	12	Bar63-37.bmp	68	4	?	0r_4g.bmp	0r_4g.bmp	0r_2g.bmp	0r_2g.bmp				0r_2g.bmp	TrialProc	TrialList	0	cvbn	-999999	16	169067	0	n	1152	170219	36	-17	19	0	12	1	6	8	2	12	0	0	0	0	4	4	2	2	0	2
Hungry_Donkey_bar_English_2	143	1	<?xml version="1.0"?>\n<Clock xmlns:dt="urn:schemas-microsoft-com:datatypes"><Description dt:dt="string">E-Prime Primary Realtime Clock</Description><StartTime><Timestamp dt:dt="int">0</Timestamp><DateUtc dt:dt="string">2016-04-20T22:08:25Z</DateUtc></StartTime><FrequencyChanges><FrequencyChange><Frequency dt:dt="r8">3507714</Frequency><Timestamp dt:dt="r8">314443561</Timestamp><Current dt:dt="r8">0</Current><DateUtc dt:dt="string">2016-04-20T22:08:25Z</DateUtc></FrequencyChange></FrequencyChanges></Clock>\n	Hungry_Donkey_bar_English_2-143-1	60.018	153	1.0.0.18	1	315126908	Standard	2.0.10.353	2.0.10.353	04-20-2016		18:08:25	2.0.10.248	13	Bar75-25.bmp	70	2	?	0r_4g.bmp	0r_4g.bmp	0r_2g.bmp	0r_2g.bmp		0r_4g.bmp			TrialProc	TrialList	0	cvbn	-999999	16	172249	0	v	722	172971	40	-17	23	0	16	1	6	6	2	13	0	0	0	0	4	4	2	2	0	4
Hungry_Donkey_bar_English_2	143	1	<?xml version="1.0"?>\n<Clock xmlns:dt="urn:schemas-microsoft-com:datatypes"><Description dt:dt="string">E-Prime Primary Realtime Clock</Description><StartTime><Timestamp dt:dt="int">0</Timestamp><DateUtc dt:dt="string">2016-04-20T22:08:25Z</DateUtc></StartTime><FrequencyChanges><FrequencyChange><Frequency dt:dt="r8">3507714</Frequency><Timestamp dt:dt="r8">314443561</Timestamp><Current dt:dt="r8">0</Current><DateUtc dt:dt="string">2016-04-20T22:08:25Z</DateUtc></FrequencyChange></FrequencyChanges></Clock>\n	Hungry_Donkey_bar_English_2-143-1	60.018	153	1.0.0.18	1	315126908	Standard	2.0.10.353	2.0.10.353	04-20-2016		18:08:25	2.0.10.248	14	Bar63-37.bmp	64	1	?	8r_4g.bmp	50r_4g.bmp	1r_2g.bmp	10r_2g.bmp	8r_4g.bmp				TrialProc	TrialList	0	cvbn	-999999	17	174999	0	c	500	175499	44	-25	19	-4	16	1	6	1	2	14	-8	-50	-1	-10	4	4	2	2	-8	4
Hungry_Donkey_bar_English_2	143	1	<?xml version="1.0"?>\n<Clock xmlns:dt="urn:schemas-microsoft-com:datatypes"><Description dt:dt="string">E-Prime Primary Realtime Clock</Description><StartTime><Timestamp dt:dt="int">0</Timestamp><DateUtc dt:dt="string">2016-04-20T22:08:25Z</DateUtc></StartTime><FrequencyChanges><FrequencyChange><Frequency dt:dt="r8">3507714</Frequency><Timestamp dt:dt="r8">314443561</Timestamp><Current dt:dt="r8">0</Current><DateUtc dt:dt="string">2016-04-20T22:08:25Z</DateUtc></FrequencyChange></FrequencyChanges></Clock>\n	Hungry_Donkey_bar_English_2-143-1	60.018	153	1.0.0.18	1	315126908	Standard	2.0.10.353	2.0.10.353	04-20-2016		18:08:25	2.0.10.248	15	Bar63-37.bmp	63	3	?	10r_4g.bmp	0r_4g.bmp	2r_2g.bmp	0r_2g.bmp			2r_2g.bmp		TrialProc	TrialList	0	cvbn	-999999	16	177531	0	b	1264	178795	46	-27	19	-4	16	1	6	3	2	15	-10	0	-2	0	4	4	2	2	-2	2
Hungry_Donkey_bar_English_2	143	1	<?xml version="1.0"?>\n<Clock xmlns:dt="urn:schemas-microsoft-com:datatypes"><Description dt:dt="string">E-Prime Primary Realtime Clock</Description><StartTime><Timestamp dt:dt="int">0</Timestamp><DateUtc dt:dt="string">2016-04-20T22:08:25Z</DateUtc></StartTime><FrequencyChanges><FrequencyChange><Frequency dt:dt="r8">3507714</Frequency><Timestamp dt:dt="r8">314443561</Timestamp><Current dt:dt="r8">0</Current><DateUtc dt:dt="string">2016-04-20T22:08:25Z</DateUtc></FrequencyChange></FrequencyChanges></Clock>\n	Hungry_Donkey_bar_English_2-143-1	60.018	153	1.0.0.18	1	315126908	Standard	2.0.10.353	2.0.10.353	04-20-2016		18:08:25	2.0.10.248	16	Bar63-37.bmp	65	2	?	0r_4g.bmp	0r_4g.bmp	0r_2g.bmp	0r_2g.bmp		0r_4g.bmp			TrialProc	TrialList	0	cvbn	-999999	16	180830	0	v	1357	182187	50	-27	23	-4	20	1	6	10	2	16	0	0	0	0	4	4	2	2	0	4
Hungry_Donkey_bar_English_2	143	1	<?xml version="1.0"?>\n<Clock xmlns:dt="urn:schemas-microsoft-com:datatypes"><Description dt:dt="string">E-Prime Primary Realtime Clock</Description><StartTime><Timestamp dt:dt="int">0</Timestamp><DateUtc dt:dt="string">2016-04-20T22:08:25Z</DateUtc></StartTime><FrequencyChanges><FrequencyChange><Frequency dt:dt="r8">3507714</Frequency><Timestamp dt:dt="r8">314443561</Timestamp><Current dt:dt="r8">0</Current><DateUtc dt:dt="string">2016-04-20T22:08:25Z</DateUtc></FrequencyChange></FrequencyChanges></Clock>\n	Hungry_Donkey_bar_English_2-143-1	60.018	153	1.0.0.18	1	315126908	Standard	2.0.10.353	2.0.10.353	04-20-2016		18:08:25	2.0.10.248	17	Bar63-37.bmp	66	3	?	0r_4g.bmp	0r_4g.bmp	0r_2g.bmp	0r_2g.bmp			0r_2g.bmp		TrialProc	TrialList	0	cvbn	-999999	16	184212	0	b	2118	186330	52	-27	25	-4	20	3	6	7	2	17	0	0	0	0	4	4	2	2	0	2
Hungry_Donkey_bar_English_2	143	1	<?xml version="1.0"?>\n<Clock xmlns:dt="urn:schemas-microsoft-com:datatypes"><Description dt:dt="string">E-Prime Primary Realtime Clock</Description><StartTime><Timestamp dt:dt="int">0</Timestamp><DateUtc dt:dt="string">2016-04-20T22:08:25Z</DateUtc></StartTime><FrequencyChanges><FrequencyChange><Frequency dt:dt="r8">3507714</Frequency><Timestamp dt:dt="r8">314443561</Timestamp><Current dt:dt="r8">0</Current><DateUtc dt:dt="string">2016-04-20T22:08:25Z</DateUtc></FrequencyChange></FrequencyChanges></Clock>\n	Hungry_Donkey_bar_English_2-143-1	60.018	153	1.0.0.18	1	315126908	Standard	2.0.10.353	2.0.10.353	04-20-2016		18:08:25	2.0.10.248	18	Bar63-37.bmp	67	4	?	10r_4g.bmp	0r_4g.bmp	2r_2g.bmp	0r_2g.bmp				0r_2g.bmp	TrialProc	TrialList	0	cvbn	-999999	16	188361	0	n	1329	189690	54	-27	27	-4	20	3	8	4	2	18	-10	0	-2	0	4	4	2	2	0	2
Hungry_Donkey_bar_English_2	143	1	<?xml version="1.0"?>\n<Clock xmlns:dt="urn:schemas-microsoft-com:datatypes"><Description dt:dt="string">E-Prime Primary Realtime Clock</Description><StartTime><Timestamp dt:dt="int">0</Timestamp><DateUtc dt:dt="string">2016-04-20T22:08:25Z</DateUtc></StartTime><FrequencyChanges><FrequencyChange><Frequency dt:dt="r8">3507714</Frequency><Timestamp dt:dt="r8">314443561</Timestamp><Current dt:dt="r8">0</Current><DateUtc dt:dt="string">2016-04-20T22:08:25Z</DateUtc></FrequencyChange></FrequencyChanges></Clock>\n	Hungry_Donkey_bar_English_2-143-1	60.018	153	1.0.0.18	1	315126908	Standard	2.0.10.353	2.0.10.353	04-20-2016		18:08:25	2.0.10.248	19	Bar63-37.bmp	68	2	?	12r_4g.bmp	0r_4g.bmp	3r_2g.bmp	0r_2g.bmp		0r_4g.bmp			TrialProc	TrialList	0	cvbn	-999999	16	191727	0	v	1803	193530	58	-27	31	-4	24	3	8	5	2	19	-12	0	-3	0	4	4	2	2	0	4
Hungry_Donkey_bar_English_2	143	1	<?xml version="1.0"?>\n<Clock xmlns:dt="urn:schemas-microsoft-com:datatypes"><Description dt:dt="string">E-Prime Primary Realtime Clock</Description><StartTime><Timestamp dt:dt="int">0</Timestamp><DateUtc dt:dt="string">2016-04-20T22:08:25Z</DateUtc></StartTime><FrequencyChanges><FrequencyChange><Frequency dt:dt="r8">3507714</Frequency><Timestamp dt:dt="r8">314443561</Timestamp><Current dt:dt="r8">0</Current><DateUtc dt:dt="string">2016-04-20T22:08:25Z</DateUtc></FrequencyChange></FrequencyChanges></Clock>\n	Hungry_Donkey_bar_English_2-143-1	60.018	153	1.0.0.18	1	315126908	Standard	2.0.10.353	2.0.10.353	04-20-2016		18:08:25	2.0.10.248	20	Bar75-25.bmp	70	1	?	0r_4g.bmp	0r_4g.bmp	0r_2g.bmp	0r_2g.bmp	0r_4g.bmp				TrialProc	TrialList	0	cvbn	-999999	16	195559	0	c	1155	196714	62	-27	35	0	24	3	8	9	2	20	0	0	0	0	4	4	2	2	0	4
Hungry_Donkey_bar_English_2	143	1	<?xml version="1.0"?>\n<Clock xmlns:dt="urn:schemas-microsoft-com:datatypes"><Description dt:dt="string">E-Prime Primary Realtime Clock</Description><StartTime><Timestamp dt:dt="int">0</Timestamp><DateUtc dt:dt="string">2016-04-20T22:08:25Z</DateUtc></StartTime><FrequencyChanges><FrequencyChange><Frequency dt:dt="r8">3507714</Frequency><Timestamp dt:dt="r8">314443561</Timestamp><Current dt:dt="r8">0</Current><DateUtc dt:dt="string">2016-04-20T22:08:25Z</DateUtc></FrequencyChange></FrequencyChanges></Clock>\n	Hungry_Donkey_bar_English_2-143-1	60.018	153	1.0.0.18	1	315126908	Standard	2.0.10.353	2.0.10.353	04-20-2016		18:08:25	2.0.10.248	21	Bar63-37.bmp	69	3	?	10r_4g.bmp	0r_4g.bmp	2r_2g.bmp	0r_2g.bmp			2r_2g.bmp		TrialProc	TrialList	0	cvbn	-999999	16	198758	0	b	2292	201050	64	-29	35	0	24	3	8	3	3	21	-10	0	-2	0	4	4	2	2	-2	2
Hungry_Donkey_bar_English_2	143	1	<?xml version="1.0"?>\n<Clock xmlns:dt="urn:schemas-microsoft-com:datatypes"><Description dt:dt="string">E-Prime Primary Realtime Clock</Description><StartTime><Timestamp dt:dt="int">0</Timestamp><DateUtc dt:dt="string">2016-04-20T22:08:25Z</DateUtc></StartTime><FrequencyChanges><FrequencyChange><Frequency dt:dt="r8">3507714</Frequency><Timestamp dt:dt="r8">314443561</Timestamp><Current dt:dt="r8">0</Current><DateUtc dt:dt="string">2016-04-20T22:08:25Z</DateUtc></FrequencyChange></FrequencyChanges></Clock>\n	Hungry_Donkey_bar_English_2-143-1	60.018	153	1.0.0.18	1	315126908	Standard	2.0.10.353	2.0.10.353	04-20-2016		18:08:25	2.0.10.248	22	Bar75-25.bmp	70	2	?	10r_4g.bmp	0r_4g.bmp	2r_2g.bmp	0r_2g.bmp		0r_4g.bmp			TrialProc	TrialList	0	cvbn	-999999	16	203090	0	v	1319	204409	68	-29	39	0	28	3	8	2	3	22	-10	0	-2	0	4	4	2	2	0	4
Hungry_Donkey_bar_English_2	143	1	<?xml version="1.0"?>\n<Clock xmlns:dt="urn:schemas-microsoft-com:datatypes"><Description dt:dt="string">E-Prime Primary Realtime Clock</Description><StartTime><Timestamp dt:dt="int">0</Timestamp><DateUtc dt:dt="string">2016-04-20T22:08:25Z</DateUtc></StartTime><FrequencyChanges><FrequencyChange><Frequency dt:dt="r8">3507714</Frequency><Timestamp dt:dt="r8">314443561</Timestamp><Current dt:dt="r8">0</Current><DateUtc dt:dt="string">2016-04-20T22:08:25Z</DateUtc></FrequencyChange></FrequencyChanges></Clock>\n	Hungry_Donkey_bar_English_2-143-1	60.018	153	1.0.0.18	1	315126908	Standard	2.0.10.353	2.0.10.353	04-20-2016		18:08:25	2.0.10.248	23	Bar75-25.bmp	71	4	?	0r_4g.bmp	0r_4g.bmp	0r_2g.bmp	0r_2g.bmp				0r_2g.bmp	TrialProc	TrialList	0	cvbn	-999999	16	206439	0	n	1954	208393	70	-29	41	0	28	3	10	10	3	23	0	0	0	0	4	4	2	2	0	2
Hungry_Donkey_bar_English_2	143	1	<?xml version="1.0"?>\n<Clock xmlns:dt="urn:schemas-microsoft-com:datatypes"><Description dt:dt="string">E-Prime Primary Realtime Clock</Description><StartTime><Timestamp dt:dt="int">0</Timestamp><DateUtc dt:dt="string">2016-04-20T22:08:25Z</DateUtc></StartTime><FrequencyChanges><FrequencyChange><Frequency dt:dt="r8">3507714</Frequency><Timestamp dt:dt="r8">314443561</Timestamp><Current dt:dt="r8">0</Current><DateUtc dt:dt="string">2016-04-20T22:08:25Z</DateUtc></FrequencyChange></FrequencyChanges></Clock>\n	Hungry_Donkey_bar_English_2-143-1	60.018	153	1.0.0.18	1	315126908	Standard	2.0.10.353	2.0.10.353	04-20-2016		18:08:25	2.0.10.248	24	Bar63-37.bmp	69	3	?	12r_4g.bmp	0r_4g.bmp	3r_2g.bmp	0r_2g.bmp			3r_2g.bmp		TrialProc	TrialList	0	cvbn	-999999	16	210421	0	b	1764	212185	72	-32	40	0	28	2	10	5	3	24	-12	0	-3	0	4	4	2	2	-3	2
Hungry_Donkey_bar_English_2	143	1	<?xml version="1.0"?>\n<Clock xmlns:dt="urn:schemas-microsoft-com:datatypes"><Description dt:dt="string">E-Prime Primary Realtime Clock</Description><StartTime><Timestamp dt:dt="int">0</Timestamp><DateUtc dt:dt="string">2016-04-20T22:08:25Z</DateUtc></StartTime><FrequencyChanges><FrequencyChange><Frequency dt:dt="r8">3507714</Frequency><Timestamp dt:dt="r8">314443561</Timestamp><Current dt:dt="r8">0</Current><DateUtc dt:dt="string">2016-04-20T22:08:25Z</DateUtc></FrequencyChange></FrequencyChanges></Clock>\n	Hungry_Donkey_bar_English_2-143-1	60.018	153	1.0.0.18	1	315126908	Standard	2.0.10.353	2.0.10.353	04-20-2016		18:08:25	2.0.10.248	25	Bar75-25.bmp	70	2	?	0r_4g.bmp	0r_4g.bmp	0r_2g.bmp	0r_2g.bmp		0r_4g.bmp			TrialProc	TrialList	0	cvbn	-999999	16	214220	0	v	989	215209	76	-32	44	0	32	2	10	8	3	25	0	0	0	0	4	4	2	2	0	4
Hungry_Donkey_bar_English_2	143	1	<?xml version="1.0"?>\n<Clock xmlns:dt="urn:schemas-microsoft-com:datatypes"><Description dt:dt="string">E-Prime Primary Realtime Clock</Description><StartTime><Timestamp dt:dt="int">0</Timestamp><DateUtc dt:dt="string">2016-04-20T22:08:25Z</DateUtc></StartTime><FrequencyChanges><FrequencyChange><Frequency dt:dt="r8">3507714</Frequency><Timestamp dt:dt="r8">314443561</Timestamp><Current dt:dt="r8">0</Current><DateUtc dt:dt="string">2016-04-20T22:08:25Z</DateUtc></FrequencyChange></FrequencyChanges></Clock>\n	Hungry_Donkey_bar_English_2-143-1	60.018	153	1.0.0.18	1	315126908	Standard	2.0.10.353	2.0.10.353	04-20-2016		18:08:25	2.0.10.248	26	Bar63-37.bmp	67	1	?	8r_4g.bmp	50r_4g.bmp	1r_2g.bmp	10r_2g.bmp	8r_4g.bmp				TrialProc	TrialList	0	cvbn	-999999	16	217236	0	c	821	218057	80	-40	40	-4	32	2	10	1	3	26	-8	-50	-1	-10	4	4	2	2	-8	4
Hungry_Donkey_bar_English_2	143	1	<?xml version="1.0"?>\n<Clock xmlns:dt="urn:schemas-microsoft-com:datatypes"><Description dt:dt="string">E-Prime Primary Realtime Clock</Description><StartTime><Timestamp dt:dt="int">0</Timestamp><DateUtc dt:dt="string">2016-04-20T22:08:25Z</DateUtc></StartTime><FrequencyChanges><FrequencyChange><Frequency dt:dt="r8">3507714</Frequency><Timestamp dt:dt="r8">314443561</Timestamp><Current dt:dt="r8">0</Current><DateUtc dt:dt="string">2016-04-20T22:08:25Z</DateUtc></FrequencyChange></FrequencyChanges></Clock>\n	Hungry_Donkey_bar_English_2-143-1	60.018	153	1.0.0.18	1	315126908	Standard	2.0.10.353	2.0.10.353	04-20-2016		18:08:25	2.0.10.248	27	Bar63-37.bmp	68	2	?	10r_4g.bmp	0r_4g.bmp	2r_2g.bmp	0r_2g.bmp		0r_4g.bmp			TrialProc	TrialList	0	cvbn	-999999	16	220085	0	v	579	220664	84	-40	44	-4	36	2	10	4	3	27	-10	0	-2	0	4	4	2	2	0	4
Hungry_Donkey_bar_English_2	143	1	<?xml version="1.0"?>\n<Clock xmlns:dt="urn:schemas-microsoft-com:datatypes"><Description dt:dt="string">E-Prime Primary Realtime Clock</Description><StartTime><Timestamp dt:dt="int">0</Timestamp><DateUtc dt:dt="string">2016-04-20T22:08:25Z</DateUtc></StartTime><FrequencyChanges><FrequencyChange><Frequency dt:dt="r8">3507714</Frequency><Timestamp dt:dt="r8">314443561</Timestamp><Current dt:dt="r8">0</Current><DateUtc dt:dt="string">2016-04-20T22:08:25Z</DateUtc></FrequencyChange></FrequencyChanges></Clock>\n	Hungry_Donkey_bar_English_2-143-1	60.018	153	1.0.0.18	1	315126908	Standard	2.0.10.353	2.0.10.353	04-20-2016		18:08:25	2.0.10.248	28	Bar63-37.bmp	69	2	?	0r_4g.bmp	0r_4g.bmp	0r_2g.bmp	0r_2g.bmp		0r_4g.bmp			TrialProc	TrialList	0	cvbn	-999999	16	222701	0	v	763	223464	88	-40	48	-4	40	2	10	9	3	28	0	0	0	0	4	4	2	2	0	4
Hungry_Donkey_bar_English_2	143	1	<?xml version="1.0"?>\n<Clock xmlns:dt="urn:schemas-microsoft-com:datatypes"><Description dt:dt="string">E-Prime Primary Realtime Clock</Description><StartTime><Timestamp dt:dt="int">0</Timestamp><DateUtc dt:dt="string">2016-04-20T22:08:25Z</DateUtc></StartTime><FrequencyChanges><FrequencyChange><Frequency dt:dt="r8">3507714</Frequency><Timestamp dt:dt="r8">314443561</Timestamp><Current dt:dt="r8">0</Current><DateUtc dt:dt="string">2016-04-20T22:08:25Z</DateUtc></FrequencyChange></FrequencyChanges></Clock>\n	Hungry_Donkey_bar_English_2-143-1	60.018	153	1.0.0.18	1	315126908	Standard	2.0.10.353	2.0.10.353	04-20-2016		18:08:25	2.0.10.248	29	Bar63-37.bmp	69	3	?	0r_4g.bmp	0r_4g.bmp	0r_2g.bmp	0r_2g.bmp			0r_2g.bmp		TrialProc	TrialList	0	cvbn	-999999	16	225500	0	b	796	226296	90	-40	50	-4	40	4	10	6	3	29	0	0	0	0	4	4	2	2	0	2
Hungry_Donkey_bar_English_2	143	1	<?xml version="1.0"?>\n<Clock xmlns:dt="urn:schemas-microsoft-com:datatypes"><Description dt:dt="string">E-Prime Primary Realtime Clock</Description><StartTime><Timestamp dt:dt="int">0</Timestamp><DateUtc dt:dt="string">2016-04-20T22:08:25Z</DateUtc></StartTime><FrequencyChanges><FrequencyChange><Frequency dt:dt="r8">3507714</Frequency><Timestamp dt:dt="r8">314443561</Timestamp><Current dt:dt="r8">0</Current><DateUtc dt:dt="string">2016-04-20T22:08:25Z</DateUtc></FrequencyChange></FrequencyChanges></Clock>\n	Hungry_Donkey_bar_English_2-143-1	60.018	153	1.0.0.18	1	315126908	Standard	2.0.10.353	2.0.10.353	04-20-2016		18:08:25	2.0.10.248	30	Bar75-25.bmp	70	2	?	0r_4g.bmp	0r_4g.bmp	0r_2g.bmp	0r_2g.bmp		0r_4g.bmp			TrialProc	TrialList	0	cvbn	-999999	16	228333	0	v	1131	229464	94	-40	54	-4	44	4	10	7	3	30	0	0	0	0	4	4	2	2	0	4
Hungry_Donkey_bar_English_2	143	1	<?xml version="1.0"?>\n<Clock xmlns:dt="urn:schemas-microsoft-com:datatypes"><Description dt:dt="string">E-Prime Primary Realtime Clock</Description><StartTime><Timestamp dt:dt="int">0</Timestamp><DateUtc dt:dt="string">2016-04-20T22:08:25Z</DateUtc></StartTime><FrequencyChanges><FrequencyChange><Frequency dt:dt="r8">3507714</Frequency><Timestamp dt:dt="r8">314443561</Timestamp><Current dt:dt="r8">0</Current><DateUtc dt:dt="string">2016-04-20T22:08:25Z</DateUtc></FrequencyChange></FrequencyChanges></Clock>\n	Hungry_Donkey_bar_English_2-143-1	60.018	153	1.0.0.18	1	315126908	Standard	2.0.10.353	2.0.10.353	04-20-2016		18:08:25	2.0.10.248	31	Bar63-37.bmp	66	1	?	10r_4g.bmp	0r_4g.bmp	2r_2g.bmp	0r_2g.bmp	10r_4g.bmp				TrialProc	TrialList	0	cvbn	-999999	16	231498	0	c	2862	234360	98	-50	48	-10	44	4	10	3	4	31	-10	0	-2	0	4	4	2	2	-10	4
Hungry_Donkey_bar_English_2	143	1	<?xml version="1.0"?>\n<Clock xmlns:dt="urn:schemas-microsoft-com:datatypes"><Description dt:dt="string">E-Prime Primary Realtime Clock</Description><StartTime><Timestamp dt:dt="int">0</Timestamp><DateUtc dt:dt="string">2016-04-20T22:08:25Z</DateUtc></StartTime><FrequencyChanges><FrequencyChange><Frequency dt:dt="r8">3507714</Frequency><Timestamp dt:dt="r8">314443561</Timestamp><Current dt:dt="r8">0</Current><DateUtc dt:dt="string">2016-04-20T22:08:25Z</DateUtc></FrequencyChange></FrequencyChanges></Clock>\n	Hungry_Donkey_bar_English_2-143-1	60.018	153	1.0.0.18	1	315126908	Standard	2.0.10.353	2.0.10.353	04-20-2016		18:08:25	2.0.10.248	32	Bar63-37.bmp	67	2	?	10r_4g.bmp	0r_4g.bmp	2r_2g.bmp	0r_2g.bmp		0r_4g.bmp			TrialProc	TrialList	0	cvbn	-999999	16	236397	0	v	3530	239927	102	-50	52	-10	48	4	10	2	4	32	-10	0	-2	0	4	4	2	2	0	4
Hungry_Donkey_bar_English_2	143	1	<?xml version="1.0"?>\n<Clock xmlns:dt="urn:schemas-microsoft-com:datatypes"><Description dt:dt="string">E-Prime Primary Realtime Clock</Description><StartTime><Timestamp dt:dt="int">0</Timestamp><DateUtc dt:dt="string">2016-04-20T22:08:25Z</DateUtc></StartTime><FrequencyChanges><FrequencyChange><Frequency dt:dt="r8">3507714</Frequency><Timestamp dt:dt="r8">314443561</Timestamp><Current dt:dt="r8">0</Current><DateUtc dt:dt="string">2016-04-20T22:08:25Z</DateUtc></FrequencyChange></FrequencyChanges></Clock>\n	Hungry_Donkey_bar_English_2-143-1	60.018	153	1.0.0.18	1	315126908	Standard	2.0.10.353	2.0.10.353	04-20-2016		18:08:25	2.0.10.248	33	Bar63-37.bmp	68	2	?	0r_4g.bmp	0r_4g.bmp	0r_2g.bmp	0r_2g.bmp		0r_4g.bmp			TrialProc	TrialList	0	cvbn	-999999	16	241962	0	v	4717	246679	106	-50	56	-10	52	4	10	7	4	33	0	0	0	0	4	4	2	2	0	4
Hungry_Donkey_bar_English_2	143	1	<?xml version="1.0"?>\n<Clock xmlns:dt="urn:schemas-microsoft-com:datatypes"><Description dt:dt="string">E-Prime Primary Realtime Clock</Description><StartTime><Timestamp dt:dt="int">0</Timestamp><DateUtc dt:dt="string">2016-04-20T22:08:25Z</DateUtc></StartTime><FrequencyChanges><FrequencyChange><Frequency dt:dt="r8">3507714</Frequency><Timestamp dt:dt="r8">314443561</Timestamp><Current dt:dt="r8">0</Current><DateUtc dt:dt="string">2016-04-20T22:08:25Z</DateUtc></FrequencyChange></FrequencyChanges></Clock>\n	Hungry_Donkey_bar_English_2-143-1	60.018	153	1.0.0.18	1	315126908	Standard	2.0.10.353	2.0.10.353	04-20-2016		18:08:25	2.0.10.248	34	Bar63-37.bmp	69	2	?	12r_4g.bmp	0r_4g.bmp	3r_2g.bmp	0r_2g.bmp		0r_4g.bmp			TrialProc	TrialList	0	cvbn	-999999	16	248710	0	v	849	249559	110	-50	60	-10	56	4	10	5	4	34	-12	0	-3	0	4	4	2	2	0	4
Hungry_Donkey_bar_English_2	143	1	<?xml version="1.0"?>\n<Clock xmlns:dt="urn:schemas-microsoft-com:datatypes"><Description dt:dt="string">E-Prime Primary Realtime Clock</Description><StartTime><Timestamp dt:dt="int">0</Timestamp><DateUtc dt:dt="string">2016-04-20T22:08:25Z</DateUtc></StartTime><FrequencyChanges><FrequencyChange><Frequency dt:dt="r8">3507714</Frequency><Timestamp dt:dt="r8">314443561</Timestamp><Current dt:dt="r8">0</Current><DateUtc dt:dt="string">2016-04-20T22:08:25Z</DateUtc></FrequencyChange></FrequencyChanges></Clock>\n	Hungry_Donkey_bar_English_2-143-1	60.018	153	1.0.0.18	1	315126908	Standard	2.0.10.353	2.0.10.353	04-20-2016		18:08:25	2.0.10.248	35	Bar75-25.bmp	70	2	?	0r_4g.bmp	0r_4g.bmp	0r_2g.bmp	0r_2g.bmp		0r_4g.bmp			TrialProc	TrialList	0	cvbn	-999999	16	251592	0	v	767	252359	114	-50	64	-10	60	4	10	8	4	35	0	0	0	0	4	4	2	2	0	4
Hungry_Donkey_bar_English_2	143	1	<?xml version="1.0"?>\n<Clock xmlns:dt="urn:schemas-microsoft-com:datatypes"><Description dt:dt="string">E-Prime Primary Realtime Clock</Description><StartTime><Timestamp dt:dt="int">0</Timestamp><DateUtc dt:dt="string">2016-04-20T22:08:25Z</DateUtc></StartTime><FrequencyChanges><FrequencyChange><Frequency dt:dt="r8">3507714</Frequency><Timestamp dt:dt="r8">314443561</Timestamp><Current dt:dt="r8">0</Current><DateUtc dt:dt="string">2016-04-20T22:08:25Z</DateUtc></FrequencyChange></FrequencyChanges></Clock>\n	Hungry_Donkey_bar_English_2-143-1	60.018	153	1.0.0.18	1	315126908	Standard	2.0.10.353	2.0.10.353	04-20-2016		18:08:25	2.0.10.248	36	Bar75-25.bmp	70	3	?	0r_4g.bmp	0r_4g.bmp	0r_2g.bmp	0r_2g.bmp			0r_2g.bmp		TrialProc	TrialList	0	cvbn	-999999	16	254392	0	b	2094	256486	116	-50	66	-10	60	6	10	9	4	36	0	0	0	0	4	4	2	2	0	2
Hungry_Donkey_bar_English_2	143	1	<?xml version="1.0"?>\n<Clock xmlns:dt="urn:schemas-microsoft-com:datatypes"><Description dt:dt="string">E-Prime Primary Realtime Clock</Description><StartTime><Timestamp dt:dt="int">0</Timestamp><DateUtc dt:dt="string">2016-04-20T22:08:25Z</DateUtc></StartTime><FrequencyChanges><FrequencyChange><Frequency dt:dt="r8">3507714</Frequency><Timestamp dt:dt="r8">314443561</Timestamp><Current dt:dt="r8">0</Current><DateUtc dt:dt="string">2016-04-20T22:08:25Z</DateUtc></FrequencyChange></FrequencyChanges></Clock>\n	Hungry_Donkey_bar_English_2-143-1	60.018	153	1.0.0.18	1	315126908	Standard	2.0.10.353	2.0.10.353	04-20-2016		18:08:25	2.0.10.248	37	Bar75-25.bmp	70	4	?	0r_4g.bmp	0r_4g.bmp	0r_2g.bmp	0r_2g.bmp				0r_2g.bmp	TrialProc	TrialList	0	cvbn	-999999	16	258524	0	n	1370	259894	118	-50	68	-10	60	6	12	6	4	37	0	0	0	0	4	4	2	2	0	2
Hungry_Donkey_bar_English_2	143	1	<?xml version="1.0"?>\n<Clock xmlns:dt="urn:schemas-microsoft-com:datatypes"><Description dt:dt="string">E-Prime Primary Realtime Clock</Description><StartTime><Timestamp dt:dt="int">0</Timestamp><DateUtc dt:dt="string">2016-04-20T22:08:25Z</DateUtc></StartTime><FrequencyChanges><FrequencyChange><Frequency dt:dt="r8">3507714</Frequency><Timestamp dt:dt="r8">314443561</Timestamp><Current dt:dt="r8">0</Current><DateUtc dt:dt="string">2016-04-20T22:08:25Z</DateUtc></FrequencyChange></FrequencyChanges></Clock>\n	Hungry_Donkey_bar_English_2-143-1	60.018	153	1.0.0.18	1	315126908	Standard	2.0.10.353	2.0.10.353	04-20-2016		18:08:25	2.0.10.248	38	Bar75-25.bmp	70	3	?	8r_4g.bmp	50r_4g.bmp	1r_2g.bmp	10r_2g.bmp			1r_2g.bmp		TrialProc	TrialList	0	cvbn	-999999	16	261923	0	b	915	262838	120	-51	69	-10	60	7	12	1	4	38	-8	-50	-1	-10	4	4	2	2	-1	2
Hungry_Donkey_bar_English_2	143	1	<?xml version="1.0"?>\n<Clock xmlns:dt="urn:schemas-microsoft-com:datatypes"><Description dt:dt="string">E-Prime Primary Realtime Clock</Description><StartTime><Timestamp dt:dt="int">0</Timestamp><DateUtc dt:dt="string">2016-04-20T22:08:25Z</DateUtc></StartTime><FrequencyChanges><FrequencyChange><Frequency dt:dt="r8">3507714</Frequency><Timestamp dt:dt="r8">314443561</Timestamp><Current dt:dt="r8">0</Current><DateUtc dt:dt="string">2016-04-20T22:08:25Z</DateUtc></FrequencyChange></FrequencyChanges></Clock>\n	Hungry_Donkey_bar_English_2-143-1	60.018	153	1.0.0.18	1	315126908	Standard	2.0.10.353	2.0.10.353	04-20-2016		18:08:25	2.0.10.248	39	Bar75-25.bmp	71	2	?	10r_4g.bmp	0r_4g.bmp	2r_2g.bmp	0r_2g.bmp		0r_4g.bmp			TrialProc	TrialList	0	cvbn	-999999	16	264872	0	v	1086	265958	124	-51	73	-10	64	7	12	4	4	39	-10	0	-2	0	4	4	2	2	0	4
Hungry_Donkey_bar_English_2	143	1	<?xml version="1.0"?>\n<Clock xmlns:dt="urn:schemas-microsoft-com:datatypes"><Description dt:dt="string">E-Prime Primary Realtime Clock</Description><StartTime><Timestamp dt:dt="int">0</Timestamp><DateUtc dt:dt="string">2016-04-20T22:08:25Z</DateUtc></StartTime><FrequencyChanges><FrequencyChange><Frequency dt:dt="r8">3507714</Frequency><Timestamp dt:dt="r8">314443561</Timestamp><Current dt:dt="r8">0</Current><DateUtc dt:dt="string">2016-04-20T22:08:25Z</DateUtc></FrequencyChange></FrequencyChanges></Clock>\n	Hungry_Donkey_bar_English_2-143-1	60.018	153	1.0.0.18	1	315126908	Standard	2.0.10.353	2.0.10.353	04-20-2016		18:08:25	2.0.10.248	40	Bar75-25.bmp	72	2	?	0r_4g.bmp	0r_4g.bmp	0r_2g.bmp	0r_2g.bmp		0r_4g.bmp			TrialProc	TrialList	0	cvbn	-999999	16	267988	0	v	1457	269445	128	-51	77	-10	68	7	12	10	4	40	0	0	0	0	4	4	2	2	0	4
Hungry_Donkey_bar_English_2	143	1	<?xml version="1.0"?>\n<Clock xmlns:dt="urn:schemas-microsoft-com:datatypes"><Description dt:dt="string">E-Prime Primary Realtime Clock</Description><StartTime><Timestamp dt:dt="int">0</Timestamp><DateUtc dt:dt="string">2016-04-20T22:08:25Z</DateUtc></StartTime><FrequencyChanges><FrequencyChange><Frequency dt:dt="r8">3507714</Frequency><Timestamp dt:dt="r8">314443561</Timestamp><Current dt:dt="r8">0</Current><DateUtc dt:dt="string">2016-04-20T22:08:25Z</DateUtc></FrequencyChange></FrequencyChanges></Clock>\n	Hungry_Donkey_bar_English_2-143-1	60.018	153	1.0.0.18	1	315126908	Standard	2.0.10.353	2.0.10.353	04-20-2016		18:08:25	2.0.10.248	41	Bar75-25.bmp	71	3	?	10r_4g.bmp	0r_4g.bmp	2r_2g.bmp	0r_2g.bmp			2r_2g.bmp		TrialProc	TrialList	0	cvbn	-999999	17	271487	0	b	1574	273061	130	-53	77	-10	68	7	12	4	5	41	-10	0	-2	0	4	4	2	2	-2	2
Hungry_Donkey_bar_English_2	143	1	<?xml version="1.0"?>\n<Clock xmlns:dt="urn:schemas-microsoft-com:datatypes"><Description dt:dt="string">E-Prime Primary Realtime Clock</Description><StartTime><Timestamp dt:dt="int">0</Timestamp><DateUtc dt:dt="string">2016-04-20T22:08:25Z</DateUtc></StartTime><FrequencyChanges><FrequencyChange><Frequency dt:dt="r8">3507714</Frequency><Timestamp dt:dt="r8">314443561</Timestamp><Current dt:dt="r8">0</Current><DateUtc dt:dt="string">2016-04-20T22:08:25Z</DateUtc></FrequencyChange></FrequencyChanges></Clock>\n	Hungry_Donkey_bar_English_2-143-1	60.018	153	1.0.0.18	1	315126908	Standard	2.0.10.353	2.0.10.353	04-20-2016		18:08:25	2.0.10.248	42	Bar75-25.bmp	72	2	?	12r_4g.bmp	0r_4g.bmp	3r_2g.bmp	0r_2g.bmp		0r_4g.bmp			TrialProc	TrialList	0	cvbn	-999999	16	275085	0	v	664	275749	134	-53	81	-10	72	7	12	5	5	42	-12	0	-3	0	4	4	2	2	0	4
Hungry_Donkey_bar_English_2	143	1	<?xml version="1.0"?>\n<Clock xmlns:dt="urn:schemas-microsoft-com:datatypes"><Description dt:dt="string">E-Prime Primary Realtime Clock</Description><StartTime><Timestamp dt:dt="int">0</Timestamp><DateUtc dt:dt="string">2016-04-20T22:08:25Z</DateUtc></StartTime><FrequencyChanges><FrequencyChange><Frequency dt:dt="r8">3507714</Frequency><Timestamp dt:dt="r8">314443561</Timestamp><Current dt:dt="r8">0</Current><DateUtc dt:dt="string">2016-04-20T22:08:25Z</DateUtc></FrequencyChange></FrequencyChanges></Clock>\n	Hungry_Donkey_bar_English_2-143-1	60.018	153	1.0.0.18	1	315126908	Standard	2.0.10.353	2.0.10.353	04-20-2016		18:08:25	2.0.10.248	43	Bar75-25.bmp	72	4	?	0r_4g.bmp	0r_4g.bmp	0r_2g.bmp	0r_2g.bmp				0r_2g.bmp	TrialProc	TrialList	0	cvbn	-999999	16	277785	0	n	748	278533	136	-53	83	-10	72	7	14	9	5	43	0	0	0	0	4	4	2	2	0	2
Hungry_Donkey_bar_English_2	143	1	<?xml version="1.0"?>\n<Clock xmlns:dt="urn:schemas-microsoft-com:datatypes"><Description dt:dt="string">E-Prime Primary Realtime Clock</Description><StartTime><Timestamp dt:dt="int">0</Timestamp><DateUtc dt:dt="string">2016-04-20T22:08:25Z</DateUtc></StartTime><FrequencyChanges><FrequencyChange><Frequency dt:dt="r8">3507714</Frequency><Timestamp dt:dt="r8">314443561</Timestamp><Current dt:dt="r8">0</Current><DateUtc dt:dt="string">2016-04-20T22:08:25Z</DateUtc></FrequencyChange></FrequencyChanges></Clock>\n	Hungry_Donkey_bar_English_2-143-1	60.018	153	1.0.0.18	1	315126908	Standard	2.0.10.353	2.0.10.353	04-20-2016		18:08:25	2.0.10.248	44	Bar75-25.bmp	73	1	?	0r_4g.bmp	0r_4g.bmp	0r_2g.bmp	0r_2g.bmp	0r_4g.bmp				TrialProc	TrialList	0	cvbn	-999999	16	280567	0	c	1150	281717	140	-53	87	-6	72	7	14	7	5	44	0	0	0	0	4	4	2	2	0	4
Hungry_Donkey_bar_English_2	143	1	<?xml version="1.0"?>\n<Clock xmlns:dt="urn:schemas-microsoft-com:datatypes"><Description dt:dt="string">E-Prime Primary Realtime Clock</Description><StartTime><Timestamp dt:dt="int">0</Timestamp><DateUtc dt:dt="string">2016-04-20T22:08:25Z</DateUtc></StartTime><FrequencyChanges><FrequencyChange><Frequency dt:dt="r8">3507714</Frequency><Timestamp dt:dt="r8">314443561</Timestamp><Current dt:dt="r8">0</Current><DateUtc dt:dt="string">2016-04-20T22:08:25Z</DateUtc></FrequencyChange></FrequencyChanges></Clock>\n	Hungry_Donkey_bar_English_2-143-1	60.018	153	1.0.0.18	1	315126908	Standard	2.0.10.353	2.0.10.353	04-20-2016		18:08:25	2.0.10.248	45	Bar75-25.bmp	73	2	?	0r_4g.bmp	0r_4g.bmp	0r_2g.bmp	0r_2g.bmp		0r_4g.bmp			TrialProc	TrialList	0	cvbn	-999999	16	283750	0	v	687	284437	144	-53	91	-6	76	7	14	6	5	45	0	0	0	0	4	4	2	2	0	4
Hungry_Donkey_bar_English_2	143	1	<?xml version="1.0"?>\n<Clock xmlns:dt="urn:schemas-microsoft-com:datatypes"><Description dt:dt="string">E-Prime Primary Realtime Clock</Description><StartTime><Timestamp dt:dt="int">0</Timestamp><DateUtc dt:dt="string">2016-04-20T22:08:25Z</DateUtc></StartTime><FrequencyChanges><FrequencyChange><Frequency dt:dt="r8">3507714</Frequency><Timestamp dt:dt="r8">314443561</Timestamp><Current dt:dt="r8">0</Current><DateUtc dt:dt="string">2016-04-20T22:08:25Z</DateUtc></FrequencyChange></FrequencyChanges></Clock>\n	Hungry_Donkey_bar_English_2-143-1	60.018	153	1.0.0.18	1	315126908	Standard	2.0.10.353	2.0.10.353	04-20-2016		18:08:25	2.0.10.248	46	Bar75-25.bmp	73	3	?	10r_4g.bmp	0r_4g.bmp	2r_2g.bmp	0r_2g.bmp			2r_2g.bmp		TrialProc	TrialList	0	cvbn	-999999	16	286465	0	b	1299	287764	146	-55	91	-6	76	7	14	3	5	46	-10	0	-2	0	4	4	2	2	-2	2
Hungry_Donkey_bar_English_2	143	1	<?xml version="1.0"?>\n<Clock xmlns:dt="urn:schemas-microsoft-com:datatypes"><Description dt:dt="string">E-Prime Primary Realtime Clock</Description><StartTime><Timestamp dt:dt="int">0</Timestamp><DateUtc dt:dt="string">2016-04-20T22:08:25Z</DateUtc></StartTime><FrequencyChanges><FrequencyChange><Frequency dt:dt="r8">3507714</Frequency><Timestamp dt:dt="r8">314443561</Timestamp><Current dt:dt="r8">0</Current><DateUtc dt:dt="string">2016-04-20T22:08:25Z</DateUtc></FrequencyChange></FrequencyChanges></Clock>\n	Hungry_Donkey_bar_English_2-143-1	60.018	153	1.0.0.18	1	315126908	Standard	2.0.10.353	2.0.10.353	04-20-2016		18:08:25	2.0.10.248	47	Bar75-25.bmp	73	2	?	10r_4g.bmp	0r_4g.bmp	2r_2g.bmp	0r_2g.bmp		0r_4g.bmp			TrialProc	TrialList	0	cvbn	-999999	16	289798	0	v	910	290708	150	-55	95	-6	80	7	14	2	5	47	-10	0	-2	0	4	4	2	2	0	4
Hungry_Donkey_bar_English_2	143	1	<?xml version="1.0"?>\n<Clock xmlns:dt="urn:schemas-microsoft-com:datatypes"><Description dt:dt="string">E-Prime Primary Realtime Clock</Description><StartTime><Timestamp dt:dt="int">0</Timestamp><DateUtc dt:dt="string">2016-04-20T22:08:25Z</DateUtc></StartTime><FrequencyChanges><FrequencyChange><Frequency dt:dt="r8">3507714</Frequency><Timestamp dt:dt="r8">314443561</Timestamp><Current dt:dt="r8">0</Current><DateUtc dt:dt="string">2016-04-20T22:08:25Z</DateUtc></FrequencyChange></FrequencyChanges></Clock>\n	Hungry_Donkey_bar_English_2-143-1	60.018	153	1.0.0.18	1	315126908	Standard	2.0.10.353	2.0.10.353	04-20-2016		18:08:25	2.0.10.248	48	Bar75-25.bmp	74	1	?	0r_4g.bmp	0r_4g.bmp	0r_2g.bmp	0r_2g.bmp	0r_4g.bmp				TrialProc	TrialList	0	cvbn	-999999	16	292747	0	c	2697	295444	154	-55	99	-2	80	7	14	10	5	48	0	0	0	0	4	4	2	2	0	4
Hungry_Donkey_bar_English_2	143	1	<?xml version="1.0"?>\n<Clock xmlns:dt="urn:schemas-microsoft-com:datatypes"><Description dt:dt="string">E-Prime Primary Realtime Clock</Description><StartTime><Timestamp dt:dt="int">0</Timestamp><DateUtc dt:dt="string">2016-04-20T22:08:25Z</DateUtc></StartTime><FrequencyChanges><FrequencyChange><Frequency dt:dt="r8">3507714</Frequency><Timestamp dt:dt="r8">314443561</Timestamp><Current dt:dt="r8">0</Current><DateUtc dt:dt="string">2016-04-20T22:08:25Z</DateUtc></FrequencyChange></FrequencyChanges></Clock>\n	Hungry_Donkey_bar_English_2-143-1	60.018	153	1.0.0.18	1	315126908	Standard	2.0.10.353	2.0.10.353	04-20-2016		18:08:25	2.0.10.248	49	Bar75-25.bmp	74	4	?	0r_4g.bmp	0r_4g.bmp	0r_2g.bmp	0r_2g.bmp				0r_2g.bmp	TrialProc	TrialList	0	cvbn	-999999	16	297479	0	n	413	297892	156	-55	101	-2	80	7	16	8	5	49	0	0	0	0	4	4	2	2	0	2
Hungry_Donkey_bar_English_2	143	1	<?xml version="1.0"?>\n<Clock xmlns:dt="urn:schemas-microsoft-com:datatypes"><Description dt:dt="string">E-Prime Primary Realtime Clock</Description><StartTime><Timestamp dt:dt="int">0</Timestamp><DateUtc dt:dt="string">2016-04-20T22:08:25Z</DateUtc></StartTime><FrequencyChanges><FrequencyChange><Frequency dt:dt="r8">3507714</Frequency><Timestamp dt:dt="r8">314443561</Timestamp><Current dt:dt="r8">0</Current><DateUtc dt:dt="string">2016-04-20T22:08:25Z</DateUtc></FrequencyChange></FrequencyChanges></Clock>\n	Hungry_Donkey_bar_English_2-143-1	60.018	153	1.0.0.18	1	315126908	Standard	2.0.10.353	2.0.10.353	04-20-2016		18:08:25	2.0.10.248	50	Bar75-25.bmp	74	3	?	8r_4g.bmp	50r_4g.bmp	1r_2g.bmp	10r_2g.bmp			1r_2g.bmp		TrialProc	TrialList	0	cvbn	-999999	16	299928	0	b	1372	301300	158	-56	102	-2	80	8	16	1	5	50	-8	-50	-1	-10	4	4	2	2	-1	2
Hungry_Donkey_bar_English_2	143	1	<?xml version="1.0"?>\n<Clock xmlns:dt="urn:schemas-microsoft-com:datatypes"><Description dt:dt="string">E-Prime Primary Realtime Clock</Description><StartTime><Timestamp dt:dt="int">0</Timestamp><DateUtc dt:dt="string">2016-04-20T22:08:25Z</DateUtc></StartTime><FrequencyChanges><FrequencyChange><Frequency dt:dt="r8">3507714</Frequency><Timestamp dt:dt="r8">314443561</Timestamp><Current dt:dt="r8">0</Current><DateUtc dt:dt="string">2016-04-20T22:08:25Z</DateUtc></FrequencyChange></FrequencyChanges></Clock>\n	Hungry_Donkey_bar_English_2-143-1	60.018	153	1.0.0.18	1	315126908	Standard	2.0.10.353	2.0.10.353	04-20-2016		18:08:25	2.0.10.248	51	Bar75-25.bmp	74	2	?	10r_4g.bmp	0r_4g.bmp	2r_2g.bmp	0r_2g.bmp		0r_4g.bmp			TrialProc	TrialList	0	cvbn	-999999	16	303327	0	v	852	304179	162	-56	106	-2	84	8	16	2	6	51	-10	0	-2	0	4	4	2	2	0	4
Hungry_Donkey_bar_English_2	143	1	<?xml version="1.0"?>\n<Clock xmlns:dt="urn:schemas-microsoft-com:datatypes"><Description dt:dt="string">E-Prime Primary Realtime Clock</Description><StartTime><Timestamp dt:dt="int">0</Timestamp><DateUtc dt:dt="string">2016-04-20T22:08:25Z</DateUtc></StartTime><FrequencyChanges><FrequencyChange><Frequency dt:dt="r8">3507714</Frequency><Timestamp dt:dt="r8">314443561</Timestamp><Current dt:dt="r8">0</Current><DateUtc dt:dt="string">2016-04-20T22:08:25Z</DateUtc></FrequencyChange></FrequencyChanges></Clock>\n	Hungry_Donkey_bar_English_2-143-1	60.018	153	1.0.0.18	1	315126908	Standard	2.0.10.353	2.0.10.353	04-20-2016		18:08:25	2.0.10.248	52	Bar75-25.bmp	75	4	?	0r_4g.bmp	0r_4g.bmp	0r_2g.bmp	0r_2g.bmp				0r_2g.bmp	TrialProc	TrialList	0	cvbn	-999999	16	306210	0	n	641	306851	164	-56	108	-2	84	8	18	8	6	52	0	0	0	0	4	4	2	2	0	2
Hungry_Donkey_bar_English_2	143	1	<?xml version="1.0"?>\n<Clock xmlns:dt="urn:schemas-microsoft-com:datatypes"><Description dt:dt="string">E-Prime Primary Realtime Clock</Description><StartTime><Timestamp dt:dt="int">0</Timestamp><DateUtc dt:dt="string">2016-04-20T22:08:25Z</DateUtc></StartTime><FrequencyChanges><FrequencyChange><Frequency dt:dt="r8">3507714</Frequency><Timestamp dt:dt="r8">314443561</Timestamp><Current dt:dt="r8">0</Current><DateUtc dt:dt="string">2016-04-20T22:08:25Z</DateUtc></FrequencyChange></FrequencyChanges></Clock>\n	Hungry_Donkey_bar_English_2-143-1	60.018	153	1.0.0.18	1	315126908	Standard	2.0.10.353	2.0.10.353	04-20-2016		18:08:25	2.0.10.248	53	Bar75-25.bmp	75	2	?	0r_4g.bmp	0r_4g.bmp	0r_2g.bmp	0r_2g.bmp		0r_4g.bmp			TrialProc	TrialList	0	cvbn	-999999	15	308875	0	v	344	309219	168	-56	112	-2	88	8	18	7	6	53	0	0	0	0	4	4	2	2	0	4
Hungry_Donkey_bar_English_2	143	1	<?xml version="1.0"?>\n<Clock xmlns:dt="urn:schemas-microsoft-com:datatypes"><Description dt:dt="string">E-Prime Primary Realtime Clock</Description><StartTime><Timestamp dt:dt="int">0</Timestamp><DateUtc dt:dt="string">2016-04-20T22:08:25Z</DateUtc></StartTime><FrequencyChanges><FrequencyChange><Frequency dt:dt="r8">3507714</Frequency><Timestamp dt:dt="r8">314443561</Timestamp><Current dt:dt="r8">0</Current><DateUtc dt:dt="string">2016-04-20T22:08:25Z</DateUtc></FrequencyChange></FrequencyChanges></Clock>\n	Hungry_Donkey_bar_English_2-143-1	60.018	153	1.0.0.18	1	315126908	Standard	2.0.10.353	2.0.10.353	04-20-2016		18:08:25	2.0.10.248	54	Bar75-25.bmp	75	2	?	0r_4g.bmp	0r_4g.bmp	0r_2g.bmp	0r_2g.bmp		0r_4g.bmp			TrialProc	TrialList	0	cvbn	-999999	16	311258	0	v	1593	312851	172	-56	116	-2	92	8	18	10	6	54	0	0	0	0	4	4	2	2	0	4
Hungry_Donkey_bar_English_2	143	1	<?xml version="1.0"?>\n<Clock xmlns:dt="urn:schemas-microsoft-com:datatypes"><Description dt:dt="string">E-Prime Primary Realtime Clock</Description><StartTime><Timestamp dt:dt="int">0</Timestamp><DateUtc dt:dt="string">2016-04-20T22:08:25Z</DateUtc></StartTime><FrequencyChanges><FrequencyChange><Frequency dt:dt="r8">3507714</Frequency><Timestamp dt:dt="r8">314443561</Timestamp><Current dt:dt="r8">0</Current><DateUtc dt:dt="string">2016-04-20T22:08:25Z</DateUtc></FrequencyChange></FrequencyChanges></Clock>\n	Hungry_Donkey_bar_English_2-143-1	60.018	153	1.0.0.18	1	315126908	Standard	2.0.10.353	2.0.10.353	04-20-2016		18:08:25	2.0.10.248	55	Bar75-25.bmp	76	2	?	0r_4g.bmp	0r_4g.bmp	0r_2g.bmp	0r_2g.bmp		0r_4g.bmp			TrialProc	TrialList	0	cvbn	-999999	16	314890	0	v	2073	316963	176	-56	120	-2	96	8	18	9	6	55	0	0	0	0	4	4	2	2	0	4
Hungry_Donkey_bar_English_2	143	1	<?xml version="1.0"?>\n<Clock xmlns:dt="urn:schemas-microsoft-com:datatypes"><Description dt:dt="string">E-Prime Primary Realtime Clock</Description><StartTime><Timestamp dt:dt="int">0</Timestamp><DateUtc dt:dt="string">2016-04-20T22:08:25Z</DateUtc></StartTime><FrequencyChanges><FrequencyChange><Frequency dt:dt="r8">3507714</Frequency><Timestamp dt:dt="r8">314443561</Timestamp><Current dt:dt="r8">0</Current><DateUtc dt:dt="string">2016-04-20T22:08:25Z</DateUtc></FrequencyChange></FrequencyChanges></Clock>\n	Hungry_Donkey_bar_English_2-143-1	60.018	153	1.0.0.18	1	315126908	Standard	2.0.10.353	2.0.10.353	04-20-2016		18:08:25	2.0.10.248	56	Bar75-25.bmp	75	3	?	10r_4g.bmp	0r_4g.bmp	2r_2g.bmp	0r_2g.bmp			2r_2g.bmp		TrialProc	TrialList	0	cvbn	-999999	16	318989	0	b	1621	320610	178	-58	120	-2	96	8	18	3	6	56	-10	0	-2	0	4	4	2	2	-2	2
Hungry_Donkey_bar_English_2	143	1	<?xml version="1.0"?>\n<Clock xmlns:dt="urn:schemas-microsoft-com:datatypes"><Description dt:dt="string">E-Prime Primary Realtime Clock</Description><StartTime><Timestamp dt:dt="int">0</Timestamp><DateUtc dt:dt="string">2016-04-20T22:08:25Z</DateUtc></StartTime><FrequencyChanges><FrequencyChange><Frequency dt:dt="r8">3507714</Frequency><Timestamp dt:dt="r8">314443561</Timestamp><Current dt:dt="r8">0</Current><DateUtc dt:dt="string">2016-04-20T22:08:25Z</DateUtc></FrequencyChange></FrequencyChanges></Clock>\n	Hungry_Donkey_bar_English_2-143-1	60.018	153	1.0.0.18	1	315126908	Standard	2.0.10.353	2.0.10.353	04-20-2016		18:08:25	2.0.10.248	57	Bar75-25.bmp	73	4	?	8r_4g.bmp	50r_4g.bmp	1r_2g.bmp	10r_2g.bmp				10r_2g.bmp	TrialProc	TrialList	0	cvbn	-999999	16	322638	0	n	2724	325362	180	-68	112	-2	96	8	10	1	6	57	-8	-50	-1	-10	4	4	2	2	-10	2
Hungry_Donkey_bar_English_2	143	1	<?xml version="1.0"?>\n<Clock xmlns:dt="urn:schemas-microsoft-com:datatypes"><Description dt:dt="string">E-Prime Primary Realtime Clock</Description><StartTime><Timestamp dt:dt="int">0</Timestamp><DateUtc dt:dt="string">2016-04-20T22:08:25Z</DateUtc></StartTime><FrequencyChanges><FrequencyChange><Frequency dt:dt="r8">3507714</Frequency><Timestamp dt:dt="r8">314443561</Timestamp><Current dt:dt="r8">0</Current><DateUtc dt:dt="string">2016-04-20T22:08:25Z</DateUtc></FrequencyChange></FrequencyChanges></Clock>\n	Hungry_Donkey_bar_English_2-143-1	60.018	153	1.0.0.18	1	315126908	Standard	2.0.10.353	2.0.10.353	04-20-2016		18:08:25	2.0.10.248	58	Bar75-25.bmp	73	3	?	0r_4g.bmp	0r_4g.bmp	0r_2g.bmp	0r_2g.bmp			0r_2g.bmp		TrialProc	TrialList	0	cvbn	-999999	16	327403	0	b	1527	328930	182	-68	114	-2	96	10	10	6	6	58	0	0	0	0	4	4	2	2	0	2
Hungry_Donkey_bar_English_2	143	1	<?xml version="1.0"?>\n<Clock xmlns:dt="urn:schemas-microsoft-com:datatypes"><Description dt:dt="string">E-Prime Primary Realtime Clock</Description><StartTime><Timestamp dt:dt="int">0</Timestamp><DateUtc dt:dt="string">2016-04-20T22:08:25Z</DateUtc></StartTime><FrequencyChanges><FrequencyChange><Frequency dt:dt="r8">3507714</Frequency><Timestamp dt:dt="r8">314443561</Timestamp><Current dt:dt="r8">0</Current><DateUtc dt:dt="string">2016-04-20T22:08:25Z</DateUtc></FrequencyChange></FrequencyChanges></Clock>\n	Hungry_Donkey_bar_English_2-143-1	60.018	153	1.0.0.18	1	315126908	Standard	2.0.10.353	2.0.10.353	04-20-2016		18:08:25	2.0.10.248	59	Bar75-25.bmp	73	4	?	12r_4g.bmp	0r_4g.bmp	3r_2g.bmp	0r_2g.bmp				0r_2g.bmp	TrialProc	TrialList	0	cvbn	-999999	16	330969	0	n	1161	332130	184	-68	116	-2	96	10	12	5	6	59	-12	0	-3	0	4	4	2	2	0	2
Hungry_Donkey_bar_English_2	143	1	<?xml version="1.0"?>\n<Clock xmlns:dt="urn:schemas-microsoft-com:datatypes"><Description dt:dt="string">E-Prime Primary Realtime Clock</Description><StartTime><Timestamp dt:dt="int">0</Timestamp><DateUtc dt:dt="string">2016-04-20T22:08:25Z</DateUtc></StartTime><FrequencyChanges><FrequencyChange><Frequency dt:dt="r8">3507714</Frequency><Timestamp dt:dt="r8">314443561</Timestamp><Current dt:dt="r8">0</Current><DateUtc dt:dt="string">2016-04-20T22:08:25Z</DateUtc></FrequencyChange></FrequencyChanges></Clock>\n	Hungry_Donkey_bar_English_2-143-1	60.018	153	1.0.0.18	1	315126908	Standard	2.0.10.353	2.0.10.353	04-20-2016		18:08:25	2.0.10.248	60	Bar75-25.bmp	73	3	?	10r_4g.bmp	0r_4g.bmp	2r_2g.bmp	0r_2g.bmp			2r_2g.bmp		TrialProc	TrialList	0	cvbn	-999999	16	334168	0	b	842	335010	186	-70	116	-2	96	10	12	4	6	60	-10	0	-2	0	4	4	2	2	-2	2
Hungry_Donkey_bar_English_2	143	1	<?xml version="1.0"?>\n<Clock xmlns:dt="urn:schemas-microsoft-com:datatypes"><Description dt:dt="string">E-Prime Primary Realtime Clock</Description><StartTime><Timestamp dt:dt="int">0</Timestamp><DateUtc dt:dt="string">2016-04-20T22:08:25Z</DateUtc></StartTime><FrequencyChanges><FrequencyChange><Frequency dt:dt="r8">3507714</Frequency><Timestamp dt:dt="r8">314443561</Timestamp><Current dt:dt="r8">0</Current><DateUtc dt:dt="string">2016-04-20T22:08:25Z</DateUtc></FrequencyChange></FrequencyChanges></Clock>\n	Hungry_Donkey_bar_English_2-143-1	60.018	153	1.0.0.18	1	315126908	Standard	2.0.10.353	2.0.10.353	04-20-2016		18:08:25	2.0.10.248	61	Bar75-25.bmp	73	2	?	12r_4g.bmp	0r_4g.bmp	3r_2g.bmp	0r_2g.bmp		0r_4g.bmp			TrialProc	TrialList	0	cvbn	-999999	16	337034	0	v	567	337601	190	-70	120	-2	100	10	12	5	7	61	-12	0	-3	0	4	4	2	2	0	4
Hungry_Donkey_bar_English_2	143	1	<?xml version="1.0"?>\n<Clock xmlns:dt="urn:schemas-microsoft-com:datatypes"><Description dt:dt="string">E-Prime Primary Realtime Clock</Description><StartTime><Timestamp dt:dt="int">0</Timestamp><DateUtc dt:dt="string">2016-04-20T22:08:25Z</DateUtc></StartTime><FrequencyChanges><FrequencyChange><Frequency dt:dt="r8">3507714</Frequency><Timestamp dt:dt="r8">314443561</Timestamp><Current dt:dt="r8">0</Current><DateUtc dt:dt="string">2016-04-20T22:08:25Z</DateUtc></FrequencyChange></FrequencyChanges></Clock>\n	Hungry_Donkey_bar_English_2-143-1	60.018	153	1.0.0.18	1	315126908	Standard	2.0.10.353	2.0.10.353	04-20-2016		18:08:25	2.0.10.248	62	Bar75-25.bmp	71	1	?	8r_4g.bmp	50r_4g.bmp	1r_2g.bmp	10r_2g.bmp	8r_4g.bmp				TrialProc	TrialList	0	cvbn	-999999	16	339633	0	c	1184	340817	194	-78	116	-6	100	10	12	1	7	62	-8	-50	-1	-10	4	4	2	2	-8	4
Hungry_Donkey_bar_English_2	143	1	<?xml version="1.0"?>\n<Clock xmlns:dt="urn:schemas-microsoft-com:datatypes"><Description dt:dt="string">E-Prime Primary Realtime Clock</Description><StartTime><Timestamp dt:dt="int">0</Timestamp><DateUtc dt:dt="string">2016-04-20T22:08:25Z</DateUtc></StartTime><FrequencyChanges><FrequencyChange><Frequency dt:dt="r8">3507714</Frequency><Timestamp dt:dt="r8">314443561</Timestamp><Current dt:dt="r8">0</Current><DateUtc dt:dt="string">2016-04-20T22:08:25Z</DateUtc></FrequencyChange></FrequencyChanges></Clock>\n	Hungry_Donkey_bar_English_2-143-1	60.018	153	1.0.0.18	1	315126908	Standard	2.0.10.353	2.0.10.353	04-20-2016		18:08:25	2.0.10.248	63	Bar75-25.bmp	72	2	?	0r_4g.bmp	0r_4g.bmp	0r_2g.bmp	0r_2g.bmp		0r_4g.bmp			TrialProc	TrialList	0	cvbn	-999999	16	342849	0	v	752	343601	198	-78	120	-6	104	10	12	8	7	63	0	0	0	0	4	4	2	2	0	4
Hungry_Donkey_bar_English_2	143	1	<?xml version="1.0"?>\n<Clock xmlns:dt="urn:schemas-microsoft-com:datatypes"><Description dt:dt="string">E-Prime Primary Realtime Clock</Description><StartTime><Timestamp dt:dt="int">0</Timestamp><DateUtc dt:dt="string">2016-04-20T22:08:25Z</DateUtc></StartTime><FrequencyChanges><FrequencyChange><Frequency dt:dt="r8">3507714</Frequency><Timestamp dt:dt="r8">314443561</Timestamp><Current dt:dt="r8">0</Current><DateUtc dt:dt="string">2016-04-20T22:08:25Z</DateUtc></FrequencyChange></FrequencyChanges></Clock>\n	Hungry_Donkey_bar_English_2-143-1	60.018	153	1.0.0.18	1	315126908	Standard	2.0.10.353	2.0.10.353	04-20-2016		18:08:25	2.0.10.248	64	Bar75-25.bmp	71	3	?	10r_4g.bmp	0r_4g.bmp	2r_2g.bmp	0r_2g.bmp			2r_2g.bmp		TrialProc	TrialList	0	cvbn	-999999	16	345631	0	b	1058	346689	200	-80	120	-6	104	10	12	3	7	64	-10	0	-2	0	4	4	2	2	-2	2
Hungry_Donkey_bar_English_2	143	1	<?xml version="1.0"?>\n<Clock xmlns:dt="urn:schemas-microsoft-com:datatypes"><Description dt:dt="string">E-Prime Primary Realtime Clock</Description><StartTime><Timestamp dt:dt="int">0</Timestamp><DateUtc dt:dt="string">2016-04-20T22:08:25Z</DateUtc></StartTime><FrequencyChanges><FrequencyChange><Frequency dt:dt="r8">3507714</Frequency><Timestamp dt:dt="r8">314443561</Timestamp><Current dt:dt="r8">0</Current><DateUtc dt:dt="string">2016-04-20T22:08:25Z</DateUtc></FrequencyChange></FrequencyChanges></Clock>\n	Hungry_Donkey_bar_English_2-143-1	60.018	153	1.0.0.18	1	315126908	Standard	2.0.10.353	2.0.10.353	04-20-2016		18:08:25	2.0.10.248	65	Bar75-25.bmp	72	4	?	10r_4g.bmp	0r_4g.bmp	2r_2g.bmp	0r_2g.bmp				0r_2g.bmp	TrialProc	TrialList	0	cvbn	-999999	16	348714	0	n	1207	349921	202	-80	122	-6	104	10	14	2	7	65	-10	0	-2	0	4	4	2	2	0	2
Hungry_Donkey_bar_English_2	143	1	<?xml version="1.0"?>\n<Clock xmlns:dt="urn:schemas-microsoft-com:datatypes"><Description dt:dt="string">E-Prime Primary Realtime Clock</Description><StartTime><Timestamp dt:dt="int">0</Timestamp><DateUtc dt:dt="string">2016-04-20T22:08:25Z</DateUtc></StartTime><FrequencyChanges><FrequencyChange><Frequency dt:dt="r8">3507714</Frequency><Timestamp dt:dt="r8">314443561</Timestamp><Current dt:dt="r8">0</Current><DateUtc dt:dt="string">2016-04-20T22:08:25Z</DateUtc></FrequencyChange></FrequencyChanges></Clock>\n	Hungry_Donkey_bar_English_2-143-1	60.018	153	1.0.0.18	1	315126908	Standard	2.0.10.353	2.0.10.353	04-20-2016		18:08:25	2.0.10.248	66	Bar75-25.bmp	72	3	?	0r_4g.bmp	0r_4g.bmp	0r_2g.bmp	0r_2g.bmp			0r_2g.bmp		TrialProc	TrialList	0	cvbn	-999999	16	351946	0	b	967	352913	204	-80	124	-6	104	12	14	7	7	66	0	0	0	0	4	4	2	2	0	2
Hungry_Donkey_bar_English_2	143	1	<?xml version="1.0"?>\n<Clock xmlns:dt="urn:schemas-microsoft-com:datatypes"><Description dt:dt="string">E-Prime Primary Realtime Clock</Description><StartTime><Timestamp dt:dt="int">0</Timestamp><DateUtc dt:dt="string">2016-04-20T22:08:25Z</DateUtc></StartTime><FrequencyChanges><FrequencyChange><Frequency dt:dt="r8">3507714</Frequency><Timestamp dt:dt="r8">314443561</Timestamp><Current dt:dt="r8">0</Current><DateUtc dt:dt="string">2016-04-20T22:08:25Z</DateUtc></FrequencyChange></FrequencyChanges></Clock>\n	Hungry_Donkey_bar_English_2-143-1	60.018	153	1.0.0.18	1	315126908	Standard	2.0.10.353	2.0.10.353	04-20-2016		18:08:25	2.0.10.248	67	Bar75-25.bmp	72	2	?	0r_4g.bmp	0r_4g.bmp	0r_2g.bmp	0r_2g.bmp		0r_4g.bmp			TrialProc	TrialList	0	cvbn	-999999	16	354945	0	v	1215	356160	208	-80	128	-6	108	12	14	6	7	67	0	0	0	0	4	4	2	2	0	4
Hungry_Donkey_bar_English_2	143	1	<?xml version="1.0"?>\n<Clock xmlns:dt="urn:schemas-microsoft-com:datatypes"><Description dt:dt="string">E-Prime Primary Realtime Clock</Description><StartTime><Timestamp dt:dt="int">0</Timestamp><DateUtc dt:dt="string">2016-04-20T22:08:25Z</DateUtc></StartTime><FrequencyChanges><FrequencyChange><Frequency dt:dt="r8">3507714</Frequency><Timestamp dt:dt="r8">314443561</Timestamp><Current dt:dt="r8">0</Current><DateUtc dt:dt="string">2016-04-20T22:08:25Z</DateUtc></FrequencyChange></FrequencyChanges></Clock>\n	Hungry_Donkey_bar_English_2-143-1	60.018	153	1.0.0.18	1	315126908	Standard	2.0.10.353	2.0.10.353	04-20-2016		18:08:25	2.0.10.248	68	Bar75-25.bmp	73	1	?	0r_4g.bmp	0r_4g.bmp	0r_2g.bmp	0r_2g.bmp	0r_4g.bmp				TrialProc	TrialList	0	cvbn	-999999	16	358194	0	c	766	358960	212	-80	132	-2	108	12	14	10	7	68	0	0	0	0	4	4	2	2	0	4
Hungry_Donkey_bar_English_2	143	1	<?xml version="1.0"?>\n<Clock xmlns:dt="urn:schemas-microsoft-com:datatypes"><Description dt:dt="string">E-Prime Primary Realtime Clock</Description><StartTime><Timestamp dt:dt="int">0</Timestamp><DateUtc dt:dt="string">2016-04-20T22:08:25Z</DateUtc></StartTime><FrequencyChanges><FrequencyChange><Frequency dt:dt="r8">3507714</Frequency><Timestamp dt:dt="r8">314443561</Timestamp><Current dt:dt="r8">0</Current><DateUtc dt:dt="string">2016-04-20T22:08:25Z</DateUtc></FrequencyChange></FrequencyChanges></Clock>\n	Hungry_Donkey_bar_English_2-143-1	60.018	153	1.0.0.18	1	315126908	Standard	2.0.10.353	2.0.10.353	04-20-2016		18:08:25	2.0.10.248	69	Bar75-25.bmp	73	4	?	10r_4g.bmp	0r_4g.bmp	2r_2g.bmp	0r_2g.bmp				0r_2g.bmp	TrialProc	TrialList	0	cvbn	-999999	16	360993	0	n	2255	363248	214	-80	134	-2	108	12	16	4	7	69	-10	0	-2	0	4	4	2	2	0	2
Hungry_Donkey_bar_English_2	143	1	<?xml version="1.0"?>\n<Clock xmlns:dt="urn:schemas-microsoft-com:datatypes"><Description dt:dt="string">E-Prime Primary Realtime Clock</Description><StartTime><Timestamp dt:dt="int">0</Timestamp><DateUtc dt:dt="string">2016-04-20T22:08:25Z</DateUtc></StartTime><FrequencyChanges><FrequencyChange><Frequency dt:dt="r8">3507714</Frequency><Timestamp dt:dt="r8">314443561</Timestamp><Current dt:dt="r8">0</Current><DateUtc dt:dt="string">2016-04-20T22:08:25Z</DateUtc></FrequencyChange></FrequencyChanges></Clock>\n	Hungry_Donkey_bar_English_2-143-1	60.018	153	1.0.0.18	1	315126908	Standard	2.0.10.353	2.0.10.353	04-20-2016		18:08:25	2.0.10.248	70	Bar75-25.bmp	73	3	?	0r_4g.bmp	0r_4g.bmp	0r_2g.bmp	0r_2g.bmp			0r_2g.bmp		TrialProc	TrialList	0	cvbn	-999999	16	365275	0	b	2549	367824	216	-80	136	-2	108	14	16	9	7	70	0	0	0	0	4	4	2	2	0	2
Hungry_Donkey_bar_English_2	143	1	<?xml version="1.0"?>\n<Clock xmlns:dt="urn:schemas-microsoft-com:datatypes"><Description dt:dt="string">E-Prime Primary Realtime Clock</Description><StartTime><Timestamp dt:dt="int">0</Timestamp><DateUtc dt:dt="string">2016-04-20T22:08:25Z</DateUtc></StartTime><FrequencyChanges><FrequencyChange><Frequency dt:dt="r8">3507714</Frequency><Timestamp dt:dt="r8">314443561</Timestamp><Current dt:dt="r8">0</Current><DateUtc dt:dt="string">2016-04-20T22:08:25Z</DateUtc></FrequencyChange></FrequencyChanges></Clock>\n	Hungry_Donkey_bar_English_2-143-1	60.018	153	1.0.0.18	1	315126908	Standard	2.0.10.353	2.0.10.353	04-20-2016		18:08:25	2.0.10.248	71	Bar75-25.bmp	73	2	?	10r_4g.bmp	0r_4g.bmp	2r_2g.bmp	0r_2g.bmp		0r_4g.bmp			TrialProc	TrialList	0	cvbn	-999999	16	369857	0	v	3646	373503	220	-80	140	-2	112	14	16	3	8	71	-10	0	-2	0	4	4	2	2	0	4
Hungry_Donkey_bar_English_2	143	1	<?xml version="1.0"?>\n<Clock xmlns:dt="urn:schemas-microsoft-com:datatypes"><Description dt:dt="string">E-Prime Primary Realtime Clock</Description><StartTime><Timestamp dt:dt="int">0</Timestamp><DateUtc dt:dt="string">2016-04-20T22:08:25Z</DateUtc></StartTime><FrequencyChanges><FrequencyChange><Frequency dt:dt="r8">3507714</Frequency><Timestamp dt:dt="r8">314443561</Timestamp><Current dt:dt="r8">0</Current><DateUtc dt:dt="string">2016-04-20T22:08:25Z</DateUtc></FrequencyChange></FrequencyChanges></Clock>\n	Hungry_Donkey_bar_English_2-143-1	60.018	153	1.0.0.18	1	315126908	Standard	2.0.10.353	2.0.10.353	04-20-2016		18:08:25	2.0.10.248	72	Bar75-25.bmp	74	3	?	0r_4g.bmp	0r_4g.bmp	0r_2g.bmp	0r_2g.bmp			0r_2g.bmp		TrialProc	TrialList	0	cvbn	-999999	16	375539	0	b	7420	382959	222	-80	142	-2	112	16	16	9	8	72	0	0	0	0	4	4	2	2	0	2
Hungry_Donkey_bar_English_2	143	1	<?xml version="1.0"?>\n<Clock xmlns:dt="urn:schemas-microsoft-com:datatypes"><Description dt:dt="string">E-Prime Primary Realtime Clock</Description><StartTime><Timestamp dt:dt="int">0</Timestamp><DateUtc dt:dt="string">2016-04-20T22:08:25Z</DateUtc></StartTime><FrequencyChanges><FrequencyChange><Frequency dt:dt="r8">3507714</Frequency><Timestamp dt:dt="r8">314443561</Timestamp><Current dt:dt="r8">0</Current><DateUtc dt:dt="string">2016-04-20T22:08:25Z</DateUtc></FrequencyChange></FrequencyChanges></Clock>\n	Hungry_Donkey_bar_English_2-143-1	60.018	153	1.0.0.18	1	315126908	Standard	2.0.10.353	2.0.10.353	04-20-2016		18:08:25	2.0.10.248	73	Bar75-25.bmp	74	4	?	0r_4g.bmp	0r_4g.bmp	0r_2g.bmp	0r_2g.bmp				0r_2g.bmp	TrialProc	TrialList	0	cvbn	-999999	16	384986	0	n	725	385711	224	-80	144	-2	112	16	18	8	8	73	0	0	0	0	4	4	2	2	0	2
Hungry_Donkey_bar_English_2	143	1	<?xml version="1.0"?>\n<Clock xmlns:dt="urn:schemas-microsoft-com:datatypes"><Description dt:dt="string">E-Prime Primary Realtime Clock</Description><StartTime><Timestamp dt:dt="int">0</Timestamp><DateUtc dt:dt="string">2016-04-20T22:08:25Z</DateUtc></StartTime><FrequencyChanges><FrequencyChange><Frequency dt:dt="r8">3507714</Frequency><Timestamp dt:dt="r8">314443561</Timestamp><Current dt:dt="r8">0</Current><DateUtc dt:dt="string">2016-04-20T22:08:25Z</DateUtc></FrequencyChange></FrequencyChanges></Clock>\n	Hungry_Donkey_bar_English_2-143-1	60.018	153	1.0.0.18	1	315126908	Standard	2.0.10.353	2.0.10.353	04-20-2016		18:08:25	2.0.10.248	74	Bar75-25.bmp	74	2	?	0r_4g.bmp	0r_4g.bmp	0r_2g.bmp	0r_2g.bmp		0r_4g.bmp			TrialProc	TrialList	0	cvbn	-999999	16	387735	0	v	1367	389102	228	-80	148	-2	116	16	18	7	8	74	0	0	0	0	4	4	2	2	0	4
Hungry_Donkey_bar_English_2	143	1	<?xml version="1.0"?>\n<Clock xmlns:dt="urn:schemas-microsoft-com:datatypes"><Description dt:dt="string">E-Prime Primary Realtime Clock</Description><StartTime><Timestamp dt:dt="int">0</Timestamp><DateUtc dt:dt="string">2016-04-20T22:08:25Z</DateUtc></StartTime><FrequencyChanges><FrequencyChange><Frequency dt:dt="r8">3507714</Frequency><Timestamp dt:dt="r8">314443561</Timestamp><Current dt:dt="r8">0</Current><DateUtc dt:dt="string">2016-04-20T22:08:25Z</DateUtc></FrequencyChange></FrequencyChanges></Clock>\n	Hungry_Donkey_bar_English_2-143-1	60.018	153	1.0.0.18	1	315126908	Standard	2.0.10.353	2.0.10.353	04-20-2016		18:08:25	2.0.10.248	75	Bar75-25.bmp	74	4	?	10r_4g.bmp	0r_4g.bmp	2r_2g.bmp	0r_2g.bmp				0r_2g.bmp	TrialProc	TrialList	0	cvbn	-999999	16	391134	0	n	864	391998	230	-80	150	-2	116	16	20	4	8	75	-10	0	-2	0	4	4	2	2	0	2
Hungry_Donkey_bar_English_2	143	1	<?xml version="1.0"?>\n<Clock xmlns:dt="urn:schemas-microsoft-com:datatypes"><Description dt:dt="string">E-Prime Primary Realtime Clock</Description><StartTime><Timestamp dt:dt="int">0</Timestamp><DateUtc dt:dt="string">2016-04-20T22:08:25Z</DateUtc></StartTime><FrequencyChanges><FrequencyChange><Frequency dt:dt="r8">3507714</Frequency><Timestamp dt:dt="r8">314443561</Timestamp><Current dt:dt="r8">0</Current><DateUtc dt:dt="string">2016-04-20T22:08:25Z</DateUtc></FrequencyChange></FrequencyChanges></Clock>\n	Hungry_Donkey_bar_English_2-143-1	60.018	153	1.0.0.18	1	315126908	Standard	2.0.10.353	2.0.10.353	04-20-2016		18:08:25	2.0.10.248	76	Bar75-25.bmp	75	1	?	0r_4g.bmp	0r_4g.bmp	0r_2g.bmp	0r_2g.bmp	0r_4g.bmp				TrialProc	TrialList	0	cvbn	-999999	16	394033	0	c	749	394782	234	-80	154	2	116	16	20	6	8	76	0	0	0	0	4	4	2	2	0	4
Hungry_Donkey_bar_English_2	143	1	<?xml version="1.0"?>\n<Clock xmlns:dt="urn:schemas-microsoft-com:datatypes"><Description dt:dt="string">E-Prime Primary Realtime Clock</Description><StartTime><Timestamp dt:dt="int">0</Timestamp><DateUtc dt:dt="string">2016-04-20T22:08:25Z</DateUtc></StartTime><FrequencyChanges><FrequencyChange><Frequency dt:dt="r8">3507714</Frequency><Timestamp dt:dt="r8">314443561</Timestamp><Current dt:dt="r8">0</Current><DateUtc dt:dt="string">2016-04-20T22:08:25Z</DateUtc></FrequencyChange></FrequencyChanges></Clock>\n	Hungry_Donkey_bar_English_2-143-1	60.018	153	1.0.0.18	1	315126908	Standard	2.0.10.353	2.0.10.353	04-20-2016		18:08:25	2.0.10.248	77	Bar75-25.bmp	72	4	?	8r_4g.bmp	50r_4g.bmp	1r_2g.bmp	10r_2g.bmp				10r_2g.bmp	TrialProc	TrialList	0	cvbn	-999999	16	396816	0	n	286	397102	236	-90	146	2	116	16	12	1	8	77	-8	-50	-1	-10	4	4	2	2	-10	2
Hungry_Donkey_bar_English_2	143	1	<?xml version="1.0"?>\n<Clock xmlns:dt="urn:schemas-microsoft-com:datatypes"><Description dt:dt="string">E-Prime Primary Realtime Clock</Description><StartTime><Timestamp dt:dt="int">0</Timestamp><DateUtc dt:dt="string">2016-04-20T22:08:25Z</DateUtc></StartTime><FrequencyChanges><FrequencyChange><Frequency dt:dt="r8">3507714</Frequency><Timestamp dt:dt="r8">314443561</Timestamp><Current dt:dt="r8">0</Current><DateUtc dt:dt="string">2016-04-20T22:08:25Z</DateUtc></FrequencyChange></FrequencyChanges></Clock>\n	Hungry_Donkey_bar_English_2-143-1	60.018	153	1.0.0.18	1	315126908	Standard	2.0.10.353	2.0.10.353	04-20-2016		18:08:25	2.0.10.248	78	Bar75-25.bmp	72	3	?	10r_4g.bmp	0r_4g.bmp	2r_2g.bmp	0r_2g.bmp			2r_2g.bmp		TrialProc	TrialList	0	cvbn	-999999	16	399132	0	b	978	400110	238	-92	146	2	116	16	12	2	8	78	-10	0	-2	0	4	4	2	2	-2	2
Hungry_Donkey_bar_English_2	143	1	<?xml version="1.0"?>\n<Clock xmlns:dt="urn:schemas-microsoft-com:datatypes"><Description dt:dt="string">E-Prime Primary Realtime Clock</Description><StartTime><Timestamp dt:dt="int">0</Timestamp><DateUtc dt:dt="string">2016-04-20T22:08:25Z</DateUtc></StartTime><FrequencyChanges><FrequencyChange><Frequency dt:dt="r8">3507714</Frequency><Timestamp dt:dt="r8">314443561</Timestamp><Current dt:dt="r8">0</Current><DateUtc dt:dt="string">2016-04-20T22:08:25Z</DateUtc></FrequencyChange></FrequencyChanges></Clock>\n	Hungry_Donkey_bar_English_2-143-1	60.018	153	1.0.0.18	1	315126908	Standard	2.0.10.353	2.0.10.353	04-20-2016		18:08:25	2.0.10.248	79	Bar75-25.bmp	72	2	?	0r_4g.bmp	0r_4g.bmp	0r_2g.bmp	0r_2g.bmp		0r_4g.bmp			TrialProc	TrialList	0	cvbn	-999999	16	402148	0	v	1802	403950	242	-92	150	2	120	16	12	10	8	79	0	0	0	0	4	4	2	2	0	4
Hungry_Donkey_bar_English_2	143	1	<?xml version="1.0"?>\n<Clock xmlns:dt="urn:schemas-microsoft-com:datatypes"><Description dt:dt="string">E-Prime Primary Realtime Clock</Description><StartTime><Timestamp dt:dt="int">0</Timestamp><DateUtc dt:dt="string">2016-04-20T22:08:25Z</DateUtc></StartTime><FrequencyChanges><FrequencyChange><Frequency dt:dt="r8">3507714</Frequency><Timestamp dt:dt="r8">314443561</Timestamp><Current dt:dt="r8">0</Current><DateUtc dt:dt="string">2016-04-20T22:08:25Z</DateUtc></FrequencyChange></FrequencyChanges></Clock>\n	Hungry_Donkey_bar_English_2-143-1	60.018	153	1.0.0.18	1	315126908	Standard	2.0.10.353	2.0.10.353	04-20-2016		18:08:25	2.0.10.248	80	Bar75-25.bmp	72	3	?	12r_4g.bmp	0r_4g.bmp	3r_2g.bmp	0r_2g.bmp			3r_2g.bmp		TrialProc	TrialList	0	cvbn	-999999	16	405980	0	b	785	406765	244	-95	149	2	120	15	12	5	8	80	-12	0	-3	0	4	4	2	2	-3	2
Hungry_Donkey_bar_English_2	143	1	<?xml version="1.0"?>\n<Clock xmlns:dt="urn:schemas-microsoft-com:datatypes"><Description dt:dt="string">E-Prime Primary Realtime Clock</Description><StartTime><Timestamp dt:dt="int">0</Timestamp><DateUtc dt:dt="string">2016-04-20T22:08:25Z</DateUtc></StartTime><FrequencyChanges><FrequencyChange><Frequency dt:dt="r8">3507714</Frequency><Timestamp dt:dt="r8">314443561</Timestamp><Current dt:dt="r8">0</Current><DateUtc dt:dt="string">2016-04-20T22:08:25Z</DateUtc></FrequencyChange></FrequencyChanges></Clock>\n	Hungry_Donkey_bar_English_2-143-1	60.018	153	1.0.0.18	1	315126908	Standard	2.0.10.353	2.0.10.353	04-20-2016		18:08:25	2.0.10.248	81	Bar75-25.bmp	72	2	?	0r_4g.bmp	0r_4g.bmp	0r_2g.bmp	0r_2g.bmp		0r_4g.bmp			TrialProc	TrialList	0	cvbn	-999999	16	408796	0	v	2321	411117	248	-95	153	2	124	15	12	9	9	81	0	0	0	0	4	4	2	2	0	4
Hungry_Donkey_bar_English_2	143	1	<?xml version="1.0"?>\n<Clock xmlns:dt="urn:schemas-microsoft-com:datatypes"><Description dt:dt="string">E-Prime Primary Realtime Clock</Description><StartTime><Timestamp dt:dt="int">0</Timestamp><DateUtc dt:dt="string">2016-04-20T22:08:25Z</DateUtc></StartTime><FrequencyChanges><FrequencyChange><Frequency dt:dt="r8">3507714</Frequency><Timestamp dt:dt="r8">314443561</Timestamp><Current dt:dt="r8">0</Current><DateUtc dt:dt="string">2016-04-20T22:08:25Z</DateUtc></FrequencyChange></FrequencyChanges></Clock>\n	Hungry_Donkey_bar_English_2-143-1	60.018	153	1.0.0.18	1	315126908	Standard	2.0.10.353	2.0.10.353	04-20-2016		18:08:25	2.0.10.248	82	Bar75-25.bmp	72	3	?	12r_4g.bmp	0r_4g.bmp	3r_2g.bmp	0r_2g.bmp			3r_2g.bmp		TrialProc	TrialList	0	cvbn	-999999	16	413144	0	b	725	413869	250	-98	152	2	124	14	12	5	9	82	-12	0	-3	0	4	4	2	2	-3	2
Hungry_Donkey_bar_English_2	143	1	<?xml version="1.0"?>\n<Clock xmlns:dt="urn:schemas-microsoft-com:datatypes"><Description dt:dt="string">E-Prime Primary Realtime Clock</Description><StartTime><Timestamp dt:dt="int">0</Timestamp><DateUtc dt:dt="string">2016-04-20T22:08:25Z</DateUtc></StartTime><FrequencyChanges><FrequencyChange><Frequency dt:dt="r8">3507714</Frequency><Timestamp dt:dt="r8">314443561</Timestamp><Current dt:dt="r8">0</Current><DateUtc dt:dt="string">2016-04-20T22:08:25Z</DateUtc></FrequencyChange></FrequencyChanges></Clock>\n	Hungry_Donkey_bar_English_2-143-1	60.018	153	1.0.0.18	1	315126908	Standard	2.0.10.353	2.0.10.353	04-20-2016		18:08:25	2.0.10.248	83	Bar75-25.bmp	72	2	?	0r_4g.bmp	0r_4g.bmp	0r_2g.bmp	0r_2g.bmp		0r_4g.bmp			TrialProc	TrialList	0	cvbn	-999999	16	415910	0	v	775	416685	254	-98	156	2	128	14	12	8	9	83	0	0	0	0	4	4	2	2	0	4
Hungry_Donkey_bar_English_2	143	1	<?xml version="1.0"?>\n<Clock xmlns:dt="urn:schemas-microsoft-com:datatypes"><Description dt:dt="string">E-Prime Primary Realtime Clock</Description><StartTime><Timestamp dt:dt="int">0</Timestamp><DateUtc dt:dt="string">2016-04-20T22:08:25Z</DateUtc></StartTime><FrequencyChanges><FrequencyChange><Frequency dt:dt="r8">3507714</Frequency><Timestamp dt:dt="r8">314443561</Timestamp><Current dt:dt="r8">0</Current><DateUtc dt:dt="string">2016-04-20T22:08:25Z</DateUtc></FrequencyChange></FrequencyChanges></Clock>\n	Hungry_Donkey_bar_English_2-143-1	60.018	153	1.0.0.18	1	315126908	Standard	2.0.10.353	2.0.10.353	04-20-2016		18:08:25	2.0.10.248	84	Bar75-25.bmp	72	1	?	0r_4g.bmp	0r_4g.bmp	0r_2g.bmp	0r_2g.bmp	0r_4g.bmp				TrialProc	TrialList	0	cvbn	-999999	16	418709	0	c	1064	419773	258	-98	160	6	128	14	12	10	9	84	0	0	0	0	4	4	2	2	0	4
Hungry_Donkey_bar_English_2	143	1	<?xml version="1.0"?>\n<Clock xmlns:dt="urn:schemas-microsoft-com:datatypes"><Description dt:dt="string">E-Prime Primary Realtime Clock</Description><StartTime><Timestamp dt:dt="int">0</Timestamp><DateUtc dt:dt="string">2016-04-20T22:08:25Z</DateUtc></StartTime><FrequencyChanges><FrequencyChange><Frequency dt:dt="r8">3507714</Frequency><Timestamp dt:dt="r8">314443561</Timestamp><Current dt:dt="r8">0</Current><DateUtc dt:dt="string">2016-04-20T22:08:25Z</DateUtc></FrequencyChange></FrequencyChanges></Clock>\n	Hungry_Donkey_bar_English_2-143-1	60.018	153	1.0.0.18	1	315126908	Standard	2.0.10.353	2.0.10.353	04-20-2016		18:08:25	2.0.10.248	85	Bar75-25.bmp	73	4	?	10r_4g.bmp	0r_4g.bmp	2r_2g.bmp	0r_2g.bmp				0r_2g.bmp	TrialProc	TrialList	0	cvbn	-999999	16	421809	0	n	1739	423548	260	-98	162	6	128	14	14	3	9	85	-10	0	-2	0	4	4	2	2	0	2
Hungry_Donkey_bar_English_2	143	1	<?xml version="1.0"?>\n<Clock xmlns:dt="urn:schemas-microsoft-com:datatypes"><Description dt:dt="string">E-Prime Primary Realtime Clock</Description><StartTime><Timestamp dt:dt="int">0</Timestamp><DateUtc dt:dt="string">2016-04-20T22:08:25Z</DateUtc></StartTime><FrequencyChanges><FrequencyChange><Frequency dt:dt="r8">3507714</Frequency><Timestamp dt:dt="r8">314443561</Timestamp><Current dt:dt="r8">0</Current><DateUtc dt:dt="string">2016-04-20T22:08:25Z</DateUtc></FrequencyChange></FrequencyChanges></Clock>\n	Hungry_Donkey_bar_English_2-143-1	60.018	153	1.0.0.18	1	315126908	Standard	2.0.10.353	2.0.10.353	04-20-2016		18:08:25	2.0.10.248	86	Bar75-25.bmp	73	2	?	10r_4g.bmp	0r_4g.bmp	2r_2g.bmp	0r_2g.bmp		0r_4g.bmp			TrialProc	TrialList	0	cvbn	-999999	16	425574	0	v	886	426460	264	-98	166	6	132	14	14	2	9	86	-10	0	-2	0	4	4	2	2	0	4
Hungry_Donkey_bar_English_2	143	1	<?xml version="1.0"?>\n<Clock xmlns:dt="urn:schemas-microsoft-com:datatypes"><Description dt:dt="string">E-Prime Primary Realtime Clock</Description><StartTime><Timestamp dt:dt="int">0</Timestamp><DateUtc dt:dt="string">2016-04-20T22:08:25Z</DateUtc></StartTime><FrequencyChanges><FrequencyChange><Frequency dt:dt="r8">3507714</Frequency><Timestamp dt:dt="r8">314443561</Timestamp><Current dt:dt="r8">0</Current><DateUtc dt:dt="string">2016-04-20T22:08:25Z</DateUtc></FrequencyChange></FrequencyChanges></Clock>\n	Hungry_Donkey_bar_English_2-143-1	60.018	153	1.0.0.18	1	315126908	Standard	2.0.10.353	2.0.10.353	04-20-2016		18:08:25	2.0.10.248	87	Bar75-25.bmp	72	1	?	8r_4g.bmp	50r_4g.bmp	1r_2g.bmp	10r_2g.bmp	8r_4g.bmp				TrialProc	TrialList	0	cvbn	-999999	16	428490	0	c	962	429452	268	-106	162	2	132	14	14	1	9	87	-8	-50	-1	-10	4	4	2	2	-8	4
Hungry_Donkey_bar_English_2	143	1	<?xml version="1.0"?>\n<Clock xmlns:dt="urn:schemas-microsoft-com:datatypes"><Description dt:dt="string">E-Prime Primary Realtime Clock</Description><StartTime><Timestamp dt:dt="int">0</Timestamp><DateUtc dt:dt="string">2016-04-20T22:08:25Z</DateUtc></StartTime><FrequencyChanges><FrequencyChange><Frequency dt:dt="r8">3507714</Frequency><Timestamp dt:dt="r8">314443561</Timestamp><Current dt:dt="r8">0</Current><DateUtc dt:dt="string">2016-04-20T22:08:25Z</DateUtc></FrequencyChange></FrequencyChanges></Clock>\n	Hungry_Donkey_bar_English_2-143-1	60.018	153	1.0.0.18	1	315126908	Standard	2.0.10.353	2.0.10.353	04-20-2016		18:08:25	2.0.10.248	88	Bar75-25.bmp	72	3	?	0r_4g.bmp	0r_4g.bmp	0r_2g.bmp	0r_2g.bmp			0r_2g.bmp		TrialProc	TrialList	0	cvbn	-999999	16	431489	0	b	603	432092	270	-106	164	2	132	16	14	6	9	88	0	0	0	0	4	4	2	2	0	2
Hungry_Donkey_bar_English_2	143	1	<?xml version="1.0"?>\n<Clock xmlns:dt="urn:schemas-microsoft-com:datatypes"><Description dt:dt="string">E-Prime Primary Realtime Clock</Description><StartTime><Timestamp dt:dt="int">0</Timestamp><DateUtc dt:dt="string">2016-04-20T22:08:25Z</DateUtc></StartTime><FrequencyChanges><FrequencyChange><Frequency dt:dt="r8">3507714</Frequency><Timestamp dt:dt="r8">314443561</Timestamp><Current dt:dt="r8">0</Current><DateUtc dt:dt="string">2016-04-20T22:08:25Z</DateUtc></FrequencyChange></FrequencyChanges></Clock>\n	Hungry_Donkey_bar_English_2-143-1	60.018	153	1.0.0.18	1	315126908	Standard	2.0.10.353	2.0.10.353	04-20-2016		18:08:25	2.0.10.248	89	Bar75-25.bmp	72	4	?	10r_4g.bmp	0r_4g.bmp	2r_2g.bmp	0r_2g.bmp				0r_2g.bmp	TrialProc	TrialList	0	cvbn	-999999	16	434122	0	n	3378	437500	272	-106	166	2	132	16	16	4	9	89	-10	0	-2	0	4	4	2	2	0	2
Hungry_Donkey_bar_English_2	143	1	<?xml version="1.0"?>\n<Clock xmlns:dt="urn:schemas-microsoft-com:datatypes"><Description dt:dt="string">E-Prime Primary Realtime Clock</Description><StartTime><Timestamp dt:dt="int">0</Timestamp><DateUtc dt:dt="string">2016-04-20T22:08:25Z</DateUtc></StartTime><FrequencyChanges><FrequencyChange><Frequency dt:dt="r8">3507714</Frequency><Timestamp dt:dt="r8">314443561</Timestamp><Current dt:dt="r8">0</Current><DateUtc dt:dt="string">2016-04-20T22:08:25Z</DateUtc></FrequencyChange></FrequencyChanges></Clock>\n	Hungry_Donkey_bar_English_2-143-1	60.018	153	1.0.0.18	1	315126908	Standard	2.0.10.353	2.0.10.353	04-20-2016		18:08:25	2.0.10.248	90	Bar75-25.bmp	72	3	?	0r_4g.bmp	0r_4g.bmp	0r_2g.bmp	0r_2g.bmp			0r_2g.bmp		TrialProc	TrialList	0	cvbn	-999999	16	439537	0	b	3370	442907	274	-106	168	2	132	18	16	7	9	90	0	0	0	0	4	4	2	2	0	2
Hungry_Donkey_bar_English_2	143	1	<?xml version="1.0"?>\n<Clock xmlns:dt="urn:schemas-microsoft-com:datatypes"><Description dt:dt="string">E-Prime Primary Realtime Clock</Description><StartTime><Timestamp dt:dt="int">0</Timestamp><DateUtc dt:dt="string">2016-04-20T22:08:25Z</DateUtc></StartTime><FrequencyChanges><FrequencyChange><Frequency dt:dt="r8">3507714</Frequency><Timestamp dt:dt="r8">314443561</Timestamp><Current dt:dt="r8">0</Current><DateUtc dt:dt="string">2016-04-20T22:08:25Z</DateUtc></FrequencyChange></FrequencyChanges></Clock>\n	Hungry_Donkey_bar_English_2-143-1	60.018	153	1.0.0.18	1	315126908	Standard	2.0.10.353	2.0.10.353	04-20-2016		18:08:25	2.0.10.248	91	Bar75-25.bmp	72	2	?	0r_4g.bmp	0r_4g.bmp	0r_2g.bmp	0r_2g.bmp		0r_4g.bmp			TrialProc	TrialList	0	cvbn	-999999	16	444935	0	v	788	445723	278	-106	172	2	136	18	16	10	10	91	0	0	0	0	4	4	2	2	0	4
Hungry_Donkey_bar_English_2	143	1	<?xml version="1.0"?>\n<Clock xmlns:dt="urn:schemas-microsoft-com:datatypes"><Description dt:dt="string">E-Prime Primary Realtime Clock</Description><StartTime><Timestamp dt:dt="int">0</Timestamp><DateUtc dt:dt="string">2016-04-20T22:08:25Z</DateUtc></StartTime><FrequencyChanges><FrequencyChange><Frequency dt:dt="r8">3507714</Frequency><Timestamp dt:dt="r8">314443561</Timestamp><Current dt:dt="r8">0</Current><DateUtc dt:dt="string">2016-04-20T22:08:25Z</DateUtc></FrequencyChange></FrequencyChanges></Clock>\n	Hungry_Donkey_bar_English_2-143-1	60.018	153	1.0.0.18	1	315126908	Standard	2.0.10.353	2.0.10.353	04-20-2016		18:08:25	2.0.10.248	92	Bar75-25.bmp	73	1	?	0r_4g.bmp	0r_4g.bmp	0r_2g.bmp	0r_2g.bmp	0r_4g.bmp				TrialProc	TrialList	0	cvbn	-999999	16	447751	0	c	276	448027	282	-106	176	6	136	18	16	9	10	92	0	0	0	0	4	4	2	2	0	4
Hungry_Donkey_bar_English_2	143	1	<?xml version="1.0"?>\n<Clock xmlns:dt="urn:schemas-microsoft-com:datatypes"><Description dt:dt="string">E-Prime Primary Realtime Clock</Description><StartTime><Timestamp dt:dt="int">0</Timestamp><DateUtc dt:dt="string">2016-04-20T22:08:25Z</DateUtc></StartTime><FrequencyChanges><FrequencyChange><Frequency dt:dt="r8">3507714</Frequency><Timestamp dt:dt="r8">314443561</Timestamp><Current dt:dt="r8">0</Current><DateUtc dt:dt="string">2016-04-20T22:08:25Z</DateUtc></FrequencyChange></FrequencyChanges></Clock>\n	Hungry_Donkey_bar_English_2-143-1	60.018	153	1.0.0.18	1	315126908	Standard	2.0.10.353	2.0.10.353	04-20-2016		18:08:25	2.0.10.248	93	Bar75-25.bmp	73	2	?	10r_4g.bmp	0r_4g.bmp	2r_2g.bmp	0r_2g.bmp		0r_4g.bmp			TrialProc	TrialList	0	cvbn	-999999	16	450067	0	v	328	450395	286	-106	180	6	140	18	16	2	10	93	-10	0	-2	0	4	4	2	2	0	4
Hungry_Donkey_bar_English_2	143	1	<?xml version="1.0"?>\n<Clock xmlns:dt="urn:schemas-microsoft-com:datatypes"><Description dt:dt="string">E-Prime Primary Realtime Clock</Description><StartTime><Timestamp dt:dt="int">0</Timestamp><DateUtc dt:dt="string">2016-04-20T22:08:25Z</DateUtc></StartTime><FrequencyChanges><FrequencyChange><Frequency dt:dt="r8">3507714</Frequency><Timestamp dt:dt="r8">314443561</Timestamp><Current dt:dt="r8">0</Current><DateUtc dt:dt="string">2016-04-20T22:08:25Z</DateUtc></FrequencyChange></FrequencyChanges></Clock>\n	Hungry_Donkey_bar_English_2-143-1	60.018	153	1.0.0.18	1	315126908	Standard	2.0.10.353	2.0.10.353	04-20-2016		18:08:25	2.0.10.248	94	Bar75-25.bmp	73	3	?	0r_4g.bmp	0r_4g.bmp	0r_2g.bmp	0r_2g.bmp			0r_2g.bmp		TrialProc	TrialList	0	cvbn	-999999	16	452433	0	b	586	453019	288	-106	182	6	140	20	16	8	10	94	0	0	0	0	4	4	2	2	0	2
Hungry_Donkey_bar_English_2	143	1	<?xml version="1.0"?>\n<Clock xmlns:dt="urn:schemas-microsoft-com:datatypes"><Description dt:dt="string">E-Prime Primary Realtime Clock</Description><StartTime><Timestamp dt:dt="int">0</Timestamp><DateUtc dt:dt="string">2016-04-20T22:08:25Z</DateUtc></StartTime><FrequencyChanges><FrequencyChange><Frequency dt:dt="r8">3507714</Frequency><Timestamp dt:dt="r8">314443561</Timestamp><Current dt:dt="r8">0</Current><DateUtc dt:dt="string">2016-04-20T22:08:25Z</DateUtc></FrequencyChange></FrequencyChanges></Clock>\n	Hungry_Donkey_bar_English_2-143-1	60.018	153	1.0.0.18	1	315126908	Standard	2.0.10.353	2.0.10.353	04-20-2016		18:08:25	2.0.10.248	95	Bar75-25.bmp	73	4	?	0r_4g.bmp	0r_4g.bmp	0r_2g.bmp	0r_2g.bmp				0r_2g.bmp	TrialProc	TrialList	0	cvbn	-999999	16	455049	0	n	33	455082	290	-106	184	6	140	20	18	7	10	95	0	0	0	0	4	4	2	2	0	2
Hungry_Donkey_bar_English_2	143	1	<?xml version="1.0"?>\n<Clock xmlns:dt="urn:schemas-microsoft-com:datatypes"><Description dt:dt="string">E-Prime Primary Realtime Clock</Description><StartTime><Timestamp dt:dt="int">0</Timestamp><DateUtc dt:dt="string">2016-04-20T22:08:25Z</DateUtc></StartTime><FrequencyChanges><FrequencyChange><Frequency dt:dt="r8">3507714</Frequency><Timestamp dt:dt="r8">314443561</Timestamp><Current dt:dt="r8">0</Current><DateUtc dt:dt="string">2016-04-20T22:08:25Z</DateUtc></FrequencyChange></FrequencyChanges></Clock>\n	Hungry_Donkey_bar_English_2-143-1	60.018	153	1.0.0.18	1	315126908	Standard	2.0.10.353	2.0.10.353	04-20-2016		18:08:25	2.0.10.248	96	Bar75-25.bmp	73	3	?	12r_4g.bmp	0r_4g.bmp	3r_2g.bmp	0r_2g.bmp			3r_2g.bmp		TrialProc	TrialList	0	cvbn	-999999	16	457115	0	b	1599	458714	292	-109	183	6	140	19	18	5	10	96	-12	0	-3	0	4	4	2	2	-3	2
Hungry_Donkey_bar_English_2	143	1	<?xml version="1.0"?>\n<Clock xmlns:dt="urn:schemas-microsoft-com:datatypes"><Description dt:dt="string">E-Prime Primary Realtime Clock</Description><StartTime><Timestamp dt:dt="int">0</Timestamp><DateUtc dt:dt="string">2016-04-20T22:08:25Z</DateUtc></StartTime><FrequencyChanges><FrequencyChange><Frequency dt:dt="r8">3507714</Frequency><Timestamp dt:dt="r8">314443561</Timestamp><Current dt:dt="r8">0</Current><DateUtc dt:dt="string">2016-04-20T22:08:25Z</DateUtc></FrequencyChange></FrequencyChanges></Clock>\n	Hungry_Donkey_bar_English_2-143-1	60.018	153	1.0.0.18	1	315126908	Standard	2.0.10.353	2.0.10.353	04-20-2016		18:08:25	2.0.10.248	97	Bar63-37.bmp	65	2	?	8r_4g.bmp	50r_4g.bmp	1r_2g.bmp	10r_2g.bmp		50r_4g.bmp			TrialProc	TrialList	0	cvbn	-999999	16	460747	0	v	1199	461946	296	-159	137	6	94	19	18	1	10	97	-8	-50	-1	-10	4	4	2	2	-50	4
Hungry_Donkey_bar_English_2	143	1	<?xml version="1.0"?>\n<Clock xmlns:dt="urn:schemas-microsoft-com:datatypes"><Description dt:dt="string">E-Prime Primary Realtime Clock</Description><StartTime><Timestamp dt:dt="int">0</Timestamp><DateUtc dt:dt="string">2016-04-20T22:08:25Z</DateUtc></StartTime><FrequencyChanges><FrequencyChange><Frequency dt:dt="r8">3507714</Frequency><Timestamp dt:dt="r8">314443561</Timestamp><Current dt:dt="r8">0</Current><DateUtc dt:dt="string">2016-04-20T22:08:25Z</DateUtc></FrequencyChange></FrequencyChanges></Clock>\n	Hungry_Donkey_bar_English_2-143-1	60.018	153	1.0.0.18	1	315126908	Standard	2.0.10.353	2.0.10.353	04-20-2016		18:08:25	2.0.10.248	98	Bar63-37.bmp	65	4	?	10r_4g.bmp	0r_4g.bmp	2r_2g.bmp	0r_2g.bmp				0r_2g.bmp	TrialProc	TrialList	0	cvbn	-999999	16	463979	0	n	1183	465162	298	-159	139	6	94	19	20	3	10	98	-10	0	-2	0	4	4	2	2	0	2
Hungry_Donkey_bar_English_2	143	1	<?xml version="1.0"?>\n<Clock xmlns:dt="urn:schemas-microsoft-com:datatypes"><Description dt:dt="string">E-Prime Primary Realtime Clock</Description><StartTime><Timestamp dt:dt="int">0</Timestamp><DateUtc dt:dt="string">2016-04-20T22:08:25Z</DateUtc></StartTime><FrequencyChanges><FrequencyChange><Frequency dt:dt="r8">3507714</Frequency><Timestamp dt:dt="r8">314443561</Timestamp><Current dt:dt="r8">0</Current><DateUtc dt:dt="string">2016-04-20T22:08:25Z</DateUtc></FrequencyChange></FrequencyChanges></Clock>\n	Hungry_Donkey_bar_English_2-143-1	60.018	153	1.0.0.18	1	315126908	Standard	2.0.10.353	2.0.10.353	04-20-2016		18:08:25	2.0.10.248	99	Bar63-37.bmp	66	2	?	0r_4g.bmp	0r_4g.bmp	0r_2g.bmp	0r_2g.bmp		0r_4g.bmp			TrialProc	TrialList	0	cvbn	-999999	16	467195	0	v	1695	468890	302	-159	143	6	98	19	20	6	10	99	0	0	0	0	4	4	2	2	0	4
Hungry_Donkey_bar_English_2	143	1	<?xml version="1.0"?>\n<Clock xmlns:dt="urn:schemas-microsoft-com:datatypes"><Description dt:dt="string">E-Prime Primary Realtime Clock</Description><StartTime><Timestamp dt:dt="int">0</Timestamp><DateUtc dt:dt="string">2016-04-20T22:08:25Z</DateUtc></StartTime><FrequencyChanges><FrequencyChange><Frequency dt:dt="r8">3507714</Frequency><Timestamp dt:dt="r8">314443561</Timestamp><Current dt:dt="r8">0</Current><DateUtc dt:dt="string">2016-04-20T22:08:25Z</DateUtc></FrequencyChange></FrequencyChanges></Clock>\n	Hungry_Donkey_bar_English_2-143-1	60.018	153	1.0.0.18	1	315126908	Standard	2.0.10.353	2.0.10.353	04-20-2016		18:08:25	2.0.10.248	100	Bar63-37.bmp	64	1	?	10r_4g.bmp	0r_4g.bmp	2r_2g.bmp	0r_2g.bmp	10r_4g.bmp				TrialProc	TrialList	0	cvbn	-999999	16	470927	0	c	571	471498	306	-169	137	0	98	19	20	4	10	100	-10	0	-2	0	4	4	2	2	-10	4
Hungry_Donkey_bar_English_2	143	1	<?xml version="1.0"?>\n<Clock xmlns:dt="urn:schemas-microsoft-com:datatypes"><Description dt:dt="string">E-Prime Primary Realtime Clock</Description><StartTime><Timestamp dt:dt="int">0</Timestamp><DateUtc dt:dt="string">2016-04-20T22:08:25Z</DateUtc></StartTime><FrequencyChanges><FrequencyChange><Frequency dt:dt="r8">3507714</Frequency><Timestamp dt:dt="r8">314443561</Timestamp><Current dt:dt="r8">0</Current><DateUtc dt:dt="string">2016-04-20T22:08:25Z</DateUtc></FrequencyChange></FrequencyChanges></Clock>\n	Hungry_Donkey_bar_English_2-143-1	60.018	153	1.0.0.18	1	315126908	Standard	2.0.10.353	2.0.10.353	04-20-2016		18:08:25	2.0.10.248	101	Bar63-37.bmp	65	2	?	0r_4g.bmp	0r_4g.bmp	0r_2g.bmp	0r_2g.bmp		0r_4g.bmp			TrialProc	TrialList	0	cvbn	-999999	17	473527	0	v	482	474009	310	-169	141	0	102	19	20	9	11	101	0	0	0	0	4	4	2	2	0	4
Hungry_Donkey_bar_English_2	143	1	<?xml version="1.0"?>\n<Clock xmlns:dt="urn:schemas-microsoft-com:datatypes"><Description dt:dt="string">E-Prime Primary Realtime Clock</Description><StartTime><Timestamp dt:dt="int">0</Timestamp><DateUtc dt:dt="string">2016-04-20T22:08:25Z</DateUtc></StartTime><FrequencyChanges><FrequencyChange><Frequency dt:dt="r8">3507714</Frequency><Timestamp dt:dt="r8">314443561</Timestamp><Current dt:dt="r8">0</Current><DateUtc dt:dt="string">2016-04-20T22:08:25Z</DateUtc></FrequencyChange></FrequencyChanges></Clock>\n	Hungry_Donkey_bar_English_2-143-1	60.018	153	1.0.0.18	1	315126908	Standard	2.0.10.353	2.0.10.353	04-20-2016		18:08:25	2.0.10.248	102	Bar63-37.bmp	65	3	?	0r_4g.bmp	0r_4g.bmp	0r_2g.bmp	0r_2g.bmp			0r_2g.bmp		TrialProc	TrialList	0	cvbn	-999999	16	476042	0	b	367	476409	312	-169	143	0	102	21	20	6	11	102	0	0	0	0	4	4	2	2	0	2
Hungry_Donkey_bar_English_2	143	1	<?xml version="1.0"?>\n<Clock xmlns:dt="urn:schemas-microsoft-com:datatypes"><Description dt:dt="string">E-Prime Primary Realtime Clock</Description><StartTime><Timestamp dt:dt="int">0</Timestamp><DateUtc dt:dt="string">2016-04-20T22:08:25Z</DateUtc></StartTime><FrequencyChanges><FrequencyChange><Frequency dt:dt="r8">3507714</Frequency><Timestamp dt:dt="r8">314443561</Timestamp><Current dt:dt="r8">0</Current><DateUtc dt:dt="string">2016-04-20T22:08:25Z</DateUtc></FrequencyChange></FrequencyChanges></Clock>\n	Hungry_Donkey_bar_English_2-143-1	60.018	153	1.0.0.18	1	315126908	Standard	2.0.10.353	2.0.10.353	04-20-2016		18:08:25	2.0.10.248	103	Bar63-37.bmp	65	4	?	10r_4g.bmp	0r_4g.bmp	2r_2g.bmp	0r_2g.bmp				0r_2g.bmp	TrialProc	TrialList	0	cvbn	-999999	16	478442	0	n	559	479001	314	-169	145	0	102	21	22	2	11	103	-10	0	-2	0	4	4	2	2	0	2
Hungry_Donkey_bar_English_2	143	1	<?xml version="1.0"?>\n<Clock xmlns:dt="urn:schemas-microsoft-com:datatypes"><Description dt:dt="string">E-Prime Primary Realtime Clock</Description><StartTime><Timestamp dt:dt="int">0</Timestamp><DateUtc dt:dt="string">2016-04-20T22:08:25Z</DateUtc></StartTime><FrequencyChanges><FrequencyChange><Frequency dt:dt="r8">3507714</Frequency><Timestamp dt:dt="r8">314443561</Timestamp><Current dt:dt="r8">0</Current><DateUtc dt:dt="string">2016-04-20T22:08:25Z</DateUtc></FrequencyChange></FrequencyChanges></Clock>\n	Hungry_Donkey_bar_English_2-143-1	60.018	153	1.0.0.18	1	315126908	Standard	2.0.10.353	2.0.10.353	04-20-2016		18:08:25	2.0.10.248	104	Bar63-37.bmp	65	3	?	0r_4g.bmp	0r_4g.bmp	0r_2g.bmp	0r_2g.bmp			0r_2g.bmp		TrialProc	TrialList	0	cvbn	-999999	15	481024	0	b	505	481529	316	-169	147	0	102	23	22	8	11	104	0	0	0	0	4	4	2	2	0	2
Hungry_Donkey_bar_English_2	143	1	<?xml version="1.0"?>\n<Clock xmlns:dt="urn:schemas-microsoft-com:datatypes"><Description dt:dt="string">E-Prime Primary Realtime Clock</Description><StartTime><Timestamp dt:dt="int">0</Timestamp><DateUtc dt:dt="string">2016-04-20T22:08:25Z</DateUtc></StartTime><FrequencyChanges><FrequencyChange><Frequency dt:dt="r8">3507714</Frequency><Timestamp dt:dt="r8">314443561</Timestamp><Current dt:dt="r8">0</Current><DateUtc dt:dt="string">2016-04-20T22:08:25Z</DateUtc></FrequencyChange></FrequencyChanges></Clock>\n	Hungry_Donkey_bar_English_2-143-1	60.018	153	1.0.0.18	1	315126908	Standard	2.0.10.353	2.0.10.353	04-20-2016		18:08:25	2.0.10.248	105	Bar63-37.bmp	59	2	?	8r_4g.bmp	50r_4g.bmp	1r_2g.bmp	10r_2g.bmp		50r_4g.bmp			TrialProc	TrialList	0	cvbn	-999999	16	483557	0	v	132	483689	320	-219	101	0	56	23	22	1	11	105	-8	-50	-1	-10	4	4	2	2	-50	4
Hungry_Donkey_bar_English_2	143	1	<?xml version="1.0"?>\n<Clock xmlns:dt="urn:schemas-microsoft-com:datatypes"><Description dt:dt="string">E-Prime Primary Realtime Clock</Description><StartTime><Timestamp dt:dt="int">0</Timestamp><DateUtc dt:dt="string">2016-04-20T22:08:25Z</DateUtc></StartTime><FrequencyChanges><FrequencyChange><Frequency dt:dt="r8">3507714</Frequency><Timestamp dt:dt="r8">314443561</Timestamp><Current dt:dt="r8">0</Current><DateUtc dt:dt="string">2016-04-20T22:08:25Z</DateUtc></FrequencyChange></FrequencyChanges></Clock>\n	Hungry_Donkey_bar_English_2-143-1	60.018	153	1.0.0.18	1	315126908	Standard	2.0.10.353	2.0.10.353	04-20-2016		18:08:25	2.0.10.248	106	Bar63-37.bmp	60	3	?	0r_4g.bmp	0r_4g.bmp	0r_2g.bmp	0r_2g.bmp			0r_2g.bmp		TrialProc	TrialList	0	cvbn	-999999	16	485723	0	b	894	486617	322	-219	103	0	56	25	22	10	11	106	0	0	0	0	4	4	2	2	0	2
Hungry_Donkey_bar_English_2	143	1	<?xml version="1.0"?>\n<Clock xmlns:dt="urn:schemas-microsoft-com:datatypes"><Description dt:dt="string">E-Prime Primary Realtime Clock</Description><StartTime><Timestamp dt:dt="int">0</Timestamp><DateUtc dt:dt="string">2016-04-20T22:08:25Z</DateUtc></StartTime><FrequencyChanges><FrequencyChange><Frequency dt:dt="r8">3507714</Frequency><Timestamp dt:dt="r8">314443561</Timestamp><Current dt:dt="r8">0</Current><DateUtc dt:dt="string">2016-04-20T22:08:25Z</DateUtc></FrequencyChange></FrequencyChanges></Clock>\n	Hungry_Donkey_bar_English_2-143-1	60.018	153	1.0.0.18	1	315126908	Standard	2.0.10.353	2.0.10.353	04-20-2016		18:08:25	2.0.10.248	107	Bar63-37.bmp	60	2	?	10r_4g.bmp	0r_4g.bmp	2r_2g.bmp	0r_2g.bmp		0r_4g.bmp			TrialProc	TrialList	0	cvbn	-999999	16	488655	0	v	441	489096	326	-219	107	0	60	25	22	4	11	107	-10	0	-2	0	4	4	2	2	0	4
Hungry_Donkey_bar_English_2	143	1	<?xml version="1.0"?>\n<Clock xmlns:dt="urn:schemas-microsoft-com:datatypes"><Description dt:dt="string">E-Prime Primary Realtime Clock</Description><StartTime><Timestamp dt:dt="int">0</Timestamp><DateUtc dt:dt="string">2016-04-20T22:08:25Z</DateUtc></StartTime><FrequencyChanges><FrequencyChange><Frequency dt:dt="r8">3507714</Frequency><Timestamp dt:dt="r8">314443561</Timestamp><Current dt:dt="r8">0</Current><DateUtc dt:dt="string">2016-04-20T22:08:25Z</DateUtc></FrequencyChange></FrequencyChanges></Clock>\n	Hungry_Donkey_bar_English_2-143-1	60.018	153	1.0.0.18	1	315126908	Standard	2.0.10.353	2.0.10.353	04-20-2016		18:08:25	2.0.10.248	108	Bar63-37.bmp	60	4	?	12r_4g.bmp	0r_4g.bmp	3r_2g.bmp	0r_2g.bmp				0r_2g.bmp	TrialProc	TrialList	0	cvbn	-999999	16	491121	0	n	3735	494856	328	-219	109	0	60	25	24	5	11	108	-12	0	-3	0	4	4	2	2	0	2
Hungry_Donkey_bar_English_2	143	1	<?xml version="1.0"?>\n<Clock xmlns:dt="urn:schemas-microsoft-com:datatypes"><Description dt:dt="string">E-Prime Primary Realtime Clock</Description><StartTime><Timestamp dt:dt="int">0</Timestamp><DateUtc dt:dt="string">2016-04-20T22:08:25Z</DateUtc></StartTime><FrequencyChanges><FrequencyChange><Frequency dt:dt="r8">3507714</Frequency><Timestamp dt:dt="r8">314443561</Timestamp><Current dt:dt="r8">0</Current><DateUtc dt:dt="string">2016-04-20T22:08:25Z</DateUtc></FrequencyChange></FrequencyChanges></Clock>\n	Hungry_Donkey_bar_English_2-143-1	60.018	153	1.0.0.18	1	315126908	Standard	2.0.10.353	2.0.10.353	04-20-2016		18:08:25	2.0.10.248	109	Bar63-37.bmp	60	3	?	0r_4g.bmp	0r_4g.bmp	0r_2g.bmp	0r_2g.bmp			0r_2g.bmp		TrialProc	TrialList	0	cvbn	-999999	16	496886	0	b	2066	498952	330	-219	111	0	60	27	24	7	11	109	0	0	0	0	4	4	2	2	0	2
Hungry_Donkey_bar_English_2	143	1	<?xml version="1.0"?>\n<Clock xmlns:dt="urn:schemas-microsoft-com:datatypes"><Description dt:dt="string">E-Prime Primary Realtime Clock</Description><StartTime><Timestamp dt:dt="int">0</Timestamp><DateUtc dt:dt="string">2016-04-20T22:08:25Z</DateUtc></StartTime><FrequencyChanges><FrequencyChange><Frequency dt:dt="r8">3507714</Frequency><Timestamp dt:dt="r8">314443561</Timestamp><Current dt:dt="r8">0</Current><DateUtc dt:dt="string">2016-04-20T22:08:25Z</DateUtc></FrequencyChange></FrequencyChanges></Clock>\n	Hungry_Donkey_bar_English_2-143-1	60.018	153	1.0.0.18	1	315126908	Standard	2.0.10.353	2.0.10.353	04-20-2016		18:08:25	2.0.10.248	110	Bar63-37.bmp	60	2	?	10r_4g.bmp	0r_4g.bmp	2r_2g.bmp	0r_2g.bmp		0r_4g.bmp			TrialProc	TrialList	0	cvbn	-999999	16	500985	0	v	431	501416	334	-219	115	0	64	27	24	3	11	110	-10	0	-2	0	4	4	2	2	0	4
Hungry_Donkey_bar_English_2	143	1	<?xml version="1.0"?>\n<Clock xmlns:dt="urn:schemas-microsoft-com:datatypes"><Description dt:dt="string">E-Prime Primary Realtime Clock</Description><StartTime><Timestamp dt:dt="int">0</Timestamp><DateUtc dt:dt="string">2016-04-20T22:08:25Z</DateUtc></StartTime><FrequencyChanges><FrequencyChange><Frequency dt:dt="r8">3507714</Frequency><Timestamp dt:dt="r8">314443561</Timestamp><Current dt:dt="r8">0</Current><DateUtc dt:dt="string">2016-04-20T22:08:25Z</DateUtc></FrequencyChange></FrequencyChanges></Clock>\n	Hungry_Donkey_bar_English_2-143-1	60.018	153	1.0.0.18	1	315126908	Standard	2.0.10.353	2.0.10.353	04-20-2016		18:08:25	2.0.10.248	111	Bar63-37.bmp	61	1	?	0r_4g.bmp	0r_4g.bmp	0r_2g.bmp	0r_2g.bmp	0r_4g.bmp				TrialProc	TrialList	0	cvbn	-999999	16	503451	0	c	1069	504520	338	-219	119	4	64	27	24	6	12	111	0	0	0	0	4	4	2	2	0	4
Hungry_Donkey_bar_English_2	143	1	<?xml version="1.0"?>\n<Clock xmlns:dt="urn:schemas-microsoft-com:datatypes"><Description dt:dt="string">E-Prime Primary Realtime Clock</Description><StartTime><Timestamp dt:dt="int">0</Timestamp><DateUtc dt:dt="string">2016-04-20T22:08:25Z</DateUtc></StartTime><FrequencyChanges><FrequencyChange><Frequency dt:dt="r8">3507714</Frequency><Timestamp dt:dt="r8">314443561</Timestamp><Current dt:dt="r8">0</Current><DateUtc dt:dt="string">2016-04-20T22:08:25Z</DateUtc></FrequencyChange></FrequencyChanges></Clock>\n	Hungry_Donkey_bar_English_2-143-1	60.018	153	1.0.0.18	1	315126908	Standard	2.0.10.353	2.0.10.353	04-20-2016		18:08:25	2.0.10.248	112	Bar63-37.bmp	60	4	?	8r_4g.bmp	50r_4g.bmp	1r_2g.bmp	10r_2g.bmp				10r_2g.bmp	TrialProc	TrialList	0	cvbn	-999999	16	506550	0	n	1121	507671	340	-229	111	4	64	27	16	1	12	112	-8	-50	-1	-10	4	4	2	2	-10	2
Hungry_Donkey_bar_English_2	143	1	<?xml version="1.0"?>\n<Clock xmlns:dt="urn:schemas-microsoft-com:datatypes"><Description dt:dt="string">E-Prime Primary Realtime Clock</Description><StartTime><Timestamp dt:dt="int">0</Timestamp><DateUtc dt:dt="string">2016-04-20T22:08:25Z</DateUtc></StartTime><FrequencyChanges><FrequencyChange><Frequency dt:dt="r8">3507714</Frequency><Timestamp dt:dt="r8">314443561</Timestamp><Current dt:dt="r8">0</Current><DateUtc dt:dt="string">2016-04-20T22:08:25Z</DateUtc></FrequencyChange></FrequencyChanges></Clock>\n	Hungry_Donkey_bar_English_2-143-1	60.018	153	1.0.0.18	1	315126908	Standard	2.0.10.353	2.0.10.353	04-20-2016		18:08:25	2.0.10.248	113	Bar63-37.bmp	60	3	?	0r_4g.bmp	0r_4g.bmp	0r_2g.bmp	0r_2g.bmp			0r_2g.bmp		TrialProc	TrialList	0	cvbn	-999999	16	509699	0	b	580	510279	342	-229	113	4	64	29	16	8	12	113	0	0	0	0	4	4	2	2	0	2
Hungry_Donkey_bar_English_2	143	1	<?xml version="1.0"?>\n<Clock xmlns:dt="urn:schemas-microsoft-com:datatypes"><Description dt:dt="string">E-Prime Primary Realtime Clock</Description><StartTime><Timestamp dt:dt="int">0</Timestamp><DateUtc dt:dt="string">2016-04-20T22:08:25Z</DateUtc></StartTime><FrequencyChanges><FrequencyChange><Frequency dt:dt="r8">3507714</Frequency><Timestamp dt:dt="r8">314443561</Timestamp><Current dt:dt="r8">0</Current><DateUtc dt:dt="string">2016-04-20T22:08:25Z</DateUtc></FrequencyChange></FrequencyChanges></Clock>\n	Hungry_Donkey_bar_English_2-143-1	60.018	153	1.0.0.18	1	315126908	Standard	2.0.10.353	2.0.10.353	04-20-2016		18:08:25	2.0.10.248	114	Bar63-37.bmp	59	1	?	10r_4g.bmp	0r_4g.bmp	2r_2g.bmp	0r_2g.bmp	10r_4g.bmp				TrialProc	TrialList	0	cvbn	-999999	16	512315	0	c	428	512743	346	-239	107	-2	64	29	16	2	12	114	-10	0	-2	0	4	4	2	2	-10	4
