ExperimentName	Subject	Session	Clock.Information	DataFile.Basename	Display.RefreshRate	Eindtotaal[Session]	ExperimentVersion	Group	RandomSeed	RuntimeCapabilities	RuntimeVersion	RuntimeVersionExpected	SessionDate	SessionStartDateTimeUtc	SessionTime	StudioVersion	Block	BarImage	BarTotalWinst	DoorChoice	Eindtotaal[Block]	FBDoor1	FBDoor2	FBDoor3	FBDoor4	Image1	Image2	Image3	Image4	Procedure	Running	spel.ACC	spel.CRESP	spel.DurationError	spel.OnsetDelay	spel.OnsetTime	spel.OnsetToOnsetTime	spel.RESP	spel.RT	spel.RTTime	TotalGain	TotalLose	Totalsum	TotalsumD1	TotalsumD2	TotalsumD3	TotalsumD4	TrialList	TrialList.Cycle	TrialList.Sample	varV1	varV2	varV3	varV4	varW1	varW2	varW3	varW4	Verliesbedrag	Winstbedrag
Hungry_Donkey_bar_English_2	144	1	<?xml version="1.0"?>\n<Clock xmlns:dt="urn:schemas-microsoft-com:datatypes"><Description dt:dt="string">E-Prime Primary Realtime Clock</Description><StartTime><Timestamp dt:dt="int">0</Timestamp><DateUtc dt:dt="string">2016-05-18T22:34:58Z</DateUtc></StartTime><FrequencyChanges><FrequencyChange><Frequency dt:dt="r8">3507685</Frequency><Timestamp dt:dt="r8">257954136248</Timestamp><Current dt:dt="r8">0</Current><DateUtc dt:dt="string">2016-05-18T22:34:58Z</DateUtc></FrequencyChange></FrequencyChanges></Clock>\n	Hungry_Donkey_bar_English_2-144-1	60.017	-82	1.0.0.18	1	256771854	Standard	2.0.10.353	2.0.10.353	05-18-2016		18:34:58	2.0.10.248	1	Bar25-75.bmp	29	1	?	10r_4g.bmp	0r_4g.bmp	2r_2g.bmp	0r_2g.bmp	10r_4g.bmp				TrialProc	TrialList	0	cvbn	-999999	18	53669	0	c	1502	55171	4	-10	-6	-6	0	0	0	2	1	1	-10	0	-2	0	4	4	2	2	-10	4
Hungry_Donkey_bar_English_2	144	1	<?xml version="1.0"?>\n<Clock xmlns:dt="urn:schemas-microsoft-com:datatypes"><Description dt:dt="string">E-Prime Primary Realtime Clock</Description><StartTime><Timestamp dt:dt="int">0</Timestamp><DateUtc dt:dt="string">2016-05-18T22:34:58Z</DateUtc></StartTime><FrequencyChanges><FrequencyChange><Frequency dt:dt="r8">3507685</Frequency><Timestamp dt:dt="r8">257954136248</Timestamp><Current dt:dt="r8">0</Current><DateUtc dt:dt="string">2016-05-18T22:34:58Z</DateUtc></FrequencyChange></FrequencyChanges></Clock>\n	Hungry_Donkey_bar_English_2-144-1	60.017	-82	1.0.0.18	1	256771854	Standard	2.0.10.353	2.0.10.353	05-18-2016		18:34:58	2.0.10.248	2	Bar37-63.bmp	38	3	?	0r_4g.bmp	0r_4g.bmp	0r_2g.bmp	0r_2g.bmp			0r_2g.bmp		TrialProc	TrialList	0	cvbn	-999999	16	57201	0	b	1682	58883	6	-10	-4	-6	0	2	0	7	1	2	0	0	0	0	4	4	2	2	0	2
Hungry_Donkey_bar_English_2	144	1	<?xml version="1.0"?>\n<Clock xmlns:dt="urn:schemas-microsoft-com:datatypes"><Description dt:dt="string">E-Prime Primary Realtime Clock</Description><StartTime><Timestamp dt:dt="int">0</Timestamp><DateUtc dt:dt="string">2016-05-18T22:34:58Z</DateUtc></StartTime><FrequencyChanges><FrequencyChange><Frequency dt:dt="r8">3507685</Frequency><Timestamp dt:dt="r8">257954136248</Timestamp><Current dt:dt="r8">0</Current><DateUtc dt:dt="string">2016-05-18T22:34:58Z</DateUtc></FrequencyChange></FrequencyChanges></Clock>\n	Hungry_Donkey_bar_English_2-144-1	60.017	-82	1.0.0.18	1	256771854	Standard	2.0.10.353	2.0.10.353	05-18-2016		18:34:58	2.0.10.248	3	Bar50-50.bmp	50	2	?	0r_4g.bmp	0r_4g.bmp	0r_2g.bmp	0r_2g.bmp		0r_4g.bmp			TrialProc	TrialList	0	cvbn	-999999	16	60917	0	v	2189	63106	10	-10	0	-6	4	2	0	8	1	3	0	0	0	0	4	4	2	2	0	4
Hungry_Donkey_bar_English_2	144	1	<?xml version="1.0"?>\n<Clock xmlns:dt="urn:schemas-microsoft-com:datatypes"><Description dt:dt="string">E-Prime Primary Realtime Clock</Description><StartTime><Timestamp dt:dt="int">0</Timestamp><DateUtc dt:dt="string">2016-05-18T22:34:58Z</DateUtc></StartTime><FrequencyChanges><FrequencyChange><Frequency dt:dt="r8">3507685</Frequency><Timestamp dt:dt="r8">257954136248</Timestamp><Current dt:dt="r8">0</Current><DateUtc dt:dt="string">2016-05-18T22:34:58Z</DateUtc></FrequencyChange></FrequencyChanges></Clock>\n	Hungry_Donkey_bar_English_2-144-1	60.017	-82	1.0.0.18	1	256771854	Standard	2.0.10.353	2.0.10.353	05-18-2016		18:34:58	2.0.10.248	4	Bar50-50.bmp	55	4	?	10r_4g.bmp	0r_4g.bmp	2r_2g.bmp	0r_2g.bmp				0r_2g.bmp	TrialProc	TrialList	0	cvbn	-999999	15	65132	0	n	390	65522	12	-10	2	-6	4	2	2	3	1	4	-10	0	-2	0	4	4	2	2	0	2
Hungry_Donkey_bar_English_2	144	1	<?xml version="1.0"?>\n<Clock xmlns:dt="urn:schemas-microsoft-com:datatypes"><Description dt:dt="string">E-Prime Primary Realtime Clock</Description><StartTime><Timestamp dt:dt="int">0</Timestamp><DateUtc dt:dt="string">2016-05-18T22:34:58Z</DateUtc></StartTime><FrequencyChanges><FrequencyChange><Frequency dt:dt="r8">3507685</Frequency><Timestamp dt:dt="r8">257954136248</Timestamp><Current dt:dt="r8">0</Current><DateUtc dt:dt="string">2016-05-18T22:34:58Z</DateUtc></FrequencyChange></FrequencyChanges></Clock>\n	Hungry_Donkey_bar_English_2-144-1	60.017	-82	1.0.0.18	1	256771854	Standard	2.0.10.353	2.0.10.353	05-18-2016		18:34:58	2.0.10.248	5	Bar50-50.bmp	54	3	?	10r_4g.bmp	0r_4g.bmp	2r_2g.bmp	0r_2g.bmp			2r_2g.bmp		TrialProc	TrialList	0	cvbn	-999999	16	67548	0	b	470	68018	14	-12	2	-6	4	2	2	4	1	5	-10	0	-2	0	4	4	2	2	-2	2
Hungry_Donkey_bar_English_2	144	1	<?xml version="1.0"?>\n<Clock xmlns:dt="urn:schemas-microsoft-com:datatypes"><Description dt:dt="string">E-Prime Primary Realtime Clock</Description><StartTime><Timestamp dt:dt="int">0</Timestamp><DateUtc dt:dt="string">2016-05-18T22:34:58Z</DateUtc></StartTime><FrequencyChanges><FrequencyChange><Frequency dt:dt="r8">3507685</Frequency><Timestamp dt:dt="r8">257954136248</Timestamp><Current dt:dt="r8">0</Current><DateUtc dt:dt="string">2016-05-18T22:34:58Z</DateUtc></FrequencyChange></FrequencyChanges></Clock>\n	Hungry_Donkey_bar_English_2-144-1	60.017	-82	1.0.0.18	1	256771854	Standard	2.0.10.353	2.0.10.353	05-18-2016		18:34:58	2.0.10.248	6	Bar63-37.bmp	60	1	?	0r_4g.bmp	0r_4g.bmp	0r_2g.bmp	0r_2g.bmp	0r_4g.bmp				TrialProc	TrialList	0	cvbn	-999999	16	70048	0	c	450	70498	18	-12	6	-2	4	2	2	10	1	6	0	0	0	0	4	4	2	2	0	4
Hungry_Donkey_bar_English_2	144	1	<?xml version="1.0"?>\n<Clock xmlns:dt="urn:schemas-microsoft-com:datatypes"><Description dt:dt="string">E-Prime Primary Realtime Clock</Description><StartTime><Timestamp dt:dt="int">0</Timestamp><DateUtc dt:dt="string">2016-05-18T22:34:58Z</DateUtc></StartTime><FrequencyChanges><FrequencyChange><Frequency dt:dt="r8">3507685</Frequency><Timestamp dt:dt="r8">257954136248</Timestamp><Current dt:dt="r8">0</Current><DateUtc dt:dt="string">2016-05-18T22:34:58Z</DateUtc></FrequencyChange></FrequencyChanges></Clock>\n	Hungry_Donkey_bar_English_2-144-1	60.017	-82	1.0.0.18	1	256771854	Standard	2.0.10.353	2.0.10.353	05-18-2016		18:34:58	2.0.10.248	7	Bar63-37.bmp	65	2	?	0r_4g.bmp	0r_4g.bmp	0r_2g.bmp	0r_2g.bmp		0r_4g.bmp			TrialProc	TrialList	0	cvbn	-999999	16	72530	0	v	352	72882	22	-12	10	-2	8	2	2	9	1	7	0	0	0	0	4	4	2	2	0	4
Hungry_Donkey_bar_English_2	144	1	<?xml version="1.0"?>\n<Clock xmlns:dt="urn:schemas-microsoft-com:datatypes"><Description dt:dt="string">E-Prime Primary Realtime Clock</Description><StartTime><Timestamp dt:dt="int">0</Timestamp><DateUtc dt:dt="string">2016-05-18T22:34:58Z</DateUtc></StartTime><FrequencyChanges><FrequencyChange><Frequency dt:dt="r8">3507685</Frequency><Timestamp dt:dt="r8">257954136248</Timestamp><Current dt:dt="r8">0</Current><DateUtc dt:dt="string">2016-05-18T22:34:58Z</DateUtc></FrequencyChange></FrequencyChanges></Clock>\n	Hungry_Donkey_bar_English_2-144-1	60.017	-82	1.0.0.18	1	256771854	Standard	2.0.10.353	2.0.10.353	05-18-2016		18:34:58	2.0.10.248	8	Bar63-37.bmp	67	4	?	0r_4g.bmp	0r_4g.bmp	0r_2g.bmp	0r_2g.bmp				0r_2g.bmp	TrialProc	TrialList	0	cvbn	-999999	16	74913	0	n	689	75602	24	-12	12	-2	8	2	4	6	1	8	0	0	0	0	4	4	2	2	0	2
Hungry_Donkey_bar_English_2	144	1	<?xml version="1.0"?>\n<Clock xmlns:dt="urn:schemas-microsoft-com:datatypes"><Description dt:dt="string">E-Prime Primary Realtime Clock</Description><StartTime><Timestamp dt:dt="int">0</Timestamp><DateUtc dt:dt="string">2016-05-18T22:34:58Z</DateUtc></StartTime><FrequencyChanges><FrequencyChange><Frequency dt:dt="r8">3507685</Frequency><Timestamp dt:dt="r8">257954136248</Timestamp><Current dt:dt="r8">0</Current><DateUtc dt:dt="string">2016-05-18T22:34:58Z</DateUtc></FrequencyChange></FrequencyChanges></Clock>\n	Hungry_Donkey_bar_English_2-144-1	60.017	-82	1.0.0.18	1	256771854	Standard	2.0.10.353	2.0.10.353	05-18-2016		18:34:58	2.0.10.248	9	Bar63-37.bmp	67	3	?	8r_4g.bmp	50r_4g.bmp	1r_2g.bmp	10r_2g.bmp			1r_2g.bmp		TrialProc	TrialList	0	cvbn	-999999	16	77629	0	b	773	78402	26	-13	13	-2	8	3	4	1	1	9	-8	-50	-1	-10	4	4	2	2	-1	2
Hungry_Donkey_bar_English_2	144	1	<?xml version="1.0"?>\n<Clock xmlns:dt="urn:schemas-microsoft-com:datatypes"><Description dt:dt="string">E-Prime Primary Realtime Clock</Description><StartTime><Timestamp dt:dt="int">0</Timestamp><DateUtc dt:dt="string">2016-05-18T22:34:58Z</DateUtc></StartTime><FrequencyChanges><FrequencyChange><Frequency dt:dt="r8">3507685</Frequency><Timestamp dt:dt="r8">257954136248</Timestamp><Current dt:dt="r8">0</Current><DateUtc dt:dt="string">2016-05-18T22:34:58Z</DateUtc></FrequencyChange></FrequencyChanges></Clock>\n	Hungry_Donkey_bar_English_2-144-1	60.017	-82	1.0.0.18	1	256771854	Standard	2.0.10.353	2.0.10.353	05-18-2016		18:34:58	2.0.10.248	10	Bar50-50.bmp	55	1	?	12r_4g.bmp	0r_4g.bmp	3r_2g.bmp	0r_2g.bmp	12r_4g.bmp				TrialProc	TrialList	0	cvbn	-999999	16	80428	0	c	405	80833	30	-25	5	-10	8	3	4	5	1	10	-12	0	-3	0	4	4	2	2	-12	4
Hungry_Donkey_bar_English_2	144	1	<?xml version="1.0"?>\n<Clock xmlns:dt="urn:schemas-microsoft-com:datatypes"><Description dt:dt="string">E-Prime Primary Realtime Clock</Description><StartTime><Timestamp dt:dt="int">0</Timestamp><DateUtc dt:dt="string">2016-05-18T22:34:58Z</DateUtc></StartTime><FrequencyChanges><FrequencyChange><Frequency dt:dt="r8">3507685</Frequency><Timestamp dt:dt="r8">257954136248</Timestamp><Current dt:dt="r8">0</Current><DateUtc dt:dt="string">2016-05-18T22:34:58Z</DateUtc></FrequencyChange></FrequencyChanges></Clock>\n	Hungry_Donkey_bar_English_2-144-1	60.017	-82	1.0.0.18	1	256771854	Standard	2.0.10.353	2.0.10.353	05-18-2016		18:34:58	2.0.10.248	11	Bar63-37.bmp	58	2	?	12r_4g.bmp	0r_4g.bmp	3r_2g.bmp	0r_2g.bmp		0r_4g.bmp			TrialProc	TrialList	0	cvbn	-999999	16	82861	0	v	644	83505	34	-25	9	-10	12	3	4	5	2	11	-12	0	-3	0	4	4	2	2	0	4
Hungry_Donkey_bar_English_2	144	1	<?xml version="1.0"?>\n<Clock xmlns:dt="urn:schemas-microsoft-com:datatypes"><Description dt:dt="string">E-Prime Primary Realtime Clock</Description><StartTime><Timestamp dt:dt="int">0</Timestamp><DateUtc dt:dt="string">2016-05-18T22:34:58Z</DateUtc></StartTime><FrequencyChanges><FrequencyChange><Frequency dt:dt="r8">3507685</Frequency><Timestamp dt:dt="r8">257954136248</Timestamp><Current dt:dt="r8">0</Current><DateUtc dt:dt="string">2016-05-18T22:34:58Z</DateUtc></FrequencyChange></FrequencyChanges></Clock>\n	Hungry_Donkey_bar_English_2-144-1	60.017	-82	1.0.0.18	1	256771854	Standard	2.0.10.353	2.0.10.353	05-18-2016		18:34:58	2.0.10.248	12	Bar63-37.bmp	59	3	?	0r_4g.bmp	0r_4g.bmp	0r_2g.bmp	0r_2g.bmp			0r_2g.bmp		TrialProc	TrialList	0	cvbn	-999999	16	85543	0	b	314	85857	36	-25	11	-10	12	5	4	6	2	12	0	0	0	0	4	4	2	2	0	2
Hungry_Donkey_bar_English_2	144	1	<?xml version="1.0"?>\n<Clock xmlns:dt="urn:schemas-microsoft-com:datatypes"><Description dt:dt="string">E-Prime Primary Realtime Clock</Description><StartTime><Timestamp dt:dt="int">0</Timestamp><DateUtc dt:dt="string">2016-05-18T22:34:58Z</DateUtc></StartTime><FrequencyChanges><FrequencyChange><Frequency dt:dt="r8">3507685</Frequency><Timestamp dt:dt="r8">257954136248</Timestamp><Current dt:dt="r8">0</Current><DateUtc dt:dt="string">2016-05-18T22:34:58Z</DateUtc></FrequencyChange></FrequencyChanges></Clock>\n	Hungry_Donkey_bar_English_2-144-1	60.017	-82	1.0.0.18	1	256771854	Standard	2.0.10.353	2.0.10.353	05-18-2016		18:34:58	2.0.10.248	13	Bar63-37.bmp	62	2	?	10r_4g.bmp	0r_4g.bmp	2r_2g.bmp	0r_2g.bmp		0r_4g.bmp			TrialProc	TrialList	0	cvbn	-999999	17	87893	0	v	412	88305	40	-25	15	-10	16	5	4	4	2	13	-10	0	-2	0	4	4	2	2	0	4
Hungry_Donkey_bar_English_2	144	1	<?xml version="1.0"?>\n<Clock xmlns:dt="urn:schemas-microsoft-com:datatypes"><Description dt:dt="string">E-Prime Primary Realtime Clock</Description><StartTime><Timestamp dt:dt="int">0</Timestamp><DateUtc dt:dt="string">2016-05-18T22:34:58Z</DateUtc></StartTime><FrequencyChanges><FrequencyChange><Frequency dt:dt="r8">3507685</Frequency><Timestamp dt:dt="r8">257954136248</Timestamp><Current dt:dt="r8">0</Current><DateUtc dt:dt="string">2016-05-18T22:34:58Z</DateUtc></FrequencyChange></FrequencyChanges></Clock>\n	Hungry_Donkey_bar_English_2-144-1	60.017	-82	1.0.0.18	1	256771854	Standard	2.0.10.353	2.0.10.353	05-18-2016		18:34:58	2.0.10.248	14	Bar63-37.bmp	63	4	?	0r_4g.bmp	0r_4g.bmp	0r_2g.bmp	0r_2g.bmp				0r_2g.bmp	TrialProc	TrialList	0	cvbn	-999999	16	90342	0	n	507	90849	42	-25	17	-10	16	5	6	7	2	14	0	0	0	0	4	4	2	2	0	2
Hungry_Donkey_bar_English_2	144	1	<?xml version="1.0"?>\n<Clock xmlns:dt="urn:schemas-microsoft-com:datatypes"><Description dt:dt="string">E-Prime Primary Realtime Clock</Description><StartTime><Timestamp dt:dt="int">0</Timestamp><DateUtc dt:dt="string">2016-05-18T22:34:58Z</DateUtc></StartTime><FrequencyChanges><FrequencyChange><Frequency dt:dt="r8">3507685</Frequency><Timestamp dt:dt="r8">257954136248</Timestamp><Current dt:dt="r8">0</Current><DateUtc dt:dt="string">2016-05-18T22:34:58Z</DateUtc></FrequencyChange></FrequencyChanges></Clock>\n	Hungry_Donkey_bar_English_2-144-1	60.017	-82	1.0.0.18	1	256771854	Standard	2.0.10.353	2.0.10.353	05-18-2016		18:34:58	2.0.10.248	15	Bar63-37.bmp	65	1	?	0r_4g.bmp	0r_4g.bmp	0r_2g.bmp	0r_2g.bmp	0r_4g.bmp				TrialProc	TrialList	0	cvbn	-999999	16	92874	0	c	359	93233	46	-25	21	-6	16	5	6	10	2	15	0	0	0	0	4	4	2	2	0	4
Hungry_Donkey_bar_English_2	144	1	<?xml version="1.0"?>\n<Clock xmlns:dt="urn:schemas-microsoft-com:datatypes"><Description dt:dt="string">E-Prime Primary Realtime Clock</Description><StartTime><Timestamp dt:dt="int">0</Timestamp><DateUtc dt:dt="string">2016-05-18T22:34:58Z</DateUtc></StartTime><FrequencyChanges><FrequencyChange><Frequency dt:dt="r8">3507685</Frequency><Timestamp dt:dt="r8">257954136248</Timestamp><Current dt:dt="r8">0</Current><DateUtc dt:dt="string">2016-05-18T22:34:58Z</DateUtc></FrequencyChange></FrequencyChanges></Clock>\n	Hungry_Donkey_bar_English_2-144-1	60.017	-82	1.0.0.18	1	256771854	Standard	2.0.10.353	2.0.10.353	05-18-2016		18:34:58	2.0.10.248	16	Bar63-37.bmp	67	2	?	10r_4g.bmp	0r_4g.bmp	2r_2g.bmp	0r_2g.bmp		0r_4g.bmp			TrialProc	TrialList	0	cvbn	-999999	16	95257	0	v	328	95585	50	-25	25	-6	20	5	6	2	2	16	-10	0	-2	0	4	4	2	2	0	4
Hungry_Donkey_bar_English_2	144	1	<?xml version="1.0"?>\n<Clock xmlns:dt="urn:schemas-microsoft-com:datatypes"><Description dt:dt="string">E-Prime Primary Realtime Clock</Description><StartTime><Timestamp dt:dt="int">0</Timestamp><DateUtc dt:dt="string">2016-05-18T22:34:58Z</DateUtc></StartTime><FrequencyChanges><FrequencyChange><Frequency dt:dt="r8">3507685</Frequency><Timestamp dt:dt="r8">257954136248</Timestamp><Current dt:dt="r8">0</Current><DateUtc dt:dt="string">2016-05-18T22:34:58Z</DateUtc></FrequencyChange></FrequencyChanges></Clock>\n	Hungry_Donkey_bar_English_2-144-1	60.017	-82	1.0.0.18	1	256771854	Standard	2.0.10.353	2.0.10.353	05-18-2016		18:34:58	2.0.10.248	17	Bar63-37.bmp	67	3	?	8r_4g.bmp	50r_4g.bmp	1r_2g.bmp	10r_2g.bmp			1r_2g.bmp		TrialProc	TrialList	0	cvbn	-999999	16	97623	0	b	314	97937	52	-26	26	-6	20	6	6	1	2	17	-8	-50	-1	-10	4	4	2	2	-1	2
Hungry_Donkey_bar_English_2	144	1	<?xml version="1.0"?>\n<Clock xmlns:dt="urn:schemas-microsoft-com:datatypes"><Description dt:dt="string">E-Prime Primary Realtime Clock</Description><StartTime><Timestamp dt:dt="int">0</Timestamp><DateUtc dt:dt="string">2016-05-18T22:34:58Z</DateUtc></StartTime><FrequencyChanges><FrequencyChange><Frequency dt:dt="r8">3507685</Frequency><Timestamp dt:dt="r8">257954136248</Timestamp><Current dt:dt="r8">0</Current><DateUtc dt:dt="string">2016-05-18T22:34:58Z</DateUtc></FrequencyChange></FrequencyChanges></Clock>\n	Hungry_Donkey_bar_English_2-144-1	60.017	-82	1.0.0.18	1	256771854	Standard	2.0.10.353	2.0.10.353	05-18-2016		18:34:58	2.0.10.248	18	Bar63-37.bmp	61	1	?	10r_4g.bmp	0r_4g.bmp	2r_2g.bmp	0r_2g.bmp	10r_4g.bmp				TrialProc	TrialList	0	cvbn	-999999	16	99972	0	c	988	100960	56	-36	20	-12	20	6	6	3	2	18	-10	0	-2	0	4	4	2	2	-10	4
Hungry_Donkey_bar_English_2	144	1	<?xml version="1.0"?>\n<Clock xmlns:dt="urn:schemas-microsoft-com:datatypes"><Description dt:dt="string">E-Prime Primary Realtime Clock</Description><StartTime><Timestamp dt:dt="int">0</Timestamp><DateUtc dt:dt="string">2016-05-18T22:34:58Z</DateUtc></StartTime><FrequencyChanges><FrequencyChange><Frequency dt:dt="r8">3507685</Frequency><Timestamp dt:dt="r8">257954136248</Timestamp><Current dt:dt="r8">0</Current><DateUtc dt:dt="string">2016-05-18T22:34:58Z</DateUtc></FrequencyChange></FrequencyChanges></Clock>\n	Hungry_Donkey_bar_English_2-144-1	60.017	-82	1.0.0.18	1	256771854	Standard	2.0.10.353	2.0.10.353	05-18-2016		18:34:58	2.0.10.248	19	Bar63-37.bmp	62	4	?	0r_4g.bmp	0r_4g.bmp	0r_2g.bmp	0r_2g.bmp				0r_2g.bmp	TrialProc	TrialList	0	cvbn	-999999	16	102988	0	n	500	103488	58	-36	22	-12	20	6	8	9	2	19	0	0	0	0	4	4	2	2	0	2
Hungry_Donkey_bar_English_2	144	1	<?xml version="1.0"?>\n<Clock xmlns:dt="urn:schemas-microsoft-com:datatypes"><Description dt:dt="string">E-Prime Primary Realtime Clock</Description><StartTime><Timestamp dt:dt="int">0</Timestamp><DateUtc dt:dt="string">2016-05-18T22:34:58Z</DateUtc></StartTime><FrequencyChanges><FrequencyChange><Frequency dt:dt="r8">3507685</Frequency><Timestamp dt:dt="r8">257954136248</Timestamp><Current dt:dt="r8">0</Current><DateUtc dt:dt="string">2016-05-18T22:34:58Z</DateUtc></FrequencyChange></FrequencyChanges></Clock>\n	Hungry_Donkey_bar_English_2-144-1	60.017	-82	1.0.0.18	1	256771854	Standard	2.0.10.353	2.0.10.353	05-18-2016		18:34:58	2.0.10.248	20	Bar63-37.bmp	63	2	?	0r_4g.bmp	0r_4g.bmp	0r_2g.bmp	0r_2g.bmp		0r_4g.bmp			TrialProc	TrialList	0	cvbn	-999999	16	105521	0	v	447	105968	62	-36	26	-12	24	6	8	8	2	20	0	0	0	0	4	4	2	2	0	4
Hungry_Donkey_bar_English_2	144	1	<?xml version="1.0"?>\n<Clock xmlns:dt="urn:schemas-microsoft-com:datatypes"><Description dt:dt="string">E-Prime Primary Realtime Clock</Description><StartTime><Timestamp dt:dt="int">0</Timestamp><DateUtc dt:dt="string">2016-05-18T22:34:58Z</DateUtc></StartTime><FrequencyChanges><FrequencyChange><Frequency dt:dt="r8">3507685</Frequency><Timestamp dt:dt="r8">257954136248</Timestamp><Current dt:dt="r8">0</Current><DateUtc dt:dt="string">2016-05-18T22:34:58Z</DateUtc></FrequencyChange></FrequencyChanges></Clock>\n	Hungry_Donkey_bar_English_2-144-1	60.017	-82	1.0.0.18	1	256771854	Standard	2.0.10.353	2.0.10.353	05-18-2016		18:34:58	2.0.10.248	21	Bar63-37.bmp	65	2	?	10r_4g.bmp	0r_4g.bmp	2r_2g.bmp	0r_2g.bmp		0r_4g.bmp			TrialProc	TrialList	0	cvbn	-999999	16	108003	0	v	653	108656	66	-36	30	-12	28	6	8	2	3	21	-10	0	-2	0	4	4	2	2	0	4
Hungry_Donkey_bar_English_2	144	1	<?xml version="1.0"?>\n<Clock xmlns:dt="urn:schemas-microsoft-com:datatypes"><Description dt:dt="string">E-Prime Primary Realtime Clock</Description><StartTime><Timestamp dt:dt="int">0</Timestamp><DateUtc dt:dt="string">2016-05-18T22:34:58Z</DateUtc></StartTime><FrequencyChanges><FrequencyChange><Frequency dt:dt="r8">3507685</Frequency><Timestamp dt:dt="r8">257954136248</Timestamp><Current dt:dt="r8">0</Current><DateUtc dt:dt="string">2016-05-18T22:34:58Z</DateUtc></FrequencyChange></FrequencyChanges></Clock>\n	Hungry_Donkey_bar_English_2-144-1	60.017	-82	1.0.0.18	1	256771854	Standard	2.0.10.353	2.0.10.353	05-18-2016		18:34:58	2.0.10.248	22	Bar63-37.bmp	65	3	?	0r_4g.bmp	0r_4g.bmp	0r_2g.bmp	0r_2g.bmp			0r_2g.bmp		TrialProc	TrialList	0	cvbn	-999999	16	110686	0	b	274	110960	68	-36	32	-12	28	8	8	9	3	22	0	0	0	0	4	4	2	2	0	2
Hungry_Donkey_bar_English_2	144	1	<?xml version="1.0"?>\n<Clock xmlns:dt="urn:schemas-microsoft-com:datatypes"><Description dt:dt="string">E-Prime Primary Realtime Clock</Description><StartTime><Timestamp dt:dt="int">0</Timestamp><DateUtc dt:dt="string">2016-05-18T22:34:58Z</DateUtc></StartTime><FrequencyChanges><FrequencyChange><Frequency dt:dt="r8">3507685</Frequency><Timestamp dt:dt="r8">257954136248</Timestamp><Current dt:dt="r8">0</Current><DateUtc dt:dt="string">2016-05-18T22:34:58Z</DateUtc></FrequencyChange></FrequencyChanges></Clock>\n	Hungry_Donkey_bar_English_2-144-1	60.017	-82	1.0.0.18	1	256771854	Standard	2.0.10.353	2.0.10.353	05-18-2016		18:34:58	2.0.10.248	23	Bar63-37.bmp	66	4	?	12r_4g.bmp	0r_4g.bmp	3r_2g.bmp	0r_2g.bmp				0r_2g.bmp	TrialProc	TrialList	0	cvbn	-999999	16	112985	0	n	407	113392	70	-36	34	-12	28	8	10	5	3	23	-12	0	-3	0	4	4	2	2	0	2
Hungry_Donkey_bar_English_2	144	1	<?xml version="1.0"?>\n<Clock xmlns:dt="urn:schemas-microsoft-com:datatypes"><Description dt:dt="string">E-Prime Primary Realtime Clock</Description><StartTime><Timestamp dt:dt="int">0</Timestamp><DateUtc dt:dt="string">2016-05-18T22:34:58Z</DateUtc></StartTime><FrequencyChanges><FrequencyChange><Frequency dt:dt="r8">3507685</Frequency><Timestamp dt:dt="r8">257954136248</Timestamp><Current dt:dt="r8">0</Current><DateUtc dt:dt="string">2016-05-18T22:34:58Z</DateUtc></FrequencyChange></FrequencyChanges></Clock>\n	Hungry_Donkey_bar_English_2-144-1	60.017	-82	1.0.0.18	1	256771854	Standard	2.0.10.353	2.0.10.353	05-18-2016		18:34:58	2.0.10.248	24	Bar63-37.bmp	67	3	?	0r_4g.bmp	0r_4g.bmp	0r_2g.bmp	0r_2g.bmp			0r_2g.bmp		TrialProc	TrialList	0	cvbn	-999999	16	115418	0	b	422	115840	72	-36	36	-12	28	10	10	8	3	24	0	0	0	0	4	4	2	2	0	2
Hungry_Donkey_bar_English_2	144	1	<?xml version="1.0"?>\n<Clock xmlns:dt="urn:schemas-microsoft-com:datatypes"><Description dt:dt="string">E-Prime Primary Realtime Clock</Description><StartTime><Timestamp dt:dt="int">0</Timestamp><DateUtc dt:dt="string">2016-05-18T22:34:58Z</DateUtc></StartTime><FrequencyChanges><FrequencyChange><Frequency dt:dt="r8">3507685</Frequency><Timestamp dt:dt="r8">257954136248</Timestamp><Current dt:dt="r8">0</Current><DateUtc dt:dt="string">2016-05-18T22:34:58Z</DateUtc></FrequencyChange></FrequencyChanges></Clock>\n	Hungry_Donkey_bar_English_2-144-1	60.017	-82	1.0.0.18	1	256771854	Standard	2.0.10.353	2.0.10.353	05-18-2016		18:34:58	2.0.10.248	25	Bar63-37.bmp	68	2	?	0r_4g.bmp	0r_4g.bmp	0r_2g.bmp	0r_2g.bmp		0r_4g.bmp			TrialProc	TrialList	0	cvbn	-999999	16	117867	0	v	405	118272	76	-36	40	-12	32	10	10	10	3	25	0	0	0	0	4	4	2	2	0	4
Hungry_Donkey_bar_English_2	144	1	<?xml version="1.0"?>\n<Clock xmlns:dt="urn:schemas-microsoft-com:datatypes"><Description dt:dt="string">E-Prime Primary Realtime Clock</Description><StartTime><Timestamp dt:dt="int">0</Timestamp><DateUtc dt:dt="string">2016-05-18T22:34:58Z</DateUtc></StartTime><FrequencyChanges><FrequencyChange><Frequency dt:dt="r8">3507685</Frequency><Timestamp dt:dt="r8">257954136248</Timestamp><Current dt:dt="r8">0</Current><DateUtc dt:dt="string">2016-05-18T22:34:58Z</DateUtc></FrequencyChange></FrequencyChanges></Clock>\n	Hungry_Donkey_bar_English_2-144-1	60.017	-82	1.0.0.18	1	256771854	Standard	2.0.10.353	2.0.10.353	05-18-2016		18:34:58	2.0.10.248	26	Bar63-37.bmp	69	1	?	0r_4g.bmp	0r_4g.bmp	0r_2g.bmp	0r_2g.bmp	0r_4g.bmp				TrialProc	TrialList	0	cvbn	-999999	16	120300	0	c	1315	121615	80	-36	44	-8	32	10	10	6	3	26	0	0	0	0	4	4	2	2	0	4
Hungry_Donkey_bar_English_2	144	1	<?xml version="1.0"?>\n<Clock xmlns:dt="urn:schemas-microsoft-com:datatypes"><Description dt:dt="string">E-Prime Primary Realtime Clock</Description><StartTime><Timestamp dt:dt="int">0</Timestamp><DateUtc dt:dt="string">2016-05-18T22:34:58Z</DateUtc></StartTime><FrequencyChanges><FrequencyChange><Frequency dt:dt="r8">3507685</Frequency><Timestamp dt:dt="r8">257954136248</Timestamp><Current dt:dt="r8">0</Current><DateUtc dt:dt="string">2016-05-18T22:34:58Z</DateUtc></FrequencyChange></FrequencyChanges></Clock>\n	Hungry_Donkey_bar_English_2-144-1	60.017	-82	1.0.0.18	1	256771854	Standard	2.0.10.353	2.0.10.353	05-18-2016		18:34:58	2.0.10.248	27	Bar63-37.bmp	68	3	?	10r_4g.bmp	0r_4g.bmp	2r_2g.bmp	0r_2g.bmp			2r_2g.bmp		TrialProc	TrialList	0	cvbn	-999999	16	123649	0	b	430	124079	82	-38	44	-8	32	10	10	3	3	27	-10	0	-2	0	4	4	2	2	-2	2
Hungry_Donkey_bar_English_2	144	1	<?xml version="1.0"?>\n<Clock xmlns:dt="urn:schemas-microsoft-com:datatypes"><Description dt:dt="string">E-Prime Primary Realtime Clock</Description><StartTime><Timestamp dt:dt="int">0</Timestamp><DateUtc dt:dt="string">2016-05-18T22:34:58Z</DateUtc></StartTime><FrequencyChanges><FrequencyChange><Frequency dt:dt="r8">3507685</Frequency><Timestamp dt:dt="r8">257954136248</Timestamp><Current dt:dt="r8">0</Current><DateUtc dt:dt="string">2016-05-18T22:34:58Z</DateUtc></FrequencyChange></FrequencyChanges></Clock>\n	Hungry_Donkey_bar_English_2-144-1	60.017	-82	1.0.0.18	1	256771854	Standard	2.0.10.353	2.0.10.353	05-18-2016		18:34:58	2.0.10.248	28	Bar63-37.bmp	69	4	?	10r_4g.bmp	0r_4g.bmp	2r_2g.bmp	0r_2g.bmp				0r_2g.bmp	TrialProc	TrialList	0	cvbn	-999999	16	126115	0	n	2044	128159	84	-38	46	-8	32	10	12	4	3	28	-10	0	-2	0	4	4	2	2	0	2
Hungry_Donkey_bar_English_2	144	1	<?xml version="1.0"?>\n<Clock xmlns:dt="urn:schemas-microsoft-com:datatypes"><Description dt:dt="string">E-Prime Primary Realtime Clock</Description><StartTime><Timestamp dt:dt="int">0</Timestamp><DateUtc dt:dt="string">2016-05-18T22:34:58Z</DateUtc></StartTime><FrequencyChanges><FrequencyChange><Frequency dt:dt="r8">3507685</Frequency><Timestamp dt:dt="r8">257954136248</Timestamp><Current dt:dt="r8">0</Current><DateUtc dt:dt="string">2016-05-18T22:34:58Z</DateUtc></FrequencyChange></FrequencyChanges></Clock>\n	Hungry_Donkey_bar_English_2-144-1	60.017	-82	1.0.0.18	1	256771854	Standard	2.0.10.353	2.0.10.353	05-18-2016		18:34:58	2.0.10.248	29	Bar50-50.bmp	50	2	?	8r_4g.bmp	50r_4g.bmp	1r_2g.bmp	10r_2g.bmp		50r_4g.bmp			TrialProc	TrialList	0	cvbn	-999999	16	130197	0	v	458	130655	88	-88	0	-8	-14	10	12	1	3	29	-8	-50	-1	-10	4	4	2	2	-50	4
Hungry_Donkey_bar_English_2	144	1	<?xml version="1.0"?>\n<Clock xmlns:dt="urn:schemas-microsoft-com:datatypes"><Description dt:dt="string">E-Prime Primary Realtime Clock</Description><StartTime><Timestamp dt:dt="int">0</Timestamp><DateUtc dt:dt="string">2016-05-18T22:34:58Z</DateUtc></StartTime><FrequencyChanges><FrequencyChange><Frequency dt:dt="r8">3507685</Frequency><Timestamp dt:dt="r8">257954136248</Timestamp><Current dt:dt="r8">0</Current><DateUtc dt:dt="string">2016-05-18T22:34:58Z</DateUtc></FrequencyChange></FrequencyChanges></Clock>\n	Hungry_Donkey_bar_English_2-144-1	60.017	-82	1.0.0.18	1	256771854	Standard	2.0.10.353	2.0.10.353	05-18-2016		18:34:58	2.0.10.248	30	Bar50-50.bmp	51	1	?	0r_4g.bmp	0r_4g.bmp	0r_2g.bmp	0r_2g.bmp	0r_4g.bmp				TrialProc	TrialList	0	cvbn	-999999	16	132696	0	c	487	133183	92	-88	4	-4	-14	10	12	7	3	30	0	0	0	0	4	4	2	2	0	4
Hungry_Donkey_bar_English_2	144	1	<?xml version="1.0"?>\n<Clock xmlns:dt="urn:schemas-microsoft-com:datatypes"><Description dt:dt="string">E-Prime Primary Realtime Clock</Description><StartTime><Timestamp dt:dt="int">0</Timestamp><DateUtc dt:dt="string">2016-05-18T22:34:58Z</DateUtc></StartTime><FrequencyChanges><FrequencyChange><Frequency dt:dt="r8">3507685</Frequency><Timestamp dt:dt="r8">257954136248</Timestamp><Current dt:dt="r8">0</Current><DateUtc dt:dt="string">2016-05-18T22:34:58Z</DateUtc></FrequencyChange></FrequencyChanges></Clock>\n	Hungry_Donkey_bar_English_2-144-1	60.017	-82	1.0.0.18	1	256771854	Standard	2.0.10.353	2.0.10.353	05-18-2016		18:34:58	2.0.10.248	31	Bar50-50.bmp	52	3	?	0r_4g.bmp	0r_4g.bmp	0r_2g.bmp	0r_2g.bmp			0r_2g.bmp		TrialProc	TrialList	0	cvbn	-999999	16	135212	0	b	387	135599	94	-88	6	-4	-14	12	12	6	4	31	0	0	0	0	4	4	2	2	0	2
Hungry_Donkey_bar_English_2	144	1	<?xml version="1.0"?>\n<Clock xmlns:dt="urn:schemas-microsoft-com:datatypes"><Description dt:dt="string">E-Prime Primary Realtime Clock</Description><StartTime><Timestamp dt:dt="int">0</Timestamp><DateUtc dt:dt="string">2016-05-18T22:34:58Z</DateUtc></StartTime><FrequencyChanges><FrequencyChange><Frequency dt:dt="r8">3507685</Frequency><Timestamp dt:dt="r8">257954136248</Timestamp><Current dt:dt="r8">0</Current><DateUtc dt:dt="string">2016-05-18T22:34:58Z</DateUtc></FrequencyChange></FrequencyChanges></Clock>\n	Hungry_Donkey_bar_English_2-144-1	60.017	-82	1.0.0.18	1	256771854	Standard	2.0.10.353	2.0.10.353	05-18-2016		18:34:58	2.0.10.248	32	Bar50-50.bmp	52	4	?	0r_4g.bmp	0r_4g.bmp	0r_2g.bmp	0r_2g.bmp				0r_2g.bmp	TrialProc	TrialList	0	cvbn	-999999	16	137628	0	n	371	137999	96	-88	8	-4	-14	12	14	9	4	32	0	0	0	0	4	4	2	2	0	2
Hungry_Donkey_bar_English_2	144	1	<?xml version="1.0"?>\n<Clock xmlns:dt="urn:schemas-microsoft-com:datatypes"><Description dt:dt="string">E-Prime Primary Realtime Clock</Description><StartTime><Timestamp dt:dt="int">0</Timestamp><DateUtc dt:dt="string">2016-05-18T22:34:58Z</DateUtc></StartTime><FrequencyChanges><FrequencyChange><Frequency dt:dt="r8">3507685</Frequency><Timestamp dt:dt="r8">257954136248</Timestamp><Current dt:dt="r8">0</Current><DateUtc dt:dt="string">2016-05-18T22:34:58Z</DateUtc></FrequencyChange></FrequencyChanges></Clock>\n	Hungry_Donkey_bar_English_2-144-1	60.017	-82	1.0.0.18	1	256771854	Standard	2.0.10.353	2.0.10.353	05-18-2016		18:34:58	2.0.10.248	33	Bar37-63.bmp	42	2	?	8r_4g.bmp	50r_4g.bmp	1r_2g.bmp	10r_2g.bmp		50r_4g.bmp			TrialProc	TrialList	0	cvbn	-999999	17	140028	0	v	658	140686	100	-138	-38	-4	-60	12	14	1	4	33	-8	-50	-1	-10	4	4	2	2	-50	4
Hungry_Donkey_bar_English_2	144	1	<?xml version="1.0"?>\n<Clock xmlns:dt="urn:schemas-microsoft-com:datatypes"><Description dt:dt="string">E-Prime Primary Realtime Clock</Description><StartTime><Timestamp dt:dt="int">0</Timestamp><DateUtc dt:dt="string">2016-05-18T22:34:58Z</DateUtc></StartTime><FrequencyChanges><FrequencyChange><Frequency dt:dt="r8">3507685</Frequency><Timestamp dt:dt="r8">257954136248</Timestamp><Current dt:dt="r8">0</Current><DateUtc dt:dt="string">2016-05-18T22:34:58Z</DateUtc></FrequencyChange></FrequencyChanges></Clock>\n	Hungry_Donkey_bar_English_2-144-1	60.017	-82	1.0.0.18	1	256771854	Standard	2.0.10.353	2.0.10.353	05-18-2016		18:34:58	2.0.10.248	34	Bar37-63.bmp	42	3	?	0r_4g.bmp	0r_4g.bmp	0r_2g.bmp	0r_2g.bmp			0r_2g.bmp		TrialProc	TrialList	0	cvbn	-999999	16	142710	0	b	632	143342	102	-138	-36	-4	-60	14	14	7	4	34	0	0	0	0	4	4	2	2	0	2
Hungry_Donkey_bar_English_2	144	1	<?xml version="1.0"?>\n<Clock xmlns:dt="urn:schemas-microsoft-com:datatypes"><Description dt:dt="string">E-Prime Primary Realtime Clock</Description><StartTime><Timestamp dt:dt="int">0</Timestamp><DateUtc dt:dt="string">2016-05-18T22:34:58Z</DateUtc></StartTime><FrequencyChanges><FrequencyChange><Frequency dt:dt="r8">3507685</Frequency><Timestamp dt:dt="r8">257954136248</Timestamp><Current dt:dt="r8">0</Current><DateUtc dt:dt="string">2016-05-18T22:34:58Z</DateUtc></FrequencyChange></FrequencyChanges></Clock>\n	Hungry_Donkey_bar_English_2-144-1	60.017	-82	1.0.0.18	1	256771854	Standard	2.0.10.353	2.0.10.353	05-18-2016		18:34:58	2.0.10.248	35	Bar37-63.bmp	42	3	?	12r_4g.bmp	0r_4g.bmp	3r_2g.bmp	0r_2g.bmp			3r_2g.bmp		TrialProc	TrialList	0	cvbn	-999999	16	145376	0	b	430	145806	104	-141	-37	-4	-60	13	14	5	4	35	-12	0	-3	0	4	4	2	2	-3	2
Hungry_Donkey_bar_English_2	144	1	<?xml version="1.0"?>\n<Clock xmlns:dt="urn:schemas-microsoft-com:datatypes"><Description dt:dt="string">E-Prime Primary Realtime Clock</Description><StartTime><Timestamp dt:dt="int">0</Timestamp><DateUtc dt:dt="string">2016-05-18T22:34:58Z</DateUtc></StartTime><FrequencyChanges><FrequencyChange><Frequency dt:dt="r8">3507685</Frequency><Timestamp dt:dt="r8">257954136248</Timestamp><Current dt:dt="r8">0</Current><DateUtc dt:dt="string">2016-05-18T22:34:58Z</DateUtc></FrequencyChange></FrequencyChanges></Clock>\n	Hungry_Donkey_bar_English_2-144-1	60.017	-82	1.0.0.18	1	256771854	Standard	2.0.10.353	2.0.10.353	05-18-2016		18:34:58	2.0.10.248	36	Bar37-63.bmp	42	1	?	10r_4g.bmp	0r_4g.bmp	2r_2g.bmp	0r_2g.bmp	10r_4g.bmp				TrialProc	TrialList	0	cvbn	-999999	16	147842	0	c	444	148286	108	-151	-43	-10	-60	13	14	4	4	36	-10	0	-2	0	4	4	2	2	-10	4
Hungry_Donkey_bar_English_2	144	1	<?xml version="1.0"?>\n<Clock xmlns:dt="urn:schemas-microsoft-com:datatypes"><Description dt:dt="string">E-Prime Primary Realtime Clock</Description><StartTime><Timestamp dt:dt="int">0</Timestamp><DateUtc dt:dt="string">2016-05-18T22:34:58Z</DateUtc></StartTime><FrequencyChanges><FrequencyChange><Frequency dt:dt="r8">3507685</Frequency><Timestamp dt:dt="r8">257954136248</Timestamp><Current dt:dt="r8">0</Current><DateUtc dt:dt="string">2016-05-18T22:34:58Z</DateUtc></FrequencyChange></FrequencyChanges></Clock>\n	Hungry_Donkey_bar_English_2-144-1	60.017	-82	1.0.0.18	1	256771854	Standard	2.0.10.353	2.0.10.353	05-18-2016		18:34:58	2.0.10.248	37	Bar37-63.bmp	43	2	?	0r_4g.bmp	0r_4g.bmp	0r_2g.bmp	0r_2g.bmp		0r_4g.bmp			TrialProc	TrialList	0	cvbn	-999999	17	150325	0	v	345	150670	112	-151	-39	-10	-56	13	14	10	4	37	0	0	0	0	4	4	2	2	0	4
Hungry_Donkey_bar_English_2	144	1	<?xml version="1.0"?>\n<Clock xmlns:dt="urn:schemas-microsoft-com:datatypes"><Description dt:dt="string">E-Prime Primary Realtime Clock</Description><StartTime><Timestamp dt:dt="int">0</Timestamp><DateUtc dt:dt="string">2016-05-18T22:34:58Z</DateUtc></StartTime><FrequencyChanges><FrequencyChange><Frequency dt:dt="r8">3507685</Frequency><Timestamp dt:dt="r8">257954136248</Timestamp><Current dt:dt="r8">0</Current><DateUtc dt:dt="string">2016-05-18T22:34:58Z</DateUtc></FrequencyChange></FrequencyChanges></Clock>\n	Hungry_Donkey_bar_English_2-144-1	60.017	-82	1.0.0.18	1	256771854	Standard	2.0.10.353	2.0.10.353	05-18-2016		18:34:58	2.0.10.248	38	Bar37-63.bmp	43	4	?	10r_4g.bmp	0r_4g.bmp	2r_2g.bmp	0r_2g.bmp				0r_2g.bmp	TrialProc	TrialList	0	cvbn	-999999	16	152707	0	n	379	153086	114	-151	-37	-10	-56	13	16	2	4	38	-10	0	-2	0	4	4	2	2	0	2
Hungry_Donkey_bar_English_2	144	1	<?xml version="1.0"?>\n<Clock xmlns:dt="urn:schemas-microsoft-com:datatypes"><Description dt:dt="string">E-Prime Primary Realtime Clock</Description><StartTime><Timestamp dt:dt="int">0</Timestamp><DateUtc dt:dt="string">2016-05-18T22:34:58Z</DateUtc></StartTime><FrequencyChanges><FrequencyChange><Frequency dt:dt="r8">3507685</Frequency><Timestamp dt:dt="r8">257954136248</Timestamp><Current dt:dt="r8">0</Current><DateUtc dt:dt="string">2016-05-18T22:34:58Z</DateUtc></FrequencyChange></FrequencyChanges></Clock>\n	Hungry_Donkey_bar_English_2-144-1	60.017	-82	1.0.0.18	1	256771854	Standard	2.0.10.353	2.0.10.353	05-18-2016		18:34:58	2.0.10.248	39	Bar37-63.bmp	43	3	?	0r_4g.bmp	0r_4g.bmp	0r_2g.bmp	0r_2g.bmp			0r_2g.bmp		TrialProc	TrialList	0	cvbn	-999999	16	155123	0	b	715	155838	116	-151	-35	-10	-56	15	16	8	4	39	0	0	0	0	4	4	2	2	0	2
Hungry_Donkey_bar_English_2	144	1	<?xml version="1.0"?>\n<Clock xmlns:dt="urn:schemas-microsoft-com:datatypes"><Description dt:dt="string">E-Prime Primary Realtime Clock</Description><StartTime><Timestamp dt:dt="int">0</Timestamp><DateUtc dt:dt="string">2016-05-18T22:34:58Z</DateUtc></StartTime><FrequencyChanges><FrequencyChange><Frequency dt:dt="r8">3507685</Frequency><Timestamp dt:dt="r8">257954136248</Timestamp><Current dt:dt="r8">0</Current><DateUtc dt:dt="string">2016-05-18T22:34:58Z</DateUtc></FrequencyChange></FrequencyChanges></Clock>\n	Hungry_Donkey_bar_English_2-144-1	60.017	-82	1.0.0.18	1	256771854	Standard	2.0.10.353	2.0.10.353	05-18-2016		18:34:58	2.0.10.248	40	Bar50-50.bmp	44	2	?	10r_4g.bmp	0r_4g.bmp	2r_2g.bmp	0r_2g.bmp		0r_4g.bmp			TrialProc	TrialList	0	cvbn	-999999	16	157872	0	v	317	158189	120	-151	-31	-10	-52	15	16	3	4	40	-10	0	-2	0	4	4	2	2	0	4
Hungry_Donkey_bar_English_2	144	1	<?xml version="1.0"?>\n<Clock xmlns:dt="urn:schemas-microsoft-com:datatypes"><Description dt:dt="string">E-Prime Primary Realtime Clock</Description><StartTime><Timestamp dt:dt="int">0</Timestamp><DateUtc dt:dt="string">2016-05-18T22:34:58Z</DateUtc></StartTime><FrequencyChanges><FrequencyChange><Frequency dt:dt="r8">3507685</Frequency><Timestamp dt:dt="r8">257954136248</Timestamp><Current dt:dt="r8">0</Current><DateUtc dt:dt="string">2016-05-18T22:34:58Z</DateUtc></FrequencyChange></FrequencyChanges></Clock>\n	Hungry_Donkey_bar_English_2-144-1	60.017	-82	1.0.0.18	1	256771854	Standard	2.0.10.353	2.0.10.353	05-18-2016		18:34:58	2.0.10.248	41	Bar50-50.bmp	45	4	?	0r_4g.bmp	0r_4g.bmp	0r_2g.bmp	0r_2g.bmp				0r_2g.bmp	TrialProc	TrialList	0	cvbn	-999999	16	160222	0	n	303	160525	122	-151	-29	-10	-52	15	18	8	5	41	0	0	0	0	4	4	2	2	0	2
Hungry_Donkey_bar_English_2	144	1	<?xml version="1.0"?>\n<Clock xmlns:dt="urn:schemas-microsoft-com:datatypes"><Description dt:dt="string">E-Prime Primary Realtime Clock</Description><StartTime><Timestamp dt:dt="int">0</Timestamp><DateUtc dt:dt="string">2016-05-18T22:34:58Z</DateUtc></StartTime><FrequencyChanges><FrequencyChange><Frequency dt:dt="r8">3507685</Frequency><Timestamp dt:dt="r8">257954136248</Timestamp><Current dt:dt="r8">0</Current><DateUtc dt:dt="string">2016-05-18T22:34:58Z</DateUtc></FrequencyChange></FrequencyChanges></Clock>\n	Hungry_Donkey_bar_English_2-144-1	60.017	-82	1.0.0.18	1	256771854	Standard	2.0.10.353	2.0.10.353	05-18-2016		18:34:58	2.0.10.248	42	Bar50-50.bmp	45	3	?	12r_4g.bmp	0r_4g.bmp	3r_2g.bmp	0r_2g.bmp			3r_2g.bmp		TrialProc	TrialList	0	cvbn	-999999	16	162554	0	b	1075	163629	124	-154	-30	-10	-52	14	18	5	5	42	-12	0	-3	0	4	4	2	2	-3	2
Hungry_Donkey_bar_English_2	144	1	<?xml version="1.0"?>\n<Clock xmlns:dt="urn:schemas-microsoft-com:datatypes"><Description dt:dt="string">E-Prime Primary Realtime Clock</Description><StartTime><Timestamp dt:dt="int">0</Timestamp><DateUtc dt:dt="string">2016-05-18T22:34:58Z</DateUtc></StartTime><FrequencyChanges><FrequencyChange><Frequency dt:dt="r8">3507685</Frequency><Timestamp dt:dt="r8">257954136248</Timestamp><Current dt:dt="r8">0</Current><DateUtc dt:dt="string">2016-05-18T22:34:58Z</DateUtc></FrequencyChange></FrequencyChanges></Clock>\n	Hungry_Donkey_bar_English_2-144-1	60.017	-82	1.0.0.18	1	256771854	Standard	2.0.10.353	2.0.10.353	05-18-2016		18:34:58	2.0.10.248	43	Bar50-50.bmp	45	2	?	10r_4g.bmp	0r_4g.bmp	2r_2g.bmp	0r_2g.bmp		0r_4g.bmp			TrialProc	TrialList	0	cvbn	-999999	16	165670	0	v	663	166333	128	-154	-26	-10	-48	14	18	4	5	43	-10	0	-2	0	4	4	2	2	0	4
Hungry_Donkey_bar_English_2	144	1	<?xml version="1.0"?>\n<Clock xmlns:dt="urn:schemas-microsoft-com:datatypes"><Description dt:dt="string">E-Prime Primary Realtime Clock</Description><StartTime><Timestamp dt:dt="int">0</Timestamp><DateUtc dt:dt="string">2016-05-18T22:34:58Z</DateUtc></StartTime><FrequencyChanges><FrequencyChange><Frequency dt:dt="r8">3507685</Frequency><Timestamp dt:dt="r8">257954136248</Timestamp><Current dt:dt="r8">0</Current><DateUtc dt:dt="string">2016-05-18T22:34:58Z</DateUtc></FrequencyChange></FrequencyChanges></Clock>\n	Hungry_Donkey_bar_English_2-144-1	60.017	-82	1.0.0.18	1	256771854	Standard	2.0.10.353	2.0.10.353	05-18-2016		18:34:58	2.0.10.248	44	Bar50-50.bmp	46	4	?	0r_4g.bmp	0r_4g.bmp	0r_2g.bmp	0r_2g.bmp				0r_2g.bmp	TrialProc	TrialList	0	cvbn	-999999	16	168369	0	n	588	168957	130	-154	-24	-10	-48	14	20	6	5	44	0	0	0	0	4	4	2	2	0	2
Hungry_Donkey_bar_English_2	144	1	<?xml version="1.0"?>\n<Clock xmlns:dt="urn:schemas-microsoft-com:datatypes"><Description dt:dt="string">E-Prime Primary Realtime Clock</Description><StartTime><Timestamp dt:dt="int">0</Timestamp><DateUtc dt:dt="string">2016-05-18T22:34:58Z</DateUtc></StartTime><FrequencyChanges><FrequencyChange><Frequency dt:dt="r8">3507685</Frequency><Timestamp dt:dt="r8">257954136248</Timestamp><Current dt:dt="r8">0</Current><DateUtc dt:dt="string">2016-05-18T22:34:58Z</DateUtc></FrequencyChange></FrequencyChanges></Clock>\n	Hungry_Donkey_bar_English_2-144-1	60.017	-82	1.0.0.18	1	256771854	Standard	2.0.10.353	2.0.10.353	05-18-2016		18:34:58	2.0.10.248	45	Bar37-63.bmp	40	2	?	8r_4g.bmp	50r_4g.bmp	1r_2g.bmp	10r_2g.bmp		50r_4g.bmp			TrialProc	TrialList	0	cvbn	-999999	16	170985	0	v	340	171325	134	-204	-70	-10	-94	14	20	1	5	45	-8	-50	-1	-10	4	4	2	2	-50	4
Hungry_Donkey_bar_English_2	144	1	<?xml version="1.0"?>\n<Clock xmlns:dt="urn:schemas-microsoft-com:datatypes"><Description dt:dt="string">E-Prime Primary Realtime Clock</Description><StartTime><Timestamp dt:dt="int">0</Timestamp><DateUtc dt:dt="string">2016-05-18T22:34:58Z</DateUtc></StartTime><FrequencyChanges><FrequencyChange><Frequency dt:dt="r8">3507685</Frequency><Timestamp dt:dt="r8">257954136248</Timestamp><Current dt:dt="r8">0</Current><DateUtc dt:dt="string">2016-05-18T22:34:58Z</DateUtc></FrequencyChange></FrequencyChanges></Clock>\n	Hungry_Donkey_bar_English_2-144-1	60.017	-82	1.0.0.18	1	256771854	Standard	2.0.10.353	2.0.10.353	05-18-2016		18:34:58	2.0.10.248	46	Bar37-63.bmp	40	1	?	0r_4g.bmp	0r_4g.bmp	0r_2g.bmp	0r_2g.bmp	0r_4g.bmp				TrialProc	TrialList	0	cvbn	-999999	16	173351	0	c	2182	175533	138	-204	-66	-6	-94	14	20	9	5	46	0	0	0	0	4	4	2	2	0	4
Hungry_Donkey_bar_English_2	144	1	<?xml version="1.0"?>\n<Clock xmlns:dt="urn:schemas-microsoft-com:datatypes"><Description dt:dt="string">E-Prime Primary Realtime Clock</Description><StartTime><Timestamp dt:dt="int">0</Timestamp><DateUtc dt:dt="string">2016-05-18T22:34:58Z</DateUtc></StartTime><FrequencyChanges><FrequencyChange><Frequency dt:dt="r8">3507685</Frequency><Timestamp dt:dt="r8">257954136248</Timestamp><Current dt:dt="r8">0</Current><DateUtc dt:dt="string">2016-05-18T22:34:58Z</DateUtc></FrequencyChange></FrequencyChanges></Clock>\n	Hungry_Donkey_bar_English_2-144-1	60.017	-82	1.0.0.18	1	256771854	Standard	2.0.10.353	2.0.10.353	05-18-2016		18:34:58	2.0.10.248	47	Bar37-63.bmp	41	4	?	10r_4g.bmp	0r_4g.bmp	2r_2g.bmp	0r_2g.bmp				0r_2g.bmp	TrialProc	TrialList	0	cvbn	-999999	16	177567	0	n	573	178140	140	-204	-64	-6	-94	14	22	3	5	47	-10	0	-2	0	4	4	2	2	0	2
Hungry_Donkey_bar_English_2	144	1	<?xml version="1.0"?>\n<Clock xmlns:dt="urn:schemas-microsoft-com:datatypes"><Description dt:dt="string">E-Prime Primary Realtime Clock</Description><StartTime><Timestamp dt:dt="int">0</Timestamp><DateUtc dt:dt="string">2016-05-18T22:34:58Z</DateUtc></StartTime><FrequencyChanges><FrequencyChange><Frequency dt:dt="r8">3507685</Frequency><Timestamp dt:dt="r8">257954136248</Timestamp><Current dt:dt="r8">0</Current><DateUtc dt:dt="string">2016-05-18T22:34:58Z</DateUtc></FrequencyChange></FrequencyChanges></Clock>\n	Hungry_Donkey_bar_English_2-144-1	60.017	-82	1.0.0.18	1	256771854	Standard	2.0.10.353	2.0.10.353	05-18-2016		18:34:58	2.0.10.248	48	Bar37-63.bmp	41	3	?	10r_4g.bmp	0r_4g.bmp	2r_2g.bmp	0r_2g.bmp			2r_2g.bmp		TrialProc	TrialList	0	cvbn	-999999	16	180166	0	b	390	180556	142	-206	-64	-6	-94	14	22	2	5	48	-10	0	-2	0	4	4	2	2	-2	2
Hungry_Donkey_bar_English_2	144	1	<?xml version="1.0"?>\n<Clock xmlns:dt="urn:schemas-microsoft-com:datatypes"><Description dt:dt="string">E-Prime Primary Realtime Clock</Description><StartTime><Timestamp dt:dt="int">0</Timestamp><DateUtc dt:dt="string">2016-05-18T22:34:58Z</DateUtc></StartTime><FrequencyChanges><FrequencyChange><Frequency dt:dt="r8">3507685</Frequency><Timestamp dt:dt="r8">257954136248</Timestamp><Current dt:dt="r8">0</Current><DateUtc dt:dt="string">2016-05-18T22:34:58Z</DateUtc></FrequencyChange></FrequencyChanges></Clock>\n	Hungry_Donkey_bar_English_2-144-1	60.017	-82	1.0.0.18	1	256771854	Standard	2.0.10.353	2.0.10.353	05-18-2016		18:34:58	2.0.10.248	49	Bar37-63.bmp	41	2	?	0r_4g.bmp	0r_4g.bmp	0r_2g.bmp	0r_2g.bmp		0r_4g.bmp			TrialProc	TrialList	0	cvbn	-999999	16	182582	0	v	310	182892	146	-206	-60	-6	-90	14	22	10	5	49	0	0	0	0	4	4	2	2	0	4
Hungry_Donkey_bar_English_2	144	1	<?xml version="1.0"?>\n<Clock xmlns:dt="urn:schemas-microsoft-com:datatypes"><Description dt:dt="string">E-Prime Primary Realtime Clock</Description><StartTime><Timestamp dt:dt="int">0</Timestamp><DateUtc dt:dt="string">2016-05-18T22:34:58Z</DateUtc></StartTime><FrequencyChanges><FrequencyChange><Frequency dt:dt="r8">3507685</Frequency><Timestamp dt:dt="r8">257954136248</Timestamp><Current dt:dt="r8">0</Current><DateUtc dt:dt="string">2016-05-18T22:34:58Z</DateUtc></FrequencyChange></FrequencyChanges></Clock>\n	Hungry_Donkey_bar_English_2-144-1	60.017	-82	1.0.0.18	1	256771854	Standard	2.0.10.353	2.0.10.353	05-18-2016		18:34:58	2.0.10.248	50	Bar37-63.bmp	42	4	?	0r_4g.bmp	0r_4g.bmp	0r_2g.bmp	0r_2g.bmp				0r_2g.bmp	TrialProc	TrialList	0	cvbn	-999999	16	184931	0	n	457	185388	148	-206	-58	-6	-90	14	24	7	5	50	0	0	0	0	4	4	2	2	0	2
Hungry_Donkey_bar_English_2	144	1	<?xml version="1.0"?>\n<Clock xmlns:dt="urn:schemas-microsoft-com:datatypes"><Description dt:dt="string">E-Prime Primary Realtime Clock</Description><StartTime><Timestamp dt:dt="int">0</Timestamp><DateUtc dt:dt="string">2016-05-18T22:34:58Z</DateUtc></StartTime><FrequencyChanges><FrequencyChange><Frequency dt:dt="r8">3507685</Frequency><Timestamp dt:dt="r8">257954136248</Timestamp><Current dt:dt="r8">0</Current><DateUtc dt:dt="string">2016-05-18T22:34:58Z</DateUtc></FrequencyChange></FrequencyChanges></Clock>\n	Hungry_Donkey_bar_English_2-144-1	60.017	-82	1.0.0.18	1	256771854	Standard	2.0.10.353	2.0.10.353	05-18-2016		18:34:58	2.0.10.248	51	Bar37-63.bmp	42	2	?	0r_4g.bmp	0r_4g.bmp	0r_2g.bmp	0r_2g.bmp		0r_4g.bmp			TrialProc	TrialList	0	cvbn	-999999	16	187414	0	v	390	187804	152	-206	-54	-6	-86	14	24	10	6	51	0	0	0	0	4	4	2	2	0	4
Hungry_Donkey_bar_English_2	144	1	<?xml version="1.0"?>\n<Clock xmlns:dt="urn:schemas-microsoft-com:datatypes"><Description dt:dt="string">E-Prime Primary Realtime Clock</Description><StartTime><Timestamp dt:dt="int">0</Timestamp><DateUtc dt:dt="string">2016-05-18T22:34:58Z</DateUtc></StartTime><FrequencyChanges><FrequencyChange><Frequency dt:dt="r8">3507685</Frequency><Timestamp dt:dt="r8">257954136248</Timestamp><Current dt:dt="r8">0</Current><DateUtc dt:dt="string">2016-05-18T22:34:58Z</DateUtc></FrequencyChange></FrequencyChanges></Clock>\n	Hungry_Donkey_bar_English_2-144-1	60.017	-82	1.0.0.18	1	256771854	Standard	2.0.10.353	2.0.10.353	05-18-2016		18:34:58	2.0.10.248	52	Bar37-63.bmp	43	2	?	10r_4g.bmp	0r_4g.bmp	2r_2g.bmp	0r_2g.bmp		0r_4g.bmp			TrialProc	TrialList	0	cvbn	-999999	16	189830	0	v	678	190508	156	-206	-50	-6	-82	14	24	3	6	52	-10	0	-2	0	4	4	2	2	0	4
Hungry_Donkey_bar_English_2	144	1	<?xml version="1.0"?>\n<Clock xmlns:dt="urn:schemas-microsoft-com:datatypes"><Description dt:dt="string">E-Prime Primary Realtime Clock</Description><StartTime><Timestamp dt:dt="int">0</Timestamp><DateUtc dt:dt="string">2016-05-18T22:34:58Z</DateUtc></StartTime><FrequencyChanges><FrequencyChange><Frequency dt:dt="r8">3507685</Frequency><Timestamp dt:dt="r8">257954136248</Timestamp><Current dt:dt="r8">0</Current><DateUtc dt:dt="string">2016-05-18T22:34:58Z</DateUtc></FrequencyChange></FrequencyChanges></Clock>\n	Hungry_Donkey_bar_English_2-144-1	60.017	-82	1.0.0.18	1	256771854	Standard	2.0.10.353	2.0.10.353	05-18-2016		18:34:58	2.0.10.248	53	Bar37-63.bmp	43	3	?	0r_4g.bmp	0r_4g.bmp	0r_2g.bmp	0r_2g.bmp			0r_2g.bmp		TrialProc	TrialList	0	cvbn	-999999	16	192546	0	b	266	192812	158	-206	-48	-6	-82	16	24	8	6	53	0	0	0	0	4	4	2	2	0	2
Hungry_Donkey_bar_English_2	144	1	<?xml version="1.0"?>\n<Clock xmlns:dt="urn:schemas-microsoft-com:datatypes"><Description dt:dt="string">E-Prime Primary Realtime Clock</Description><StartTime><Timestamp dt:dt="int">0</Timestamp><DateUtc dt:dt="string">2016-05-18T22:34:58Z</DateUtc></StartTime><FrequencyChanges><FrequencyChange><Frequency dt:dt="r8">3507685</Frequency><Timestamp dt:dt="r8">257954136248</Timestamp><Current dt:dt="r8">0</Current><DateUtc dt:dt="string">2016-05-18T22:34:58Z</DateUtc></FrequencyChange></FrequencyChanges></Clock>\n	Hungry_Donkey_bar_English_2-144-1	60.017	-82	1.0.0.18	1	256771854	Standard	2.0.10.353	2.0.10.353	05-18-2016		18:34:58	2.0.10.248	54	Bar50-50.bmp	44	2	?	0r_4g.bmp	0r_4g.bmp	0r_2g.bmp	0r_2g.bmp		0r_4g.bmp			TrialProc	TrialList	0	cvbn	-999999	16	194845	0	v	463	195308	162	-206	-44	-6	-78	16	24	7	6	54	0	0	0	0	4	4	2	2	0	4
Hungry_Donkey_bar_English_2	144	1	<?xml version="1.0"?>\n<Clock xmlns:dt="urn:schemas-microsoft-com:datatypes"><Description dt:dt="string">E-Prime Primary Realtime Clock</Description><StartTime><Timestamp dt:dt="int">0</Timestamp><DateUtc dt:dt="string">2016-05-18T22:34:58Z</DateUtc></StartTime><FrequencyChanges><FrequencyChange><Frequency dt:dt="r8">3507685</Frequency><Timestamp dt:dt="r8">257954136248</Timestamp><Current dt:dt="r8">0</Current><DateUtc dt:dt="string">2016-05-18T22:34:58Z</DateUtc></FrequencyChange></FrequencyChanges></Clock>\n	Hungry_Donkey_bar_English_2-144-1	60.017	-82	1.0.0.18	1	256771854	Standard	2.0.10.353	2.0.10.353	05-18-2016		18:34:58	2.0.10.248	55	Bar50-50.bmp	44	4	?	12r_4g.bmp	0r_4g.bmp	3r_2g.bmp	0r_2g.bmp				0r_2g.bmp	TrialProc	TrialList	0	cvbn	-999999	16	197344	0	n	907	198251	164	-206	-42	-6	-78	16	26	5	6	55	-12	0	-3	0	4	4	2	2	0	2
Hungry_Donkey_bar_English_2	144	1	<?xml version="1.0"?>\n<Clock xmlns:dt="urn:schemas-microsoft-com:datatypes"><Description dt:dt="string">E-Prime Primary Realtime Clock</Description><StartTime><Timestamp dt:dt="int">0</Timestamp><DateUtc dt:dt="string">2016-05-18T22:34:58Z</DateUtc></StartTime><FrequencyChanges><FrequencyChange><Frequency dt:dt="r8">3507685</Frequency><Timestamp dt:dt="r8">257954136248</Timestamp><Current dt:dt="r8">0</Current><DateUtc dt:dt="string">2016-05-18T22:34:58Z</DateUtc></FrequencyChange></FrequencyChanges></Clock>\n	Hungry_Donkey_bar_English_2-144-1	60.017	-82	1.0.0.18	1	256771854	Standard	2.0.10.353	2.0.10.353	05-18-2016		18:34:58	2.0.10.248	56	Bar50-50.bmp	44	1	?	8r_4g.bmp	50r_4g.bmp	1r_2g.bmp	10r_2g.bmp	8r_4g.bmp				TrialProc	TrialList	0	cvbn	-999999	16	200277	0	c	646	200923	168	-214	-46	-10	-78	16	26	1	6	56	-8	-50	-1	-10	4	4	2	2	-8	4
Hungry_Donkey_bar_English_2	144	1	<?xml version="1.0"?>\n<Clock xmlns:dt="urn:schemas-microsoft-com:datatypes"><Description dt:dt="string">E-Prime Primary Realtime Clock</Description><StartTime><Timestamp dt:dt="int">0</Timestamp><DateUtc dt:dt="string">2016-05-18T22:34:58Z</DateUtc></StartTime><FrequencyChanges><FrequencyChange><Frequency dt:dt="r8">3507685</Frequency><Timestamp dt:dt="r8">257954136248</Timestamp><Current dt:dt="r8">0</Current><DateUtc dt:dt="string">2016-05-18T22:34:58Z</DateUtc></FrequencyChange></FrequencyChanges></Clock>\n	Hungry_Donkey_bar_English_2-144-1	60.017	-82	1.0.0.18	1	256771854	Standard	2.0.10.353	2.0.10.353	05-18-2016		18:34:58	2.0.10.248	57	Bar50-50.bmp	44	3	?	10r_4g.bmp	0r_4g.bmp	2r_2g.bmp	0r_2g.bmp			2r_2g.bmp		TrialProc	TrialList	0	cvbn	-999999	16	202959	0	b	380	203339	170	-216	-46	-10	-78	16	26	2	6	57	-10	0	-2	0	4	4	2	2	-2	2
Hungry_Donkey_bar_English_2	144	1	<?xml version="1.0"?>\n<Clock xmlns:dt="urn:schemas-microsoft-com:datatypes"><Description dt:dt="string">E-Prime Primary Realtime Clock</Description><StartTime><Timestamp dt:dt="int">0</Timestamp><DateUtc dt:dt="string">2016-05-18T22:34:58Z</DateUtc></StartTime><FrequencyChanges><FrequencyChange><Frequency dt:dt="r8">3507685</Frequency><Timestamp dt:dt="r8">257954136248</Timestamp><Current dt:dt="r8">0</Current><DateUtc dt:dt="string">2016-05-18T22:34:58Z</DateUtc></FrequencyChange></FrequencyChanges></Clock>\n	Hungry_Donkey_bar_English_2-144-1	60.017	-82	1.0.0.18	1	256771854	Standard	2.0.10.353	2.0.10.353	05-18-2016		18:34:58	2.0.10.248	58	Bar50-50.bmp	45	2	?	0r_4g.bmp	0r_4g.bmp	0r_2g.bmp	0r_2g.bmp		0r_4g.bmp			TrialProc	TrialList	0	cvbn	-999999	16	205375	0	v	156	205531	174	-216	-42	-10	-74	16	26	9	6	58	0	0	0	0	4	4	2	2	0	4
Hungry_Donkey_bar_English_2	144	1	<?xml version="1.0"?>\n<Clock xmlns:dt="urn:schemas-microsoft-com:datatypes"><Description dt:dt="string">E-Prime Primary Realtime Clock</Description><StartTime><Timestamp dt:dt="int">0</Timestamp><DateUtc dt:dt="string">2016-05-18T22:34:58Z</DateUtc></StartTime><FrequencyChanges><FrequencyChange><Frequency dt:dt="r8">3507685</Frequency><Timestamp dt:dt="r8">257954136248</Timestamp><Current dt:dt="r8">0</Current><DateUtc dt:dt="string">2016-05-18T22:34:58Z</DateUtc></FrequencyChange></FrequencyChanges></Clock>\n	Hungry_Donkey_bar_English_2-144-1	60.017	-82	1.0.0.18	1	256771854	Standard	2.0.10.353	2.0.10.353	05-18-2016		18:34:58	2.0.10.248	59	Bar50-50.bmp	45	4	?	0r_4g.bmp	0r_4g.bmp	0r_2g.bmp	0r_2g.bmp				0r_2g.bmp	TrialProc	TrialList	0	cvbn	-999999	16	207558	0	n	1109	208667	176	-216	-40	-10	-74	16	28	6	6	59	0	0	0	0	4	4	2	2	0	2
Hungry_Donkey_bar_English_2	144	1	<?xml version="1.0"?>\n<Clock xmlns:dt="urn:schemas-microsoft-com:datatypes"><Description dt:dt="string">E-Prime Primary Realtime Clock</Description><StartTime><Timestamp dt:dt="int">0</Timestamp><DateUtc dt:dt="string">2016-05-18T22:34:58Z</DateUtc></StartTime><FrequencyChanges><FrequencyChange><Frequency dt:dt="r8">3507685</Frequency><Timestamp dt:dt="r8">257954136248</Timestamp><Current dt:dt="r8">0</Current><DateUtc dt:dt="string">2016-05-18T22:34:58Z</DateUtc></FrequencyChange></FrequencyChanges></Clock>\n	Hungry_Donkey_bar_English_2-144-1	60.017	-82	1.0.0.18	1	256771854	Standard	2.0.10.353	2.0.10.353	05-18-2016		18:34:58	2.0.10.248	60	Bar50-50.bmp	45	2	?	10r_4g.bmp	0r_4g.bmp	2r_2g.bmp	0r_2g.bmp		0r_4g.bmp			TrialProc	TrialList	0	cvbn	-999999	16	210707	0	v	280	210987	180	-216	-36	-10	-70	16	28	4	6	60	-10	0	-2	0	4	4	2	2	0	4
Hungry_Donkey_bar_English_2	144	1	<?xml version="1.0"?>\n<Clock xmlns:dt="urn:schemas-microsoft-com:datatypes"><Description dt:dt="string">E-Prime Primary Realtime Clock</Description><StartTime><Timestamp dt:dt="int">0</Timestamp><DateUtc dt:dt="string">2016-05-18T22:34:58Z</DateUtc></StartTime><FrequencyChanges><FrequencyChange><Frequency dt:dt="r8">3507685</Frequency><Timestamp dt:dt="r8">257954136248</Timestamp><Current dt:dt="r8">0</Current><DateUtc dt:dt="string">2016-05-18T22:34:58Z</DateUtc></FrequencyChange></FrequencyChanges></Clock>\n	Hungry_Donkey_bar_English_2-144-1	60.017	-82	1.0.0.18	1	256771854	Standard	2.0.10.353	2.0.10.353	05-18-2016		18:34:58	2.0.10.248	61	Bar50-50.bmp	46	4	?	10r_4g.bmp	0r_4g.bmp	2r_2g.bmp	0r_2g.bmp				0r_2g.bmp	TrialProc	TrialList	0	cvbn	-999999	16	213023	0	n	348	213371	182	-216	-34	-10	-70	16	30	2	7	61	-10	0	-2	0	4	4	2	2	0	2
Hungry_Donkey_bar_English_2	144	1	<?xml version="1.0"?>\n<Clock xmlns:dt="urn:schemas-microsoft-com:datatypes"><Description dt:dt="string">E-Prime Primary Realtime Clock</Description><StartTime><Timestamp dt:dt="int">0</Timestamp><DateUtc dt:dt="string">2016-05-18T22:34:58Z</DateUtc></StartTime><FrequencyChanges><FrequencyChange><Frequency dt:dt="r8">3507685</Frequency><Timestamp dt:dt="r8">257954136248</Timestamp><Current dt:dt="r8">0</Current><DateUtc dt:dt="string">2016-05-18T22:34:58Z</DateUtc></FrequencyChange></FrequencyChanges></Clock>\n	Hungry_Donkey_bar_English_2-144-1	60.017	-82	1.0.0.18	1	256771854	Standard	2.0.10.353	2.0.10.353	05-18-2016		18:34:58	2.0.10.248	62	Bar50-50.bmp	46	3	?	0r_4g.bmp	0r_4g.bmp	0r_2g.bmp	0r_2g.bmp			0r_2g.bmp		TrialProc	TrialList	0	cvbn	-999999	16	215406	0	b	1292	216698	184	-216	-32	-10	-70	18	30	7	7	62	0	0	0	0	4	4	2	2	0	2
Hungry_Donkey_bar_English_2	144	1	<?xml version="1.0"?>\n<Clock xmlns:dt="urn:schemas-microsoft-com:datatypes"><Description dt:dt="string">E-Prime Primary Realtime Clock</Description><StartTime><Timestamp dt:dt="int">0</Timestamp><DateUtc dt:dt="string">2016-05-18T22:34:58Z</DateUtc></StartTime><FrequencyChanges><FrequencyChange><Frequency dt:dt="r8">3507685</Frequency><Timestamp dt:dt="r8">257954136248</Timestamp><Current dt:dt="r8">0</Current><DateUtc dt:dt="string">2016-05-18T22:34:58Z</DateUtc></FrequencyChange></FrequencyChanges></Clock>\n	Hungry_Donkey_bar_English_2-144-1	60.017	-82	1.0.0.18	1	256771854	Standard	2.0.10.353	2.0.10.353	05-18-2016		18:34:58	2.0.10.248	63	Bar37-63.bmp	41	2	?	8r_4g.bmp	50r_4g.bmp	1r_2g.bmp	10r_2g.bmp		50r_4g.bmp			TrialProc	TrialList	0	cvbn	-999999	15	218721	0	v	409	219130	188	-266	-78	-10	-116	18	30	1	7	63	-8	-50	-1	-10	4	4	2	2	-50	4
Hungry_Donkey_bar_English_2	144	1	<?xml version="1.0"?>\n<Clock xmlns:dt="urn:schemas-microsoft-com:datatypes"><Description dt:dt="string">E-Prime Primary Realtime Clock</Description><StartTime><Timestamp dt:dt="int">0</Timestamp><DateUtc dt:dt="string">2016-05-18T22:34:58Z</DateUtc></StartTime><FrequencyChanges><FrequencyChange><Frequency dt:dt="r8">3507685</Frequency><Timestamp dt:dt="r8">257954136248</Timestamp><Current dt:dt="r8">0</Current><DateUtc dt:dt="string">2016-05-18T22:34:58Z</DateUtc></FrequencyChange></FrequencyChanges></Clock>\n	Hungry_Donkey_bar_English_2-144-1	60.017	-82	1.0.0.18	1	256771854	Standard	2.0.10.353	2.0.10.353	05-18-2016		18:34:58	2.0.10.248	64	Bar37-63.bmp	42	3	?	0r_4g.bmp	0r_4g.bmp	0r_2g.bmp	0r_2g.bmp			0r_2g.bmp		TrialProc	TrialList	0	cvbn	-999999	16	221171	0	b	519	221690	190	-266	-76	-10	-116	20	30	8	7	64	0	0	0	0	4	4	2	2	0	2
Hungry_Donkey_bar_English_2	144	1	<?xml version="1.0"?>\n<Clock xmlns:dt="urn:schemas-microsoft-com:datatypes"><Description dt:dt="string">E-Prime Primary Realtime Clock</Description><StartTime><Timestamp dt:dt="int">0</Timestamp><DateUtc dt:dt="string">2016-05-18T22:34:58Z</DateUtc></StartTime><FrequencyChanges><FrequencyChange><Frequency dt:dt="r8">3507685</Frequency><Timestamp dt:dt="r8">257954136248</Timestamp><Current dt:dt="r8">0</Current><DateUtc dt:dt="string">2016-05-18T22:34:58Z</DateUtc></FrequencyChange></FrequencyChanges></Clock>\n	Hungry_Donkey_bar_English_2-144-1	60.017	-82	1.0.0.18	1	256771854	Standard	2.0.10.353	2.0.10.353	05-18-2016		18:34:58	2.0.10.248	65	Bar37-63.bmp	42	1	?	0r_4g.bmp	0r_4g.bmp	0r_2g.bmp	0r_2g.bmp	0r_4g.bmp				TrialProc	TrialList	0	cvbn	-999999	16	223720	0	c	258	223978	194	-266	-72	-6	-116	20	30	10	7	65	0	0	0	0	4	4	2	2	0	4
Hungry_Donkey_bar_English_2	144	1	<?xml version="1.0"?>\n<Clock xmlns:dt="urn:schemas-microsoft-com:datatypes"><Description dt:dt="string">E-Prime Primary Realtime Clock</Description><StartTime><Timestamp dt:dt="int">0</Timestamp><DateUtc dt:dt="string">2016-05-18T22:34:58Z</DateUtc></StartTime><FrequencyChanges><FrequencyChange><Frequency dt:dt="r8">3507685</Frequency><Timestamp dt:dt="r8">257954136248</Timestamp><Current dt:dt="r8">0</Current><DateUtc dt:dt="string">2016-05-18T22:34:58Z</DateUtc></FrequencyChange></FrequencyChanges></Clock>\n	Hungry_Donkey_bar_English_2-144-1	60.017	-82	1.0.0.18	1	256771854	Standard	2.0.10.353	2.0.10.353	05-18-2016		18:34:58	2.0.10.248	66	Bar37-63.bmp	42	4	?	12r_4g.bmp	0r_4g.bmp	3r_2g.bmp	0r_2g.bmp				0r_2g.bmp	TrialProc	TrialList	0	cvbn	-999999	16	226003	0	n	135	226138	196	-266	-70	-6	-116	20	32	5	7	66	-12	0	-3	0	4	4	2	2	0	2
Hungry_Donkey_bar_English_2	144	1	<?xml version="1.0"?>\n<Clock xmlns:dt="urn:schemas-microsoft-com:datatypes"><Description dt:dt="string">E-Prime Primary Realtime Clock</Description><StartTime><Timestamp dt:dt="int">0</Timestamp><DateUtc dt:dt="string">2016-05-18T22:34:58Z</DateUtc></StartTime><FrequencyChanges><FrequencyChange><Frequency dt:dt="r8">3507685</Frequency><Timestamp dt:dt="r8">257954136248</Timestamp><Current dt:dt="r8">0</Current><DateUtc dt:dt="string">2016-05-18T22:34:58Z</DateUtc></FrequencyChange></FrequencyChanges></Clock>\n	Hungry_Donkey_bar_English_2-144-1	60.017	-82	1.0.0.18	1	256771854	Standard	2.0.10.353	2.0.10.353	05-18-2016		18:34:58	2.0.10.248	67	Bar37-63.bmp	42	3	?	10r_4g.bmp	0r_4g.bmp	2r_2g.bmp	0r_2g.bmp			2r_2g.bmp		TrialProc	TrialList	0	cvbn	-999999	16	228169	0	b	97	228266	198	-268	-70	-6	-116	20	32	4	7	67	-10	0	-2	0	4	4	2	2	-2	2
Hungry_Donkey_bar_English_2	144	1	<?xml version="1.0"?>\n<Clock xmlns:dt="urn:schemas-microsoft-com:datatypes"><Description dt:dt="string">E-Prime Primary Realtime Clock</Description><StartTime><Timestamp dt:dt="int">0</Timestamp><DateUtc dt:dt="string">2016-05-18T22:34:58Z</DateUtc></StartTime><FrequencyChanges><FrequencyChange><Frequency dt:dt="r8">3507685</Frequency><Timestamp dt:dt="r8">257954136248</Timestamp><Current dt:dt="r8">0</Current><DateUtc dt:dt="string">2016-05-18T22:34:58Z</DateUtc></FrequencyChange></FrequencyChanges></Clock>\n	Hungry_Donkey_bar_English_2-144-1	60.017	-82	1.0.0.18	1	256771854	Standard	2.0.10.353	2.0.10.353	05-18-2016		18:34:58	2.0.10.248	68	Bar37-63.bmp	43	2	?	0r_4g.bmp	0r_4g.bmp	0r_2g.bmp	0r_2g.bmp		0r_4g.bmp			TrialProc	TrialList	0	cvbn	-999999	16	230301	0	v	1277	231578	202	-268	-66	-6	-112	20	32	6	7	68	0	0	0	0	4	4	2	2	0	4
Hungry_Donkey_bar_English_2	144	1	<?xml version="1.0"?>\n<Clock xmlns:dt="urn:schemas-microsoft-com:datatypes"><Description dt:dt="string">E-Prime Primary Realtime Clock</Description><StartTime><Timestamp dt:dt="int">0</Timestamp><DateUtc dt:dt="string">2016-05-18T22:34:58Z</DateUtc></StartTime><FrequencyChanges><FrequencyChange><Frequency dt:dt="r8">3507685</Frequency><Timestamp dt:dt="r8">257954136248</Timestamp><Current dt:dt="r8">0</Current><DateUtc dt:dt="string">2016-05-18T22:34:58Z</DateUtc></FrequencyChange></FrequencyChanges></Clock>\n	Hungry_Donkey_bar_English_2-144-1	60.017	-82	1.0.0.18	1	256771854	Standard	2.0.10.353	2.0.10.353	05-18-2016		18:34:58	2.0.10.248	69	Bar37-63.bmp	43	3	?	10r_4g.bmp	0r_4g.bmp	2r_2g.bmp	0r_2g.bmp			2r_2g.bmp		TrialProc	TrialList	0	cvbn	-999999	15	233600	0	b	1466	235066	204	-270	-66	-6	-112	20	32	3	7	69	-10	0	-2	0	4	4	2	2	-2	2
Hungry_Donkey_bar_English_2	144	1	<?xml version="1.0"?>\n<Clock xmlns:dt="urn:schemas-microsoft-com:datatypes"><Description dt:dt="string">E-Prime Primary Realtime Clock</Description><StartTime><Timestamp dt:dt="int">0</Timestamp><DateUtc dt:dt="string">2016-05-18T22:34:58Z</DateUtc></StartTime><FrequencyChanges><FrequencyChange><Frequency dt:dt="r8">3507685</Frequency><Timestamp dt:dt="r8">257954136248</Timestamp><Current dt:dt="r8">0</Current><DateUtc dt:dt="string">2016-05-18T22:34:58Z</DateUtc></FrequencyChange></FrequencyChanges></Clock>\n	Hungry_Donkey_bar_English_2-144-1	60.017	-82	1.0.0.18	1	256771854	Standard	2.0.10.353	2.0.10.353	05-18-2016		18:34:58	2.0.10.248	70	Bar37-63.bmp	43	4	?	0r_4g.bmp	0r_4g.bmp	0r_2g.bmp	0r_2g.bmp				0r_2g.bmp	TrialProc	TrialList	0	cvbn	-999999	16	237099	0	n	366	237465	206	-270	-64	-6	-112	20	34	9	7	70	0	0	0	0	4	4	2	2	0	2
Hungry_Donkey_bar_English_2	144	1	<?xml version="1.0"?>\n<Clock xmlns:dt="urn:schemas-microsoft-com:datatypes"><Description dt:dt="string">E-Prime Primary Realtime Clock</Description><StartTime><Timestamp dt:dt="int">0</Timestamp><DateUtc dt:dt="string">2016-05-18T22:34:58Z</DateUtc></StartTime><FrequencyChanges><FrequencyChange><Frequency dt:dt="r8">3507685</Frequency><Timestamp dt:dt="r8">257954136248</Timestamp><Current dt:dt="r8">0</Current><DateUtc dt:dt="string">2016-05-18T22:34:58Z</DateUtc></FrequencyChange></FrequencyChanges></Clock>\n	Hungry_Donkey_bar_English_2-144-1	60.017	-82	1.0.0.18	1	256771854	Standard	2.0.10.353	2.0.10.353	05-18-2016		18:34:58	2.0.10.248	71	Bar37-63.bmp	43	1	?	12r_4g.bmp	0r_4g.bmp	3r_2g.bmp	0r_2g.bmp	12r_4g.bmp				TrialProc	TrialList	0	cvbn	-999999	16	239499	0	c	62	239561	210	-282	-72	-14	-112	20	34	5	8	71	-12	0	-3	0	4	4	2	2	-12	4
Hungry_Donkey_bar_English_2	144	1	<?xml version="1.0"?>\n<Clock xmlns:dt="urn:schemas-microsoft-com:datatypes"><Description dt:dt="string">E-Prime Primary Realtime Clock</Description><StartTime><Timestamp dt:dt="int">0</Timestamp><DateUtc dt:dt="string">2016-05-18T22:34:58Z</DateUtc></StartTime><FrequencyChanges><FrequencyChange><Frequency dt:dt="r8">3507685</Frequency><Timestamp dt:dt="r8">257954136248</Timestamp><Current dt:dt="r8">0</Current><DateUtc dt:dt="string">2016-05-18T22:34:58Z</DateUtc></FrequencyChange></FrequencyChanges></Clock>\n	Hungry_Donkey_bar_English_2-144-1	60.017	-82	1.0.0.18	1	256771854	Standard	2.0.10.353	2.0.10.353	05-18-2016		18:34:58	2.0.10.248	72	Bar37-63.bmp	43	2	?	0r_4g.bmp	0r_4g.bmp	0r_2g.bmp	0r_2g.bmp		0r_4g.bmp			TrialProc	TrialList	0	cvbn	-999999	16	241598	0	v	379	241977	214	-282	-68	-14	-108	20	34	6	8	72	0	0	0	0	4	4	2	2	0	4
Hungry_Donkey_bar_English_2	144	1	<?xml version="1.0"?>\n<Clock xmlns:dt="urn:schemas-microsoft-com:datatypes"><Description dt:dt="string">E-Prime Primary Realtime Clock</Description><StartTime><Timestamp dt:dt="int">0</Timestamp><DateUtc dt:dt="string">2016-05-18T22:34:58Z</DateUtc></StartTime><FrequencyChanges><FrequencyChange><Frequency dt:dt="r8">3507685</Frequency><Timestamp dt:dt="r8">257954136248</Timestamp><Current dt:dt="r8">0</Current><DateUtc dt:dt="string">2016-05-18T22:34:58Z</DateUtc></FrequencyChange></FrequencyChanges></Clock>\n	Hungry_Donkey_bar_English_2-144-1	60.017	-82	1.0.0.18	1	256771854	Standard	2.0.10.353	2.0.10.353	05-18-2016		18:34:58	2.0.10.248	73	Bar37-63.bmp	43	3	?	0r_4g.bmp	0r_4g.bmp	0r_2g.bmp	0r_2g.bmp			0r_2g.bmp		TrialProc	TrialList	0	cvbn	-999999	16	244014	0	b	459	244473	216	-282	-66	-14	-108	22	34	8	8	73	0	0	0	0	4	4	2	2	0	2
Hungry_Donkey_bar_English_2	144	1	<?xml version="1.0"?>\n<Clock xmlns:dt="urn:schemas-microsoft-com:datatypes"><Description dt:dt="string">E-Prime Primary Realtime Clock</Description><StartTime><Timestamp dt:dt="int">0</Timestamp><DateUtc dt:dt="string">2016-05-18T22:34:58Z</DateUtc></StartTime><FrequencyChanges><FrequencyChange><Frequency dt:dt="r8">3507685</Frequency><Timestamp dt:dt="r8">257954136248</Timestamp><Current dt:dt="r8">0</Current><DateUtc dt:dt="string">2016-05-18T22:34:58Z</DateUtc></FrequencyChange></FrequencyChanges></Clock>\n	Hungry_Donkey_bar_English_2-144-1	60.017	-82	1.0.0.18	1	256771854	Standard	2.0.10.353	2.0.10.353	05-18-2016		18:34:58	2.0.10.248	74	Bar50-50.bmp	44	4	?	10r_4g.bmp	0r_4g.bmp	2r_2g.bmp	0r_2g.bmp				0r_2g.bmp	TrialProc	TrialList	0	cvbn	-999999	16	246497	0	n	360	246857	218	-282	-64	-14	-108	22	36	3	8	74	-10	0	-2	0	4	4	2	2	0	2
Hungry_Donkey_bar_English_2	144	1	<?xml version="1.0"?>\n<Clock xmlns:dt="urn:schemas-microsoft-com:datatypes"><Description dt:dt="string">E-Prime Primary Realtime Clock</Description><StartTime><Timestamp dt:dt="int">0</Timestamp><DateUtc dt:dt="string">2016-05-18T22:34:58Z</DateUtc></StartTime><FrequencyChanges><FrequencyChange><Frequency dt:dt="r8">3507685</Frequency><Timestamp dt:dt="r8">257954136248</Timestamp><Current dt:dt="r8">0</Current><DateUtc dt:dt="string">2016-05-18T22:34:58Z</DateUtc></FrequencyChange></FrequencyChanges></Clock>\n	Hungry_Donkey_bar_English_2-144-1	60.017	-82	1.0.0.18	1	256771854	Standard	2.0.10.353	2.0.10.353	05-18-2016		18:34:58	2.0.10.248	75	Bar50-50.bmp	44	2	?	0r_4g.bmp	0r_4g.bmp	0r_2g.bmp	0r_2g.bmp		0r_4g.bmp			TrialProc	TrialList	0	cvbn	-999999	16	248896	0	v	361	249257	222	-282	-60	-14	-104	22	36	9	8	75	0	0	0	0	4	4	2	2	0	4
Hungry_Donkey_bar_English_2	144	1	<?xml version="1.0"?>\n<Clock xmlns:dt="urn:schemas-microsoft-com:datatypes"><Description dt:dt="string">E-Prime Primary Realtime Clock</Description><StartTime><Timestamp dt:dt="int">0</Timestamp><DateUtc dt:dt="string">2016-05-18T22:34:58Z</DateUtc></StartTime><FrequencyChanges><FrequencyChange><Frequency dt:dt="r8">3507685</Frequency><Timestamp dt:dt="r8">257954136248</Timestamp><Current dt:dt="r8">0</Current><DateUtc dt:dt="string">2016-05-18T22:34:58Z</DateUtc></FrequencyChange></FrequencyChanges></Clock>\n	Hungry_Donkey_bar_English_2-144-1	60.017	-82	1.0.0.18	1	256771854	Standard	2.0.10.353	2.0.10.353	05-18-2016		18:34:58	2.0.10.248	76	Bar50-50.bmp	44	4	?	10r_4g.bmp	0r_4g.bmp	2r_2g.bmp	0r_2g.bmp				0r_2g.bmp	TrialProc	TrialList	0	cvbn	-999999	16	251295	0	n	458	251753	224	-282	-58	-14	-104	22	38	2	8	76	-10	0	-2	0	4	4	2	2	0	2
Hungry_Donkey_bar_English_2	144	1	<?xml version="1.0"?>\n<Clock xmlns:dt="urn:schemas-microsoft-com:datatypes"><Description dt:dt="string">E-Prime Primary Realtime Clock</Description><StartTime><Timestamp dt:dt="int">0</Timestamp><DateUtc dt:dt="string">2016-05-18T22:34:58Z</DateUtc></StartTime><FrequencyChanges><FrequencyChange><Frequency dt:dt="r8">3507685</Frequency><Timestamp dt:dt="r8">257954136248</Timestamp><Current dt:dt="r8">0</Current><DateUtc dt:dt="string">2016-05-18T22:34:58Z</DateUtc></FrequencyChange></FrequencyChanges></Clock>\n	Hungry_Donkey_bar_English_2-144-1	60.017	-82	1.0.0.18	1	256771854	Standard	2.0.10.353	2.0.10.353	05-18-2016		18:34:58	2.0.10.248	77	Bar50-50.bmp	45	1	?	0r_4g.bmp	0r_4g.bmp	0r_2g.bmp	0r_2g.bmp	0r_4g.bmp				TrialProc	TrialList	0	cvbn	-999999	16	253778	0	c	1143	254921	228	-282	-54	-10	-104	22	38	10	8	77	0	0	0	0	4	4	2	2	0	4
Hungry_Donkey_bar_English_2	144	1	<?xml version="1.0"?>\n<Clock xmlns:dt="urn:schemas-microsoft-com:datatypes"><Description dt:dt="string">E-Prime Primary Realtime Clock</Description><StartTime><Timestamp dt:dt="int">0</Timestamp><DateUtc dt:dt="string">2016-05-18T22:34:58Z</DateUtc></StartTime><FrequencyChanges><FrequencyChange><Frequency dt:dt="r8">3507685</Frequency><Timestamp dt:dt="r8">257954136248</Timestamp><Current dt:dt="r8">0</Current><DateUtc dt:dt="string">2016-05-18T22:34:58Z</DateUtc></FrequencyChange></FrequencyChanges></Clock>\n	Hungry_Donkey_bar_English_2-144-1	60.017	-82	1.0.0.18	1	256771854	Standard	2.0.10.353	2.0.10.353	05-18-2016		18:34:58	2.0.10.248	78	Bar50-50.bmp	45	2	?	0r_4g.bmp	0r_4g.bmp	0r_2g.bmp	0r_2g.bmp		0r_4g.bmp			TrialProc	TrialList	0	cvbn	-999999	16	256944	0	v	584	257528	232	-282	-50	-10	-100	22	38	7	8	78	0	0	0	0	4	4	2	2	0	4
Hungry_Donkey_bar_English_2	144	1	<?xml version="1.0"?>\n<Clock xmlns:dt="urn:schemas-microsoft-com:datatypes"><Description dt:dt="string">E-Prime Primary Realtime Clock</Description><StartTime><Timestamp dt:dt="int">0</Timestamp><DateUtc dt:dt="string">2016-05-18T22:34:58Z</DateUtc></StartTime><FrequencyChanges><FrequencyChange><Frequency dt:dt="r8">3507685</Frequency><Timestamp dt:dt="r8">257954136248</Timestamp><Current dt:dt="r8">0</Current><DateUtc dt:dt="string">2016-05-18T22:34:58Z</DateUtc></FrequencyChange></FrequencyChanges></Clock>\n	Hungry_Donkey_bar_English_2-144-1	60.017	-82	1.0.0.18	1	256771854	Standard	2.0.10.353	2.0.10.353	05-18-2016		18:34:58	2.0.10.248	79	Bar50-50.bmp	45	3	?	10r_4g.bmp	0r_4g.bmp	2r_2g.bmp	0r_2g.bmp			2r_2g.bmp		TrialProc	TrialList	0	cvbn	-999999	16	259560	0	b	320	259880	234	-284	-50	-10	-100	22	38	4	8	79	-10	0	-2	0	4	4	2	2	-2	2
Hungry_Donkey_bar_English_2	144	1	<?xml version="1.0"?>\n<Clock xmlns:dt="urn:schemas-microsoft-com:datatypes"><Description dt:dt="string">E-Prime Primary Realtime Clock</Description><StartTime><Timestamp dt:dt="int">0</Timestamp><DateUtc dt:dt="string">2016-05-18T22:34:58Z</DateUtc></StartTime><FrequencyChanges><FrequencyChange><Frequency dt:dt="r8">3507685</Frequency><Timestamp dt:dt="r8">257954136248</Timestamp><Current dt:dt="r8">0</Current><DateUtc dt:dt="string">2016-05-18T22:34:58Z</DateUtc></FrequencyChange></FrequencyChanges></Clock>\n	Hungry_Donkey_bar_English_2-144-1	60.017	-82	1.0.0.18	1	256771854	Standard	2.0.10.353	2.0.10.353	05-18-2016		18:34:58	2.0.10.248	80	Bar50-50.bmp	45	4	?	8r_4g.bmp	50r_4g.bmp	1r_2g.bmp	10r_2g.bmp				10r_2g.bmp	TrialProc	TrialList	0	cvbn	-999999	16	261909	0	n	307	262216	236	-294	-58	-10	-100	22	30	1	8	80	-8	-50	-1	-10	4	4	2	2	-10	2
Hungry_Donkey_bar_English_2	144	1	<?xml version="1.0"?>\n<Clock xmlns:dt="urn:schemas-microsoft-com:datatypes"><Description dt:dt="string">E-Prime Primary Realtime Clock</Description><StartTime><Timestamp dt:dt="int">0</Timestamp><DateUtc dt:dt="string">2016-05-18T22:34:58Z</DateUtc></StartTime><FrequencyChanges><FrequencyChange><Frequency dt:dt="r8">3507685</Frequency><Timestamp dt:dt="r8">257954136248</Timestamp><Current dt:dt="r8">0</Current><DateUtc dt:dt="string">2016-05-18T22:34:58Z</DateUtc></FrequencyChange></FrequencyChanges></Clock>\n	Hungry_Donkey_bar_English_2-144-1	60.017	-82	1.0.0.18	1	256771854	Standard	2.0.10.353	2.0.10.353	05-18-2016		18:34:58	2.0.10.248	81	Bar37-63.bmp	41	2	?	8r_4g.bmp	50r_4g.bmp	1r_2g.bmp	10r_2g.bmp		50r_4g.bmp			TrialProc	TrialList	0	cvbn	-999999	16	264242	0	v	614	264856	240	-344	-104	-10	-146	22	30	1	9	81	-8	-50	-1	-10	4	4	2	2	-50	4
Hungry_Donkey_bar_English_2	144	1	<?xml version="1.0"?>\n<Clock xmlns:dt="urn:schemas-microsoft-com:datatypes"><Description dt:dt="string">E-Prime Primary Realtime Clock</Description><StartTime><Timestamp dt:dt="int">0</Timestamp><DateUtc dt:dt="string">2016-05-18T22:34:58Z</DateUtc></StartTime><FrequencyChanges><FrequencyChange><Frequency dt:dt="r8">3507685</Frequency><Timestamp dt:dt="r8">257954136248</Timestamp><Current dt:dt="r8">0</Current><DateUtc dt:dt="string">2016-05-18T22:34:58Z</DateUtc></FrequencyChange></FrequencyChanges></Clock>\n	Hungry_Donkey_bar_English_2-144-1	60.017	-82	1.0.0.18	1	256771854	Standard	2.0.10.353	2.0.10.353	05-18-2016		18:34:58	2.0.10.248	82	Bar37-63.bmp	41	1	?	0r_4g.bmp	0r_4g.bmp	0r_2g.bmp	0r_2g.bmp	0r_4g.bmp				TrialProc	TrialList	0	cvbn	-999999	16	266891	0	c	525	267416	244	-344	-100	-6	-146	22	30	10	9	82	0	0	0	0	4	4	2	2	0	4
Hungry_Donkey_bar_English_2	144	1	<?xml version="1.0"?>\n<Clock xmlns:dt="urn:schemas-microsoft-com:datatypes"><Description dt:dt="string">E-Prime Primary Realtime Clock</Description><StartTime><Timestamp dt:dt="int">0</Timestamp><DateUtc dt:dt="string">2016-05-18T22:34:58Z</DateUtc></StartTime><FrequencyChanges><FrequencyChange><Frequency dt:dt="r8">3507685</Frequency><Timestamp dt:dt="r8">257954136248</Timestamp><Current dt:dt="r8">0</Current><DateUtc dt:dt="string">2016-05-18T22:34:58Z</DateUtc></FrequencyChange></FrequencyChanges></Clock>\n	Hungry_Donkey_bar_English_2-144-1	60.017	-82	1.0.0.18	1	256771854	Standard	2.0.10.353	2.0.10.353	05-18-2016		18:34:58	2.0.10.248	83	Bar37-63.bmp	42	1	?	0r_4g.bmp	0r_4g.bmp	0r_2g.bmp	0r_2g.bmp	0r_4g.bmp				TrialProc	TrialList	0	cvbn	-999999	16	269440	0	c	376	269816	248	-344	-96	-2	-146	22	30	6	9	83	0	0	0	0	4	4	2	2	0	4
Hungry_Donkey_bar_English_2	144	1	<?xml version="1.0"?>\n<Clock xmlns:dt="urn:schemas-microsoft-com:datatypes"><Description dt:dt="string">E-Prime Primary Realtime Clock</Description><StartTime><Timestamp dt:dt="int">0</Timestamp><DateUtc dt:dt="string">2016-05-18T22:34:58Z</DateUtc></StartTime><FrequencyChanges><FrequencyChange><Frequency dt:dt="r8">3507685</Frequency><Timestamp dt:dt="r8">257954136248</Timestamp><Current dt:dt="r8">0</Current><DateUtc dt:dt="string">2016-05-18T22:34:58Z</DateUtc></FrequencyChange></FrequencyChanges></Clock>\n	Hungry_Donkey_bar_English_2-144-1	60.017	-82	1.0.0.18	1	256771854	Standard	2.0.10.353	2.0.10.353	05-18-2016		18:34:58	2.0.10.248	84	Bar37-63.bmp	42	3	?	0r_4g.bmp	0r_4g.bmp	0r_2g.bmp	0r_2g.bmp			0r_2g.bmp		TrialProc	TrialList	0	cvbn	-999999	16	271856	0	b	376	272232	250	-344	-94	-2	-146	24	30	8	9	84	0	0	0	0	4	4	2	2	0	2
Hungry_Donkey_bar_English_2	144	1	<?xml version="1.0"?>\n<Clock xmlns:dt="urn:schemas-microsoft-com:datatypes"><Description dt:dt="string">E-Prime Primary Realtime Clock</Description><StartTime><Timestamp dt:dt="int">0</Timestamp><DateUtc dt:dt="string">2016-05-18T22:34:58Z</DateUtc></StartTime><FrequencyChanges><FrequencyChange><Frequency dt:dt="r8">3507685</Frequency><Timestamp dt:dt="r8">257954136248</Timestamp><Current dt:dt="r8">0</Current><DateUtc dt:dt="string">2016-05-18T22:34:58Z</DateUtc></FrequencyChange></FrequencyChanges></Clock>\n	Hungry_Donkey_bar_English_2-144-1	60.017	-82	1.0.0.18	1	256771854	Standard	2.0.10.353	2.0.10.353	05-18-2016		18:34:58	2.0.10.248	85	Bar37-63.bmp	42	4	?	12r_4g.bmp	0r_4g.bmp	3r_2g.bmp	0r_2g.bmp				0r_2g.bmp	TrialProc	TrialList	0	cvbn	-999999	16	274255	0	n	601	274856	252	-344	-92	-2	-146	24	32	5	9	85	-12	0	-3	0	4	4	2	2	0	2
Hungry_Donkey_bar_English_2	144	1	<?xml version="1.0"?>\n<Clock xmlns:dt="urn:schemas-microsoft-com:datatypes"><Description dt:dt="string">E-Prime Primary Realtime Clock</Description><StartTime><Timestamp dt:dt="int">0</Timestamp><DateUtc dt:dt="string">2016-05-18T22:34:58Z</DateUtc></StartTime><FrequencyChanges><FrequencyChange><Frequency dt:dt="r8">3507685</Frequency><Timestamp dt:dt="r8">257954136248</Timestamp><Current dt:dt="r8">0</Current><DateUtc dt:dt="string">2016-05-18T22:34:58Z</DateUtc></FrequencyChange></FrequencyChanges></Clock>\n	Hungry_Donkey_bar_English_2-144-1	60.017	-82	1.0.0.18	1	256771854	Standard	2.0.10.353	2.0.10.353	05-18-2016		18:34:58	2.0.10.248	86	Bar37-63.bmp	42	3	?	10r_4g.bmp	0r_4g.bmp	2r_2g.bmp	0r_2g.bmp			2r_2g.bmp		TrialProc	TrialList	0	cvbn	-999999	16	276888	0	b	399	277287	254	-346	-92	-2	-146	24	32	2	9	86	-10	0	-2	0	4	4	2	2	-2	2
Hungry_Donkey_bar_English_2	144	1	<?xml version="1.0"?>\n<Clock xmlns:dt="urn:schemas-microsoft-com:datatypes"><Description dt:dt="string">E-Prime Primary Realtime Clock</Description><StartTime><Timestamp dt:dt="int">0</Timestamp><DateUtc dt:dt="string">2016-05-18T22:34:58Z</DateUtc></StartTime><FrequencyChanges><FrequencyChange><Frequency dt:dt="r8">3507685</Frequency><Timestamp dt:dt="r8">257954136248</Timestamp><Current dt:dt="r8">0</Current><DateUtc dt:dt="string">2016-05-18T22:34:58Z</DateUtc></FrequencyChange></FrequencyChanges></Clock>\n	Hungry_Donkey_bar_English_2-144-1	60.017	-82	1.0.0.18	1	256771854	Standard	2.0.10.353	2.0.10.353	05-18-2016		18:34:58	2.0.10.248	87	Bar37-63.bmp	43	2	?	10r_4g.bmp	0r_4g.bmp	2r_2g.bmp	0r_2g.bmp		0r_4g.bmp			TrialProc	TrialList	0	cvbn	-999999	16	279321	0	v	766	280087	258	-346	-88	-2	-142	24	32	3	9	87	-10	0	-2	0	4	4	2	2	0	4
Hungry_Donkey_bar_English_2	144	1	<?xml version="1.0"?>\n<Clock xmlns:dt="urn:schemas-microsoft-com:datatypes"><Description dt:dt="string">E-Prime Primary Realtime Clock</Description><StartTime><Timestamp dt:dt="int">0</Timestamp><DateUtc dt:dt="string">2016-05-18T22:34:58Z</DateUtc></StartTime><FrequencyChanges><FrequencyChange><Frequency dt:dt="r8">3507685</Frequency><Timestamp dt:dt="r8">257954136248</Timestamp><Current dt:dt="r8">0</Current><DateUtc dt:dt="string">2016-05-18T22:34:58Z</DateUtc></FrequencyChange></FrequencyChanges></Clock>\n	Hungry_Donkey_bar_English_2-144-1	60.017	-82	1.0.0.18	1	256771854	Standard	2.0.10.353	2.0.10.353	05-18-2016		18:34:58	2.0.10.248	88	Bar37-63.bmp	42	1	?	10r_4g.bmp	0r_4g.bmp	2r_2g.bmp	0r_2g.bmp	10r_4g.bmp				TrialProc	TrialList	0	cvbn	-999999	16	282120	0	c	479	282599	262	-356	-94	-8	-142	24	32	4	9	88	-10	0	-2	0	4	4	2	2	-10	4
Hungry_Donkey_bar_English_2	144	1	<?xml version="1.0"?>\n<Clock xmlns:dt="urn:schemas-microsoft-com:datatypes"><Description dt:dt="string">E-Prime Primary Realtime Clock</Description><StartTime><Timestamp dt:dt="int">0</Timestamp><DateUtc dt:dt="string">2016-05-18T22:34:58Z</DateUtc></StartTime><FrequencyChanges><FrequencyChange><Frequency dt:dt="r8">3507685</Frequency><Timestamp dt:dt="r8">257954136248</Timestamp><Current dt:dt="r8">0</Current><DateUtc dt:dt="string">2016-05-18T22:34:58Z</DateUtc></FrequencyChange></FrequencyChanges></Clock>\n	Hungry_Donkey_bar_English_2-144-1	60.017	-82	1.0.0.18	1	256771854	Standard	2.0.10.353	2.0.10.353	05-18-2016		18:34:58	2.0.10.248	89	Bar37-63.bmp	43	4	?	0r_4g.bmp	0r_4g.bmp	0r_2g.bmp	0r_2g.bmp				0r_2g.bmp	TrialProc	TrialList	0	cvbn	-999999	16	284636	0	n	571	285207	264	-356	-92	-8	-142	24	34	9	9	89	0	0	0	0	4	4	2	2	0	2
Hungry_Donkey_bar_English_2	144	1	<?xml version="1.0"?>\n<Clock xmlns:dt="urn:schemas-microsoft-com:datatypes"><Description dt:dt="string">E-Prime Primary Realtime Clock</Description><StartTime><Timestamp dt:dt="int">0</Timestamp><DateUtc dt:dt="string">2016-05-18T22:34:58Z</DateUtc></StartTime><FrequencyChanges><FrequencyChange><Frequency dt:dt="r8">3507685</Frequency><Timestamp dt:dt="r8">257954136248</Timestamp><Current dt:dt="r8">0</Current><DateUtc dt:dt="string">2016-05-18T22:34:58Z</DateUtc></FrequencyChange></FrequencyChanges></Clock>\n	Hungry_Donkey_bar_English_2-144-1	60.017	-82	1.0.0.18	1	256771854	Standard	2.0.10.353	2.0.10.353	05-18-2016		18:34:58	2.0.10.248	90	Bar37-63.bmp	43	2	?	0r_4g.bmp	0r_4g.bmp	0r_2g.bmp	0r_2g.bmp		0r_4g.bmp			TrialProc	TrialList	0	cvbn	-999999	16	287235	0	v	404	287639	268	-356	-88	-8	-138	24	34	7	9	90	0	0	0	0	4	4	2	2	0	4
Hungry_Donkey_bar_English_2	144	1	<?xml version="1.0"?>\n<Clock xmlns:dt="urn:schemas-microsoft-com:datatypes"><Description dt:dt="string">E-Prime Primary Realtime Clock</Description><StartTime><Timestamp dt:dt="int">0</Timestamp><DateUtc dt:dt="string">2016-05-18T22:34:58Z</DateUtc></StartTime><FrequencyChanges><FrequencyChange><Frequency dt:dt="r8">3507685</Frequency><Timestamp dt:dt="r8">257954136248</Timestamp><Current dt:dt="r8">0</Current><DateUtc dt:dt="string">2016-05-18T22:34:58Z</DateUtc></FrequencyChange></FrequencyChanges></Clock>\n	Hungry_Donkey_bar_English_2-144-1	60.017	-82	1.0.0.18	1	256771854	Standard	2.0.10.353	2.0.10.353	05-18-2016		18:34:58	2.0.10.248	91	Bar37-63.bmp	43	3	?	0r_4g.bmp	0r_4g.bmp	0r_2g.bmp	0r_2g.bmp			0r_2g.bmp		TrialProc	TrialList	0	cvbn	-999999	16	289668	0	b	403	290071	270	-356	-86	-8	-138	26	34	8	10	91	0	0	0	0	4	4	2	2	0	2
Hungry_Donkey_bar_English_2	144	1	<?xml version="1.0"?>\n<Clock xmlns:dt="urn:schemas-microsoft-com:datatypes"><Description dt:dt="string">E-Prime Primary Realtime Clock</Description><StartTime><Timestamp dt:dt="int">0</Timestamp><DateUtc dt:dt="string">2016-05-18T22:34:58Z</DateUtc></StartTime><FrequencyChanges><FrequencyChange><Frequency dt:dt="r8">3507685</Frequency><Timestamp dt:dt="r8">257954136248</Timestamp><Current dt:dt="r8">0</Current><DateUtc dt:dt="string">2016-05-18T22:34:58Z</DateUtc></FrequencyChange></FrequencyChanges></Clock>\n	Hungry_Donkey_bar_English_2-144-1	60.017	-82	1.0.0.18	1	256771854	Standard	2.0.10.353	2.0.10.353	05-18-2016		18:34:58	2.0.10.248	92	Bar37-63.bmp	43	4	?	10r_4g.bmp	0r_4g.bmp	2r_2g.bmp	0r_2g.bmp				0r_2g.bmp	TrialProc	TrialList	0	cvbn	-999999	16	292100	0	n	595	292695	272	-356	-84	-8	-138	26	36	4	10	92	-10	0	-2	0	4	4	2	2	0	2
Hungry_Donkey_bar_English_2	144	1	<?xml version="1.0"?>\n<Clock xmlns:dt="urn:schemas-microsoft-com:datatypes"><Description dt:dt="string">E-Prime Primary Realtime Clock</Description><StartTime><Timestamp dt:dt="int">0</Timestamp><DateUtc dt:dt="string">2016-05-18T22:34:58Z</DateUtc></StartTime><FrequencyChanges><FrequencyChange><Frequency dt:dt="r8">3507685</Frequency><Timestamp dt:dt="r8">257954136248</Timestamp><Current dt:dt="r8">0</Current><DateUtc dt:dt="string">2016-05-18T22:34:58Z</DateUtc></FrequencyChange></FrequencyChanges></Clock>\n	Hungry_Donkey_bar_English_2-144-1	60.017	-82	1.0.0.18	1	256771854	Standard	2.0.10.353	2.0.10.353	05-18-2016		18:34:58	2.0.10.248	93	Bar50-50.bmp	44	2	?	12r_4g.bmp	0r_4g.bmp	3r_2g.bmp	0r_2g.bmp		0r_4g.bmp			TrialProc	TrialList	0	cvbn	-999999	16	294733	0	v	1241	295974	276	-356	-80	-8	-134	26	36	5	10	93	-12	0	-3	0	4	4	2	2	0	4
Hungry_Donkey_bar_English_2	144	1	<?xml version="1.0"?>\n<Clock xmlns:dt="urn:schemas-microsoft-com:datatypes"><Description dt:dt="string">E-Prime Primary Realtime Clock</Description><StartTime><Timestamp dt:dt="int">0</Timestamp><DateUtc dt:dt="string">2016-05-18T22:34:58Z</DateUtc></StartTime><FrequencyChanges><FrequencyChange><Frequency dt:dt="r8">3507685</Frequency><Timestamp dt:dt="r8">257954136248</Timestamp><Current dt:dt="r8">0</Current><DateUtc dt:dt="string">2016-05-18T22:34:58Z</DateUtc></FrequencyChange></FrequencyChanges></Clock>\n	Hungry_Donkey_bar_English_2-144-1	60.017	-82	1.0.0.18	1	256771854	Standard	2.0.10.353	2.0.10.353	05-18-2016		18:34:58	2.0.10.248	94	Bar50-50.bmp	44	4	?	10r_4g.bmp	0r_4g.bmp	2r_2g.bmp	0r_2g.bmp				0r_2g.bmp	TrialProc	TrialList	0	cvbn	-999999	17	297999	0	n	967	298966	278	-356	-78	-8	-134	26	38	2	10	94	-10	0	-2	0	4	4	2	2	0	2
Hungry_Donkey_bar_English_2	144	1	<?xml version="1.0"?>\n<Clock xmlns:dt="urn:schemas-microsoft-com:datatypes"><Description dt:dt="string">E-Prime Primary Realtime Clock</Description><StartTime><Timestamp dt:dt="int">0</Timestamp><DateUtc dt:dt="string">2016-05-18T22:34:58Z</DateUtc></StartTime><FrequencyChanges><FrequencyChange><Frequency dt:dt="r8">3507685</Frequency><Timestamp dt:dt="r8">257954136248</Timestamp><Current dt:dt="r8">0</Current><DateUtc dt:dt="string">2016-05-18T22:34:58Z</DateUtc></FrequencyChange></FrequencyChanges></Clock>\n	Hungry_Donkey_bar_English_2-144-1	60.017	-82	1.0.0.18	1	256771854	Standard	2.0.10.353	2.0.10.353	05-18-2016		18:34:58	2.0.10.248	95	Bar50-50.bmp	44	3	?	8r_4g.bmp	50r_4g.bmp	1r_2g.bmp	10r_2g.bmp			1r_2g.bmp		TrialProc	TrialList	0	cvbn	-999999	16	300998	0	b	512	301510	280	-357	-77	-8	-134	27	38	1	10	95	-8	-50	-1	-10	4	4	2	2	-1	2
Hungry_Donkey_bar_English_2	144	1	<?xml version="1.0"?>\n<Clock xmlns:dt="urn:schemas-microsoft-com:datatypes"><Description dt:dt="string">E-Prime Primary Realtime Clock</Description><StartTime><Timestamp dt:dt="int">0</Timestamp><DateUtc dt:dt="string">2016-05-18T22:34:58Z</DateUtc></StartTime><FrequencyChanges><FrequencyChange><Frequency dt:dt="r8">3507685</Frequency><Timestamp dt:dt="r8">257954136248</Timestamp><Current dt:dt="r8">0</Current><DateUtc dt:dt="string">2016-05-18T22:34:58Z</DateUtc></FrequencyChange></FrequencyChanges></Clock>\n	Hungry_Donkey_bar_English_2-144-1	60.017	-82	1.0.0.18	1	256771854	Standard	2.0.10.353	2.0.10.353	05-18-2016		18:34:58	2.0.10.248	96	Bar50-50.bmp	44	1	?	0r_4g.bmp	0r_4g.bmp	0r_2g.bmp	0r_2g.bmp	0r_4g.bmp				TrialProc	TrialList	0	cvbn	-999999	16	303547	0	c	299	303846	284	-357	-73	-4	-134	27	38	6	10	96	0	0	0	0	4	4	2	2	0	4
Hungry_Donkey_bar_English_2	144	1	<?xml version="1.0"?>\n<Clock xmlns:dt="urn:schemas-microsoft-com:datatypes"><Description dt:dt="string">E-Prime Primary Realtime Clock</Description><StartTime><Timestamp dt:dt="int">0</Timestamp><DateUtc dt:dt="string">2016-05-18T22:34:58Z</DateUtc></StartTime><FrequencyChanges><FrequencyChange><Frequency dt:dt="r8">3507685</Frequency><Timestamp dt:dt="r8">257954136248</Timestamp><Current dt:dt="r8">0</Current><DateUtc dt:dt="string">2016-05-18T22:34:58Z</DateUtc></FrequencyChange></FrequencyChanges></Clock>\n	Hungry_Donkey_bar_English_2-144-1	60.017	-82	1.0.0.18	1	256771854	Standard	2.0.10.353	2.0.10.353	05-18-2016		18:34:58	2.0.10.248	97	Bar50-50.bmp	44	3	?	0r_4g.bmp	0r_4g.bmp	0r_2g.bmp	0r_2g.bmp			0r_2g.bmp		TrialProc	TrialList	0	cvbn	-999999	16	305880	0	b	398	306278	286	-357	-71	-4	-134	29	38	7	10	97	0	0	0	0	4	4	2	2	0	2
Hungry_Donkey_bar_English_2	144	1	<?xml version="1.0"?>\n<Clock xmlns:dt="urn:schemas-microsoft-com:datatypes"><Description dt:dt="string">E-Prime Primary Realtime Clock</Description><StartTime><Timestamp dt:dt="int">0</Timestamp><DateUtc dt:dt="string">2016-05-18T22:34:58Z</DateUtc></StartTime><FrequencyChanges><FrequencyChange><Frequency dt:dt="r8">3507685</Frequency><Timestamp dt:dt="r8">257954136248</Timestamp><Current dt:dt="r8">0</Current><DateUtc dt:dt="string">2016-05-18T22:34:58Z</DateUtc></FrequencyChange></FrequencyChanges></Clock>\n	Hungry_Donkey_bar_English_2-144-1	60.017	-82	1.0.0.18	1	256771854	Standard	2.0.10.353	2.0.10.353	05-18-2016		18:34:58	2.0.10.248	98	Bar50-50.bmp	45	4	?	10r_4g.bmp	0r_4g.bmp	2r_2g.bmp	0r_2g.bmp				0r_2g.bmp	TrialProc	TrialList	0	cvbn	-999999	16	308312	0	n	462	308774	288	-357	-69	-4	-134	29	40	3	10	98	-10	0	-2	0	4	4	2	2	0	2
Hungry_Donkey_bar_English_2	144	1	<?xml version="1.0"?>\n<Clock xmlns:dt="urn:schemas-microsoft-com:datatypes"><Description dt:dt="string">E-Prime Primary Realtime Clock</Description><StartTime><Timestamp dt:dt="int">0</Timestamp><DateUtc dt:dt="string">2016-05-18T22:34:58Z</DateUtc></StartTime><FrequencyChanges><FrequencyChange><Frequency dt:dt="r8">3507685</Frequency><Timestamp dt:dt="r8">257954136248</Timestamp><Current dt:dt="r8">0</Current><DateUtc dt:dt="string">2016-05-18T22:34:58Z</DateUtc></FrequencyChange></FrequencyChanges></Clock>\n	Hungry_Donkey_bar_English_2-144-1	60.017	-82	1.0.0.18	1	256771854	Standard	2.0.10.353	2.0.10.353	05-18-2016		18:34:58	2.0.10.248	99	Bar50-50.bmp	45	1	?	0r_4g.bmp	0r_4g.bmp	0r_2g.bmp	0r_2g.bmp	0r_4g.bmp				TrialProc	TrialList	0	cvbn	-999999	17	310812	0	c	938	311750	292	-357	-65	0	-134	29	40	10	10	99	0	0	0	0	4	4	2	2	0	4
Hungry_Donkey_bar_English_2	144	1	<?xml version="1.0"?>\n<Clock xmlns:dt="urn:schemas-microsoft-com:datatypes"><Description dt:dt="string">E-Prime Primary Realtime Clock</Description><StartTime><Timestamp dt:dt="int">0</Timestamp><DateUtc dt:dt="string">2016-05-18T22:34:58Z</DateUtc></StartTime><FrequencyChanges><FrequencyChange><Frequency dt:dt="r8">3507685</Frequency><Timestamp dt:dt="r8">257954136248</Timestamp><Current dt:dt="r8">0</Current><DateUtc dt:dt="string">2016-05-18T22:34:58Z</DateUtc></FrequencyChange></FrequencyChanges></Clock>\n	Hungry_Donkey_bar_English_2-144-1	60.017	-82	1.0.0.18	1	256771854	Standard	2.0.10.353	2.0.10.353	05-18-2016		18:34:58	2.0.10.248	100	Bar50-50.bmp	45	2	?	0r_4g.bmp	0r_4g.bmp	0r_2g.bmp	0r_2g.bmp		0r_4g.bmp			TrialProc	TrialList	0	cvbn	-999999	16	313777	0	v	501	314278	296	-357	-61	0	-130	29	40	9	10	100	0	0	0	0	4	4	2	2	0	4
Hungry_Donkey_bar_English_2	144	1	<?xml version="1.0"?>\n<Clock xmlns:dt="urn:schemas-microsoft-com:datatypes"><Description dt:dt="string">E-Prime Primary Realtime Clock</Description><StartTime><Timestamp dt:dt="int">0</Timestamp><DateUtc dt:dt="string">2016-05-18T22:34:58Z</DateUtc></StartTime><FrequencyChanges><FrequencyChange><Frequency dt:dt="r8">3507685</Frequency><Timestamp dt:dt="r8">257954136248</Timestamp><Current dt:dt="r8">0</Current><DateUtc dt:dt="string">2016-05-18T22:34:58Z</DateUtc></FrequencyChange></FrequencyChanges></Clock>\n	Hungry_Donkey_bar_English_2-144-1	60.017	-82	1.0.0.18	1	256771854	Standard	2.0.10.353	2.0.10.353	05-18-2016		18:34:58	2.0.10.248	101	Bar50-50.bmp	45	4	?	0r_4g.bmp	0r_4g.bmp	0r_2g.bmp	0r_2g.bmp				0r_2g.bmp	TrialProc	TrialList	0	cvbn	-999999	16	316310	0	n	335	316645	298	-357	-59	0	-130	29	42	6	11	101	0	0	0	0	4	4	2	2	0	2
Hungry_Donkey_bar_English_2	144	1	<?xml version="1.0"?>\n<Clock xmlns:dt="urn:schemas-microsoft-com:datatypes"><Description dt:dt="string">E-Prime Primary Realtime Clock</Description><StartTime><Timestamp dt:dt="int">0</Timestamp><DateUtc dt:dt="string">2016-05-18T22:34:58Z</DateUtc></StartTime><FrequencyChanges><FrequencyChange><Frequency dt:dt="r8">3507685</Frequency><Timestamp dt:dt="r8">257954136248</Timestamp><Current dt:dt="r8">0</Current><DateUtc dt:dt="string">2016-05-18T22:34:58Z</DateUtc></FrequencyChange></FrequencyChanges></Clock>\n	Hungry_Donkey_bar_English_2-144-1	60.017	-82	1.0.0.18	1	256771854	Standard	2.0.10.353	2.0.10.353	05-18-2016		18:34:58	2.0.10.248	102	Bar50-50.bmp	46	3	?	10r_4g.bmp	0r_4g.bmp	2r_2g.bmp	0r_2g.bmp			2r_2g.bmp		TrialProc	TrialList	0	cvbn	-999999	16	318676	0	b	385	319061	300	-359	-59	0	-130	29	42	3	11	102	-10	0	-2	0	4	4	2	2	-2	2
Hungry_Donkey_bar_English_2	144	1	<?xml version="1.0"?>\n<Clock xmlns:dt="urn:schemas-microsoft-com:datatypes"><Description dt:dt="string">E-Prime Primary Realtime Clock</Description><StartTime><Timestamp dt:dt="int">0</Timestamp><DateUtc dt:dt="string">2016-05-18T22:34:58Z</DateUtc></StartTime><FrequencyChanges><FrequencyChange><Frequency dt:dt="r8">3507685</Frequency><Timestamp dt:dt="r8">257954136248</Timestamp><Current dt:dt="r8">0</Current><DateUtc dt:dt="string">2016-05-18T22:34:58Z</DateUtc></FrequencyChange></FrequencyChanges></Clock>\n	Hungry_Donkey_bar_English_2-144-1	60.017	-82	1.0.0.18	1	256771854	Standard	2.0.10.353	2.0.10.353	05-18-2016		18:34:58	2.0.10.248	103	Bar50-50.bmp	46	2	?	12r_4g.bmp	0r_4g.bmp	3r_2g.bmp	0r_2g.bmp		0r_4g.bmp			TrialProc	TrialList	0	cvbn	-999999	16	321092	0	v	641	321733	304	-359	-55	0	-126	29	42	5	11	103	-12	0	-3	0	4	4	2	2	0	4
Hungry_Donkey_bar_English_2	144	1	<?xml version="1.0"?>\n<Clock xmlns:dt="urn:schemas-microsoft-com:datatypes"><Description dt:dt="string">E-Prime Primary Realtime Clock</Description><StartTime><Timestamp dt:dt="int">0</Timestamp><DateUtc dt:dt="string">2016-05-18T22:34:58Z</DateUtc></StartTime><FrequencyChanges><FrequencyChange><Frequency dt:dt="r8">3507685</Frequency><Timestamp dt:dt="r8">257954136248</Timestamp><Current dt:dt="r8">0</Current><DateUtc dt:dt="string">2016-05-18T22:34:58Z</DateUtc></FrequencyChange></FrequencyChanges></Clock>\n	Hungry_Donkey_bar_English_2-144-1	60.017	-82	1.0.0.18	1	256771854	Standard	2.0.10.353	2.0.10.353	05-18-2016		18:34:58	2.0.10.248	104	Bar50-50.bmp	46	4	?	10r_4g.bmp	0r_4g.bmp	2r_2g.bmp	0r_2g.bmp				0r_2g.bmp	TrialProc	TrialList	0	cvbn	-999999	16	323758	0	n	647	324405	306	-359	-53	0	-126	29	44	2	11	104	-10	0	-2	0	4	4	2	2	0	2
Hungry_Donkey_bar_English_2	144	1	<?xml version="1.0"?>\n<Clock xmlns:dt="urn:schemas-microsoft-com:datatypes"><Description dt:dt="string">E-Prime Primary Realtime Clock</Description><StartTime><Timestamp dt:dt="int">0</Timestamp><DateUtc dt:dt="string">2016-05-18T22:34:58Z</DateUtc></StartTime><FrequencyChanges><FrequencyChange><Frequency dt:dt="r8">3507685</Frequency><Timestamp dt:dt="r8">257954136248</Timestamp><Current dt:dt="r8">0</Current><DateUtc dt:dt="string">2016-05-18T22:34:58Z</DateUtc></FrequencyChange></FrequencyChanges></Clock>\n	Hungry_Donkey_bar_English_2-144-1	60.017	-82	1.0.0.18	1	256771854	Standard	2.0.10.353	2.0.10.353	05-18-2016		18:34:58	2.0.10.248	105	Bar50-50.bmp	46	2	?	0r_4g.bmp	0r_4g.bmp	0r_2g.bmp	0r_2g.bmp		0r_4g.bmp			TrialProc	TrialList	0	cvbn	-999999	16	326440	0	v	461	326901	310	-359	-49	0	-122	29	44	7	11	105	0	0	0	0	4	4	2	2	0	4
Hungry_Donkey_bar_English_2	144	1	<?xml version="1.0"?>\n<Clock xmlns:dt="urn:schemas-microsoft-com:datatypes"><Description dt:dt="string">E-Prime Primary Realtime Clock</Description><StartTime><Timestamp dt:dt="int">0</Timestamp><DateUtc dt:dt="string">2016-05-18T22:34:58Z</DateUtc></StartTime><FrequencyChanges><FrequencyChange><Frequency dt:dt="r8">3507685</Frequency><Timestamp dt:dt="r8">257954136248</Timestamp><Current dt:dt="r8">0</Current><DateUtc dt:dt="string">2016-05-18T22:34:58Z</DateUtc></FrequencyChange></FrequencyChanges></Clock>\n	Hungry_Donkey_bar_English_2-144-1	60.017	-82	1.0.0.18	1	256771854	Standard	2.0.10.353	2.0.10.353	05-18-2016		18:34:58	2.0.10.248	106	Bar50-50.bmp	46	1	?	8r_4g.bmp	50r_4g.bmp	1r_2g.bmp	10r_2g.bmp	8r_4g.bmp				TrialProc	TrialList	0	cvbn	-999999	16	328940	0	c	393	329333	314	-367	-53	-4	-122	29	44	1	11	106	-8	-50	-1	-10	4	4	2	2	-8	4
Hungry_Donkey_bar_English_2	144	1	<?xml version="1.0"?>\n<Clock xmlns:dt="urn:schemas-microsoft-com:datatypes"><Description dt:dt="string">E-Prime Primary Realtime Clock</Description><StartTime><Timestamp dt:dt="int">0</Timestamp><DateUtc dt:dt="string">2016-05-18T22:34:58Z</DateUtc></StartTime><FrequencyChanges><FrequencyChange><Frequency dt:dt="r8">3507685</Frequency><Timestamp dt:dt="r8">257954136248</Timestamp><Current dt:dt="r8">0</Current><DateUtc dt:dt="string">2016-05-18T22:34:58Z</DateUtc></FrequencyChange></FrequencyChanges></Clock>\n	Hungry_Donkey_bar_English_2-144-1	60.017	-82	1.0.0.18	1	256771854	Standard	2.0.10.353	2.0.10.353	05-18-2016		18:34:58	2.0.10.248	107	Bar50-50.bmp	46	4	?	0r_4g.bmp	0r_4g.bmp	0r_2g.bmp	0r_2g.bmp				0r_2g.bmp	TrialProc	TrialList	0	cvbn	-999999	16	331372	0	n	489	331861	316	-367	-51	-4	-122	29	46	10	11	107	0	0	0	0	4	4	2	2	0	2
Hungry_Donkey_bar_English_2	144	1	<?xml version="1.0"?>\n<Clock xmlns:dt="urn:schemas-microsoft-com:datatypes"><Description dt:dt="string">E-Prime Primary Realtime Clock</Description><StartTime><Timestamp dt:dt="int">0</Timestamp><DateUtc dt:dt="string">2016-05-18T22:34:58Z</DateUtc></StartTime><FrequencyChanges><FrequencyChange><Frequency dt:dt="r8">3507685</Frequency><Timestamp dt:dt="r8">257954136248</Timestamp><Current dt:dt="r8">0</Current><DateUtc dt:dt="string">2016-05-18T22:34:58Z</DateUtc></FrequencyChange></FrequencyChanges></Clock>\n	Hungry_Donkey_bar_English_2-144-1	60.017	-82	1.0.0.18	1	256771854	Standard	2.0.10.353	2.0.10.353	05-18-2016		18:34:58	2.0.10.248	108	Bar50-50.bmp	46	3	?	0r_4g.bmp	0r_4g.bmp	0r_2g.bmp	0r_2g.bmp			0r_2g.bmp		TrialProc	TrialList	0	cvbn	-999999	16	333888	0	b	420	334308	318	-367	-49	-4	-122	31	46	9	11	108	0	0	0	0	4	4	2	2	0	2
Hungry_Donkey_bar_English_2	144	1	<?xml version="1.0"?>\n<Clock xmlns:dt="urn:schemas-microsoft-com:datatypes"><Description dt:dt="string">E-Prime Primary Realtime Clock</Description><StartTime><Timestamp dt:dt="int">0</Timestamp><DateUtc dt:dt="string">2016-05-18T22:34:58Z</DateUtc></StartTime><FrequencyChanges><FrequencyChange><Frequency dt:dt="r8">3507685</Frequency><Timestamp dt:dt="r8">257954136248</Timestamp><Current dt:dt="r8">0</Current><DateUtc dt:dt="string">2016-05-18T22:34:58Z</DateUtc></FrequencyChange></FrequencyChanges></Clock>\n	Hungry_Donkey_bar_English_2-144-1	60.017	-82	1.0.0.18	1	256771854	Standard	2.0.10.353	2.0.10.353	05-18-2016		18:34:58	2.0.10.248	109	Bar50-50.bmp	47	4	?	10r_4g.bmp	0r_4g.bmp	2r_2g.bmp	0r_2g.bmp				0r_2g.bmp	TrialProc	TrialList	0	cvbn	-999999	16	336337	0	n	803	337140	320	-367	-47	-4	-122	31	48	4	11	109	-10	0	-2	0	4	4	2	2	0	2
Hungry_Donkey_bar_English_2	144	1	<?xml version="1.0"?>\n<Clock xmlns:dt="urn:schemas-microsoft-com:datatypes"><Description dt:dt="string">E-Prime Primary Realtime Clock</Description><StartTime><Timestamp dt:dt="int">0</Timestamp><DateUtc dt:dt="string">2016-05-18T22:34:58Z</DateUtc></StartTime><FrequencyChanges><FrequencyChange><Frequency dt:dt="r8">3507685</Frequency><Timestamp dt:dt="r8">257954136248</Timestamp><Current dt:dt="r8">0</Current><DateUtc dt:dt="string">2016-05-18T22:34:58Z</DateUtc></FrequencyChange></FrequencyChanges></Clock>\n	Hungry_Donkey_bar_English_2-144-1	60.017	-82	1.0.0.18	1	256771854	Standard	2.0.10.353	2.0.10.353	05-18-2016		18:34:58	2.0.10.248	110	Bar50-50.bmp	47	2	?	0r_4g.bmp	0r_4g.bmp	0r_2g.bmp	0r_2g.bmp		0r_4g.bmp			TrialProc	TrialList	0	cvbn	-999999	16	339170	0	v	306	339476	324	-367	-43	-4	-118	31	48	8	11	110	0	0	0	0	4	4	2	2	0	4
Hungry_Donkey_bar_English_2	144	1	<?xml version="1.0"?>\n<Clock xmlns:dt="urn:schemas-microsoft-com:datatypes"><Description dt:dt="string">E-Prime Primary Realtime Clock</Description><StartTime><Timestamp dt:dt="int">0</Timestamp><DateUtc dt:dt="string">2016-05-18T22:34:58Z</DateUtc></StartTime><FrequencyChanges><FrequencyChange><Frequency dt:dt="r8">3507685</Frequency><Timestamp dt:dt="r8">257954136248</Timestamp><Current dt:dt="r8">0</Current><DateUtc dt:dt="string">2016-05-18T22:34:58Z</DateUtc></FrequencyChange></FrequencyChanges></Clock>\n	Hungry_Donkey_bar_English_2-144-1	60.017	-82	1.0.0.18	1	256771854	Standard	2.0.10.353	2.0.10.353	05-18-2016		18:34:58	2.0.10.248	111	Bar50-50.bmp	47	4	?	0r_4g.bmp	0r_4g.bmp	0r_2g.bmp	0r_2g.bmp				0r_2g.bmp	TrialProc	TrialList	0	cvbn	-999999	16	341503	0	n	629	342132	326	-367	-41	-4	-118	31	50	9	12	111	0	0	0	0	4	4	2	2	0	2
Hungry_Donkey_bar_English_2	144	1	<?xml version="1.0"?>\n<Clock xmlns:dt="urn:schemas-microsoft-com:datatypes"><Description dt:dt="string">E-Prime Primary Realtime Clock</Description><StartTime><Timestamp dt:dt="int">0</Timestamp><DateUtc dt:dt="string">2016-05-18T22:34:58Z</DateUtc></StartTime><FrequencyChanges><FrequencyChange><Frequency dt:dt="r8">3507685</Frequency><Timestamp dt:dt="r8">257954136248</Timestamp><Current dt:dt="r8">0</Current><DateUtc dt:dt="string">2016-05-18T22:34:58Z</DateUtc></FrequencyChange></FrequencyChanges></Clock>\n	Hungry_Donkey_bar_English_2-144-1	60.017	-82	1.0.0.18	1	256771854	Standard	2.0.10.353	2.0.10.353	05-18-2016		18:34:58	2.0.10.248	112	Bar50-50.bmp	47	3	?	0r_4g.bmp	0r_4g.bmp	0r_2g.bmp	0r_2g.bmp			0r_2g.bmp		TrialProc	TrialList	0	cvbn	-999999	17	344169	0	b	427	344596	328	-367	-39	-4	-118	33	50	8	12	112	0	0	0	0	4	4	2	2	0	2
Hungry_Donkey_bar_English_2	144	1	<?xml version="1.0"?>\n<Clock xmlns:dt="urn:schemas-microsoft-com:datatypes"><Description dt:dt="string">E-Prime Primary Realtime Clock</Description><StartTime><Timestamp dt:dt="int">0</Timestamp><DateUtc dt:dt="string">2016-05-18T22:34:58Z</DateUtc></StartTime><FrequencyChanges><FrequencyChange><Frequency dt:dt="r8">3507685</Frequency><Timestamp dt:dt="r8">257954136248</Timestamp><Current dt:dt="r8">0</Current><DateUtc dt:dt="string">2016-05-18T22:34:58Z</DateUtc></FrequencyChange></FrequencyChanges></Clock>\n	Hungry_Donkey_bar_English_2-144-1	60.017	-82	1.0.0.18	1	256771854	Standard	2.0.10.353	2.0.10.353	05-18-2016		18:34:58	2.0.10.248	113	Bar50-50.bmp	47	2	?	10r_4g.bmp	0r_4g.bmp	2r_2g.bmp	0r_2g.bmp		0r_4g.bmp			TrialProc	TrialList	0	cvbn	-999999	17	346635	0	v	329	346964	332	-367	-35	-4	-114	33	50	3	12	113	-10	0	-2	0	4	4	2	2	0	4
