ExperimentName	Subject	Session	Clock.Information	DataFile.Basename	Display.RefreshRate	Eindtotaal[Session]	ExperimentVersion	Group	RandomSeed	RuntimeCapabilities	RuntimeVersion	RuntimeVersionExpected	SessionDate	SessionStartDateTimeUtc	SessionTime	StudioVersion	Block	BarImage	BarTotalWinst	DoorChoice	Eindtotaal[Block]	FBDoor1	FBDoor2	FBDoor3	FBDoor4	Image1	Image2	Image3	Image4	Procedure	Running	spel.ACC	spel.CRESP	spel.DurationError	spel.OnsetDelay	spel.OnsetTime	spel.OnsetToOnsetTime	spel.RESP	spel.RT	spel.RTTime	TotalGain	TotalLose	Totalsum	TotalsumD1	TotalsumD2	TotalsumD3	TotalsumD4	TrialList	TrialList.Cycle	TrialList.Sample	varV1	varV2	varV3	varV4	varW1	varW2	varW3	varW4	Verliesbedrag	Winstbedrag
Hungry_Donkey_bar_English_2	121	1	<?xml version="1.0"?>\n<Clock xmlns:dt="urn:schemas-microsoft-com:datatypes"><Description dt:dt="string">E-Prime Primary Realtime Clock</Description><StartTime><Timestamp dt:dt="int">0</Timestamp><DateUtc dt:dt="string">2015-07-16T17:05:29Z</DateUtc></StartTime><FrequencyChanges><FrequencyChange><Frequency dt:dt="r8">3507675</Frequency><Timestamp dt:dt="r8">241908810725</Timestamp><Current dt:dt="r8">0</Current><DateUtc dt:dt="string">2015-07-16T17:05:29Z</DateUtc></FrequencyChange></FrequencyChanges></Clock>\n	Hungry_Donkey_bar_English_2-121-1	60.017	-143	1.0.0.18	1	1391355148	Standard	2.0.10.353	2.0.10.353	07-16-2015	7/16/2015 5:05:29 PM	13:05:29	2.0.10.248	1	Bar100-0.bmp	100	4	?	10r_4g.bmp	0r_4g.bmp	2r_2g.bmp	0r_2g.bmp				0r_2g.bmp	TrialProc	TrialList	0	cvbn	-999999	37	65466	0	n	4507	69973	2	0	2	0	0	0	2	4	1	1	-10	0	-2	0	4	4	2	2	0	2
Hungry_Donkey_bar_English_2	121	1	<?xml version="1.0"?>\n<Clock xmlns:dt="urn:schemas-microsoft-com:datatypes"><Description dt:dt="string">E-Prime Primary Realtime Clock</Description><StartTime><Timestamp dt:dt="int">0</Timestamp><DateUtc dt:dt="string">2015-07-16T17:05:29Z</DateUtc></StartTime><FrequencyChanges><FrequencyChange><Frequency dt:dt="r8">3507675</Frequency><Timestamp dt:dt="r8">241908810725</Timestamp><Current dt:dt="r8">0</Current><DateUtc dt:dt="string">2015-07-16T17:05:29Z</DateUtc></FrequencyChange></FrequencyChanges></Clock>\n	Hungry_Donkey_bar_English_2-121-1	60.017	-143	1.0.0.18	1	1391355148	Standard	2.0.10.353	2.0.10.353	07-16-2015	7/16/2015 5:05:29 PM	13:05:29	2.0.10.248	2	Bar100-0.bmp	100	3	?	0r_4g.bmp	0r_4g.bmp	0r_2g.bmp	0r_2g.bmp			0r_2g.bmp		TrialProc	TrialList	0	cvbn	-999999	16	72014	0	b	1415	73429	4	0	4	0	0	2	2	10	1	2	0	0	0	0	4	4	2	2	0	2
Hungry_Donkey_bar_English_2	121	1	<?xml version="1.0"?>\n<Clock xmlns:dt="urn:schemas-microsoft-com:datatypes"><Description dt:dt="string">E-Prime Primary Realtime Clock</Description><StartTime><Timestamp dt:dt="int">0</Timestamp><DateUtc dt:dt="string">2015-07-16T17:05:29Z</DateUtc></StartTime><FrequencyChanges><FrequencyChange><Frequency dt:dt="r8">3507675</Frequency><Timestamp dt:dt="r8">241908810725</Timestamp><Current dt:dt="r8">0</Current><DateUtc dt:dt="string">2015-07-16T17:05:29Z</DateUtc></FrequencyChange></FrequencyChanges></Clock>\n	Hungry_Donkey_bar_English_2-121-1	60.017	-143	1.0.0.18	1	1391355148	Standard	2.0.10.353	2.0.10.353	07-16-2015	7/16/2015 5:05:29 PM	13:05:29	2.0.10.248	3	Bar100-0.bmp	100	2	?	10r_4g.bmp	0r_4g.bmp	2r_2g.bmp	0r_2g.bmp		0r_4g.bmp			TrialProc	TrialList	0	cvbn	-999999	17	75464	0	v	173	75637	8	0	8	0	4	2	2	2	1	3	-10	0	-2	0	4	4	2	2	0	4
Hungry_Donkey_bar_English_2	121	1	<?xml version="1.0"?>\n<Clock xmlns:dt="urn:schemas-microsoft-com:datatypes"><Description dt:dt="string">E-Prime Primary Realtime Clock</Description><StartTime><Timestamp dt:dt="int">0</Timestamp><DateUtc dt:dt="string">2015-07-16T17:05:29Z</DateUtc></StartTime><FrequencyChanges><FrequencyChange><Frequency dt:dt="r8">3507675</Frequency><Timestamp dt:dt="r8">241908810725</Timestamp><Current dt:dt="r8">0</Current><DateUtc dt:dt="string">2015-07-16T17:05:29Z</DateUtc></FrequencyChange></FrequencyChanges></Clock>\n	Hungry_Donkey_bar_English_2-121-1	60.017	-143	1.0.0.18	1	1391355148	Standard	2.0.10.353	2.0.10.353	07-16-2015	7/16/2015 5:05:29 PM	13:05:29	2.0.10.248	4	Bar50-50.bmp	55	1	?	10r_4g.bmp	0r_4g.bmp	2r_2g.bmp	0r_2g.bmp	10r_4g.bmp				TrialProc	TrialList	0	cvbn	-999999	17	77680	0	c	69	77749	12	-10	2	-6	4	2	2	3	1	4	-10	0	-2	0	4	4	2	2	-10	4
Hungry_Donkey_bar_English_2	121	1	<?xml version="1.0"?>\n<Clock xmlns:dt="urn:schemas-microsoft-com:datatypes"><Description dt:dt="string">E-Prime Primary Realtime Clock</Description><StartTime><Timestamp dt:dt="int">0</Timestamp><DateUtc dt:dt="string">2015-07-16T17:05:29Z</DateUtc></StartTime><FrequencyChanges><FrequencyChange><Frequency dt:dt="r8">3507675</Frequency><Timestamp dt:dt="r8">241908810725</Timestamp><Current dt:dt="r8">0</Current><DateUtc dt:dt="string">2015-07-16T17:05:29Z</DateUtc></FrequencyChange></FrequencyChanges></Clock>\n	Hungry_Donkey_bar_English_2-121-1	60.017	-143	1.0.0.18	1	1391355148	Standard	2.0.10.353	2.0.10.353	07-16-2015	7/16/2015 5:05:29 PM	13:05:29	2.0.10.248	5	Bar63-37.bmp	58	4	?	0r_4g.bmp	0r_4g.bmp	0r_2g.bmp	0r_2g.bmp				0r_2g.bmp	TrialProc	TrialList	0	cvbn	-999999	16	79796	0	n	5952	85748	14	-10	4	-6	4	2	4	7	1	5	0	0	0	0	4	4	2	2	0	2
Hungry_Donkey_bar_English_2	121	1	<?xml version="1.0"?>\n<Clock xmlns:dt="urn:schemas-microsoft-com:datatypes"><Description dt:dt="string">E-Prime Primary Realtime Clock</Description><StartTime><Timestamp dt:dt="int">0</Timestamp><DateUtc dt:dt="string">2015-07-16T17:05:29Z</DateUtc></StartTime><FrequencyChanges><FrequencyChange><Frequency dt:dt="r8">3507675</Frequency><Timestamp dt:dt="r8">241908810725</Timestamp><Current dt:dt="r8">0</Current><DateUtc dt:dt="string">2015-07-16T17:05:29Z</DateUtc></FrequencyChange></FrequencyChanges></Clock>\n	Hungry_Donkey_bar_English_2-121-1	60.017	-143	1.0.0.18	1	1391355148	Standard	2.0.10.353	2.0.10.353	07-16-2015	7/16/2015 5:05:29 PM	13:05:29	2.0.10.248	6	Bar63-37.bmp	62	3	?	0r_4g.bmp	0r_4g.bmp	0r_2g.bmp	0r_2g.bmp			0r_2g.bmp		TrialProc	TrialList	0	cvbn	-999999	16	87793	0	b	483	88276	16	-10	6	-6	4	4	4	6	1	6	0	0	0	0	4	4	2	2	0	2
Hungry_Donkey_bar_English_2	121	1	<?xml version="1.0"?>\n<Clock xmlns:dt="urn:schemas-microsoft-com:datatypes"><Description dt:dt="string">E-Prime Primary Realtime Clock</Description><StartTime><Timestamp dt:dt="int">0</Timestamp><DateUtc dt:dt="string">2015-07-16T17:05:29Z</DateUtc></StartTime><FrequencyChanges><FrequencyChange><Frequency dt:dt="r8">3507675</Frequency><Timestamp dt:dt="r8">241908810725</Timestamp><Current dt:dt="r8">0</Current><DateUtc dt:dt="string">2015-07-16T17:05:29Z</DateUtc></FrequencyChange></FrequencyChanges></Clock>\n	Hungry_Donkey_bar_English_2-121-1	60.017	-143	1.0.0.18	1	1391355148	Standard	2.0.10.353	2.0.10.353	07-16-2015	7/16/2015 5:05:29 PM	13:05:29	2.0.10.248	7	Bar25-75.bmp	25	2	?	8r_4g.bmp	50r_4g.bmp	1r_2g.bmp	10r_2g.bmp		50r_4g.bmp			TrialProc	TrialList	0	cvbn	-999999	16	90309	0	v	335	90644	20	-60	-40	-6	-42	4	4	1	1	7	-8	-50	-1	-10	4	4	2	2	-50	4
Hungry_Donkey_bar_English_2	121	1	<?xml version="1.0"?>\n<Clock xmlns:dt="urn:schemas-microsoft-com:datatypes"><Description dt:dt="string">E-Prime Primary Realtime Clock</Description><StartTime><Timestamp dt:dt="int">0</Timestamp><DateUtc dt:dt="string">2015-07-16T17:05:29Z</DateUtc></StartTime><FrequencyChanges><FrequencyChange><Frequency dt:dt="r8">3507675</Frequency><Timestamp dt:dt="r8">241908810725</Timestamp><Current dt:dt="r8">0</Current><DateUtc dt:dt="string">2015-07-16T17:05:29Z</DateUtc></FrequencyChange></FrequencyChanges></Clock>\n	Hungry_Donkey_bar_English_2-121-1	60.017	-143	1.0.0.18	1	1391355148	Standard	2.0.10.353	2.0.10.353	07-16-2015	7/16/2015 5:05:29 PM	13:05:29	2.0.10.248	8	Bar25-75.bmp	25	1	?	12r_4g.bmp	0r_4g.bmp	3r_2g.bmp	0r_2g.bmp	12r_4g.bmp				TrialProc	TrialList	0	cvbn	-999999	16	92692	0	c	304	92996	24	-72	-48	-14	-42	4	4	5	1	8	-12	0	-3	0	4	4	2	2	-12	4
Hungry_Donkey_bar_English_2	121	1	<?xml version="1.0"?>\n<Clock xmlns:dt="urn:schemas-microsoft-com:datatypes"><Description dt:dt="string">E-Prime Primary Realtime Clock</Description><StartTime><Timestamp dt:dt="int">0</Timestamp><DateUtc dt:dt="string">2015-07-16T17:05:29Z</DateUtc></StartTime><FrequencyChanges><FrequencyChange><Frequency dt:dt="r8">3507675</Frequency><Timestamp dt:dt="r8">241908810725</Timestamp><Current dt:dt="r8">0</Current><DateUtc dt:dt="string">2015-07-16T17:05:29Z</DateUtc></FrequencyChange></FrequencyChanges></Clock>\n	Hungry_Donkey_bar_English_2-121-1	60.017	-143	1.0.0.18	1	1391355148	Standard	2.0.10.353	2.0.10.353	07-16-2015	7/16/2015 5:05:29 PM	13:05:29	2.0.10.248	9	Bar25-75.bmp	28	2	?	0r_4g.bmp	0r_4g.bmp	0r_2g.bmp	0r_2g.bmp		0r_4g.bmp			TrialProc	TrialList	0	cvbn	-999999	16	95041	0	v	1619	96660	28	-72	-44	-14	-38	4	4	8	1	9	0	0	0	0	4	4	2	2	0	4
Hungry_Donkey_bar_English_2	121	1	<?xml version="1.0"?>\n<Clock xmlns:dt="urn:schemas-microsoft-com:datatypes"><Description dt:dt="string">E-Prime Primary Realtime Clock</Description><StartTime><Timestamp dt:dt="int">0</Timestamp><DateUtc dt:dt="string">2015-07-16T17:05:29Z</DateUtc></StartTime><FrequencyChanges><FrequencyChange><Frequency dt:dt="r8">3507675</Frequency><Timestamp dt:dt="r8">241908810725</Timestamp><Current dt:dt="r8">0</Current><DateUtc dt:dt="string">2015-07-16T17:05:29Z</DateUtc></FrequencyChange></FrequencyChanges></Clock>\n	Hungry_Donkey_bar_English_2-121-1	60.017	-143	1.0.0.18	1	1391355148	Standard	2.0.10.353	2.0.10.353	07-16-2015	7/16/2015 5:05:29 PM	13:05:29	2.0.10.248	10	Bar25-75.bmp	29	3	?	0r_4g.bmp	0r_4g.bmp	0r_2g.bmp	0r_2g.bmp			0r_2g.bmp		TrialProc	TrialList	0	cvbn	-999999	16	98690	0	b	242	98932	30	-72	-42	-14	-38	6	4	9	1	10	0	0	0	0	4	4	2	2	0	2
Hungry_Donkey_bar_English_2	121	1	<?xml version="1.0"?>\n<Clock xmlns:dt="urn:schemas-microsoft-com:datatypes"><Description dt:dt="string">E-Prime Primary Realtime Clock</Description><StartTime><Timestamp dt:dt="int">0</Timestamp><DateUtc dt:dt="string">2015-07-16T17:05:29Z</DateUtc></StartTime><FrequencyChanges><FrequencyChange><Frequency dt:dt="r8">3507675</Frequency><Timestamp dt:dt="r8">241908810725</Timestamp><Current dt:dt="r8">0</Current><DateUtc dt:dt="string">2015-07-16T17:05:29Z</DateUtc></FrequencyChange></FrequencyChanges></Clock>\n	Hungry_Donkey_bar_English_2-121-1	60.017	-143	1.0.0.18	1	1391355148	Standard	2.0.10.353	2.0.10.353	07-16-2015	7/16/2015 5:05:29 PM	13:05:29	2.0.10.248	11	Bar37-63.bmp	32	2	?	0r_4g.bmp	0r_4g.bmp	0r_2g.bmp	0r_2g.bmp		0r_4g.bmp			TrialProc	TrialList	0	cvbn	-999999	15	100956	0	v	231	101187	34	-72	-38	-14	-34	6	4	7	2	11	0	0	0	0	4	4	2	2	0	4
Hungry_Donkey_bar_English_2	121	1	<?xml version="1.0"?>\n<Clock xmlns:dt="urn:schemas-microsoft-com:datatypes"><Description dt:dt="string">E-Prime Primary Realtime Clock</Description><StartTime><Timestamp dt:dt="int">0</Timestamp><DateUtc dt:dt="string">2015-07-16T17:05:29Z</DateUtc></StartTime><FrequencyChanges><FrequencyChange><Frequency dt:dt="r8">3507675</Frequency><Timestamp dt:dt="r8">241908810725</Timestamp><Current dt:dt="r8">0</Current><DateUtc dt:dt="string">2015-07-16T17:05:29Z</DateUtc></FrequencyChange></FrequencyChanges></Clock>\n	Hungry_Donkey_bar_English_2-121-1	60.017	-143	1.0.0.18	1	1391355148	Standard	2.0.10.353	2.0.10.353	07-16-2015	7/16/2015 5:05:29 PM	13:05:29	2.0.10.248	12	Bar37-63.bmp	32	1	?	10r_4g.bmp	0r_4g.bmp	2r_2g.bmp	0r_2g.bmp	10r_4g.bmp				TrialProc	TrialList	0	cvbn	-999999	16	103222	0	c	61	103283	38	-82	-44	-20	-34	6	4	4	2	12	-10	0	-2	0	4	4	2	2	-10	4
Hungry_Donkey_bar_English_2	121	1	<?xml version="1.0"?>\n<Clock xmlns:dt="urn:schemas-microsoft-com:datatypes"><Description dt:dt="string">E-Prime Primary Realtime Clock</Description><StartTime><Timestamp dt:dt="int">0</Timestamp><DateUtc dt:dt="string">2015-07-16T17:05:29Z</DateUtc></StartTime><FrequencyChanges><FrequencyChange><Frequency dt:dt="r8">3507675</Frequency><Timestamp dt:dt="r8">241908810725</Timestamp><Current dt:dt="r8">0</Current><DateUtc dt:dt="string">2015-07-16T17:05:29Z</DateUtc></FrequencyChange></FrequencyChanges></Clock>\n	Hungry_Donkey_bar_English_2-121-1	60.017	-143	1.0.0.18	1	1391355148	Standard	2.0.10.353	2.0.10.353	07-16-2015	7/16/2015 5:05:29 PM	13:05:29	2.0.10.248	13	Bar37-63.bmp	32	3	?	12r_4g.bmp	0r_4g.bmp	3r_2g.bmp	0r_2g.bmp			3r_2g.bmp		TrialProc	TrialList	0	cvbn	-999999	16	105322	0	b	345	105667	40	-85	-45	-20	-34	5	4	5	2	13	-12	0	-3	0	4	4	2	2	-3	2
Hungry_Donkey_bar_English_2	121	1	<?xml version="1.0"?>\n<Clock xmlns:dt="urn:schemas-microsoft-com:datatypes"><Description dt:dt="string">E-Prime Primary Realtime Clock</Description><StartTime><Timestamp dt:dt="int">0</Timestamp><DateUtc dt:dt="string">2015-07-16T17:05:29Z</DateUtc></StartTime><FrequencyChanges><FrequencyChange><Frequency dt:dt="r8">3507675</Frequency><Timestamp dt:dt="r8">241908810725</Timestamp><Current dt:dt="r8">0</Current><DateUtc dt:dt="string">2015-07-16T17:05:29Z</DateUtc></FrequencyChange></FrequencyChanges></Clock>\n	Hungry_Donkey_bar_English_2-121-1	60.017	-143	1.0.0.18	1	1391355148	Standard	2.0.10.353	2.0.10.353	07-16-2015	7/16/2015 5:05:29 PM	13:05:29	2.0.10.248	14	Bar37-63.bmp	33	4	?	0r_4g.bmp	0r_4g.bmp	0r_2g.bmp	0r_2g.bmp				0r_2g.bmp	TrialProc	TrialList	0	cvbn	-999999	16	107704	0	n	43	107747	42	-85	-43	-20	-34	5	6	10	2	14	0	0	0	0	4	4	2	2	0	2
Hungry_Donkey_bar_English_2	121	1	<?xml version="1.0"?>\n<Clock xmlns:dt="urn:schemas-microsoft-com:datatypes"><Description dt:dt="string">E-Prime Primary Realtime Clock</Description><StartTime><Timestamp dt:dt="int">0</Timestamp><DateUtc dt:dt="string">2015-07-16T17:05:29Z</DateUtc></StartTime><FrequencyChanges><FrequencyChange><Frequency dt:dt="r8">3507675</Frequency><Timestamp dt:dt="r8">241908810725</Timestamp><Current dt:dt="r8">0</Current><DateUtc dt:dt="string">2015-07-16T17:05:29Z</DateUtc></FrequencyChange></FrequencyChanges></Clock>\n	Hungry_Donkey_bar_English_2-121-1	60.017	-143	1.0.0.18	1	1391355148	Standard	2.0.10.353	2.0.10.353	07-16-2015	7/16/2015 5:05:29 PM	13:05:29	2.0.10.248	15	Bar37-63.bmp	34	3	?	0r_4g.bmp	0r_4g.bmp	0r_2g.bmp	0r_2g.bmp			0r_2g.bmp		TrialProc	TrialList	0	cvbn	-999999	16	109787	0	b	2328	112115	44	-85	-41	-20	-34	7	6	9	2	15	0	0	0	0	4	4	2	2	0	2
Hungry_Donkey_bar_English_2	121	1	<?xml version="1.0"?>\n<Clock xmlns:dt="urn:schemas-microsoft-com:datatypes"><Description dt:dt="string">E-Prime Primary Realtime Clock</Description><StartTime><Timestamp dt:dt="int">0</Timestamp><DateUtc dt:dt="string">2015-07-16T17:05:29Z</DateUtc></StartTime><FrequencyChanges><FrequencyChange><Frequency dt:dt="r8">3507675</Frequency><Timestamp dt:dt="r8">241908810725</Timestamp><Current dt:dt="r8">0</Current><DateUtc dt:dt="string">2015-07-16T17:05:29Z</DateUtc></FrequencyChange></FrequencyChanges></Clock>\n	Hungry_Donkey_bar_English_2-121-1	60.017	-143	1.0.0.18	1	1391355148	Standard	2.0.10.353	2.0.10.353	07-16-2015	7/16/2015 5:05:29 PM	13:05:29	2.0.10.248	16	Bar37-63.bmp	35	3	?	10r_4g.bmp	0r_4g.bmp	2r_2g.bmp	0r_2g.bmp			2r_2g.bmp		TrialProc	TrialList	0	cvbn	-999999	16	114152	0	b	955	115107	46	-87	-41	-20	-34	7	6	2	2	16	-10	0	-2	0	4	4	2	2	-2	2
Hungry_Donkey_bar_English_2	121	1	<?xml version="1.0"?>\n<Clock xmlns:dt="urn:schemas-microsoft-com:datatypes"><Description dt:dt="string">E-Prime Primary Realtime Clock</Description><StartTime><Timestamp dt:dt="int">0</Timestamp><DateUtc dt:dt="string">2015-07-16T17:05:29Z</DateUtc></StartTime><FrequencyChanges><FrequencyChange><Frequency dt:dt="r8">3507675</Frequency><Timestamp dt:dt="r8">241908810725</Timestamp><Current dt:dt="r8">0</Current><DateUtc dt:dt="string">2015-07-16T17:05:29Z</DateUtc></FrequencyChange></FrequencyChanges></Clock>\n	Hungry_Donkey_bar_English_2-121-1	60.017	-143	1.0.0.18	1	1391355148	Standard	2.0.10.353	2.0.10.353	07-16-2015	7/16/2015 5:05:29 PM	13:05:29	2.0.10.248	17	Bar37-63.bmp	36	1	?	0r_4g.bmp	0r_4g.bmp	0r_2g.bmp	0r_2g.bmp	0r_4g.bmp				TrialProc	TrialList	0	cvbn	-999999	17	117152	0	c	563	117715	50	-87	-37	-16	-34	7	6	6	2	17	0	0	0	0	4	4	2	2	0	4
Hungry_Donkey_bar_English_2	121	1	<?xml version="1.0"?>\n<Clock xmlns:dt="urn:schemas-microsoft-com:datatypes"><Description dt:dt="string">E-Prime Primary Realtime Clock</Description><StartTime><Timestamp dt:dt="int">0</Timestamp><DateUtc dt:dt="string">2015-07-16T17:05:29Z</DateUtc></StartTime><FrequencyChanges><FrequencyChange><Frequency dt:dt="r8">3507675</Frequency><Timestamp dt:dt="r8">241908810725</Timestamp><Current dt:dt="r8">0</Current><DateUtc dt:dt="string">2015-07-16T17:05:29Z</DateUtc></FrequencyChange></FrequencyChanges></Clock>\n	Hungry_Donkey_bar_English_2-121-1	60.017	-143	1.0.0.18	1	1391355148	Standard	2.0.10.353	2.0.10.353	07-16-2015	7/16/2015 5:05:29 PM	13:05:29	2.0.10.248	18	Bar37-63.bmp	37	3	?	8r_4g.bmp	50r_4g.bmp	1r_2g.bmp	10r_2g.bmp			1r_2g.bmp		TrialProc	TrialList	0	cvbn	-999999	16	119751	0	b	1004	120755	52	-88	-36	-16	-34	8	6	1	2	18	-8	-50	-1	-10	4	4	2	2	-1	2
Hungry_Donkey_bar_English_2	121	1	<?xml version="1.0"?>\n<Clock xmlns:dt="urn:schemas-microsoft-com:datatypes"><Description dt:dt="string">E-Prime Primary Realtime Clock</Description><StartTime><Timestamp dt:dt="int">0</Timestamp><DateUtc dt:dt="string">2015-07-16T17:05:29Z</DateUtc></StartTime><FrequencyChanges><FrequencyChange><Frequency dt:dt="r8">3507675</Frequency><Timestamp dt:dt="r8">241908810725</Timestamp><Current dt:dt="r8">0</Current><DateUtc dt:dt="string">2015-07-16T17:05:29Z</DateUtc></FrequencyChange></FrequencyChanges></Clock>\n	Hungry_Donkey_bar_English_2-121-1	60.017	-143	1.0.0.18	1	1391355148	Standard	2.0.10.353	2.0.10.353	07-16-2015	7/16/2015 5:05:29 PM	13:05:29	2.0.10.248	19	Bar37-63.bmp	39	2	?	10r_4g.bmp	0r_4g.bmp	2r_2g.bmp	0r_2g.bmp		0r_4g.bmp			TrialProc	TrialList	0	cvbn	-999999	16	122800	0	v	754	123554	56	-88	-32	-16	-30	8	6	3	2	19	-10	0	-2	0	4	4	2	2	0	4
Hungry_Donkey_bar_English_2	121	1	<?xml version="1.0"?>\n<Clock xmlns:dt="urn:schemas-microsoft-com:datatypes"><Description dt:dt="string">E-Prime Primary Realtime Clock</Description><StartTime><Timestamp dt:dt="int">0</Timestamp><DateUtc dt:dt="string">2015-07-16T17:05:29Z</DateUtc></StartTime><FrequencyChanges><FrequencyChange><Frequency dt:dt="r8">3507675</Frequency><Timestamp dt:dt="r8">241908810725</Timestamp><Current dt:dt="r8">0</Current><DateUtc dt:dt="string">2015-07-16T17:05:29Z</DateUtc></FrequencyChange></FrequencyChanges></Clock>\n	Hungry_Donkey_bar_English_2-121-1	60.017	-143	1.0.0.18	1	1391355148	Standard	2.0.10.353	2.0.10.353	07-16-2015	7/16/2015 5:05:29 PM	13:05:29	2.0.10.248	20	Bar37-63.bmp	40	3	?	0r_4g.bmp	0r_4g.bmp	0r_2g.bmp	0r_2g.bmp			0r_2g.bmp		TrialProc	TrialList	0	cvbn	-999999	16	125599	0	b	1027	126626	58	-88	-30	-16	-30	10	6	8	2	20	0	0	0	0	4	4	2	2	0	2
Hungry_Donkey_bar_English_2	121	1	<?xml version="1.0"?>\n<Clock xmlns:dt="urn:schemas-microsoft-com:datatypes"><Description dt:dt="string">E-Prime Primary Realtime Clock</Description><StartTime><Timestamp dt:dt="int">0</Timestamp><DateUtc dt:dt="string">2015-07-16T17:05:29Z</DateUtc></StartTime><FrequencyChanges><FrequencyChange><Frequency dt:dt="r8">3507675</Frequency><Timestamp dt:dt="r8">241908810725</Timestamp><Current dt:dt="r8">0</Current><DateUtc dt:dt="string">2015-07-16T17:05:29Z</DateUtc></FrequencyChange></FrequencyChanges></Clock>\n	Hungry_Donkey_bar_English_2-121-1	60.017	-143	1.0.0.18	1	1391355148	Standard	2.0.10.353	2.0.10.353	07-16-2015	7/16/2015 5:05:29 PM	13:05:29	2.0.10.248	21	Bar37-63.bmp	38	4	?	8r_4g.bmp	50r_4g.bmp	1r_2g.bmp	10r_2g.bmp				10r_2g.bmp	TrialProc	TrialList	0	cvbn	-999999	16	128665	0	n	825	129490	60	-98	-38	-16	-30	10	-2	1	3	21	-8	-50	-1	-10	4	4	2	2	-10	2
Hungry_Donkey_bar_English_2	121	1	<?xml version="1.0"?>\n<Clock xmlns:dt="urn:schemas-microsoft-com:datatypes"><Description dt:dt="string">E-Prime Primary Realtime Clock</Description><StartTime><Timestamp dt:dt="int">0</Timestamp><DateUtc dt:dt="string">2015-07-16T17:05:29Z</DateUtc></StartTime><FrequencyChanges><FrequencyChange><Frequency dt:dt="r8">3507675</Frequency><Timestamp dt:dt="r8">241908810725</Timestamp><Current dt:dt="r8">0</Current><DateUtc dt:dt="string">2015-07-16T17:05:29Z</DateUtc></FrequencyChange></FrequencyChanges></Clock>\n	Hungry_Donkey_bar_English_2-121-1	60.017	-143	1.0.0.18	1	1391355148	Standard	2.0.10.353	2.0.10.353	07-16-2015	7/16/2015 5:05:29 PM	13:05:29	2.0.10.248	22	Bar37-63.bmp	40	2	?	0r_4g.bmp	0r_4g.bmp	0r_2g.bmp	0r_2g.bmp		0r_4g.bmp			TrialProc	TrialList	0	cvbn	-999999	16	131531	0	v	455	131986	64	-98	-34	-16	-26	10	-2	8	3	22	0	0	0	0	4	4	2	2	0	4
Hungry_Donkey_bar_English_2	121	1	<?xml version="1.0"?>\n<Clock xmlns:dt="urn:schemas-microsoft-com:datatypes"><Description dt:dt="string">E-Prime Primary Realtime Clock</Description><StartTime><Timestamp dt:dt="int">0</Timestamp><DateUtc dt:dt="string">2015-07-16T17:05:29Z</DateUtc></StartTime><FrequencyChanges><FrequencyChange><Frequency dt:dt="r8">3507675</Frequency><Timestamp dt:dt="r8">241908810725</Timestamp><Current dt:dt="r8">0</Current><DateUtc dt:dt="string">2015-07-16T17:05:29Z</DateUtc></FrequencyChange></FrequencyChanges></Clock>\n	Hungry_Donkey_bar_English_2-121-1	60.017	-143	1.0.0.18	1	1391355148	Standard	2.0.10.353	2.0.10.353	07-16-2015	7/16/2015 5:05:29 PM	13:05:29	2.0.10.248	23	Bar37-63.bmp	39	1	?	10r_4g.bmp	0r_4g.bmp	2r_2g.bmp	0r_2g.bmp	10r_4g.bmp				TrialProc	TrialList	0	cvbn	-999999	16	134013	0	c	773	134786	68	-108	-40	-22	-26	10	-2	4	3	23	-10	0	-2	0	4	4	2	2	-10	4
Hungry_Donkey_bar_English_2	121	1	<?xml version="1.0"?>\n<Clock xmlns:dt="urn:schemas-microsoft-com:datatypes"><Description dt:dt="string">E-Prime Primary Realtime Clock</Description><StartTime><Timestamp dt:dt="int">0</Timestamp><DateUtc dt:dt="string">2015-07-16T17:05:29Z</DateUtc></StartTime><FrequencyChanges><FrequencyChange><Frequency dt:dt="r8">3507675</Frequency><Timestamp dt:dt="r8">241908810725</Timestamp><Current dt:dt="r8">0</Current><DateUtc dt:dt="string">2015-07-16T17:05:29Z</DateUtc></FrequencyChange></FrequencyChanges></Clock>\n	Hungry_Donkey_bar_English_2-121-1	60.017	-143	1.0.0.18	1	1391355148	Standard	2.0.10.353	2.0.10.353	07-16-2015	7/16/2015 5:05:29 PM	13:05:29	2.0.10.248	24	Bar37-63.bmp	39	3	?	0r_4g.bmp	0r_4g.bmp	0r_2g.bmp	0r_2g.bmp			0r_2g.bmp		TrialProc	TrialList	0	cvbn	-999999	16	136813	0	b	997	137810	70	-108	-38	-22	-26	12	-2	10	3	24	0	0	0	0	4	4	2	2	0	2
Hungry_Donkey_bar_English_2	121	1	<?xml version="1.0"?>\n<Clock xmlns:dt="urn:schemas-microsoft-com:datatypes"><Description dt:dt="string">E-Prime Primary Realtime Clock</Description><StartTime><Timestamp dt:dt="int">0</Timestamp><DateUtc dt:dt="string">2015-07-16T17:05:29Z</DateUtc></StartTime><FrequencyChanges><FrequencyChange><Frequency dt:dt="r8">3507675</Frequency><Timestamp dt:dt="r8">241908810725</Timestamp><Current dt:dt="r8">0</Current><DateUtc dt:dt="string">2015-07-16T17:05:29Z</DateUtc></FrequencyChange></FrequencyChanges></Clock>\n	Hungry_Donkey_bar_English_2-121-1	60.017	-143	1.0.0.18	1	1391355148	Standard	2.0.10.353	2.0.10.353	07-16-2015	7/16/2015 5:05:29 PM	13:05:29	2.0.10.248	25	Bar37-63.bmp	41	2	?	10r_4g.bmp	0r_4g.bmp	2r_2g.bmp	0r_2g.bmp		0r_4g.bmp			TrialProc	TrialList	0	cvbn	-999999	16	139845	0	v	1309	141154	74	-108	-34	-22	-22	12	-2	2	3	25	-10	0	-2	0	4	4	2	2	0	4
Hungry_Donkey_bar_English_2	121	1	<?xml version="1.0"?>\n<Clock xmlns:dt="urn:schemas-microsoft-com:datatypes"><Description dt:dt="string">E-Prime Primary Realtime Clock</Description><StartTime><Timestamp dt:dt="int">0</Timestamp><DateUtc dt:dt="string">2015-07-16T17:05:29Z</DateUtc></StartTime><FrequencyChanges><FrequencyChange><Frequency dt:dt="r8">3507675</Frequency><Timestamp dt:dt="r8">241908810725</Timestamp><Current dt:dt="r8">0</Current><DateUtc dt:dt="string">2015-07-16T17:05:29Z</DateUtc></FrequencyChange></FrequencyChanges></Clock>\n	Hungry_Donkey_bar_English_2-121-1	60.017	-143	1.0.0.18	1	1391355148	Standard	2.0.10.353	2.0.10.353	07-16-2015	7/16/2015 5:05:29 PM	13:05:29	2.0.10.248	26	Bar37-63.bmp	42	2	?	12r_4g.bmp	0r_4g.bmp	3r_2g.bmp	0r_2g.bmp		0r_4g.bmp			TrialProc	TrialList	0	cvbn	-999999	16	143194	0	v	2135	145329	78	-108	-30	-22	-18	12	-2	5	3	26	-12	0	-3	0	4	4	2	2	0	4
Hungry_Donkey_bar_English_2	121	1	<?xml version="1.0"?>\n<Clock xmlns:dt="urn:schemas-microsoft-com:datatypes"><Description dt:dt="string">E-Prime Primary Realtime Clock</Description><StartTime><Timestamp dt:dt="int">0</Timestamp><DateUtc dt:dt="string">2015-07-16T17:05:29Z</DateUtc></StartTime><FrequencyChanges><FrequencyChange><Frequency dt:dt="r8">3507675</Frequency><Timestamp dt:dt="r8">241908810725</Timestamp><Current dt:dt="r8">0</Current><DateUtc dt:dt="string">2015-07-16T17:05:29Z</DateUtc></FrequencyChange></FrequencyChanges></Clock>\n	Hungry_Donkey_bar_English_2-121-1	60.017	-143	1.0.0.18	1	1391355148	Standard	2.0.10.353	2.0.10.353	07-16-2015	7/16/2015 5:05:29 PM	13:05:29	2.0.10.248	27	Bar37-63.bmp	43	4	?	10r_4g.bmp	0r_4g.bmp	2r_2g.bmp	0r_2g.bmp				0r_2g.bmp	TrialProc	TrialList	0	cvbn	-999999	16	147360	0	n	401	147761	80	-108	-28	-22	-18	12	0	3	3	27	-10	0	-2	0	4	4	2	2	0	2
Hungry_Donkey_bar_English_2	121	1	<?xml version="1.0"?>\n<Clock xmlns:dt="urn:schemas-microsoft-com:datatypes"><Description dt:dt="string">E-Prime Primary Realtime Clock</Description><StartTime><Timestamp dt:dt="int">0</Timestamp><DateUtc dt:dt="string">2015-07-16T17:05:29Z</DateUtc></StartTime><FrequencyChanges><FrequencyChange><Frequency dt:dt="r8">3507675</Frequency><Timestamp dt:dt="r8">241908810725</Timestamp><Current dt:dt="r8">0</Current><DateUtc dt:dt="string">2015-07-16T17:05:29Z</DateUtc></FrequencyChange></FrequencyChanges></Clock>\n	Hungry_Donkey_bar_English_2-121-1	60.017	-143	1.0.0.18	1	1391355148	Standard	2.0.10.353	2.0.10.353	07-16-2015	7/16/2015 5:05:29 PM	13:05:29	2.0.10.248	28	Bar50-50.bmp	44	2	?	0r_4g.bmp	0r_4g.bmp	0r_2g.bmp	0r_2g.bmp		0r_4g.bmp			TrialProc	TrialList	0	cvbn	-999999	16	149792	0	v	193	149985	84	-108	-24	-22	-14	12	0	9	3	28	0	0	0	0	4	4	2	2	0	4
Hungry_Donkey_bar_English_2	121	1	<?xml version="1.0"?>\n<Clock xmlns:dt="urn:schemas-microsoft-com:datatypes"><Description dt:dt="string">E-Prime Primary Realtime Clock</Description><StartTime><Timestamp dt:dt="int">0</Timestamp><DateUtc dt:dt="string">2015-07-16T17:05:29Z</DateUtc></StartTime><FrequencyChanges><FrequencyChange><Frequency dt:dt="r8">3507675</Frequency><Timestamp dt:dt="r8">241908810725</Timestamp><Current dt:dt="r8">0</Current><DateUtc dt:dt="string">2015-07-16T17:05:29Z</DateUtc></FrequencyChange></FrequencyChanges></Clock>\n	Hungry_Donkey_bar_English_2-121-1	60.017	-143	1.0.0.18	1	1391355148	Standard	2.0.10.353	2.0.10.353	07-16-2015	7/16/2015 5:05:29 PM	13:05:29	2.0.10.248	29	Bar50-50.bmp	45	1	?	0r_4g.bmp	0r_4g.bmp	0r_2g.bmp	0r_2g.bmp	0r_4g.bmp				TrialProc	TrialList	0	cvbn	-999999	16	152025	0	c	728	152753	88	-108	-20	-18	-14	12	0	7	3	29	0	0	0	0	4	4	2	2	0	4
Hungry_Donkey_bar_English_2	121	1	<?xml version="1.0"?>\n<Clock xmlns:dt="urn:schemas-microsoft-com:datatypes"><Description dt:dt="string">E-Prime Primary Realtime Clock</Description><StartTime><Timestamp dt:dt="int">0</Timestamp><DateUtc dt:dt="string">2015-07-16T17:05:29Z</DateUtc></StartTime><FrequencyChanges><FrequencyChange><Frequency dt:dt="r8">3507675</Frequency><Timestamp dt:dt="r8">241908810725</Timestamp><Current dt:dt="r8">0</Current><DateUtc dt:dt="string">2015-07-16T17:05:29Z</DateUtc></FrequencyChange></FrequencyChanges></Clock>\n	Hungry_Donkey_bar_English_2-121-1	60.017	-143	1.0.0.18	1	1391355148	Standard	2.0.10.353	2.0.10.353	07-16-2015	7/16/2015 5:05:29 PM	13:05:29	2.0.10.248	30	Bar50-50.bmp	45	3	?	0r_4g.bmp	0r_4g.bmp	0r_2g.bmp	0r_2g.bmp			0r_2g.bmp		TrialProc	TrialList	0	cvbn	-999999	16	154791	0	b	298	155089	90	-108	-18	-18	-14	14	0	6	3	30	0	0	0	0	4	4	2	2	0	2
Hungry_Donkey_bar_English_2	121	1	<?xml version="1.0"?>\n<Clock xmlns:dt="urn:schemas-microsoft-com:datatypes"><Description dt:dt="string">E-Prime Primary Realtime Clock</Description><StartTime><Timestamp dt:dt="int">0</Timestamp><DateUtc dt:dt="string">2015-07-16T17:05:29Z</DateUtc></StartTime><FrequencyChanges><FrequencyChange><Frequency dt:dt="r8">3507675</Frequency><Timestamp dt:dt="r8">241908810725</Timestamp><Current dt:dt="r8">0</Current><DateUtc dt:dt="string">2015-07-16T17:05:29Z</DateUtc></FrequencyChange></FrequencyChanges></Clock>\n	Hungry_Donkey_bar_English_2-121-1	60.017	-143	1.0.0.18	1	1391355148	Standard	2.0.10.353	2.0.10.353	07-16-2015	7/16/2015 5:05:29 PM	13:05:29	2.0.10.248	31	Bar50-50.bmp	46	4	?	0r_4g.bmp	0r_4g.bmp	0r_2g.bmp	0r_2g.bmp				0r_2g.bmp	TrialProc	TrialList	0	cvbn	-999999	16	157123	0	n	3406	160529	92	-108	-16	-18	-14	14	2	8	4	31	0	0	0	0	4	4	2	2	0	2
Hungry_Donkey_bar_English_2	121	1	<?xml version="1.0"?>\n<Clock xmlns:dt="urn:schemas-microsoft-com:datatypes"><Description dt:dt="string">E-Prime Primary Realtime Clock</Description><StartTime><Timestamp dt:dt="int">0</Timestamp><DateUtc dt:dt="string">2015-07-16T17:05:29Z</DateUtc></StartTime><FrequencyChanges><FrequencyChange><Frequency dt:dt="r8">3507675</Frequency><Timestamp dt:dt="r8">241908810725</Timestamp><Current dt:dt="r8">0</Current><DateUtc dt:dt="string">2015-07-16T17:05:29Z</DateUtc></FrequencyChange></FrequencyChanges></Clock>\n	Hungry_Donkey_bar_English_2-121-1	60.017	-143	1.0.0.18	1	1391355148	Standard	2.0.10.353	2.0.10.353	07-16-2015	7/16/2015 5:05:29 PM	13:05:29	2.0.10.248	32	Bar50-50.bmp	47	4	?	0r_4g.bmp	0r_4g.bmp	0r_2g.bmp	0r_2g.bmp				0r_2g.bmp	TrialProc	TrialList	0	cvbn	-999999	16	162555	0	n	326	162881	94	-108	-14	-18	-14	14	4	6	4	32	0	0	0	0	4	4	2	2	0	2
Hungry_Donkey_bar_English_2	121	1	<?xml version="1.0"?>\n<Clock xmlns:dt="urn:schemas-microsoft-com:datatypes"><Description dt:dt="string">E-Prime Primary Realtime Clock</Description><StartTime><Timestamp dt:dt="int">0</Timestamp><DateUtc dt:dt="string">2015-07-16T17:05:29Z</DateUtc></StartTime><FrequencyChanges><FrequencyChange><Frequency dt:dt="r8">3507675</Frequency><Timestamp dt:dt="r8">241908810725</Timestamp><Current dt:dt="r8">0</Current><DateUtc dt:dt="string">2015-07-16T17:05:29Z</DateUtc></FrequencyChange></FrequencyChanges></Clock>\n	Hungry_Donkey_bar_English_2-121-1	60.017	-143	1.0.0.18	1	1391355148	Standard	2.0.10.353	2.0.10.353	07-16-2015	7/16/2015 5:05:29 PM	13:05:29	2.0.10.248	33	Bar50-50.bmp	47	3	?	10r_4g.bmp	0r_4g.bmp	2r_2g.bmp	0r_2g.bmp			2r_2g.bmp		TrialProc	TrialList	0	cvbn	-999999	16	164921	0	b	423	165344	96	-110	-14	-18	-14	14	4	3	4	33	-10	0	-2	0	4	4	2	2	-2	2
Hungry_Donkey_bar_English_2	121	1	<?xml version="1.0"?>\n<Clock xmlns:dt="urn:schemas-microsoft-com:datatypes"><Description dt:dt="string">E-Prime Primary Realtime Clock</Description><StartTime><Timestamp dt:dt="int">0</Timestamp><DateUtc dt:dt="string">2015-07-16T17:05:29Z</DateUtc></StartTime><FrequencyChanges><FrequencyChange><Frequency dt:dt="r8">3507675</Frequency><Timestamp dt:dt="r8">241908810725</Timestamp><Current dt:dt="r8">0</Current><DateUtc dt:dt="string">2015-07-16T17:05:29Z</DateUtc></FrequencyChange></FrequencyChanges></Clock>\n	Hungry_Donkey_bar_English_2-121-1	60.017	-143	1.0.0.18	1	1391355148	Standard	2.0.10.353	2.0.10.353	07-16-2015	7/16/2015 5:05:29 PM	13:05:29	2.0.10.248	34	Bar50-50.bmp	48	2	?	10r_4g.bmp	0r_4g.bmp	2r_2g.bmp	0r_2g.bmp		0r_4g.bmp			TrialProc	TrialList	0	cvbn	-999999	16	167387	0	v	293	167680	100	-110	-10	-18	-10	14	4	2	4	34	-10	0	-2	0	4	4	2	2	0	4
Hungry_Donkey_bar_English_2	121	1	<?xml version="1.0"?>\n<Clock xmlns:dt="urn:schemas-microsoft-com:datatypes"><Description dt:dt="string">E-Prime Primary Realtime Clock</Description><StartTime><Timestamp dt:dt="int">0</Timestamp><DateUtc dt:dt="string">2015-07-16T17:05:29Z</DateUtc></StartTime><FrequencyChanges><FrequencyChange><Frequency dt:dt="r8">3507675</Frequency><Timestamp dt:dt="r8">241908810725</Timestamp><Current dt:dt="r8">0</Current><DateUtc dt:dt="string">2015-07-16T17:05:29Z</DateUtc></FrequencyChange></FrequencyChanges></Clock>\n	Hungry_Donkey_bar_English_2-121-1	60.017	-143	1.0.0.18	1	1391355148	Standard	2.0.10.353	2.0.10.353	07-16-2015	7/16/2015 5:05:29 PM	13:05:29	2.0.10.248	35	Bar50-50.bmp	46	1	?	10r_4g.bmp	0r_4g.bmp	2r_2g.bmp	0r_2g.bmp	10r_4g.bmp				TrialProc	TrialList	0	cvbn	-999999	16	169720	0	c	360	170080	104	-120	-16	-24	-10	14	4	4	4	35	-10	0	-2	0	4	4	2	2	-10	4
Hungry_Donkey_bar_English_2	121	1	<?xml version="1.0"?>\n<Clock xmlns:dt="urn:schemas-microsoft-com:datatypes"><Description dt:dt="string">E-Prime Primary Realtime Clock</Description><StartTime><Timestamp dt:dt="int">0</Timestamp><DateUtc dt:dt="string">2015-07-16T17:05:29Z</DateUtc></StartTime><FrequencyChanges><FrequencyChange><Frequency dt:dt="r8">3507675</Frequency><Timestamp dt:dt="r8">241908810725</Timestamp><Current dt:dt="r8">0</Current><DateUtc dt:dt="string">2015-07-16T17:05:29Z</DateUtc></FrequencyChange></FrequencyChanges></Clock>\n	Hungry_Donkey_bar_English_2-121-1	60.017	-143	1.0.0.18	1	1391355148	Standard	2.0.10.353	2.0.10.353	07-16-2015	7/16/2015 5:05:29 PM	13:05:29	2.0.10.248	36	Bar50-50.bmp	47	3	?	8r_4g.bmp	50r_4g.bmp	1r_2g.bmp	10r_2g.bmp			1r_2g.bmp		TrialProc	TrialList	0	cvbn	-999999	16	172119	0	b	1625	173744	106	-121	-15	-24	-10	15	4	1	4	36	-8	-50	-1	-10	4	4	2	2	-1	2
Hungry_Donkey_bar_English_2	121	1	<?xml version="1.0"?>\n<Clock xmlns:dt="urn:schemas-microsoft-com:datatypes"><Description dt:dt="string">E-Prime Primary Realtime Clock</Description><StartTime><Timestamp dt:dt="int">0</Timestamp><DateUtc dt:dt="string">2015-07-16T17:05:29Z</DateUtc></StartTime><FrequencyChanges><FrequencyChange><Frequency dt:dt="r8">3507675</Frequency><Timestamp dt:dt="r8">241908810725</Timestamp><Current dt:dt="r8">0</Current><DateUtc dt:dt="string">2015-07-16T17:05:29Z</DateUtc></FrequencyChange></FrequencyChanges></Clock>\n	Hungry_Donkey_bar_English_2-121-1	60.017	-143	1.0.0.18	1	1391355148	Standard	2.0.10.353	2.0.10.353	07-16-2015	7/16/2015 5:05:29 PM	13:05:29	2.0.10.248	37	Bar50-50.bmp	47	4	?	0r_4g.bmp	0r_4g.bmp	0r_2g.bmp	0r_2g.bmp				0r_2g.bmp	TrialProc	TrialList	0	cvbn	-999999	16	175785	0	n	7	175792	108	-121	-13	-24	-10	15	6	10	4	37	0	0	0	0	4	4	2	2	0	2
Hungry_Donkey_bar_English_2	121	1	<?xml version="1.0"?>\n<Clock xmlns:dt="urn:schemas-microsoft-com:datatypes"><Description dt:dt="string">E-Prime Primary Realtime Clock</Description><StartTime><Timestamp dt:dt="int">0</Timestamp><DateUtc dt:dt="string">2015-07-16T17:05:29Z</DateUtc></StartTime><FrequencyChanges><FrequencyChange><Frequency dt:dt="r8">3507675</Frequency><Timestamp dt:dt="r8">241908810725</Timestamp><Current dt:dt="r8">0</Current><DateUtc dt:dt="string">2015-07-16T17:05:29Z</DateUtc></FrequencyChange></FrequencyChanges></Clock>\n	Hungry_Donkey_bar_English_2-121-1	60.017	-143	1.0.0.18	1	1391355148	Standard	2.0.10.353	2.0.10.353	07-16-2015	7/16/2015 5:05:29 PM	13:05:29	2.0.10.248	38	Bar50-50.bmp	48	1	?	0r_4g.bmp	0r_4g.bmp	0r_2g.bmp	0r_2g.bmp	0r_4g.bmp				TrialProc	TrialList	0	cvbn	-999999	16	177834	0	c	150	177984	112	-121	-9	-20	-10	15	6	7	4	38	0	0	0	0	4	4	2	2	0	4
Hungry_Donkey_bar_English_2	121	1	<?xml version="1.0"?>\n<Clock xmlns:dt="urn:schemas-microsoft-com:datatypes"><Description dt:dt="string">E-Prime Primary Realtime Clock</Description><StartTime><Timestamp dt:dt="int">0</Timestamp><DateUtc dt:dt="string">2015-07-16T17:05:29Z</DateUtc></StartTime><FrequencyChanges><FrequencyChange><Frequency dt:dt="r8">3507675</Frequency><Timestamp dt:dt="r8">241908810725</Timestamp><Current dt:dt="r8">0</Current><DateUtc dt:dt="string">2015-07-16T17:05:29Z</DateUtc></FrequencyChange></FrequencyChanges></Clock>\n	Hungry_Donkey_bar_English_2-121-1	60.017	-143	1.0.0.18	1	1391355148	Standard	2.0.10.353	2.0.10.353	07-16-2015	7/16/2015 5:05:29 PM	13:05:29	2.0.10.248	39	Bar50-50.bmp	49	2	?	12r_4g.bmp	0r_4g.bmp	3r_2g.bmp	0r_2g.bmp		0r_4g.bmp			TrialProc	TrialList	0	cvbn	-999999	16	180017	0	v	2239	182256	116	-121	-5	-20	-6	15	6	5	4	39	-12	0	-3	0	4	4	2	2	0	4
Hungry_Donkey_bar_English_2	121	1	<?xml version="1.0"?>\n<Clock xmlns:dt="urn:schemas-microsoft-com:datatypes"><Description dt:dt="string">E-Prime Primary Realtime Clock</Description><StartTime><Timestamp dt:dt="int">0</Timestamp><DateUtc dt:dt="string">2015-07-16T17:05:29Z</DateUtc></StartTime><FrequencyChanges><FrequencyChange><Frequency dt:dt="r8">3507675</Frequency><Timestamp dt:dt="r8">241908810725</Timestamp><Current dt:dt="r8">0</Current><DateUtc dt:dt="string">2015-07-16T17:05:29Z</DateUtc></FrequencyChange></FrequencyChanges></Clock>\n	Hungry_Donkey_bar_English_2-121-1	60.017	-143	1.0.0.18	1	1391355148	Standard	2.0.10.353	2.0.10.353	07-16-2015	7/16/2015 5:05:29 PM	13:05:29	2.0.10.248	40	Bar50-50.bmp	49	4	?	0r_4g.bmp	0r_4g.bmp	0r_2g.bmp	0r_2g.bmp				0r_2g.bmp	TrialProc	TrialList	0	cvbn	-999999	15	184282	0	n	725	185007	118	-121	-3	-20	-6	15	8	9	4	40	0	0	0	0	4	4	2	2	0	2
Hungry_Donkey_bar_English_2	121	1	<?xml version="1.0"?>\n<Clock xmlns:dt="urn:schemas-microsoft-com:datatypes"><Description dt:dt="string">E-Prime Primary Realtime Clock</Description><StartTime><Timestamp dt:dt="int">0</Timestamp><DateUtc dt:dt="string">2015-07-16T17:05:29Z</DateUtc></StartTime><FrequencyChanges><FrequencyChange><Frequency dt:dt="r8">3507675</Frequency><Timestamp dt:dt="r8">241908810725</Timestamp><Current dt:dt="r8">0</Current><DateUtc dt:dt="string">2015-07-16T17:05:29Z</DateUtc></FrequencyChange></FrequencyChanges></Clock>\n	Hungry_Donkey_bar_English_2-121-1	60.017	-143	1.0.0.18	1	1391355148	Standard	2.0.10.353	2.0.10.353	07-16-2015	7/16/2015 5:05:29 PM	13:05:29	2.0.10.248	41	Bar50-50.bmp	50	3	?	8r_4g.bmp	50r_4g.bmp	1r_2g.bmp	10r_2g.bmp			1r_2g.bmp		TrialProc	TrialList	0	cvbn	-999999	16	187032	0	b	407	187439	120	-122	-2	-20	-6	16	8	1	5	41	-8	-50	-1	-10	4	4	2	2	-1	2
Hungry_Donkey_bar_English_2	121	1	<?xml version="1.0"?>\n<Clock xmlns:dt="urn:schemas-microsoft-com:datatypes"><Description dt:dt="string">E-Prime Primary Realtime Clock</Description><StartTime><Timestamp dt:dt="int">0</Timestamp><DateUtc dt:dt="string">2015-07-16T17:05:29Z</DateUtc></StartTime><FrequencyChanges><FrequencyChange><Frequency dt:dt="r8">3507675</Frequency><Timestamp dt:dt="r8">241908810725</Timestamp><Current dt:dt="r8">0</Current><DateUtc dt:dt="string">2015-07-16T17:05:29Z</DateUtc></FrequencyChange></FrequencyChanges></Clock>\n	Hungry_Donkey_bar_English_2-121-1	60.017	-143	1.0.0.18	1	1391355148	Standard	2.0.10.353	2.0.10.353	07-16-2015	7/16/2015 5:05:29 PM	13:05:29	2.0.10.248	42	Bar50-50.bmp	48	1	?	10r_4g.bmp	0r_4g.bmp	2r_2g.bmp	0r_2g.bmp	10r_4g.bmp				TrialProc	TrialList	0	cvbn	-999999	16	189481	0	c	278	189759	124	-132	-8	-26	-6	16	8	2	5	42	-10	0	-2	0	4	4	2	2	-10	4
Hungry_Donkey_bar_English_2	121	1	<?xml version="1.0"?>\n<Clock xmlns:dt="urn:schemas-microsoft-com:datatypes"><Description dt:dt="string">E-Prime Primary Realtime Clock</Description><StartTime><Timestamp dt:dt="int">0</Timestamp><DateUtc dt:dt="string">2015-07-16T17:05:29Z</DateUtc></StartTime><FrequencyChanges><FrequencyChange><Frequency dt:dt="r8">3507675</Frequency><Timestamp dt:dt="r8">241908810725</Timestamp><Current dt:dt="r8">0</Current><DateUtc dt:dt="string">2015-07-16T17:05:29Z</DateUtc></FrequencyChange></FrequencyChanges></Clock>\n	Hungry_Donkey_bar_English_2-121-1	60.017	-143	1.0.0.18	1	1391355148	Standard	2.0.10.353	2.0.10.353	07-16-2015	7/16/2015 5:05:29 PM	13:05:29	2.0.10.248	43	Bar50-50.bmp	48	3	?	10r_4g.bmp	0r_4g.bmp	2r_2g.bmp	0r_2g.bmp			2r_2g.bmp		TrialProc	TrialList	0	cvbn	-999999	16	191797	0	b	938	192735	126	-134	-8	-26	-6	16	8	3	5	43	-10	0	-2	0	4	4	2	2	-2	2
Hungry_Donkey_bar_English_2	121	1	<?xml version="1.0"?>\n<Clock xmlns:dt="urn:schemas-microsoft-com:datatypes"><Description dt:dt="string">E-Prime Primary Realtime Clock</Description><StartTime><Timestamp dt:dt="int">0</Timestamp><DateUtc dt:dt="string">2015-07-16T17:05:29Z</DateUtc></StartTime><FrequencyChanges><FrequencyChange><Frequency dt:dt="r8">3507675</Frequency><Timestamp dt:dt="r8">241908810725</Timestamp><Current dt:dt="r8">0</Current><DateUtc dt:dt="string">2015-07-16T17:05:29Z</DateUtc></FrequencyChange></FrequencyChanges></Clock>\n	Hungry_Donkey_bar_English_2-121-1	60.017	-143	1.0.0.18	1	1391355148	Standard	2.0.10.353	2.0.10.353	07-16-2015	7/16/2015 5:05:29 PM	13:05:29	2.0.10.248	44	Bar50-50.bmp	49	1	?	0r_4g.bmp	0r_4g.bmp	0r_2g.bmp	0r_2g.bmp	0r_4g.bmp				TrialProc	TrialList	0	cvbn	-999999	16	194779	0	c	484	195263	130	-134	-4	-22	-6	16	8	7	5	44	0	0	0	0	4	4	2	2	0	4
Hungry_Donkey_bar_English_2	121	1	<?xml version="1.0"?>\n<Clock xmlns:dt="urn:schemas-microsoft-com:datatypes"><Description dt:dt="string">E-Prime Primary Realtime Clock</Description><StartTime><Timestamp dt:dt="int">0</Timestamp><DateUtc dt:dt="string">2015-07-16T17:05:29Z</DateUtc></StartTime><FrequencyChanges><FrequencyChange><Frequency dt:dt="r8">3507675</Frequency><Timestamp dt:dt="r8">241908810725</Timestamp><Current dt:dt="r8">0</Current><DateUtc dt:dt="string">2015-07-16T17:05:29Z</DateUtc></FrequencyChange></FrequencyChanges></Clock>\n	Hungry_Donkey_bar_English_2-121-1	60.017	-143	1.0.0.18	1	1391355148	Standard	2.0.10.353	2.0.10.353	07-16-2015	7/16/2015 5:05:29 PM	13:05:29	2.0.10.248	45	Bar50-50.bmp	50	2	?	0r_4g.bmp	0r_4g.bmp	0r_2g.bmp	0r_2g.bmp		0r_4g.bmp			TrialProc	TrialList	0	cvbn	-999999	16	197295	0	v	624	197919	134	-134	0	-22	-2	16	8	10	5	45	0	0	0	0	4	4	2	2	0	4
Hungry_Donkey_bar_English_2	121	1	<?xml version="1.0"?>\n<Clock xmlns:dt="urn:schemas-microsoft-com:datatypes"><Description dt:dt="string">E-Prime Primary Realtime Clock</Description><StartTime><Timestamp dt:dt="int">0</Timestamp><DateUtc dt:dt="string">2015-07-16T17:05:29Z</DateUtc></StartTime><FrequencyChanges><FrequencyChange><Frequency dt:dt="r8">3507675</Frequency><Timestamp dt:dt="r8">241908810725</Timestamp><Current dt:dt="r8">0</Current><DateUtc dt:dt="string">2015-07-16T17:05:29Z</DateUtc></FrequencyChange></FrequencyChanges></Clock>\n	Hungry_Donkey_bar_English_2-121-1	60.017	-143	1.0.0.18	1	1391355148	Standard	2.0.10.353	2.0.10.353	07-16-2015	7/16/2015 5:05:29 PM	13:05:29	2.0.10.248	46	Bar50-50.bmp	50	4	?	0r_4g.bmp	0r_4g.bmp	0r_2g.bmp	0r_2g.bmp				0r_2g.bmp	TrialProc	TrialList	0	cvbn	-999999	17	199945	0	n	470	200415	136	-134	2	-22	-2	16	10	9	5	46	0	0	0	0	4	4	2	2	0	2
Hungry_Donkey_bar_English_2	121	1	<?xml version="1.0"?>\n<Clock xmlns:dt="urn:schemas-microsoft-com:datatypes"><Description dt:dt="string">E-Prime Primary Realtime Clock</Description><StartTime><Timestamp dt:dt="int">0</Timestamp><DateUtc dt:dt="string">2015-07-16T17:05:29Z</DateUtc></StartTime><FrequencyChanges><FrequencyChange><Frequency dt:dt="r8">3507675</Frequency><Timestamp dt:dt="r8">241908810725</Timestamp><Current dt:dt="r8">0</Current><DateUtc dt:dt="string">2015-07-16T17:05:29Z</DateUtc></FrequencyChange></FrequencyChanges></Clock>\n	Hungry_Donkey_bar_English_2-121-1	60.017	-143	1.0.0.18	1	1391355148	Standard	2.0.10.353	2.0.10.353	07-16-2015	7/16/2015 5:05:29 PM	13:05:29	2.0.10.248	47	Bar50-50.bmp	51	2	?	10r_4g.bmp	0r_4g.bmp	2r_2g.bmp	0r_2g.bmp		0r_4g.bmp			TrialProc	TrialList	0	cvbn	-999999	16	202444	0	v	243	202687	140	-134	6	-22	2	16	10	4	5	47	-10	0	-2	0	4	4	2	2	0	4
Hungry_Donkey_bar_English_2	121	1	<?xml version="1.0"?>\n<Clock xmlns:dt="urn:schemas-microsoft-com:datatypes"><Description dt:dt="string">E-Prime Primary Realtime Clock</Description><StartTime><Timestamp dt:dt="int">0</Timestamp><DateUtc dt:dt="string">2015-07-16T17:05:29Z</DateUtc></StartTime><FrequencyChanges><FrequencyChange><Frequency dt:dt="r8">3507675</Frequency><Timestamp dt:dt="r8">241908810725</Timestamp><Current dt:dt="r8">0</Current><DateUtc dt:dt="string">2015-07-16T17:05:29Z</DateUtc></FrequencyChange></FrequencyChanges></Clock>\n	Hungry_Donkey_bar_English_2-121-1	60.017	-143	1.0.0.18	1	1391355148	Standard	2.0.10.353	2.0.10.353	07-16-2015	7/16/2015 5:05:29 PM	13:05:29	2.0.10.248	48	Bar50-50.bmp	51	3	?	0r_4g.bmp	0r_4g.bmp	0r_2g.bmp	0r_2g.bmp			0r_2g.bmp		TrialProc	TrialList	0	cvbn	-999999	17	204727	0	b	279	205006	142	-134	8	-22	2	18	10	8	5	48	0	0	0	0	4	4	2	2	0	2
Hungry_Donkey_bar_English_2	121	1	<?xml version="1.0"?>\n<Clock xmlns:dt="urn:schemas-microsoft-com:datatypes"><Description dt:dt="string">E-Prime Primary Realtime Clock</Description><StartTime><Timestamp dt:dt="int">0</Timestamp><DateUtc dt:dt="string">2015-07-16T17:05:29Z</DateUtc></StartTime><FrequencyChanges><FrequencyChange><Frequency dt:dt="r8">3507675</Frequency><Timestamp dt:dt="r8">241908810725</Timestamp><Current dt:dt="r8">0</Current><DateUtc dt:dt="string">2015-07-16T17:05:29Z</DateUtc></FrequencyChange></FrequencyChanges></Clock>\n	Hungry_Donkey_bar_English_2-121-1	60.017	-143	1.0.0.18	1	1391355148	Standard	2.0.10.353	2.0.10.353	07-16-2015	7/16/2015 5:05:29 PM	13:05:29	2.0.10.248	49	Bar50-50.bmp	52	1	?	0r_4g.bmp	0r_4g.bmp	0r_2g.bmp	0r_2g.bmp	0r_4g.bmp				TrialProc	TrialList	0	cvbn	-999999	17	207043	0	c	571	207614	146	-134	12	-18	2	18	10	6	5	49	0	0	0	0	4	4	2	2	0	4
Hungry_Donkey_bar_English_2	121	1	<?xml version="1.0"?>\n<Clock xmlns:dt="urn:schemas-microsoft-com:datatypes"><Description dt:dt="string">E-Prime Primary Realtime Clock</Description><StartTime><Timestamp dt:dt="int">0</Timestamp><DateUtc dt:dt="string">2015-07-16T17:05:29Z</DateUtc></StartTime><FrequencyChanges><FrequencyChange><Frequency dt:dt="r8">3507675</Frequency><Timestamp dt:dt="r8">241908810725</Timestamp><Current dt:dt="r8">0</Current><DateUtc dt:dt="string">2015-07-16T17:05:29Z</DateUtc></FrequencyChange></FrequencyChanges></Clock>\n	Hungry_Donkey_bar_English_2-121-1	60.017	-143	1.0.0.18	1	1391355148	Standard	2.0.10.353	2.0.10.353	07-16-2015	7/16/2015 5:05:29 PM	13:05:29	2.0.10.248	50	Bar50-50.bmp	52	3	?	12r_4g.bmp	0r_4g.bmp	3r_2g.bmp	0r_2g.bmp			3r_2g.bmp		TrialProc	TrialList	0	cvbn	-999999	16	209642	0	b	468	210110	148	-137	11	-18	2	17	10	5	5	50	-12	0	-3	0	4	4	2	2	-3	2
Hungry_Donkey_bar_English_2	121	1	<?xml version="1.0"?>\n<Clock xmlns:dt="urn:schemas-microsoft-com:datatypes"><Description dt:dt="string">E-Prime Primary Realtime Clock</Description><StartTime><Timestamp dt:dt="int">0</Timestamp><DateUtc dt:dt="string">2015-07-16T17:05:29Z</DateUtc></StartTime><FrequencyChanges><FrequencyChange><Frequency dt:dt="r8">3507675</Frequency><Timestamp dt:dt="r8">241908810725</Timestamp><Current dt:dt="r8">0</Current><DateUtc dt:dt="string">2015-07-16T17:05:29Z</DateUtc></FrequencyChange></FrequencyChanges></Clock>\n	Hungry_Donkey_bar_English_2-121-1	60.017	-143	1.0.0.18	1	1391355148	Standard	2.0.10.353	2.0.10.353	07-16-2015	7/16/2015 5:05:29 PM	13:05:29	2.0.10.248	51	Bar50-50.bmp	52	4	?	10r_4g.bmp	0r_4g.bmp	2r_2g.bmp	0r_2g.bmp				0r_2g.bmp	TrialProc	TrialList	0	cvbn	-999999	16	212141	0	n	273	212414	150	-137	13	-18	2	17	12	2	6	51	-10	0	-2	0	4	4	2	2	0	2
Hungry_Donkey_bar_English_2	121	1	<?xml version="1.0"?>\n<Clock xmlns:dt="urn:schemas-microsoft-com:datatypes"><Description dt:dt="string">E-Prime Primary Realtime Clock</Description><StartTime><Timestamp dt:dt="int">0</Timestamp><DateUtc dt:dt="string">2015-07-16T17:05:29Z</DateUtc></StartTime><FrequencyChanges><FrequencyChange><Frequency dt:dt="r8">3507675</Frequency><Timestamp dt:dt="r8">241908810725</Timestamp><Current dt:dt="r8">0</Current><DateUtc dt:dt="string">2015-07-16T17:05:29Z</DateUtc></FrequencyChange></FrequencyChanges></Clock>\n	Hungry_Donkey_bar_English_2-121-1	60.017	-143	1.0.0.18	1	1391355148	Standard	2.0.10.353	2.0.10.353	07-16-2015	7/16/2015 5:05:29 PM	13:05:29	2.0.10.248	52	Bar50-50.bmp	53	2	?	10r_4g.bmp	0r_4g.bmp	2r_2g.bmp	0r_2g.bmp		0r_4g.bmp			TrialProc	TrialList	0	cvbn	-999999	16	214440	0	v	5414	219854	154	-137	17	-18	6	17	12	3	6	52	-10	0	-2	0	4	4	2	2	0	4
Hungry_Donkey_bar_English_2	121	1	<?xml version="1.0"?>\n<Clock xmlns:dt="urn:schemas-microsoft-com:datatypes"><Description dt:dt="string">E-Prime Primary Realtime Clock</Description><StartTime><Timestamp dt:dt="int">0</Timestamp><DateUtc dt:dt="string">2015-07-16T17:05:29Z</DateUtc></StartTime><FrequencyChanges><FrequencyChange><Frequency dt:dt="r8">3507675</Frequency><Timestamp dt:dt="r8">241908810725</Timestamp><Current dt:dt="r8">0</Current><DateUtc dt:dt="string">2015-07-16T17:05:29Z</DateUtc></FrequencyChange></FrequencyChanges></Clock>\n	Hungry_Donkey_bar_English_2-121-1	60.017	-143	1.0.0.18	1	1391355148	Standard	2.0.10.353	2.0.10.353	07-16-2015	7/16/2015 5:05:29 PM	13:05:29	2.0.10.248	53	Bar50-50.bmp	46	2	?	8r_4g.bmp	50r_4g.bmp	1r_2g.bmp	10r_2g.bmp		50r_4g.bmp			TrialProc	TrialList	0	cvbn	-999999	16	221888	0	v	974	222862	158	-187	-29	-18	-40	17	12	1	6	53	-8	-50	-1	-10	4	4	2	2	-50	4
Hungry_Donkey_bar_English_2	121	1	<?xml version="1.0"?>\n<Clock xmlns:dt="urn:schemas-microsoft-com:datatypes"><Description dt:dt="string">E-Prime Primary Realtime Clock</Description><StartTime><Timestamp dt:dt="int">0</Timestamp><DateUtc dt:dt="string">2015-07-16T17:05:29Z</DateUtc></StartTime><FrequencyChanges><FrequencyChange><Frequency dt:dt="r8">3507675</Frequency><Timestamp dt:dt="r8">241908810725</Timestamp><Current dt:dt="r8">0</Current><DateUtc dt:dt="string">2015-07-16T17:05:29Z</DateUtc></FrequencyChange></FrequencyChanges></Clock>\n	Hungry_Donkey_bar_English_2-121-1	60.017	-143	1.0.0.18	1	1391355148	Standard	2.0.10.353	2.0.10.353	07-16-2015	7/16/2015 5:05:29 PM	13:05:29	2.0.10.248	54	Bar50-50.bmp	46	2	?	12r_4g.bmp	0r_4g.bmp	3r_2g.bmp	0r_2g.bmp		0r_4g.bmp			TrialProc	TrialList	0	cvbn	-999999	16	224887	0	v	550	225437	162	-187	-25	-18	-36	17	12	5	6	54	-12	0	-3	0	4	4	2	2	0	4
Hungry_Donkey_bar_English_2	121	1	<?xml version="1.0"?>\n<Clock xmlns:dt="urn:schemas-microsoft-com:datatypes"><Description dt:dt="string">E-Prime Primary Realtime Clock</Description><StartTime><Timestamp dt:dt="int">0</Timestamp><DateUtc dt:dt="string">2015-07-16T17:05:29Z</DateUtc></StartTime><FrequencyChanges><FrequencyChange><Frequency dt:dt="r8">3507675</Frequency><Timestamp dt:dt="r8">241908810725</Timestamp><Current dt:dt="r8">0</Current><DateUtc dt:dt="string">2015-07-16T17:05:29Z</DateUtc></FrequencyChange></FrequencyChanges></Clock>\n	Hungry_Donkey_bar_English_2-121-1	60.017	-143	1.0.0.18	1	1391355148	Standard	2.0.10.353	2.0.10.353	07-16-2015	7/16/2015 5:05:29 PM	13:05:29	2.0.10.248	55	Bar50-50.bmp	47	1	?	0r_4g.bmp	0r_4g.bmp	0r_2g.bmp	0r_2g.bmp	0r_4g.bmp				TrialProc	TrialList	0	cvbn	-999999	16	227470	0	c	559	228029	166	-187	-21	-14	-36	17	12	8	6	55	0	0	0	0	4	4	2	2	0	4
Hungry_Donkey_bar_English_2	121	1	<?xml version="1.0"?>\n<Clock xmlns:dt="urn:schemas-microsoft-com:datatypes"><Description dt:dt="string">E-Prime Primary Realtime Clock</Description><StartTime><Timestamp dt:dt="int">0</Timestamp><DateUtc dt:dt="string">2015-07-16T17:05:29Z</DateUtc></StartTime><FrequencyChanges><FrequencyChange><Frequency dt:dt="r8">3507675</Frequency><Timestamp dt:dt="r8">241908810725</Timestamp><Current dt:dt="r8">0</Current><DateUtc dt:dt="string">2015-07-16T17:05:29Z</DateUtc></FrequencyChange></FrequencyChanges></Clock>\n	Hungry_Donkey_bar_English_2-121-1	60.017	-143	1.0.0.18	1	1391355148	Standard	2.0.10.353	2.0.10.353	07-16-2015	7/16/2015 5:05:29 PM	13:05:29	2.0.10.248	56	Bar50-50.bmp	47	3	?	0r_4g.bmp	0r_4g.bmp	0r_2g.bmp	0r_2g.bmp			0r_2g.bmp		TrialProc	TrialList	0	cvbn	-999999	16	230069	0	b	88	230157	168	-187	-19	-14	-36	19	12	9	6	56	0	0	0	0	4	4	2	2	0	2
Hungry_Donkey_bar_English_2	121	1	<?xml version="1.0"?>\n<Clock xmlns:dt="urn:schemas-microsoft-com:datatypes"><Description dt:dt="string">E-Prime Primary Realtime Clock</Description><StartTime><Timestamp dt:dt="int">0</Timestamp><DateUtc dt:dt="string">2015-07-16T17:05:29Z</DateUtc></StartTime><FrequencyChanges><FrequencyChange><Frequency dt:dt="r8">3507675</Frequency><Timestamp dt:dt="r8">241908810725</Timestamp><Current dt:dt="r8">0</Current><DateUtc dt:dt="string">2015-07-16T17:05:29Z</DateUtc></FrequencyChange></FrequencyChanges></Clock>\n	Hungry_Donkey_bar_English_2-121-1	60.017	-143	1.0.0.18	1	1391355148	Standard	2.0.10.353	2.0.10.353	07-16-2015	7/16/2015 5:05:29 PM	13:05:29	2.0.10.248	57	Bar50-50.bmp	48	4	?	0r_4g.bmp	0r_4g.bmp	0r_2g.bmp	0r_2g.bmp				0r_2g.bmp	TrialProc	TrialList	0	cvbn	-999999	16	232185	0	n	1764	233949	170	-187	-17	-14	-36	19	14	10	6	57	0	0	0	0	4	4	2	2	0	2
Hungry_Donkey_bar_English_2	121	1	<?xml version="1.0"?>\n<Clock xmlns:dt="urn:schemas-microsoft-com:datatypes"><Description dt:dt="string">E-Prime Primary Realtime Clock</Description><StartTime><Timestamp dt:dt="int">0</Timestamp><DateUtc dt:dt="string">2015-07-16T17:05:29Z</DateUtc></StartTime><FrequencyChanges><FrequencyChange><Frequency dt:dt="r8">3507675</Frequency><Timestamp dt:dt="r8">241908810725</Timestamp><Current dt:dt="r8">0</Current><DateUtc dt:dt="string">2015-07-16T17:05:29Z</DateUtc></FrequencyChange></FrequencyChanges></Clock>\n	Hungry_Donkey_bar_English_2-121-1	60.017	-143	1.0.0.18	1	1391355148	Standard	2.0.10.353	2.0.10.353	07-16-2015	7/16/2015 5:05:29 PM	13:05:29	2.0.10.248	58	Bar50-50.bmp	48	3	?	0r_4g.bmp	0r_4g.bmp	0r_2g.bmp	0r_2g.bmp			0r_2g.bmp		TrialProc	TrialList	0	cvbn	-999999	16	235984	0	b	893	236877	172	-187	-15	-14	-36	21	14	6	6	58	0	0	0	0	4	4	2	2	0	2
Hungry_Donkey_bar_English_2	121	1	<?xml version="1.0"?>\n<Clock xmlns:dt="urn:schemas-microsoft-com:datatypes"><Description dt:dt="string">E-Prime Primary Realtime Clock</Description><StartTime><Timestamp dt:dt="int">0</Timestamp><DateUtc dt:dt="string">2015-07-16T17:05:29Z</DateUtc></StartTime><FrequencyChanges><FrequencyChange><Frequency dt:dt="r8">3507675</Frequency><Timestamp dt:dt="r8">241908810725</Timestamp><Current dt:dt="r8">0</Current><DateUtc dt:dt="string">2015-07-16T17:05:29Z</DateUtc></FrequencyChange></FrequencyChanges></Clock>\n	Hungry_Donkey_bar_English_2-121-1	60.017	-143	1.0.0.18	1	1391355148	Standard	2.0.10.353	2.0.10.353	07-16-2015	7/16/2015 5:05:29 PM	13:05:29	2.0.10.248	59	Bar50-50.bmp	48	2	?	0r_4g.bmp	0r_4g.bmp	0r_2g.bmp	0r_2g.bmp		0r_4g.bmp			TrialProc	TrialList	0	cvbn	-999999	16	238917	0	v	280	239197	176	-187	-11	-14	-32	21	14	7	6	59	0	0	0	0	4	4	2	2	0	4
Hungry_Donkey_bar_English_2	121	1	<?xml version="1.0"?>\n<Clock xmlns:dt="urn:schemas-microsoft-com:datatypes"><Description dt:dt="string">E-Prime Primary Realtime Clock</Description><StartTime><Timestamp dt:dt="int">0</Timestamp><DateUtc dt:dt="string">2015-07-16T17:05:29Z</DateUtc></StartTime><FrequencyChanges><FrequencyChange><Frequency dt:dt="r8">3507675</Frequency><Timestamp dt:dt="r8">241908810725</Timestamp><Current dt:dt="r8">0</Current><DateUtc dt:dt="string">2015-07-16T17:05:29Z</DateUtc></FrequencyChange></FrequencyChanges></Clock>\n	Hungry_Donkey_bar_English_2-121-1	60.017	-143	1.0.0.18	1	1391355148	Standard	2.0.10.353	2.0.10.353	07-16-2015	7/16/2015 5:05:29 PM	13:05:29	2.0.10.248	60	Bar50-50.bmp	49	3	?	10r_4g.bmp	0r_4g.bmp	2r_2g.bmp	0r_2g.bmp			2r_2g.bmp		TrialProc	TrialList	0	cvbn	-999999	16	241233	0	b	140	241373	178	-189	-11	-14	-32	21	14	4	6	60	-10	0	-2	0	4	4	2	2	-2	2
Hungry_Donkey_bar_English_2	121	1	<?xml version="1.0"?>\n<Clock xmlns:dt="urn:schemas-microsoft-com:datatypes"><Description dt:dt="string">E-Prime Primary Realtime Clock</Description><StartTime><Timestamp dt:dt="int">0</Timestamp><DateUtc dt:dt="string">2015-07-16T17:05:29Z</DateUtc></StartTime><FrequencyChanges><FrequencyChange><Frequency dt:dt="r8">3507675</Frequency><Timestamp dt:dt="r8">241908810725</Timestamp><Current dt:dt="r8">0</Current><DateUtc dt:dt="string">2015-07-16T17:05:29Z</DateUtc></FrequencyChange></FrequencyChanges></Clock>\n	Hungry_Donkey_bar_English_2-121-1	60.017	-143	1.0.0.18	1	1391355148	Standard	2.0.10.353	2.0.10.353	07-16-2015	7/16/2015 5:05:29 PM	13:05:29	2.0.10.248	61	Bar50-50.bmp	49	4	?	10r_4g.bmp	0r_4g.bmp	2r_2g.bmp	0r_2g.bmp				0r_2g.bmp	TrialProc	TrialList	0	cvbn	-999999	16	243399	0	n	486	243885	180	-189	-9	-14	-32	21	16	4	7	61	-10	0	-2	0	4	4	2	2	0	2
Hungry_Donkey_bar_English_2	121	1	<?xml version="1.0"?>\n<Clock xmlns:dt="urn:schemas-microsoft-com:datatypes"><Description dt:dt="string">E-Prime Primary Realtime Clock</Description><StartTime><Timestamp dt:dt="int">0</Timestamp><DateUtc dt:dt="string">2015-07-16T17:05:29Z</DateUtc></StartTime><FrequencyChanges><FrequencyChange><Frequency dt:dt="r8">3507675</Frequency><Timestamp dt:dt="r8">241908810725</Timestamp><Current dt:dt="r8">0</Current><DateUtc dt:dt="string">2015-07-16T17:05:29Z</DateUtc></FrequencyChange></FrequencyChanges></Clock>\n	Hungry_Donkey_bar_English_2-121-1	60.017	-143	1.0.0.18	1	1391355148	Standard	2.0.10.353	2.0.10.353	07-16-2015	7/16/2015 5:05:29 PM	13:05:29	2.0.10.248	62	Bar50-50.bmp	48	4	?	8r_4g.bmp	50r_4g.bmp	1r_2g.bmp	10r_2g.bmp				10r_2g.bmp	TrialProc	TrialList	0	cvbn	-999999	16	245915	0	n	529	246444	182	-199	-17	-14	-32	21	8	1	7	62	-8	-50	-1	-10	4	4	2	2	-10	2
Hungry_Donkey_bar_English_2	121	1	<?xml version="1.0"?>\n<Clock xmlns:dt="urn:schemas-microsoft-com:datatypes"><Description dt:dt="string">E-Prime Primary Realtime Clock</Description><StartTime><Timestamp dt:dt="int">0</Timestamp><DateUtc dt:dt="string">2015-07-16T17:05:29Z</DateUtc></StartTime><FrequencyChanges><FrequencyChange><Frequency dt:dt="r8">3507675</Frequency><Timestamp dt:dt="r8">241908810725</Timestamp><Current dt:dt="r8">0</Current><DateUtc dt:dt="string">2015-07-16T17:05:29Z</DateUtc></FrequencyChange></FrequencyChanges></Clock>\n	Hungry_Donkey_bar_English_2-121-1	60.017	-143	1.0.0.18	1	1391355148	Standard	2.0.10.353	2.0.10.353	07-16-2015	7/16/2015 5:05:29 PM	13:05:29	2.0.10.248	63	Bar50-50.bmp	48	3	?	0r_4g.bmp	0r_4g.bmp	0r_2g.bmp	0r_2g.bmp			0r_2g.bmp		TrialProc	TrialList	0	cvbn	-999999	16	248481	0	b	267	248748	184	-199	-15	-14	-32	23	8	10	7	63	0	0	0	0	4	4	2	2	0	2
Hungry_Donkey_bar_English_2	121	1	<?xml version="1.0"?>\n<Clock xmlns:dt="urn:schemas-microsoft-com:datatypes"><Description dt:dt="string">E-Prime Primary Realtime Clock</Description><StartTime><Timestamp dt:dt="int">0</Timestamp><DateUtc dt:dt="string">2015-07-16T17:05:29Z</DateUtc></StartTime><FrequencyChanges><FrequencyChange><Frequency dt:dt="r8">3507675</Frequency><Timestamp dt:dt="r8">241908810725</Timestamp><Current dt:dt="r8">0</Current><DateUtc dt:dt="string">2015-07-16T17:05:29Z</DateUtc></FrequencyChange></FrequencyChanges></Clock>\n	Hungry_Donkey_bar_English_2-121-1	60.017	-143	1.0.0.18	1	1391355148	Standard	2.0.10.353	2.0.10.353	07-16-2015	7/16/2015 5:05:29 PM	13:05:29	2.0.10.248	64	Bar50-50.bmp	49	2	?	10r_4g.bmp	0r_4g.bmp	2r_2g.bmp	0r_2g.bmp		0r_4g.bmp			TrialProc	TrialList	0	cvbn	-999999	16	250780	0	v	448	251228	188	-199	-11	-14	-28	23	8	2	7	64	-10	0	-2	0	4	4	2	2	0	4
Hungry_Donkey_bar_English_2	121	1	<?xml version="1.0"?>\n<Clock xmlns:dt="urn:schemas-microsoft-com:datatypes"><Description dt:dt="string">E-Prime Primary Realtime Clock</Description><StartTime><Timestamp dt:dt="int">0</Timestamp><DateUtc dt:dt="string">2015-07-16T17:05:29Z</DateUtc></StartTime><FrequencyChanges><FrequencyChange><Frequency dt:dt="r8">3507675</Frequency><Timestamp dt:dt="r8">241908810725</Timestamp><Current dt:dt="r8">0</Current><DateUtc dt:dt="string">2015-07-16T17:05:29Z</DateUtc></FrequencyChange></FrequencyChanges></Clock>\n	Hungry_Donkey_bar_English_2-121-1	60.017	-143	1.0.0.18	1	1391355148	Standard	2.0.10.353	2.0.10.353	07-16-2015	7/16/2015 5:05:29 PM	13:05:29	2.0.10.248	65	Bar50-50.bmp	49	1	?	0r_4g.bmp	0r_4g.bmp	0r_2g.bmp	0r_2g.bmp	0r_4g.bmp				TrialProc	TrialList	0	cvbn	-999999	16	253263	0	c	701	253964	192	-199	-7	-10	-28	23	8	8	7	65	0	0	0	0	4	4	2	2	0	4
Hungry_Donkey_bar_English_2	121	1	<?xml version="1.0"?>\n<Clock xmlns:dt="urn:schemas-microsoft-com:datatypes"><Description dt:dt="string">E-Prime Primary Realtime Clock</Description><StartTime><Timestamp dt:dt="int">0</Timestamp><DateUtc dt:dt="string">2015-07-16T17:05:29Z</DateUtc></StartTime><FrequencyChanges><FrequencyChange><Frequency dt:dt="r8">3507675</Frequency><Timestamp dt:dt="r8">241908810725</Timestamp><Current dt:dt="r8">0</Current><DateUtc dt:dt="string">2015-07-16T17:05:29Z</DateUtc></FrequencyChange></FrequencyChanges></Clock>\n	Hungry_Donkey_bar_English_2-121-1	60.017	-143	1.0.0.18	1	1391355148	Standard	2.0.10.353	2.0.10.353	07-16-2015	7/16/2015 5:05:29 PM	13:05:29	2.0.10.248	66	Bar50-50.bmp	50	2	?	0r_4g.bmp	0r_4g.bmp	0r_2g.bmp	0r_2g.bmp		0r_4g.bmp			TrialProc	TrialList	0	cvbn	-999999	16	255995	0	v	369	256364	196	-199	-3	-10	-24	23	8	6	7	66	0	0	0	0	4	4	2	2	0	4
Hungry_Donkey_bar_English_2	121	1	<?xml version="1.0"?>\n<Clock xmlns:dt="urn:schemas-microsoft-com:datatypes"><Description dt:dt="string">E-Prime Primary Realtime Clock</Description><StartTime><Timestamp dt:dt="int">0</Timestamp><DateUtc dt:dt="string">2015-07-16T17:05:29Z</DateUtc></StartTime><FrequencyChanges><FrequencyChange><Frequency dt:dt="r8">3507675</Frequency><Timestamp dt:dt="r8">241908810725</Timestamp><Current dt:dt="r8">0</Current><DateUtc dt:dt="string">2015-07-16T17:05:29Z</DateUtc></FrequencyChange></FrequencyChanges></Clock>\n	Hungry_Donkey_bar_English_2-121-1	60.017	-143	1.0.0.18	1	1391355148	Standard	2.0.10.353	2.0.10.353	07-16-2015	7/16/2015 5:05:29 PM	13:05:29	2.0.10.248	67	Bar50-50.bmp	50	3	?	0r_4g.bmp	0r_4g.bmp	0r_2g.bmp	0r_2g.bmp			0r_2g.bmp		TrialProc	TrialList	0	cvbn	-999999	17	258395	0	b	17	258412	198	-199	-1	-10	-24	25	8	9	7	67	0	0	0	0	4	4	2	2	0	2
Hungry_Donkey_bar_English_2	121	1	<?xml version="1.0"?>\n<Clock xmlns:dt="urn:schemas-microsoft-com:datatypes"><Description dt:dt="string">E-Prime Primary Realtime Clock</Description><StartTime><Timestamp dt:dt="int">0</Timestamp><DateUtc dt:dt="string">2015-07-16T17:05:29Z</DateUtc></StartTime><FrequencyChanges><FrequencyChange><Frequency dt:dt="r8">3507675</Frequency><Timestamp dt:dt="r8">241908810725</Timestamp><Current dt:dt="r8">0</Current><DateUtc dt:dt="string">2015-07-16T17:05:29Z</DateUtc></FrequencyChange></FrequencyChanges></Clock>\n	Hungry_Donkey_bar_English_2-121-1	60.017	-143	1.0.0.18	1	1391355148	Standard	2.0.10.353	2.0.10.353	07-16-2015	7/16/2015 5:05:29 PM	13:05:29	2.0.10.248	68	Bar50-50.bmp	50	2	?	10r_4g.bmp	0r_4g.bmp	2r_2g.bmp	0r_2g.bmp		0r_4g.bmp			TrialProc	TrialList	0	cvbn	-999999	16	260444	0	v	368	260812	202	-199	3	-10	-20	25	8	3	7	68	-10	0	-2	0	4	4	2	2	0	4
Hungry_Donkey_bar_English_2	121	1	<?xml version="1.0"?>\n<Clock xmlns:dt="urn:schemas-microsoft-com:datatypes"><Description dt:dt="string">E-Prime Primary Realtime Clock</Description><StartTime><Timestamp dt:dt="int">0</Timestamp><DateUtc dt:dt="string">2015-07-16T17:05:29Z</DateUtc></StartTime><FrequencyChanges><FrequencyChange><Frequency dt:dt="r8">3507675</Frequency><Timestamp dt:dt="r8">241908810725</Timestamp><Current dt:dt="r8">0</Current><DateUtc dt:dt="string">2015-07-16T17:05:29Z</DateUtc></FrequencyChange></FrequencyChanges></Clock>\n	Hungry_Donkey_bar_English_2-121-1	60.017	-143	1.0.0.18	1	1391355148	Standard	2.0.10.353	2.0.10.353	07-16-2015	7/16/2015 5:05:29 PM	13:05:29	2.0.10.248	69	Bar50-50.bmp	51	2	?	0r_4g.bmp	0r_4g.bmp	0r_2g.bmp	0r_2g.bmp		0r_4g.bmp			TrialProc	TrialList	0	cvbn	-999999	16	262843	0	v	481	263324	206	-199	7	-10	-16	25	8	7	7	69	0	0	0	0	4	4	2	2	0	4
Hungry_Donkey_bar_English_2	121	1	<?xml version="1.0"?>\n<Clock xmlns:dt="urn:schemas-microsoft-com:datatypes"><Description dt:dt="string">E-Prime Primary Realtime Clock</Description><StartTime><Timestamp dt:dt="int">0</Timestamp><DateUtc dt:dt="string">2015-07-16T17:05:29Z</DateUtc></StartTime><FrequencyChanges><FrequencyChange><Frequency dt:dt="r8">3507675</Frequency><Timestamp dt:dt="r8">241908810725</Timestamp><Current dt:dt="r8">0</Current><DateUtc dt:dt="string">2015-07-16T17:05:29Z</DateUtc></FrequencyChange></FrequencyChanges></Clock>\n	Hungry_Donkey_bar_English_2-121-1	60.017	-143	1.0.0.18	1	1391355148	Standard	2.0.10.353	2.0.10.353	07-16-2015	7/16/2015 5:05:29 PM	13:05:29	2.0.10.248	70	Bar50-50.bmp	51	2	?	12r_4g.bmp	0r_4g.bmp	3r_2g.bmp	0r_2g.bmp		0r_4g.bmp			TrialProc	TrialList	0	cvbn	-999999	16	265359	0	v	317	265676	210	-199	11	-10	-12	25	8	5	7	70	-12	0	-3	0	4	4	2	2	0	4
Hungry_Donkey_bar_English_2	121	1	<?xml version="1.0"?>\n<Clock xmlns:dt="urn:schemas-microsoft-com:datatypes"><Description dt:dt="string">E-Prime Primary Realtime Clock</Description><StartTime><Timestamp dt:dt="int">0</Timestamp><DateUtc dt:dt="string">2015-07-16T17:05:29Z</DateUtc></StartTime><FrequencyChanges><FrequencyChange><Frequency dt:dt="r8">3507675</Frequency><Timestamp dt:dt="r8">241908810725</Timestamp><Current dt:dt="r8">0</Current><DateUtc dt:dt="string">2015-07-16T17:05:29Z</DateUtc></FrequencyChange></FrequencyChanges></Clock>\n	Hungry_Donkey_bar_English_2-121-1	60.017	-143	1.0.0.18	1	1391355148	Standard	2.0.10.353	2.0.10.353	07-16-2015	7/16/2015 5:05:29 PM	13:05:29	2.0.10.248	71	Bar50-50.bmp	52	2	?	0r_4g.bmp	0r_4g.bmp	0r_2g.bmp	0r_2g.bmp		0r_4g.bmp			TrialProc	TrialList	0	cvbn	-999999	17	267709	0	v	270	267979	214	-199	15	-10	-8	25	8	10	8	71	0	0	0	0	4	4	2	2	0	4
Hungry_Donkey_bar_English_2	121	1	<?xml version="1.0"?>\n<Clock xmlns:dt="urn:schemas-microsoft-com:datatypes"><Description dt:dt="string">E-Prime Primary Realtime Clock</Description><StartTime><Timestamp dt:dt="int">0</Timestamp><DateUtc dt:dt="string">2015-07-16T17:05:29Z</DateUtc></StartTime><FrequencyChanges><FrequencyChange><Frequency dt:dt="r8">3507675</Frequency><Timestamp dt:dt="r8">241908810725</Timestamp><Current dt:dt="r8">0</Current><DateUtc dt:dt="string">2015-07-16T17:05:29Z</DateUtc></FrequencyChange></FrequencyChanges></Clock>\n	Hungry_Donkey_bar_English_2-121-1	60.017	-143	1.0.0.18	1	1391355148	Standard	2.0.10.353	2.0.10.353	07-16-2015	7/16/2015 5:05:29 PM	13:05:29	2.0.10.248	72	Bar50-50.bmp	52	2	?	0r_4g.bmp	0r_4g.bmp	0r_2g.bmp	0r_2g.bmp		0r_4g.bmp			TrialProc	TrialList	0	cvbn	-999999	16	270008	0	v	259	270267	218	-199	19	-10	-4	25	8	8	8	72	0	0	0	0	4	4	2	2	0	4
Hungry_Donkey_bar_English_2	121	1	<?xml version="1.0"?>\n<Clock xmlns:dt="urn:schemas-microsoft-com:datatypes"><Description dt:dt="string">E-Prime Primary Realtime Clock</Description><StartTime><Timestamp dt:dt="int">0</Timestamp><DateUtc dt:dt="string">2015-07-16T17:05:29Z</DateUtc></StartTime><FrequencyChanges><FrequencyChange><Frequency dt:dt="r8">3507675</Frequency><Timestamp dt:dt="r8">241908810725</Timestamp><Current dt:dt="r8">0</Current><DateUtc dt:dt="string">2015-07-16T17:05:29Z</DateUtc></FrequencyChange></FrequencyChanges></Clock>\n	Hungry_Donkey_bar_English_2-121-1	60.017	-143	1.0.0.18	1	1391355148	Standard	2.0.10.353	2.0.10.353	07-16-2015	7/16/2015 5:05:29 PM	13:05:29	2.0.10.248	73	Bar50-50.bmp	53	2	?	10r_4g.bmp	0r_4g.bmp	2r_2g.bmp	0r_2g.bmp		0r_4g.bmp			TrialProc	TrialList	0	cvbn	-999999	16	272307	0	v	56	272363	222	-199	23	-10	0	25	8	3	8	73	-10	0	-2	0	4	4	2	2	0	4
Hungry_Donkey_bar_English_2	121	1	<?xml version="1.0"?>\n<Clock xmlns:dt="urn:schemas-microsoft-com:datatypes"><Description dt:dt="string">E-Prime Primary Realtime Clock</Description><StartTime><Timestamp dt:dt="int">0</Timestamp><DateUtc dt:dt="string">2015-07-16T17:05:29Z</DateUtc></StartTime><FrequencyChanges><FrequencyChange><Frequency dt:dt="r8">3507675</Frequency><Timestamp dt:dt="r8">241908810725</Timestamp><Current dt:dt="r8">0</Current><DateUtc dt:dt="string">2015-07-16T17:05:29Z</DateUtc></FrequencyChange></FrequencyChanges></Clock>\n	Hungry_Donkey_bar_English_2-121-1	60.017	-143	1.0.0.18	1	1391355148	Standard	2.0.10.353	2.0.10.353	07-16-2015	7/16/2015 5:05:29 PM	13:05:29	2.0.10.248	74	Bar50-50.bmp	53	2	?	0r_4g.bmp	0r_4g.bmp	0r_2g.bmp	0r_2g.bmp		0r_4g.bmp			TrialProc	TrialList	0	cvbn	-999999	16	274407	0	v	292	274699	226	-199	27	-10	4	25	8	7	8	74	0	0	0	0	4	4	2	2	0	4
Hungry_Donkey_bar_English_2	121	1	<?xml version="1.0"?>\n<Clock xmlns:dt="urn:schemas-microsoft-com:datatypes"><Description dt:dt="string">E-Prime Primary Realtime Clock</Description><StartTime><Timestamp dt:dt="int">0</Timestamp><DateUtc dt:dt="string">2015-07-16T17:05:29Z</DateUtc></StartTime><FrequencyChanges><FrequencyChange><Frequency dt:dt="r8">3507675</Frequency><Timestamp dt:dt="r8">241908810725</Timestamp><Current dt:dt="r8">0</Current><DateUtc dt:dt="string">2015-07-16T17:05:29Z</DateUtc></FrequencyChange></FrequencyChanges></Clock>\n	Hungry_Donkey_bar_English_2-121-1	60.017	-143	1.0.0.18	1	1391355148	Standard	2.0.10.353	2.0.10.353	07-16-2015	7/16/2015 5:05:29 PM	13:05:29	2.0.10.248	75	Bar50-50.bmp	54	2	?	10r_4g.bmp	0r_4g.bmp	2r_2g.bmp	0r_2g.bmp		0r_4g.bmp			TrialProc	TrialList	0	cvbn	-999999	16	276739	0	v	40	276779	230	-199	31	-10	8	25	8	2	8	75	-10	0	-2	0	4	4	2	2	0	4
Hungry_Donkey_bar_English_2	121	1	<?xml version="1.0"?>\n<Clock xmlns:dt="urn:schemas-microsoft-com:datatypes"><Description dt:dt="string">E-Prime Primary Realtime Clock</Description><StartTime><Timestamp dt:dt="int">0</Timestamp><DateUtc dt:dt="string">2015-07-16T17:05:29Z</DateUtc></StartTime><FrequencyChanges><FrequencyChange><Frequency dt:dt="r8">3507675</Frequency><Timestamp dt:dt="r8">241908810725</Timestamp><Current dt:dt="r8">0</Current><DateUtc dt:dt="string">2015-07-16T17:05:29Z</DateUtc></FrequencyChange></FrequencyChanges></Clock>\n	Hungry_Donkey_bar_English_2-121-1	60.017	-143	1.0.0.18	1	1391355148	Standard	2.0.10.353	2.0.10.353	07-16-2015	7/16/2015 5:05:29 PM	13:05:29	2.0.10.248	76	Bar50-50.bmp	54	2	?	12r_4g.bmp	0r_4g.bmp	3r_2g.bmp	0r_2g.bmp		0r_4g.bmp			TrialProc	TrialList	0	cvbn	-999999	16	278822	0	v	565	279387	234	-199	35	-10	12	25	8	5	8	76	-12	0	-3	0	4	4	2	2	0	4
Hungry_Donkey_bar_English_2	121	1	<?xml version="1.0"?>\n<Clock xmlns:dt="urn:schemas-microsoft-com:datatypes"><Description dt:dt="string">E-Prime Primary Realtime Clock</Description><StartTime><Timestamp dt:dt="int">0</Timestamp><DateUtc dt:dt="string">2015-07-16T17:05:29Z</DateUtc></StartTime><FrequencyChanges><FrequencyChange><Frequency dt:dt="r8">3507675</Frequency><Timestamp dt:dt="r8">241908810725</Timestamp><Current dt:dt="r8">0</Current><DateUtc dt:dt="string">2015-07-16T17:05:29Z</DateUtc></FrequencyChange></FrequencyChanges></Clock>\n	Hungry_Donkey_bar_English_2-121-1	60.017	-143	1.0.0.18	1	1391355148	Standard	2.0.10.353	2.0.10.353	07-16-2015	7/16/2015 5:05:29 PM	13:05:29	2.0.10.248	77	Bar50-50.bmp	49	2	?	8r_4g.bmp	50r_4g.bmp	1r_2g.bmp	10r_2g.bmp		50r_4g.bmp			TrialProc	TrialList	0	cvbn	-999999	16	281421	0	v	382	281803	238	-249	-11	-10	-34	25	8	1	8	77	-8	-50	-1	-10	4	4	2	2	-50	4
Hungry_Donkey_bar_English_2	121	1	<?xml version="1.0"?>\n<Clock xmlns:dt="urn:schemas-microsoft-com:datatypes"><Description dt:dt="string">E-Prime Primary Realtime Clock</Description><StartTime><Timestamp dt:dt="int">0</Timestamp><DateUtc dt:dt="string">2015-07-16T17:05:29Z</DateUtc></StartTime><FrequencyChanges><FrequencyChange><Frequency dt:dt="r8">3507675</Frequency><Timestamp dt:dt="r8">241908810725</Timestamp><Current dt:dt="r8">0</Current><DateUtc dt:dt="string">2015-07-16T17:05:29Z</DateUtc></FrequencyChange></FrequencyChanges></Clock>\n	Hungry_Donkey_bar_English_2-121-1	60.017	-143	1.0.0.18	1	1391355148	Standard	2.0.10.353	2.0.10.353	07-16-2015	7/16/2015 5:05:29 PM	13:05:29	2.0.10.248	78	Bar50-50.bmp	49	2	?	0r_4g.bmp	0r_4g.bmp	0r_2g.bmp	0r_2g.bmp		0r_4g.bmp			TrialProc	TrialList	0	cvbn	-999999	16	283837	0	v	158	283995	242	-249	-7	-10	-30	25	8	9	8	78	0	0	0	0	4	4	2	2	0	4
Hungry_Donkey_bar_English_2	121	1	<?xml version="1.0"?>\n<Clock xmlns:dt="urn:schemas-microsoft-com:datatypes"><Description dt:dt="string">E-Prime Primary Realtime Clock</Description><StartTime><Timestamp dt:dt="int">0</Timestamp><DateUtc dt:dt="string">2015-07-16T17:05:29Z</DateUtc></StartTime><FrequencyChanges><FrequencyChange><Frequency dt:dt="r8">3507675</Frequency><Timestamp dt:dt="r8">241908810725</Timestamp><Current dt:dt="r8">0</Current><DateUtc dt:dt="string">2015-07-16T17:05:29Z</DateUtc></FrequencyChange></FrequencyChanges></Clock>\n	Hungry_Donkey_bar_English_2-121-1	60.017	-143	1.0.0.18	1	1391355148	Standard	2.0.10.353	2.0.10.353	07-16-2015	7/16/2015 5:05:29 PM	13:05:29	2.0.10.248	79	Bar50-50.bmp	49	3	?	0r_4g.bmp	0r_4g.bmp	0r_2g.bmp	0r_2g.bmp			0r_2g.bmp		TrialProc	TrialList	0	cvbn	-999999	16	286037	0	b	262	286299	244	-249	-5	-10	-30	27	8	6	8	79	0	0	0	0	4	4	2	2	0	2
Hungry_Donkey_bar_English_2	121	1	<?xml version="1.0"?>\n<Clock xmlns:dt="urn:schemas-microsoft-com:datatypes"><Description dt:dt="string">E-Prime Primary Realtime Clock</Description><StartTime><Timestamp dt:dt="int">0</Timestamp><DateUtc dt:dt="string">2015-07-16T17:05:29Z</DateUtc></StartTime><FrequencyChanges><FrequencyChange><Frequency dt:dt="r8">3507675</Frequency><Timestamp dt:dt="r8">241908810725</Timestamp><Current dt:dt="r8">0</Current><DateUtc dt:dt="string">2015-07-16T17:05:29Z</DateUtc></FrequencyChange></FrequencyChanges></Clock>\n	Hungry_Donkey_bar_English_2-121-1	60.017	-143	1.0.0.18	1	1391355148	Standard	2.0.10.353	2.0.10.353	07-16-2015	7/16/2015 5:05:29 PM	13:05:29	2.0.10.248	80	Bar50-50.bmp	50	2	?	10r_4g.bmp	0r_4g.bmp	2r_2g.bmp	0r_2g.bmp		0r_4g.bmp			TrialProc	TrialList	0	cvbn	-999999	16	288336	0	v	458	288794	248	-249	-1	-10	-26	27	8	4	8	80	-10	0	-2	0	4	4	2	2	0	4
Hungry_Donkey_bar_English_2	121	1	<?xml version="1.0"?>\n<Clock xmlns:dt="urn:schemas-microsoft-com:datatypes"><Description dt:dt="string">E-Prime Primary Realtime Clock</Description><StartTime><Timestamp dt:dt="int">0</Timestamp><DateUtc dt:dt="string">2015-07-16T17:05:29Z</DateUtc></StartTime><FrequencyChanges><FrequencyChange><Frequency dt:dt="r8">3507675</Frequency><Timestamp dt:dt="r8">241908810725</Timestamp><Current dt:dt="r8">0</Current><DateUtc dt:dt="string">2015-07-16T17:05:29Z</DateUtc></FrequencyChange></FrequencyChanges></Clock>\n	Hungry_Donkey_bar_English_2-121-1	60.017	-143	1.0.0.18	1	1391355148	Standard	2.0.10.353	2.0.10.353	07-16-2015	7/16/2015 5:05:29 PM	13:05:29	2.0.10.248	81	Bar50-50.bmp	50	3	?	0r_4g.bmp	0r_4g.bmp	0r_2g.bmp	0r_2g.bmp			0r_2g.bmp		TrialProc	TrialList	0	cvbn	-999999	16	290835	0	b	263	291098	250	-249	1	-10	-26	29	8	10	9	81	0	0	0	0	4	4	2	2	0	2
Hungry_Donkey_bar_English_2	121	1	<?xml version="1.0"?>\n<Clock xmlns:dt="urn:schemas-microsoft-com:datatypes"><Description dt:dt="string">E-Prime Primary Realtime Clock</Description><StartTime><Timestamp dt:dt="int">0</Timestamp><DateUtc dt:dt="string">2015-07-16T17:05:29Z</DateUtc></StartTime><FrequencyChanges><FrequencyChange><Frequency dt:dt="r8">3507675</Frequency><Timestamp dt:dt="r8">241908810725</Timestamp><Current dt:dt="r8">0</Current><DateUtc dt:dt="string">2015-07-16T17:05:29Z</DateUtc></FrequencyChange></FrequencyChanges></Clock>\n	Hungry_Donkey_bar_English_2-121-1	60.017	-143	1.0.0.18	1	1391355148	Standard	2.0.10.353	2.0.10.353	07-16-2015	7/16/2015 5:05:29 PM	13:05:29	2.0.10.248	82	Bar50-50.bmp	46	2	?	8r_4g.bmp	50r_4g.bmp	1r_2g.bmp	10r_2g.bmp		50r_4g.bmp			TrialProc	TrialList	0	cvbn	-999999	16	293135	0	v	331	293466	254	-299	-45	-10	-72	29	8	1	9	82	-8	-50	-1	-10	4	4	2	2	-50	4
Hungry_Donkey_bar_English_2	121	1	<?xml version="1.0"?>\n<Clock xmlns:dt="urn:schemas-microsoft-com:datatypes"><Description dt:dt="string">E-Prime Primary Realtime Clock</Description><StartTime><Timestamp dt:dt="int">0</Timestamp><DateUtc dt:dt="string">2015-07-16T17:05:29Z</DateUtc></StartTime><FrequencyChanges><FrequencyChange><Frequency dt:dt="r8">3507675</Frequency><Timestamp dt:dt="r8">241908810725</Timestamp><Current dt:dt="r8">0</Current><DateUtc dt:dt="string">2015-07-16T17:05:29Z</DateUtc></FrequencyChange></FrequencyChanges></Clock>\n	Hungry_Donkey_bar_English_2-121-1	60.017	-143	1.0.0.18	1	1391355148	Standard	2.0.10.353	2.0.10.353	07-16-2015	7/16/2015 5:05:29 PM	13:05:29	2.0.10.248	83	Bar50-50.bmp	46	3	?	12r_4g.bmp	0r_4g.bmp	3r_2g.bmp	0r_2g.bmp			3r_2g.bmp		TrialProc	TrialList	0	cvbn	-999999	17	295501	0	b	13	295514	256	-302	-46	-10	-72	28	8	5	9	83	-12	0	-3	0	4	4	2	2	-3	2
Hungry_Donkey_bar_English_2	121	1	<?xml version="1.0"?>\n<Clock xmlns:dt="urn:schemas-microsoft-com:datatypes"><Description dt:dt="string">E-Prime Primary Realtime Clock</Description><StartTime><Timestamp dt:dt="int">0</Timestamp><DateUtc dt:dt="string">2015-07-16T17:05:29Z</DateUtc></StartTime><FrequencyChanges><FrequencyChange><Frequency dt:dt="r8">3507675</Frequency><Timestamp dt:dt="r8">241908810725</Timestamp><Current dt:dt="r8">0</Current><DateUtc dt:dt="string">2015-07-16T17:05:29Z</DateUtc></FrequencyChange></FrequencyChanges></Clock>\n	Hungry_Donkey_bar_English_2-121-1	60.017	-143	1.0.0.18	1	1391355148	Standard	2.0.10.353	2.0.10.353	07-16-2015	7/16/2015 5:05:29 PM	13:05:29	2.0.10.248	84	Bar50-50.bmp	46	2	?	0r_4g.bmp	0r_4g.bmp	0r_2g.bmp	0r_2g.bmp		0r_4g.bmp			TrialProc	TrialList	0	cvbn	-999999	16	297550	0	v	396	297946	260	-302	-42	-10	-68	28	8	7	9	84	0	0	0	0	4	4	2	2	0	4
Hungry_Donkey_bar_English_2	121	1	<?xml version="1.0"?>\n<Clock xmlns:dt="urn:schemas-microsoft-com:datatypes"><Description dt:dt="string">E-Prime Primary Realtime Clock</Description><StartTime><Timestamp dt:dt="int">0</Timestamp><DateUtc dt:dt="string">2015-07-16T17:05:29Z</DateUtc></StartTime><FrequencyChanges><FrequencyChange><Frequency dt:dt="r8">3507675</Frequency><Timestamp dt:dt="r8">241908810725</Timestamp><Current dt:dt="r8">0</Current><DateUtc dt:dt="string">2015-07-16T17:05:29Z</DateUtc></FrequencyChange></FrequencyChanges></Clock>\n	Hungry_Donkey_bar_English_2-121-1	60.017	-143	1.0.0.18	1	1391355148	Standard	2.0.10.353	2.0.10.353	07-16-2015	7/16/2015 5:05:29 PM	13:05:29	2.0.10.248	85	Bar50-50.bmp	46	3	?	10r_4g.bmp	0r_4g.bmp	2r_2g.bmp	0r_2g.bmp			2r_2g.bmp		TrialProc	TrialList	0	cvbn	-999999	16	299983	0	b	395	300378	262	-304	-42	-10	-68	28	8	2	9	85	-10	0	-2	0	4	4	2	2	-2	2
Hungry_Donkey_bar_English_2	121	1	<?xml version="1.0"?>\n<Clock xmlns:dt="urn:schemas-microsoft-com:datatypes"><Description dt:dt="string">E-Prime Primary Realtime Clock</Description><StartTime><Timestamp dt:dt="int">0</Timestamp><DateUtc dt:dt="string">2015-07-16T17:05:29Z</DateUtc></StartTime><FrequencyChanges><FrequencyChange><Frequency dt:dt="r8">3507675</Frequency><Timestamp dt:dt="r8">241908810725</Timestamp><Current dt:dt="r8">0</Current><DateUtc dt:dt="string">2015-07-16T17:05:29Z</DateUtc></FrequencyChange></FrequencyChanges></Clock>\n	Hungry_Donkey_bar_English_2-121-1	60.017	-143	1.0.0.18	1	1391355148	Standard	2.0.10.353	2.0.10.353	07-16-2015	7/16/2015 5:05:29 PM	13:05:29	2.0.10.248	86	Bar50-50.bmp	47	2	?	0r_4g.bmp	0r_4g.bmp	0r_2g.bmp	0r_2g.bmp		0r_4g.bmp			TrialProc	TrialList	0	cvbn	-999999	16	302415	0	v	139	302554	266	-304	-38	-10	-64	28	8	9	9	86	0	0	0	0	4	4	2	2	0	4
Hungry_Donkey_bar_English_2	121	1	<?xml version="1.0"?>\n<Clock xmlns:dt="urn:schemas-microsoft-com:datatypes"><Description dt:dt="string">E-Prime Primary Realtime Clock</Description><StartTime><Timestamp dt:dt="int">0</Timestamp><DateUtc dt:dt="string">2015-07-16T17:05:29Z</DateUtc></StartTime><FrequencyChanges><FrequencyChange><Frequency dt:dt="r8">3507675</Frequency><Timestamp dt:dt="r8">241908810725</Timestamp><Current dt:dt="r8">0</Current><DateUtc dt:dt="string">2015-07-16T17:05:29Z</DateUtc></FrequencyChange></FrequencyChanges></Clock>\n	Hungry_Donkey_bar_English_2-121-1	60.017	-143	1.0.0.18	1	1391355148	Standard	2.0.10.353	2.0.10.353	07-16-2015	7/16/2015 5:05:29 PM	13:05:29	2.0.10.248	87	Bar50-50.bmp	47	3	?	0r_4g.bmp	0r_4g.bmp	0r_2g.bmp	0r_2g.bmp			0r_2g.bmp		TrialProc	TrialList	0	cvbn	-999999	16	304581	0	b	437	305018	268	-304	-36	-10	-64	30	8	8	9	87	0	0	0	0	4	4	2	2	0	2
Hungry_Donkey_bar_English_2	121	1	<?xml version="1.0"?>\n<Clock xmlns:dt="urn:schemas-microsoft-com:datatypes"><Description dt:dt="string">E-Prime Primary Realtime Clock</Description><StartTime><Timestamp dt:dt="int">0</Timestamp><DateUtc dt:dt="string">2015-07-16T17:05:29Z</DateUtc></StartTime><FrequencyChanges><FrequencyChange><Frequency dt:dt="r8">3507675</Frequency><Timestamp dt:dt="r8">241908810725</Timestamp><Current dt:dt="r8">0</Current><DateUtc dt:dt="string">2015-07-16T17:05:29Z</DateUtc></FrequencyChange></FrequencyChanges></Clock>\n	Hungry_Donkey_bar_English_2-121-1	60.017	-143	1.0.0.18	1	1391355148	Standard	2.0.10.353	2.0.10.353	07-16-2015	7/16/2015 5:05:29 PM	13:05:29	2.0.10.248	88	Bar50-50.bmp	47	2	?	0r_4g.bmp	0r_4g.bmp	0r_2g.bmp	0r_2g.bmp		0r_4g.bmp			TrialProc	TrialList	0	cvbn	-999999	16	307047	0	v	323	307370	272	-304	-32	-10	-60	30	8	6	9	88	0	0	0	0	4	4	2	2	0	4
Hungry_Donkey_bar_English_2	121	1	<?xml version="1.0"?>\n<Clock xmlns:dt="urn:schemas-microsoft-com:datatypes"><Description dt:dt="string">E-Prime Primary Realtime Clock</Description><StartTime><Timestamp dt:dt="int">0</Timestamp><DateUtc dt:dt="string">2015-07-16T17:05:29Z</DateUtc></StartTime><FrequencyChanges><FrequencyChange><Frequency dt:dt="r8">3507675</Frequency><Timestamp dt:dt="r8">241908810725</Timestamp><Current dt:dt="r8">0</Current><DateUtc dt:dt="string">2015-07-16T17:05:29Z</DateUtc></FrequencyChange></FrequencyChanges></Clock>\n	Hungry_Donkey_bar_English_2-121-1	60.017	-143	1.0.0.18	1	1391355148	Standard	2.0.10.353	2.0.10.353	07-16-2015	7/16/2015 5:05:29 PM	13:05:29	2.0.10.248	89	Bar50-50.bmp	48	2	?	10r_4g.bmp	0r_4g.bmp	2r_2g.bmp	0r_2g.bmp		0r_4g.bmp			TrialProc	TrialList	0	cvbn	-999999	16	309397	0	v	276	309673	276	-304	-28	-10	-56	30	8	4	9	89	-10	0	-2	0	4	4	2	2	0	4
Hungry_Donkey_bar_English_2	121	1	<?xml version="1.0"?>\n<Clock xmlns:dt="urn:schemas-microsoft-com:datatypes"><Description dt:dt="string">E-Prime Primary Realtime Clock</Description><StartTime><Timestamp dt:dt="int">0</Timestamp><DateUtc dt:dt="string">2015-07-16T17:05:29Z</DateUtc></StartTime><FrequencyChanges><FrequencyChange><Frequency dt:dt="r8">3507675</Frequency><Timestamp dt:dt="r8">241908810725</Timestamp><Current dt:dt="r8">0</Current><DateUtc dt:dt="string">2015-07-16T17:05:29Z</DateUtc></FrequencyChange></FrequencyChanges></Clock>\n	Hungry_Donkey_bar_English_2-121-1	60.017	-143	1.0.0.18	1	1391355148	Standard	2.0.10.353	2.0.10.353	07-16-2015	7/16/2015 5:05:29 PM	13:05:29	2.0.10.248	90	Bar50-50.bmp	48	2	?	10r_4g.bmp	0r_4g.bmp	2r_2g.bmp	0r_2g.bmp		0r_4g.bmp			TrialProc	TrialList	0	cvbn	-999999	16	311713	0	v	280	311993	280	-304	-24	-10	-52	30	8	3	9	90	-10	0	-2	0	4	4	2	2	0	4
Hungry_Donkey_bar_English_2	121	1	<?xml version="1.0"?>\n<Clock xmlns:dt="urn:schemas-microsoft-com:datatypes"><Description dt:dt="string">E-Prime Primary Realtime Clock</Description><StartTime><Timestamp dt:dt="int">0</Timestamp><DateUtc dt:dt="string">2015-07-16T17:05:29Z</DateUtc></StartTime><FrequencyChanges><FrequencyChange><Frequency dt:dt="r8">3507675</Frequency><Timestamp dt:dt="r8">241908810725</Timestamp><Current dt:dt="r8">0</Current><DateUtc dt:dt="string">2015-07-16T17:05:29Z</DateUtc></FrequencyChange></FrequencyChanges></Clock>\n	Hungry_Donkey_bar_English_2-121-1	60.017	-143	1.0.0.18	1	1391355148	Standard	2.0.10.353	2.0.10.353	07-16-2015	7/16/2015 5:05:29 PM	13:05:29	2.0.10.248	91	Bar50-50.bmp	48	2	?	0r_4g.bmp	0r_4g.bmp	0r_2g.bmp	0r_2g.bmp		0r_4g.bmp			TrialProc	TrialList	0	cvbn	-999999	16	314029	0	v	364	314393	284	-304	-20	-10	-48	30	8	9	10	91	0	0	0	0	4	4	2	2	0	4
Hungry_Donkey_bar_English_2	121	1	<?xml version="1.0"?>\n<Clock xmlns:dt="urn:schemas-microsoft-com:datatypes"><Description dt:dt="string">E-Prime Primary Realtime Clock</Description><StartTime><Timestamp dt:dt="int">0</Timestamp><DateUtc dt:dt="string">2015-07-16T17:05:29Z</DateUtc></StartTime><FrequencyChanges><FrequencyChange><Frequency dt:dt="r8">3507675</Frequency><Timestamp dt:dt="r8">241908810725</Timestamp><Current dt:dt="r8">0</Current><DateUtc dt:dt="string">2015-07-16T17:05:29Z</DateUtc></FrequencyChange></FrequencyChanges></Clock>\n	Hungry_Donkey_bar_English_2-121-1	60.017	-143	1.0.0.18	1	1391355148	Standard	2.0.10.353	2.0.10.353	07-16-2015	7/16/2015 5:05:29 PM	13:05:29	2.0.10.248	92	Bar50-50.bmp	49	2	?	10r_4g.bmp	0r_4g.bmp	2r_2g.bmp	0r_2g.bmp		0r_4g.bmp			TrialProc	TrialList	0	cvbn	-999999	16	316428	0	v	285	316713	288	-304	-16	-10	-44	30	8	3	10	92	-10	0	-2	0	4	4	2	2	0	4
Hungry_Donkey_bar_English_2	121	1	<?xml version="1.0"?>\n<Clock xmlns:dt="urn:schemas-microsoft-com:datatypes"><Description dt:dt="string">E-Prime Primary Realtime Clock</Description><StartTime><Timestamp dt:dt="int">0</Timestamp><DateUtc dt:dt="string">2015-07-16T17:05:29Z</DateUtc></StartTime><FrequencyChanges><FrequencyChange><Frequency dt:dt="r8">3507675</Frequency><Timestamp dt:dt="r8">241908810725</Timestamp><Current dt:dt="r8">0</Current><DateUtc dt:dt="string">2015-07-16T17:05:29Z</DateUtc></FrequencyChange></FrequencyChanges></Clock>\n	Hungry_Donkey_bar_English_2-121-1	60.017	-143	1.0.0.18	1	1391355148	Standard	2.0.10.353	2.0.10.353	07-16-2015	7/16/2015 5:05:29 PM	13:05:29	2.0.10.248	93	Bar50-50.bmp	49	2	?	10r_4g.bmp	0r_4g.bmp	2r_2g.bmp	0r_2g.bmp		0r_4g.bmp			TrialProc	TrialList	0	cvbn	-999999	16	318744	0	v	609	319353	292	-304	-12	-10	-40	30	8	4	10	93	-10	0	-2	0	4	4	2	2	0	4
Hungry_Donkey_bar_English_2	121	1	<?xml version="1.0"?>\n<Clock xmlns:dt="urn:schemas-microsoft-com:datatypes"><Description dt:dt="string">E-Prime Primary Realtime Clock</Description><StartTime><Timestamp dt:dt="int">0</Timestamp><DateUtc dt:dt="string">2015-07-16T17:05:29Z</DateUtc></StartTime><FrequencyChanges><FrequencyChange><Frequency dt:dt="r8">3507675</Frequency><Timestamp dt:dt="r8">241908810725</Timestamp><Current dt:dt="r8">0</Current><DateUtc dt:dt="string">2015-07-16T17:05:29Z</DateUtc></FrequencyChange></FrequencyChanges></Clock>\n	Hungry_Donkey_bar_English_2-121-1	60.017	-143	1.0.0.18	1	1391355148	Standard	2.0.10.353	2.0.10.353	07-16-2015	7/16/2015 5:05:29 PM	13:05:29	2.0.10.248	94	Bar50-50.bmp	46	2	?	8r_4g.bmp	50r_4g.bmp	1r_2g.bmp	10r_2g.bmp		50r_4g.bmp			TrialProc	TrialList	0	cvbn	-999999	16	321393	0	v	200	321593	296	-354	-58	-10	-86	30	8	1	10	94	-8	-50	-1	-10	4	4	2	2	-50	4
Hungry_Donkey_bar_English_2	121	1	<?xml version="1.0"?>\n<Clock xmlns:dt="urn:schemas-microsoft-com:datatypes"><Description dt:dt="string">E-Prime Primary Realtime Clock</Description><StartTime><Timestamp dt:dt="int">0</Timestamp><DateUtc dt:dt="string">2015-07-16T17:05:29Z</DateUtc></StartTime><FrequencyChanges><FrequencyChange><Frequency dt:dt="r8">3507675</Frequency><Timestamp dt:dt="r8">241908810725</Timestamp><Current dt:dt="r8">0</Current><DateUtc dt:dt="string">2015-07-16T17:05:29Z</DateUtc></FrequencyChange></FrequencyChanges></Clock>\n	Hungry_Donkey_bar_English_2-121-1	60.017	-143	1.0.0.18	1	1391355148	Standard	2.0.10.353	2.0.10.353	07-16-2015	7/16/2015 5:05:29 PM	13:05:29	2.0.10.248	95	Bar50-50.bmp	46	3	?	10r_4g.bmp	0r_4g.bmp	2r_2g.bmp	0r_2g.bmp			2r_2g.bmp		TrialProc	TrialList	0	cvbn	-999999	16	323626	0	b	719	324345	298	-356	-58	-10	-86	30	8	2	10	95	-10	0	-2	0	4	4	2	2	-2	2
Hungry_Donkey_bar_English_2	121	1	<?xml version="1.0"?>\n<Clock xmlns:dt="urn:schemas-microsoft-com:datatypes"><Description dt:dt="string">E-Prime Primary Realtime Clock</Description><StartTime><Timestamp dt:dt="int">0</Timestamp><DateUtc dt:dt="string">2015-07-16T17:05:29Z</DateUtc></StartTime><FrequencyChanges><FrequencyChange><Frequency dt:dt="r8">3507675</Frequency><Timestamp dt:dt="r8">241908810725</Timestamp><Current dt:dt="r8">0</Current><DateUtc dt:dt="string">2015-07-16T17:05:29Z</DateUtc></FrequencyChange></FrequencyChanges></Clock>\n	Hungry_Donkey_bar_English_2-121-1	60.017	-143	1.0.0.18	1	1391355148	Standard	2.0.10.353	2.0.10.353	07-16-2015	7/16/2015 5:05:29 PM	13:05:29	2.0.10.248	96	Bar50-50.bmp	46	2	?	12r_4g.bmp	0r_4g.bmp	3r_2g.bmp	0r_2g.bmp		0r_4g.bmp			TrialProc	TrialList	0	cvbn	-999999	16	326375	0	v	242	326617	302	-356	-54	-10	-82	30	8	5	10	96	-12	0	-3	0	4	4	2	2	0	4
Hungry_Donkey_bar_English_2	121	1	<?xml version="1.0"?>\n<Clock xmlns:dt="urn:schemas-microsoft-com:datatypes"><Description dt:dt="string">E-Prime Primary Realtime Clock</Description><StartTime><Timestamp dt:dt="int">0</Timestamp><DateUtc dt:dt="string">2015-07-16T17:05:29Z</DateUtc></StartTime><FrequencyChanges><FrequencyChange><Frequency dt:dt="r8">3507675</Frequency><Timestamp dt:dt="r8">241908810725</Timestamp><Current dt:dt="r8">0</Current><DateUtc dt:dt="string">2015-07-16T17:05:29Z</DateUtc></FrequencyChange></FrequencyChanges></Clock>\n	Hungry_Donkey_bar_English_2-121-1	60.017	-143	1.0.0.18	1	1391355148	Standard	2.0.10.353	2.0.10.353	07-16-2015	7/16/2015 5:05:29 PM	13:05:29	2.0.10.248	97	Bar50-50.bmp	46	2	?	0r_4g.bmp	0r_4g.bmp	0r_2g.bmp	0r_2g.bmp		0r_4g.bmp			TrialProc	TrialList	0	cvbn	-999999	15	328641	0	v	343	328984	306	-356	-50	-10	-78	30	8	8	10	97	0	0	0	0	4	4	2	2	0	4
Hungry_Donkey_bar_English_2	121	1	<?xml version="1.0"?>\n<Clock xmlns:dt="urn:schemas-microsoft-com:datatypes"><Description dt:dt="string">E-Prime Primary Realtime Clock</Description><StartTime><Timestamp dt:dt="int">0</Timestamp><DateUtc dt:dt="string">2015-07-16T17:05:29Z</DateUtc></StartTime><FrequencyChanges><FrequencyChange><Frequency dt:dt="r8">3507675</Frequency><Timestamp dt:dt="r8">241908810725</Timestamp><Current dt:dt="r8">0</Current><DateUtc dt:dt="string">2015-07-16T17:05:29Z</DateUtc></FrequencyChange></FrequencyChanges></Clock>\n	Hungry_Donkey_bar_English_2-121-1	60.017	-143	1.0.0.18	1	1391355148	Standard	2.0.10.353	2.0.10.353	07-16-2015	7/16/2015 5:05:29 PM	13:05:29	2.0.10.248	98	Bar50-50.bmp	47	2	?	0r_4g.bmp	0r_4g.bmp	0r_2g.bmp	0r_2g.bmp		0r_4g.bmp			TrialProc	TrialList	0	cvbn	-999999	16	331024	0	v	376	331400	310	-356	-46	-10	-74	30	8	10	10	98	0	0	0	0	4	4	2	2	0	4
Hungry_Donkey_bar_English_2	121	1	<?xml version="1.0"?>\n<Clock xmlns:dt="urn:schemas-microsoft-com:datatypes"><Description dt:dt="string">E-Prime Primary Realtime Clock</Description><StartTime><Timestamp dt:dt="int">0</Timestamp><DateUtc dt:dt="string">2015-07-16T17:05:29Z</DateUtc></StartTime><FrequencyChanges><FrequencyChange><Frequency dt:dt="r8">3507675</Frequency><Timestamp dt:dt="r8">241908810725</Timestamp><Current dt:dt="r8">0</Current><DateUtc dt:dt="string">2015-07-16T17:05:29Z</DateUtc></FrequencyChange></FrequencyChanges></Clock>\n	Hungry_Donkey_bar_English_2-121-1	60.017	-143	1.0.0.18	1	1391355148	Standard	2.0.10.353	2.0.10.353	07-16-2015	7/16/2015 5:05:29 PM	13:05:29	2.0.10.248	99	Bar50-50.bmp	47	1	?	0r_4g.bmp	0r_4g.bmp	0r_2g.bmp	0r_2g.bmp	0r_4g.bmp				TrialProc	TrialList	0	cvbn	-999999	16	333440	0	c	408	333848	314	-356	-42	-6	-74	30	8	7	10	99	0	0	0	0	4	4	2	2	0	4
Hungry_Donkey_bar_English_2	121	1	<?xml version="1.0"?>\n<Clock xmlns:dt="urn:schemas-microsoft-com:datatypes"><Description dt:dt="string">E-Prime Primary Realtime Clock</Description><StartTime><Timestamp dt:dt="int">0</Timestamp><DateUtc dt:dt="string">2015-07-16T17:05:29Z</DateUtc></StartTime><FrequencyChanges><FrequencyChange><Frequency dt:dt="r8">3507675</Frequency><Timestamp dt:dt="r8">241908810725</Timestamp><Current dt:dt="r8">0</Current><DateUtc dt:dt="string">2015-07-16T17:05:29Z</DateUtc></FrequencyChange></FrequencyChanges></Clock>\n	Hungry_Donkey_bar_English_2-121-1	60.017	-143	1.0.0.18	1	1391355148	Standard	2.0.10.353	2.0.10.353	07-16-2015	7/16/2015 5:05:29 PM	13:05:29	2.0.10.248	100	Bar50-50.bmp	47	4	?	0r_4g.bmp	0r_4g.bmp	0r_2g.bmp	0r_2g.bmp				0r_2g.bmp	TrialProc	TrialList	0	cvbn	-999999	16	335889	0	n	327	336216	316	-356	-40	-6	-74	30	10	6	10	100	0	0	0	0	4	4	2	2	0	2
Hungry_Donkey_bar_English_2	121	1	<?xml version="1.0"?>\n<Clock xmlns:dt="urn:schemas-microsoft-com:datatypes"><Description dt:dt="string">E-Prime Primary Realtime Clock</Description><StartTime><Timestamp dt:dt="int">0</Timestamp><DateUtc dt:dt="string">2015-07-16T17:05:29Z</DateUtc></StartTime><FrequencyChanges><FrequencyChange><Frequency dt:dt="r8">3507675</Frequency><Timestamp dt:dt="r8">241908810725</Timestamp><Current dt:dt="r8">0</Current><DateUtc dt:dt="string">2015-07-16T17:05:29Z</DateUtc></FrequencyChange></FrequencyChanges></Clock>\n	Hungry_Donkey_bar_English_2-121-1	60.017	-143	1.0.0.18	1	1391355148	Standard	2.0.10.353	2.0.10.353	07-16-2015	7/16/2015 5:05:29 PM	13:05:29	2.0.10.248	101	Bar50-50.bmp	47	2	?	0r_4g.bmp	0r_4g.bmp	0r_2g.bmp	0r_2g.bmp		0r_4g.bmp			TrialProc	TrialList	0	cvbn	-999999	16	338255	0	v	393	338648	320	-356	-36	-6	-70	30	10	7	11	101	0	0	0	0	4	4	2	2	0	4
Hungry_Donkey_bar_English_2	121	1	<?xml version="1.0"?>\n<Clock xmlns:dt="urn:schemas-microsoft-com:datatypes"><Description dt:dt="string">E-Prime Primary Realtime Clock</Description><StartTime><Timestamp dt:dt="int">0</Timestamp><DateUtc dt:dt="string">2015-07-16T17:05:29Z</DateUtc></StartTime><FrequencyChanges><FrequencyChange><Frequency dt:dt="r8">3507675</Frequency><Timestamp dt:dt="r8">241908810725</Timestamp><Current dt:dt="r8">0</Current><DateUtc dt:dt="string">2015-07-16T17:05:29Z</DateUtc></FrequencyChange></FrequencyChanges></Clock>\n	Hungry_Donkey_bar_English_2-121-1	60.017	-143	1.0.0.18	1	1391355148	Standard	2.0.10.353	2.0.10.353	07-16-2015	7/16/2015 5:05:29 PM	13:05:29	2.0.10.248	102	Bar50-50.bmp	47	3	?	10r_4g.bmp	0r_4g.bmp	2r_2g.bmp	0r_2g.bmp			2r_2g.bmp		TrialProc	TrialList	0	cvbn	-999999	16	340688	0	b	264	340952	322	-358	-36	-6	-70	30	10	2	11	102	-10	0	-2	0	4	4	2	2	-2	2
Hungry_Donkey_bar_English_2	121	1	<?xml version="1.0"?>\n<Clock xmlns:dt="urn:schemas-microsoft-com:datatypes"><Description dt:dt="string">E-Prime Primary Realtime Clock</Description><StartTime><Timestamp dt:dt="int">0</Timestamp><DateUtc dt:dt="string">2015-07-16T17:05:29Z</DateUtc></StartTime><FrequencyChanges><FrequencyChange><Frequency dt:dt="r8">3507675</Frequency><Timestamp dt:dt="r8">241908810725</Timestamp><Current dt:dt="r8">0</Current><DateUtc dt:dt="string">2015-07-16T17:05:29Z</DateUtc></FrequencyChange></FrequencyChanges></Clock>\n	Hungry_Donkey_bar_English_2-121-1	60.017	-143	1.0.0.18	1	1391355148	Standard	2.0.10.353	2.0.10.353	07-16-2015	7/16/2015 5:05:29 PM	13:05:29	2.0.10.248	103	Bar50-50.bmp	47	1	?	10r_4g.bmp	0r_4g.bmp	2r_2g.bmp	0r_2g.bmp	10r_4g.bmp				TrialProc	TrialList	0	cvbn	-999999	16	342987	0	c	173	343160	326	-368	-42	-12	-70	30	10	4	11	103	-10	0	-2	0	4	4	2	2	-10	4
Hungry_Donkey_bar_English_2	121	1	<?xml version="1.0"?>\n<Clock xmlns:dt="urn:schemas-microsoft-com:datatypes"><Description dt:dt="string">E-Prime Primary Realtime Clock</Description><StartTime><Timestamp dt:dt="int">0</Timestamp><DateUtc dt:dt="string">2015-07-16T17:05:29Z</DateUtc></StartTime><FrequencyChanges><FrequencyChange><Frequency dt:dt="r8">3507675</Frequency><Timestamp dt:dt="r8">241908810725</Timestamp><Current dt:dt="r8">0</Current><DateUtc dt:dt="string">2015-07-16T17:05:29Z</DateUtc></FrequencyChange></FrequencyChanges></Clock>\n	Hungry_Donkey_bar_English_2-121-1	60.017	-143	1.0.0.18	1	1391355148	Standard	2.0.10.353	2.0.10.353	07-16-2015	7/16/2015 5:05:29 PM	13:05:29	2.0.10.248	104	Bar50-50.bmp	46	4	?	8r_4g.bmp	50r_4g.bmp	1r_2g.bmp	10r_2g.bmp				10r_2g.bmp	TrialProc	TrialList	0	cvbn	-999999	16	345220	0	n	1316	346536	328	-378	-50	-12	-70	30	2	1	11	104	-8	-50	-1	-10	4	4	2	2	-10	2
Hungry_Donkey_bar_English_2	121	1	<?xml version="1.0"?>\n<Clock xmlns:dt="urn:schemas-microsoft-com:datatypes"><Description dt:dt="string">E-Prime Primary Realtime Clock</Description><StartTime><Timestamp dt:dt="int">0</Timestamp><DateUtc dt:dt="string">2015-07-16T17:05:29Z</DateUtc></StartTime><FrequencyChanges><FrequencyChange><Frequency dt:dt="r8">3507675</Frequency><Timestamp dt:dt="r8">241908810725</Timestamp><Current dt:dt="r8">0</Current><DateUtc dt:dt="string">2015-07-16T17:05:29Z</DateUtc></FrequencyChange></FrequencyChanges></Clock>\n	Hungry_Donkey_bar_English_2-121-1	60.017	-143	1.0.0.18	1	1391355148	Standard	2.0.10.353	2.0.10.353	07-16-2015	7/16/2015 5:05:29 PM	13:05:29	2.0.10.248	105	Bar50-50.bmp	47	3	?	0r_4g.bmp	0r_4g.bmp	0r_2g.bmp	0r_2g.bmp			0r_2g.bmp		TrialProc	TrialList	0	cvbn	-999999	16	348569	0	b	335	348904	330	-378	-48	-12	-70	32	2	6	11	105	0	0	0	0	4	4	2	2	0	2
Hungry_Donkey_bar_English_2	121	1	<?xml version="1.0"?>\n<Clock xmlns:dt="urn:schemas-microsoft-com:datatypes"><Description dt:dt="string">E-Prime Primary Realtime Clock</Description><StartTime><Timestamp dt:dt="int">0</Timestamp><DateUtc dt:dt="string">2015-07-16T17:05:29Z</DateUtc></StartTime><FrequencyChanges><FrequencyChange><Frequency dt:dt="r8">3507675</Frequency><Timestamp dt:dt="r8">241908810725</Timestamp><Current dt:dt="r8">0</Current><DateUtc dt:dt="string">2015-07-16T17:05:29Z</DateUtc></FrequencyChange></FrequencyChanges></Clock>\n	Hungry_Donkey_bar_English_2-121-1	60.017	-143	1.0.0.18	1	1391355148	Standard	2.0.10.353	2.0.10.353	07-16-2015	7/16/2015 5:05:29 PM	13:05:29	2.0.10.248	106	Bar50-50.bmp	47	2	?	12r_4g.bmp	0r_4g.bmp	3r_2g.bmp	0r_2g.bmp		0r_4g.bmp			TrialProc	TrialList	0	cvbn	-999999	16	350935	0	v	288	351223	334	-378	-44	-12	-66	32	2	5	11	106	-12	0	-3	0	4	4	2	2	0	4
Hungry_Donkey_bar_English_2	121	1	<?xml version="1.0"?>\n<Clock xmlns:dt="urn:schemas-microsoft-com:datatypes"><Description dt:dt="string">E-Prime Primary Realtime Clock</Description><StartTime><Timestamp dt:dt="int">0</Timestamp><DateUtc dt:dt="string">2015-07-16T17:05:29Z</DateUtc></StartTime><FrequencyChanges><FrequencyChange><Frequency dt:dt="r8">3507675</Frequency><Timestamp dt:dt="r8">241908810725</Timestamp><Current dt:dt="r8">0</Current><DateUtc dt:dt="string">2015-07-16T17:05:29Z</DateUtc></FrequencyChange></FrequencyChanges></Clock>\n	Hungry_Donkey_bar_English_2-121-1	60.017	-143	1.0.0.18	1	1391355148	Standard	2.0.10.353	2.0.10.353	07-16-2015	7/16/2015 5:05:29 PM	13:05:29	2.0.10.248	107	Bar50-50.bmp	47	2	?	10r_4g.bmp	0r_4g.bmp	2r_2g.bmp	0r_2g.bmp		0r_4g.bmp			TrialProc	TrialList	0	cvbn	-999999	16	353251	0	v	292	353543	338	-378	-40	-12	-62	32	2	3	11	107	-10	0	-2	0	4	4	2	2	0	4
Hungry_Donkey_bar_English_2	121	1	<?xml version="1.0"?>\n<Clock xmlns:dt="urn:schemas-microsoft-com:datatypes"><Description dt:dt="string">E-Prime Primary Realtime Clock</Description><StartTime><Timestamp dt:dt="int">0</Timestamp><DateUtc dt:dt="string">2015-07-16T17:05:29Z</DateUtc></StartTime><FrequencyChanges><FrequencyChange><Frequency dt:dt="r8">3507675</Frequency><Timestamp dt:dt="r8">241908810725</Timestamp><Current dt:dt="r8">0</Current><DateUtc dt:dt="string">2015-07-16T17:05:29Z</DateUtc></FrequencyChange></FrequencyChanges></Clock>\n	Hungry_Donkey_bar_English_2-121-1	60.017	-143	1.0.0.18	1	1391355148	Standard	2.0.10.353	2.0.10.353	07-16-2015	7/16/2015 5:05:29 PM	13:05:29	2.0.10.248	108	Bar50-50.bmp	48	2	?	0r_4g.bmp	0r_4g.bmp	0r_2g.bmp	0r_2g.bmp		0r_4g.bmp			TrialProc	TrialList	0	cvbn	-999999	16	355583	0	v	168	355751	342	-378	-36	-12	-58	32	2	9	11	108	0	0	0	0	4	4	2	2	0	4
Hungry_Donkey_bar_English_2	121	1	<?xml version="1.0"?>\n<Clock xmlns:dt="urn:schemas-microsoft-com:datatypes"><Description dt:dt="string">E-Prime Primary Realtime Clock</Description><StartTime><Timestamp dt:dt="int">0</Timestamp><DateUtc dt:dt="string">2015-07-16T17:05:29Z</DateUtc></StartTime><FrequencyChanges><FrequencyChange><Frequency dt:dt="r8">3507675</Frequency><Timestamp dt:dt="r8">241908810725</Timestamp><Current dt:dt="r8">0</Current><DateUtc dt:dt="string">2015-07-16T17:05:29Z</DateUtc></FrequencyChange></FrequencyChanges></Clock>\n	Hungry_Donkey_bar_English_2-121-1	60.017	-143	1.0.0.18	1	1391355148	Standard	2.0.10.353	2.0.10.353	07-16-2015	7/16/2015 5:05:29 PM	13:05:29	2.0.10.248	109	Bar50-50.bmp	48	2	?	0r_4g.bmp	0r_4g.bmp	0r_2g.bmp	0r_2g.bmp		0r_4g.bmp			TrialProc	TrialList	0	cvbn	-999999	16	357783	0	v	304	358087	346	-378	-32	-12	-54	32	2	8	11	109	0	0	0	0	4	4	2	2	0	4
Hungry_Donkey_bar_English_2	121	1	<?xml version="1.0"?>\n<Clock xmlns:dt="urn:schemas-microsoft-com:datatypes"><Description dt:dt="string">E-Prime Primary Realtime Clock</Description><StartTime><Timestamp dt:dt="int">0</Timestamp><DateUtc dt:dt="string">2015-07-16T17:05:29Z</DateUtc></StartTime><FrequencyChanges><FrequencyChange><Frequency dt:dt="r8">3507675</Frequency><Timestamp dt:dt="r8">241908810725</Timestamp><Current dt:dt="r8">0</Current><DateUtc dt:dt="string">2015-07-16T17:05:29Z</DateUtc></FrequencyChange></FrequencyChanges></Clock>\n	Hungry_Donkey_bar_English_2-121-1	60.017	-143	1.0.0.18	1	1391355148	Standard	2.0.10.353	2.0.10.353	07-16-2015	7/16/2015 5:05:29 PM	13:05:29	2.0.10.248	110	Bar50-50.bmp	48	2	?	0r_4g.bmp	0r_4g.bmp	0r_2g.bmp	0r_2g.bmp		0r_4g.bmp			TrialProc	TrialList	0	cvbn	-999999	16	360115	0	v	180	360295	350	-378	-28	-12	-50	32	2	10	11	110	0	0	0	0	4	4	2	2	0	4
Hungry_Donkey_bar_English_2	121	1	<?xml version="1.0"?>\n<Clock xmlns:dt="urn:schemas-microsoft-com:datatypes"><Description dt:dt="string">E-Prime Primary Realtime Clock</Description><StartTime><Timestamp dt:dt="int">0</Timestamp><DateUtc dt:dt="string">2015-07-16T17:05:29Z</DateUtc></StartTime><FrequencyChanges><FrequencyChange><Frequency dt:dt="r8">3507675</Frequency><Timestamp dt:dt="r8">241908810725</Timestamp><Current dt:dt="r8">0</Current><DateUtc dt:dt="string">2015-07-16T17:05:29Z</DateUtc></FrequencyChange></FrequencyChanges></Clock>\n	Hungry_Donkey_bar_English_2-121-1	60.017	-143	1.0.0.18	1	1391355148	Standard	2.0.10.353	2.0.10.353	07-16-2015	7/16/2015 5:05:29 PM	13:05:29	2.0.10.248	111	Bar50-50.bmp	48	2	?	10r_4g.bmp	0r_4g.bmp	2r_2g.bmp	0r_2g.bmp		0r_4g.bmp			TrialProc	TrialList	0	cvbn	-999999	16	362331	0	v	284	362615	354	-378	-24	-12	-46	32	2	4	12	111	-10	0	-2	0	4	4	2	2	0	4
