ExperimentName	Subject	Session	Clock.Information	DataFile.Basename	Display.RefreshRate	Eindtotaal[Session]	ExperimentVersion	Group	RandomSeed	RuntimeCapabilities	RuntimeVersion	RuntimeVersionExpected	SessionDate	SessionStartDateTimeUtc	SessionTime	StudioVersion	Block	BarImage	BarTotalWinst	DoorChoice	Eindtotaal[Block]	FBDoor1	FBDoor2	FBDoor3	FBDoor4	Image1	Image2	Image3	Image4	Procedure	Running	spel.ACC	spel.CRESP	spel.DurationError	spel.OnsetDelay	spel.OnsetTime	spel.OnsetToOnsetTime	spel.RESP	spel.RT	spel.RTTime	TotalGain	TotalLose	Totalsum	TotalsumD1	TotalsumD2	TotalsumD3	TotalsumD4	TrialList	TrialList.Cycle	TrialList.Sample	varV1	varV2	varV3	varV4	varW1	varW2	varW3	varW4	Verliesbedrag	Winstbedrag
Hungry_Donkey_bar_English_2	140	1	<?xml version="1.0"?>\n<Clock xmlns:dt="urn:schemas-microsoft-com:datatypes"><Description dt:dt="string">E-Prime Primary Realtime Clock</Description><StartTime><Timestamp dt:dt="int">0</Timestamp><DateUtc dt:dt="string">2016-05-03T21:43:14Z</DateUtc></StartTime><FrequencyChanges><FrequencyChange><Frequency dt:dt="r8">3507724</Frequency><Timestamp dt:dt="r8">1208067676419</Timestamp><Current dt:dt="r8">0</Current><DateUtc dt:dt="string">2016-05-03T21:43:14Z</DateUtc></FrequencyChange></FrequencyChanges></Clock>\n	Hungry_Donkey_bar_English_2-140-1	60.018	-39	1.0.0.18	1	1182554225	Standard	2.0.10.353	2.0.10.353	05-03-2016	5/3/2016 9:43:14 PM	17:43:14	2.0.10.248	1	Bar100-0.bmp	100	4	?	0r_4g.bmp	0r_4g.bmp	0r_2g.bmp	0r_2g.bmp				0r_2g.bmp	TrialProc	TrialList	0	cvbn	-999999	24	94255	0	n	8855	103110	2	0	2	0	0	0	2	7	1	1	0	0	0	0	4	4	2	2	0	2
Hungry_Donkey_bar_English_2	140	1	<?xml version="1.0"?>\n<Clock xmlns:dt="urn:schemas-microsoft-com:datatypes"><Description dt:dt="string">E-Prime Primary Realtime Clock</Description><StartTime><Timestamp dt:dt="int">0</Timestamp><DateUtc dt:dt="string">2016-05-03T21:43:14Z</DateUtc></StartTime><FrequencyChanges><FrequencyChange><Frequency dt:dt="r8">3507724</Frequency><Timestamp dt:dt="r8">1208067676419</Timestamp><Current dt:dt="r8">0</Current><DateUtc dt:dt="string">2016-05-03T21:43:14Z</DateUtc></FrequencyChange></FrequencyChanges></Clock>\n	Hungry_Donkey_bar_English_2-140-1	60.018	-39	1.0.0.18	1	1182554225	Standard	2.0.10.353	2.0.10.353	05-03-2016	5/3/2016 9:43:14 PM	17:43:14	2.0.10.248	2	Bar100-0.bmp	100	3	?	0r_4g.bmp	0r_4g.bmp	0r_2g.bmp	0r_2g.bmp			0r_2g.bmp		TrialProc	TrialList	0	cvbn	-999999	16	105152	0	b	566	105718	4	0	4	0	0	2	2	6	1	2	0	0	0	0	4	4	2	2	0	2
Hungry_Donkey_bar_English_2	140	1	<?xml version="1.0"?>\n<Clock xmlns:dt="urn:schemas-microsoft-com:datatypes"><Description dt:dt="string">E-Prime Primary Realtime Clock</Description><StartTime><Timestamp dt:dt="int">0</Timestamp><DateUtc dt:dt="string">2016-05-03T21:43:14Z</DateUtc></StartTime><FrequencyChanges><FrequencyChange><Frequency dt:dt="r8">3507724</Frequency><Timestamp dt:dt="r8">1208067676419</Timestamp><Current dt:dt="r8">0</Current><DateUtc dt:dt="string">2016-05-03T21:43:14Z</DateUtc></FrequencyChange></FrequencyChanges></Clock>\n	Hungry_Donkey_bar_English_2-140-1	60.018	-39	1.0.0.18	1	1182554225	Standard	2.0.10.353	2.0.10.353	05-03-2016	5/3/2016 9:43:14 PM	17:43:14	2.0.10.248	3	Bar100-0.bmp	100	4	?	0r_4g.bmp	0r_4g.bmp	0r_2g.bmp	0r_2g.bmp				0r_2g.bmp	TrialProc	TrialList	0	cvbn	-999999	16	107751	0	n	671	108422	6	0	6	0	0	2	4	10	1	3	0	0	0	0	4	4	2	2	0	2
Hungry_Donkey_bar_English_2	140	1	<?xml version="1.0"?>\n<Clock xmlns:dt="urn:schemas-microsoft-com:datatypes"><Description dt:dt="string">E-Prime Primary Realtime Clock</Description><StartTime><Timestamp dt:dt="int">0</Timestamp><DateUtc dt:dt="string">2016-05-03T21:43:14Z</DateUtc></StartTime><FrequencyChanges><FrequencyChange><Frequency dt:dt="r8">3507724</Frequency><Timestamp dt:dt="r8">1208067676419</Timestamp><Current dt:dt="r8">0</Current><DateUtc dt:dt="string">2016-05-03T21:43:14Z</DateUtc></FrequencyChange></FrequencyChanges></Clock>\n	Hungry_Donkey_bar_English_2-140-1	60.018	-39	1.0.0.18	1	1182554225	Standard	2.0.10.353	2.0.10.353	05-03-2016	5/3/2016 9:43:14 PM	17:43:14	2.0.10.248	4	Bar100-0.bmp	100	2	?	10r_4g.bmp	0r_4g.bmp	2r_2g.bmp	0r_2g.bmp		0r_4g.bmp			TrialProc	TrialList	0	cvbn	-999999	16	110450	0	v	372	110822	10	0	10	0	4	2	4	2	1	4	-10	0	-2	0	4	4	2	2	0	4
Hungry_Donkey_bar_English_2	140	1	<?xml version="1.0"?>\n<Clock xmlns:dt="urn:schemas-microsoft-com:datatypes"><Description dt:dt="string">E-Prime Primary Realtime Clock</Description><StartTime><Timestamp dt:dt="int">0</Timestamp><DateUtc dt:dt="string">2016-05-03T21:43:14Z</DateUtc></StartTime><FrequencyChanges><FrequencyChange><Frequency dt:dt="r8">3507724</Frequency><Timestamp dt:dt="r8">1208067676419</Timestamp><Current dt:dt="r8">0</Current><DateUtc dt:dt="string">2016-05-03T21:43:14Z</DateUtc></FrequencyChange></FrequencyChanges></Clock>\n	Hungry_Donkey_bar_English_2-140-1	60.018	-39	1.0.0.18	1	1182554225	Standard	2.0.10.353	2.0.10.353	05-03-2016	5/3/2016 9:43:14 PM	17:43:14	2.0.10.248	5	Bar100-0.bmp	100	1	?	0r_4g.bmp	0r_4g.bmp	0r_2g.bmp	0r_2g.bmp	0r_4g.bmp				TrialProc	TrialList	0	cvbn	-999999	16	112850	0	c	1732	114582	14	0	14	4	4	2	4	8	1	5	0	0	0	0	4	4	2	2	0	4
Hungry_Donkey_bar_English_2	140	1	<?xml version="1.0"?>\n<Clock xmlns:dt="urn:schemas-microsoft-com:datatypes"><Description dt:dt="string">E-Prime Primary Realtime Clock</Description><StartTime><Timestamp dt:dt="int">0</Timestamp><DateUtc dt:dt="string">2016-05-03T21:43:14Z</DateUtc></StartTime><FrequencyChanges><FrequencyChange><Frequency dt:dt="r8">3507724</Frequency><Timestamp dt:dt="r8">1208067676419</Timestamp><Current dt:dt="r8">0</Current><DateUtc dt:dt="string">2016-05-03T21:43:14Z</DateUtc></FrequencyChange></FrequencyChanges></Clock>\n	Hungry_Donkey_bar_English_2-140-1	60.018	-39	1.0.0.18	1	1182554225	Standard	2.0.10.353	2.0.10.353	05-03-2016	5/3/2016 9:43:14 PM	17:43:14	2.0.10.248	6	Bar100-0.bmp	100	4	?	12r_4g.bmp	0r_4g.bmp	3r_2g.bmp	0r_2g.bmp				0r_2g.bmp	TrialProc	TrialList	0	cvbn	-999999	16	116615	0	n	990	117605	16	0	16	4	4	2	6	5	1	6	-12	0	-3	0	4	4	2	2	0	2
Hungry_Donkey_bar_English_2	140	1	<?xml version="1.0"?>\n<Clock xmlns:dt="urn:schemas-microsoft-com:datatypes"><Description dt:dt="string">E-Prime Primary Realtime Clock</Description><StartTime><Timestamp dt:dt="int">0</Timestamp><DateUtc dt:dt="string">2016-05-03T21:43:14Z</DateUtc></StartTime><FrequencyChanges><FrequencyChange><Frequency dt:dt="r8">3507724</Frequency><Timestamp dt:dt="r8">1208067676419</Timestamp><Current dt:dt="r8">0</Current><DateUtc dt:dt="string">2016-05-03T21:43:14Z</DateUtc></FrequencyChange></FrequencyChanges></Clock>\n	Hungry_Donkey_bar_English_2-140-1	60.018	-39	1.0.0.18	1	1182554225	Standard	2.0.10.353	2.0.10.353	05-03-2016	5/3/2016 9:43:14 PM	17:43:14	2.0.10.248	7	Bar87-13.bmp	90	3	?	10r_4g.bmp	0r_4g.bmp	2r_2g.bmp	0r_2g.bmp			2r_2g.bmp		TrialProc	TrialList	0	cvbn	-999999	16	119631	0	b	246	119877	18	-2	16	4	4	2	6	4	1	7	-10	0	-2	0	4	4	2	2	-2	2
Hungry_Donkey_bar_English_2	140	1	<?xml version="1.0"?>\n<Clock xmlns:dt="urn:schemas-microsoft-com:datatypes"><Description dt:dt="string">E-Prime Primary Realtime Clock</Description><StartTime><Timestamp dt:dt="int">0</Timestamp><DateUtc dt:dt="string">2016-05-03T21:43:14Z</DateUtc></StartTime><FrequencyChanges><FrequencyChange><Frequency dt:dt="r8">3507724</Frequency><Timestamp dt:dt="r8">1208067676419</Timestamp><Current dt:dt="r8">0</Current><DateUtc dt:dt="string">2016-05-03T21:43:14Z</DateUtc></FrequencyChange></FrequencyChanges></Clock>\n	Hungry_Donkey_bar_English_2-140-1	60.018	-39	1.0.0.18	1	1182554225	Standard	2.0.10.353	2.0.10.353	05-03-2016	5/3/2016 9:43:14 PM	17:43:14	2.0.10.248	8	Bar63-37.bmp	69	1	?	8r_4g.bmp	50r_4g.bmp	1r_2g.bmp	10r_2g.bmp	8r_4g.bmp				TrialProc	TrialList	0	cvbn	-999999	17	121914	0	c	235	122149	22	-10	12	0	4	2	6	1	1	8	-8	-50	-1	-10	4	4	2	2	-8	4
Hungry_Donkey_bar_English_2	140	1	<?xml version="1.0"?>\n<Clock xmlns:dt="urn:schemas-microsoft-com:datatypes"><Description dt:dt="string">E-Prime Primary Realtime Clock</Description><StartTime><Timestamp dt:dt="int">0</Timestamp><DateUtc dt:dt="string">2016-05-03T21:43:14Z</DateUtc></StartTime><FrequencyChanges><FrequencyChange><Frequency dt:dt="r8">3507724</Frequency><Timestamp dt:dt="r8">1208067676419</Timestamp><Current dt:dt="r8">0</Current><DateUtc dt:dt="string">2016-05-03T21:43:14Z</DateUtc></FrequencyChange></FrequencyChanges></Clock>\n	Hungry_Donkey_bar_English_2-140-1	60.018	-39	1.0.0.18	1	1182554225	Standard	2.0.10.353	2.0.10.353	05-03-2016	5/3/2016 9:43:14 PM	17:43:14	2.0.10.248	9	Bar75-25.bmp	72	2	?	10r_4g.bmp	0r_4g.bmp	2r_2g.bmp	0r_2g.bmp		0r_4g.bmp			TrialProc	TrialList	0	cvbn	-999999	16	124179	0	v	402	124581	26	-10	16	0	8	2	6	3	1	9	-10	0	-2	0	4	4	2	2	0	4
Hungry_Donkey_bar_English_2	140	1	<?xml version="1.0"?>\n<Clock xmlns:dt="urn:schemas-microsoft-com:datatypes"><Description dt:dt="string">E-Prime Primary Realtime Clock</Description><StartTime><Timestamp dt:dt="int">0</Timestamp><DateUtc dt:dt="string">2016-05-03T21:43:14Z</DateUtc></StartTime><FrequencyChanges><FrequencyChange><Frequency dt:dt="r8">3507724</Frequency><Timestamp dt:dt="r8">1208067676419</Timestamp><Current dt:dt="r8">0</Current><DateUtc dt:dt="string">2016-05-03T21:43:14Z</DateUtc></FrequencyChange></FrequencyChanges></Clock>\n	Hungry_Donkey_bar_English_2-140-1	60.018	-39	1.0.0.18	1	1182554225	Standard	2.0.10.353	2.0.10.353	05-03-2016	5/3/2016 9:43:14 PM	17:43:14	2.0.10.248	10	Bar75-25.bmp	75	2	?	0r_4g.bmp	0r_4g.bmp	0r_2g.bmp	0r_2g.bmp		0r_4g.bmp			TrialProc	TrialList	0	cvbn	-999999	16	126612	0	v	289	126901	30	-10	20	0	12	2	6	9	1	10	0	0	0	0	4	4	2	2	0	4
Hungry_Donkey_bar_English_2	140	1	<?xml version="1.0"?>\n<Clock xmlns:dt="urn:schemas-microsoft-com:datatypes"><Description dt:dt="string">E-Prime Primary Realtime Clock</Description><StartTime><Timestamp dt:dt="int">0</Timestamp><DateUtc dt:dt="string">2016-05-03T21:43:14Z</DateUtc></StartTime><FrequencyChanges><FrequencyChange><Frequency dt:dt="r8">3507724</Frequency><Timestamp dt:dt="r8">1208067676419</Timestamp><Current dt:dt="r8">0</Current><DateUtc dt:dt="string">2016-05-03T21:43:14Z</DateUtc></FrequencyChange></FrequencyChanges></Clock>\n	Hungry_Donkey_bar_English_2-140-1	60.018	-39	1.0.0.18	1	1182554225	Standard	2.0.10.353	2.0.10.353	05-03-2016	5/3/2016 9:43:14 PM	17:43:14	2.0.10.248	11	Bar37-63.bmp	36	2	?	8r_4g.bmp	50r_4g.bmp	1r_2g.bmp	10r_2g.bmp		50r_4g.bmp			TrialProc	TrialList	0	cvbn	-999999	16	128928	0	v	69	128997	34	-60	-26	0	-34	2	6	1	2	11	-8	-50	-1	-10	4	4	2	2	-50	4
Hungry_Donkey_bar_English_2	140	1	<?xml version="1.0"?>\n<Clock xmlns:dt="urn:schemas-microsoft-com:datatypes"><Description dt:dt="string">E-Prime Primary Realtime Clock</Description><StartTime><Timestamp dt:dt="int">0</Timestamp><DateUtc dt:dt="string">2016-05-03T21:43:14Z</DateUtc></StartTime><FrequencyChanges><FrequencyChange><Frequency dt:dt="r8">3507724</Frequency><Timestamp dt:dt="r8">1208067676419</Timestamp><Current dt:dt="r8">0</Current><DateUtc dt:dt="string">2016-05-03T21:43:14Z</DateUtc></FrequencyChange></FrequencyChanges></Clock>\n	Hungry_Donkey_bar_English_2-140-1	60.018	-39	1.0.0.18	1	1182554225	Standard	2.0.10.353	2.0.10.353	05-03-2016	5/3/2016 9:43:14 PM	17:43:14	2.0.10.248	12	Bar37-63.bmp	36	3	?	12r_4g.bmp	0r_4g.bmp	3r_2g.bmp	0r_2g.bmp			3r_2g.bmp		TrialProc	TrialList	0	cvbn	-999999	16	131027	0	b	545	131572	36	-63	-27	0	-34	1	6	5	2	12	-12	0	-3	0	4	4	2	2	-3	2
Hungry_Donkey_bar_English_2	140	1	<?xml version="1.0"?>\n<Clock xmlns:dt="urn:schemas-microsoft-com:datatypes"><Description dt:dt="string">E-Prime Primary Realtime Clock</Description><StartTime><Timestamp dt:dt="int">0</Timestamp><DateUtc dt:dt="string">2016-05-03T21:43:14Z</DateUtc></StartTime><FrequencyChanges><FrequencyChange><Frequency dt:dt="r8">3507724</Frequency><Timestamp dt:dt="r8">1208067676419</Timestamp><Current dt:dt="r8">0</Current><DateUtc dt:dt="string">2016-05-03T21:43:14Z</DateUtc></FrequencyChange></FrequencyChanges></Clock>\n	Hungry_Donkey_bar_English_2-140-1	60.018	-39	1.0.0.18	1	1182554225	Standard	2.0.10.353	2.0.10.353	05-03-2016	5/3/2016 9:43:14 PM	17:43:14	2.0.10.248	13	Bar37-63.bmp	39	1	?	0r_4g.bmp	0r_4g.bmp	0r_2g.bmp	0r_2g.bmp	0r_4g.bmp				TrialProc	TrialList	0	cvbn	-999999	16	133610	0	c	794	134404	40	-63	-23	4	-34	1	6	9	2	13	0	0	0	0	4	4	2	2	0	4
Hungry_Donkey_bar_English_2	140	1	<?xml version="1.0"?>\n<Clock xmlns:dt="urn:schemas-microsoft-com:datatypes"><Description dt:dt="string">E-Prime Primary Realtime Clock</Description><StartTime><Timestamp dt:dt="int">0</Timestamp><DateUtc dt:dt="string">2016-05-03T21:43:14Z</DateUtc></StartTime><FrequencyChanges><FrequencyChange><Frequency dt:dt="r8">3507724</Frequency><Timestamp dt:dt="r8">1208067676419</Timestamp><Current dt:dt="r8">0</Current><DateUtc dt:dt="string">2016-05-03T21:43:14Z</DateUtc></FrequencyChange></FrequencyChanges></Clock>\n	Hungry_Donkey_bar_English_2-140-1	60.018	-39	1.0.0.18	1	1182554225	Standard	2.0.10.353	2.0.10.353	05-03-2016	5/3/2016 9:43:14 PM	17:43:14	2.0.10.248	14	Bar37-63.bmp	41	1	?	0r_4g.bmp	0r_4g.bmp	0r_2g.bmp	0r_2g.bmp	0r_4g.bmp				TrialProc	TrialList	0	cvbn	-999999	16	136442	0	c	314	136756	44	-63	-19	8	-34	1	6	10	2	14	0	0	0	0	4	4	2	2	0	4
Hungry_Donkey_bar_English_2	140	1	<?xml version="1.0"?>\n<Clock xmlns:dt="urn:schemas-microsoft-com:datatypes"><Description dt:dt="string">E-Prime Primary Realtime Clock</Description><StartTime><Timestamp dt:dt="int">0</Timestamp><DateUtc dt:dt="string">2016-05-03T21:43:14Z</DateUtc></StartTime><FrequencyChanges><FrequencyChange><Frequency dt:dt="r8">3507724</Frequency><Timestamp dt:dt="r8">1208067676419</Timestamp><Current dt:dt="r8">0</Current><DateUtc dt:dt="string">2016-05-03T21:43:14Z</DateUtc></FrequencyChange></FrequencyChanges></Clock>\n	Hungry_Donkey_bar_English_2-140-1	60.018	-39	1.0.0.18	1	1182554225	Standard	2.0.10.353	2.0.10.353	05-03-2016	5/3/2016 9:43:14 PM	17:43:14	2.0.10.248	15	Bar37-63.bmp	43	2	?	10r_4g.bmp	0r_4g.bmp	2r_2g.bmp	0r_2g.bmp		0r_4g.bmp			TrialProc	TrialList	0	cvbn	-999999	16	138792	0	v	316	139108	48	-63	-15	8	-30	1	6	4	2	15	-10	0	-2	0	4	4	2	2	0	4
Hungry_Donkey_bar_English_2	140	1	<?xml version="1.0"?>\n<Clock xmlns:dt="urn:schemas-microsoft-com:datatypes"><Description dt:dt="string">E-Prime Primary Realtime Clock</Description><StartTime><Timestamp dt:dt="int">0</Timestamp><DateUtc dt:dt="string">2016-05-03T21:43:14Z</DateUtc></StartTime><FrequencyChanges><FrequencyChange><Frequency dt:dt="r8">3507724</Frequency><Timestamp dt:dt="r8">1208067676419</Timestamp><Current dt:dt="r8">0</Current><DateUtc dt:dt="string">2016-05-03T21:43:14Z</DateUtc></FrequencyChange></FrequencyChanges></Clock>\n	Hungry_Donkey_bar_English_2-140-1	60.018	-39	1.0.0.18	1	1182554225	Standard	2.0.10.353	2.0.10.353	05-03-2016	5/3/2016 9:43:14 PM	17:43:14	2.0.10.248	16	Bar50-50.bmp	45	2	?	10r_4g.bmp	0r_4g.bmp	2r_2g.bmp	0r_2g.bmp		0r_4g.bmp			TrialProc	TrialList	0	cvbn	-999999	16	141141	0	v	287	141428	52	-63	-11	8	-26	1	6	2	2	16	-10	0	-2	0	4	4	2	2	0	4
Hungry_Donkey_bar_English_2	140	1	<?xml version="1.0"?>\n<Clock xmlns:dt="urn:schemas-microsoft-com:datatypes"><Description dt:dt="string">E-Prime Primary Realtime Clock</Description><StartTime><Timestamp dt:dt="int">0</Timestamp><DateUtc dt:dt="string">2016-05-03T21:43:14Z</DateUtc></StartTime><FrequencyChanges><FrequencyChange><Frequency dt:dt="r8">3507724</Frequency><Timestamp dt:dt="r8">1208067676419</Timestamp><Current dt:dt="r8">0</Current><DateUtc dt:dt="string">2016-05-03T21:43:14Z</DateUtc></FrequencyChange></FrequencyChanges></Clock>\n	Hungry_Donkey_bar_English_2-140-1	60.018	-39	1.0.0.18	1	1182554225	Standard	2.0.10.353	2.0.10.353	05-03-2016	5/3/2016 9:43:14 PM	17:43:14	2.0.10.248	17	Bar50-50.bmp	46	3	?	0r_4g.bmp	0r_4g.bmp	0r_2g.bmp	0r_2g.bmp			0r_2g.bmp		TrialProc	TrialList	0	cvbn	-999999	16	143457	0	b	259	143716	54	-63	-9	8	-26	3	6	8	2	17	0	0	0	0	4	4	2	2	0	2
Hungry_Donkey_bar_English_2	140	1	<?xml version="1.0"?>\n<Clock xmlns:dt="urn:schemas-microsoft-com:datatypes"><Description dt:dt="string">E-Prime Primary Realtime Clock</Description><StartTime><Timestamp dt:dt="int">0</Timestamp><DateUtc dt:dt="string">2016-05-03T21:43:14Z</DateUtc></StartTime><FrequencyChanges><FrequencyChange><Frequency dt:dt="r8">3507724</Frequency><Timestamp dt:dt="r8">1208067676419</Timestamp><Current dt:dt="r8">0</Current><DateUtc dt:dt="string">2016-05-03T21:43:14Z</DateUtc></FrequencyChange></FrequencyChanges></Clock>\n	Hungry_Donkey_bar_English_2-140-1	60.018	-39	1.0.0.18	1	1182554225	Standard	2.0.10.353	2.0.10.353	05-03-2016	5/3/2016 9:43:14 PM	17:43:14	2.0.10.248	18	Bar50-50.bmp	47	3	?	0r_4g.bmp	0r_4g.bmp	0r_2g.bmp	0r_2g.bmp			0r_2g.bmp		TrialProc	TrialList	0	cvbn	-999999	16	145740	0	b	152	145892	56	-63	-7	8	-26	5	6	7	2	18	0	0	0	0	4	4	2	2	0	2
Hungry_Donkey_bar_English_2	140	1	<?xml version="1.0"?>\n<Clock xmlns:dt="urn:schemas-microsoft-com:datatypes"><Description dt:dt="string">E-Prime Primary Realtime Clock</Description><StartTime><Timestamp dt:dt="int">0</Timestamp><DateUtc dt:dt="string">2016-05-03T21:43:14Z</DateUtc></StartTime><FrequencyChanges><FrequencyChange><Frequency dt:dt="r8">3507724</Frequency><Timestamp dt:dt="r8">1208067676419</Timestamp><Current dt:dt="r8">0</Current><DateUtc dt:dt="string">2016-05-03T21:43:14Z</DateUtc></FrequencyChange></FrequencyChanges></Clock>\n	Hungry_Donkey_bar_English_2-140-1	60.018	-39	1.0.0.18	1	1182554225	Standard	2.0.10.353	2.0.10.353	05-03-2016	5/3/2016 9:43:14 PM	17:43:14	2.0.10.248	19	Bar50-50.bmp	48	4	?	0r_4g.bmp	0r_4g.bmp	0r_2g.bmp	0r_2g.bmp				0r_2g.bmp	TrialProc	TrialList	0	cvbn	-999999	16	147922	0	n	321	148243	58	-63	-5	8	-26	5	8	6	2	19	0	0	0	0	4	4	2	2	0	2
Hungry_Donkey_bar_English_2	140	1	<?xml version="1.0"?>\n<Clock xmlns:dt="urn:schemas-microsoft-com:datatypes"><Description dt:dt="string">E-Prime Primary Realtime Clock</Description><StartTime><Timestamp dt:dt="int">0</Timestamp><DateUtc dt:dt="string">2016-05-03T21:43:14Z</DateUtc></StartTime><FrequencyChanges><FrequencyChange><Frequency dt:dt="r8">3507724</Frequency><Timestamp dt:dt="r8">1208067676419</Timestamp><Current dt:dt="r8">0</Current><DateUtc dt:dt="string">2016-05-03T21:43:14Z</DateUtc></FrequencyChange></FrequencyChanges></Clock>\n	Hungry_Donkey_bar_English_2-140-1	60.018	-39	1.0.0.18	1	1182554225	Standard	2.0.10.353	2.0.10.353	05-03-2016	5/3/2016 9:43:14 PM	17:43:14	2.0.10.248	20	Bar50-50.bmp	49	4	?	10r_4g.bmp	0r_4g.bmp	2r_2g.bmp	0r_2g.bmp				0r_2g.bmp	TrialProc	TrialList	0	cvbn	-999999	16	150272	0	n	195	150467	60	-63	-3	8	-26	5	10	3	2	20	-10	0	-2	0	4	4	2	2	0	2
Hungry_Donkey_bar_English_2	140	1	<?xml version="1.0"?>\n<Clock xmlns:dt="urn:schemas-microsoft-com:datatypes"><Description dt:dt="string">E-Prime Primary Realtime Clock</Description><StartTime><Timestamp dt:dt="int">0</Timestamp><DateUtc dt:dt="string">2016-05-03T21:43:14Z</DateUtc></StartTime><FrequencyChanges><FrequencyChange><Frequency dt:dt="r8">3507724</Frequency><Timestamp dt:dt="r8">1208067676419</Timestamp><Current dt:dt="r8">0</Current><DateUtc dt:dt="string">2016-05-03T21:43:14Z</DateUtc></FrequencyChange></FrequencyChanges></Clock>\n	Hungry_Donkey_bar_English_2-140-1	60.018	-39	1.0.0.18	1	1182554225	Standard	2.0.10.353	2.0.10.353	05-03-2016	5/3/2016 9:43:14 PM	17:43:14	2.0.10.248	21	Bar50-50.bmp	50	4	?	12r_4g.bmp	0r_4g.bmp	3r_2g.bmp	0r_2g.bmp				0r_2g.bmp	TrialProc	TrialList	0	cvbn	-999999	16	152504	0	n	315	152819	62	-63	-1	8	-26	5	12	5	3	21	-12	0	-3	0	4	4	2	2	0	2
Hungry_Donkey_bar_English_2	140	1	<?xml version="1.0"?>\n<Clock xmlns:dt="urn:schemas-microsoft-com:datatypes"><Description dt:dt="string">E-Prime Primary Realtime Clock</Description><StartTime><Timestamp dt:dt="int">0</Timestamp><DateUtc dt:dt="string">2016-05-03T21:43:14Z</DateUtc></StartTime><FrequencyChanges><FrequencyChange><Frequency dt:dt="r8">3507724</Frequency><Timestamp dt:dt="r8">1208067676419</Timestamp><Current dt:dt="r8">0</Current><DateUtc dt:dt="string">2016-05-03T21:43:14Z</DateUtc></FrequencyChange></FrequencyChanges></Clock>\n	Hungry_Donkey_bar_English_2-140-1	60.018	-39	1.0.0.18	1	1182554225	Standard	2.0.10.353	2.0.10.353	05-03-2016	5/3/2016 9:43:14 PM	17:43:14	2.0.10.248	22	Bar50-50.bmp	50	3	?	0r_4g.bmp	0r_4g.bmp	0r_2g.bmp	0r_2g.bmp			0r_2g.bmp		TrialProc	TrialList	0	cvbn	-999999	16	154854	0	b	397	155251	64	-63	1	8	-26	7	12	9	3	22	0	0	0	0	4	4	2	2	0	2
Hungry_Donkey_bar_English_2	140	1	<?xml version="1.0"?>\n<Clock xmlns:dt="urn:schemas-microsoft-com:datatypes"><Description dt:dt="string">E-Prime Primary Realtime Clock</Description><StartTime><Timestamp dt:dt="int">0</Timestamp><DateUtc dt:dt="string">2016-05-03T21:43:14Z</DateUtc></StartTime><FrequencyChanges><FrequencyChange><Frequency dt:dt="r8">3507724</Frequency><Timestamp dt:dt="r8">1208067676419</Timestamp><Current dt:dt="r8">0</Current><DateUtc dt:dt="string">2016-05-03T21:43:14Z</DateUtc></FrequencyChange></FrequencyChanges></Clock>\n	Hungry_Donkey_bar_English_2-140-1	60.018	-39	1.0.0.18	1	1182554225	Standard	2.0.10.353	2.0.10.353	05-03-2016	5/3/2016 9:43:14 PM	17:43:14	2.0.10.248	23	Bar50-50.bmp	52	2	?	0r_4g.bmp	0r_4g.bmp	0r_2g.bmp	0r_2g.bmp		0r_4g.bmp			TrialProc	TrialList	0	cvbn	-999999	16	157286	0	v	301	157587	68	-63	5	8	-22	7	12	8	3	23	0	0	0	0	4	4	2	2	0	4
Hungry_Donkey_bar_English_2	140	1	<?xml version="1.0"?>\n<Clock xmlns:dt="urn:schemas-microsoft-com:datatypes"><Description dt:dt="string">E-Prime Primary Realtime Clock</Description><StartTime><Timestamp dt:dt="int">0</Timestamp><DateUtc dt:dt="string">2016-05-03T21:43:14Z</DateUtc></StartTime><FrequencyChanges><FrequencyChange><Frequency dt:dt="r8">3507724</Frequency><Timestamp dt:dt="r8">1208067676419</Timestamp><Current dt:dt="r8">0</Current><DateUtc dt:dt="string">2016-05-03T21:43:14Z</DateUtc></FrequencyChange></FrequencyChanges></Clock>\n	Hungry_Donkey_bar_English_2-140-1	60.018	-39	1.0.0.18	1	1182554225	Standard	2.0.10.353	2.0.10.353	05-03-2016	5/3/2016 9:43:14 PM	17:43:14	2.0.10.248	24	Bar50-50.bmp	53	2	?	0r_4g.bmp	0r_4g.bmp	0r_2g.bmp	0r_2g.bmp		0r_4g.bmp			TrialProc	TrialList	0	cvbn	-999999	16	159619	0	v	416	160035	72	-63	9	8	-18	7	12	10	3	24	0	0	0	0	4	4	2	2	0	4
Hungry_Donkey_bar_English_2	140	1	<?xml version="1.0"?>\n<Clock xmlns:dt="urn:schemas-microsoft-com:datatypes"><Description dt:dt="string">E-Prime Primary Realtime Clock</Description><StartTime><Timestamp dt:dt="int">0</Timestamp><DateUtc dt:dt="string">2016-05-03T21:43:14Z</DateUtc></StartTime><FrequencyChanges><FrequencyChange><Frequency dt:dt="r8">3507724</Frequency><Timestamp dt:dt="r8">1208067676419</Timestamp><Current dt:dt="r8">0</Current><DateUtc dt:dt="string">2016-05-03T21:43:14Z</DateUtc></FrequencyChange></FrequencyChanges></Clock>\n	Hungry_Donkey_bar_English_2-140-1	60.018	-39	1.0.0.18	1	1182554225	Standard	2.0.10.353	2.0.10.353	05-03-2016	5/3/2016 9:43:14 PM	17:43:14	2.0.10.248	25	Bar50-50.bmp	55	2	?	0r_4g.bmp	0r_4g.bmp	0r_2g.bmp	0r_2g.bmp		0r_4g.bmp			TrialProc	TrialList	0	cvbn	-999999	16	162068	0	v	271	162339	76	-63	13	8	-14	7	12	6	3	25	0	0	0	0	4	4	2	2	0	4
Hungry_Donkey_bar_English_2	140	1	<?xml version="1.0"?>\n<Clock xmlns:dt="urn:schemas-microsoft-com:datatypes"><Description dt:dt="string">E-Prime Primary Realtime Clock</Description><StartTime><Timestamp dt:dt="int">0</Timestamp><DateUtc dt:dt="string">2016-05-03T21:43:14Z</DateUtc></StartTime><FrequencyChanges><FrequencyChange><Frequency dt:dt="r8">3507724</Frequency><Timestamp dt:dt="r8">1208067676419</Timestamp><Current dt:dt="r8">0</Current><DateUtc dt:dt="string">2016-05-03T21:43:14Z</DateUtc></FrequencyChange></FrequencyChanges></Clock>\n	Hungry_Donkey_bar_English_2-140-1	60.018	-39	1.0.0.18	1	1182554225	Standard	2.0.10.353	2.0.10.353	05-03-2016	5/3/2016 9:43:14 PM	17:43:14	2.0.10.248	26	Bar50-50.bmp	56	1	?	0r_4g.bmp	0r_4g.bmp	0r_2g.bmp	0r_2g.bmp	0r_4g.bmp				TrialProc	TrialList	0	cvbn	-999999	16	164367	0	c	339	164706	80	-63	17	12	-14	7	12	7	3	26	0	0	0	0	4	4	2	2	0	4
Hungry_Donkey_bar_English_2	140	1	<?xml version="1.0"?>\n<Clock xmlns:dt="urn:schemas-microsoft-com:datatypes"><Description dt:dt="string">E-Prime Primary Realtime Clock</Description><StartTime><Timestamp dt:dt="int">0</Timestamp><DateUtc dt:dt="string">2016-05-03T21:43:14Z</DateUtc></StartTime><FrequencyChanges><FrequencyChange><Frequency dt:dt="r8">3507724</Frequency><Timestamp dt:dt="r8">1208067676419</Timestamp><Current dt:dt="r8">0</Current><DateUtc dt:dt="string">2016-05-03T21:43:14Z</DateUtc></FrequencyChange></FrequencyChanges></Clock>\n	Hungry_Donkey_bar_English_2-140-1	60.018	-39	1.0.0.18	1	1182554225	Standard	2.0.10.353	2.0.10.353	05-03-2016	5/3/2016 9:43:14 PM	17:43:14	2.0.10.248	27	Bar50-50.bmp	54	1	?	10r_4g.bmp	0r_4g.bmp	2r_2g.bmp	0r_2g.bmp	10r_4g.bmp				TrialProc	TrialList	0	cvbn	-999999	16	166733	0	c	5	166738	84	-73	11	6	-14	7	12	4	3	27	-10	0	-2	0	4	4	2	2	-10	4
Hungry_Donkey_bar_English_2	140	1	<?xml version="1.0"?>\n<Clock xmlns:dt="urn:schemas-microsoft-com:datatypes"><Description dt:dt="string">E-Prime Primary Realtime Clock</Description><StartTime><Timestamp dt:dt="int">0</Timestamp><DateUtc dt:dt="string">2016-05-03T21:43:14Z</DateUtc></StartTime><FrequencyChanges><FrequencyChange><Frequency dt:dt="r8">3507724</Frequency><Timestamp dt:dt="r8">1208067676419</Timestamp><Current dt:dt="r8">0</Current><DateUtc dt:dt="string">2016-05-03T21:43:14Z</DateUtc></FrequencyChange></FrequencyChanges></Clock>\n	Hungry_Donkey_bar_English_2-140-1	60.018	-39	1.0.0.18	1	1182554225	Standard	2.0.10.353	2.0.10.353	05-03-2016	5/3/2016 9:43:14 PM	17:43:14	2.0.10.248	28	Bar50-50.bmp	55	2	?	10r_4g.bmp	0r_4g.bmp	2r_2g.bmp	0r_2g.bmp		0r_4g.bmp			TrialProc	TrialList	0	cvbn	-999999	16	168766	0	v	324	169090	88	-73	15	6	-10	7	12	2	3	28	-10	0	-2	0	4	4	2	2	0	4
Hungry_Donkey_bar_English_2	140	1	<?xml version="1.0"?>\n<Clock xmlns:dt="urn:schemas-microsoft-com:datatypes"><Description dt:dt="string">E-Prime Primary Realtime Clock</Description><StartTime><Timestamp dt:dt="int">0</Timestamp><DateUtc dt:dt="string">2016-05-03T21:43:14Z</DateUtc></StartTime><FrequencyChanges><FrequencyChange><Frequency dt:dt="r8">3507724</Frequency><Timestamp dt:dt="r8">1208067676419</Timestamp><Current dt:dt="r8">0</Current><DateUtc dt:dt="string">2016-05-03T21:43:14Z</DateUtc></FrequencyChange></FrequencyChanges></Clock>\n	Hungry_Donkey_bar_English_2-140-1	60.018	-39	1.0.0.18	1	1182554225	Standard	2.0.10.353	2.0.10.353	05-03-2016	5/3/2016 9:43:14 PM	17:43:14	2.0.10.248	29	Bar50-50.bmp	55	3	?	8r_4g.bmp	50r_4g.bmp	1r_2g.bmp	10r_2g.bmp			1r_2g.bmp		TrialProc	TrialList	0	cvbn	-999999	16	171115	0	b	295	171410	90	-74	16	6	-10	8	12	1	3	29	-8	-50	-1	-10	4	4	2	2	-1	2
Hungry_Donkey_bar_English_2	140	1	<?xml version="1.0"?>\n<Clock xmlns:dt="urn:schemas-microsoft-com:datatypes"><Description dt:dt="string">E-Prime Primary Realtime Clock</Description><StartTime><Timestamp dt:dt="int">0</Timestamp><DateUtc dt:dt="string">2016-05-03T21:43:14Z</DateUtc></StartTime><FrequencyChanges><FrequencyChange><Frequency dt:dt="r8">3507724</Frequency><Timestamp dt:dt="r8">1208067676419</Timestamp><Current dt:dt="r8">0</Current><DateUtc dt:dt="string">2016-05-03T21:43:14Z</DateUtc></FrequencyChange></FrequencyChanges></Clock>\n	Hungry_Donkey_bar_English_2-140-1	60.018	-39	1.0.0.18	1	1182554225	Standard	2.0.10.353	2.0.10.353	05-03-2016	5/3/2016 9:43:14 PM	17:43:14	2.0.10.248	30	Bar50-50.bmp	56	2	?	10r_4g.bmp	0r_4g.bmp	2r_2g.bmp	0r_2g.bmp		0r_4g.bmp			TrialProc	TrialList	0	cvbn	-999999	16	173448	0	v	298	173746	94	-74	20	6	-6	8	12	3	3	30	-10	0	-2	0	4	4	2	2	0	4
Hungry_Donkey_bar_English_2	140	1	<?xml version="1.0"?>\n<Clock xmlns:dt="urn:schemas-microsoft-com:datatypes"><Description dt:dt="string">E-Prime Primary Realtime Clock</Description><StartTime><Timestamp dt:dt="int">0</Timestamp><DateUtc dt:dt="string">2016-05-03T21:43:14Z</DateUtc></StartTime><FrequencyChanges><FrequencyChange><Frequency dt:dt="r8">3507724</Frequency><Timestamp dt:dt="r8">1208067676419</Timestamp><Current dt:dt="r8">0</Current><DateUtc dt:dt="string">2016-05-03T21:43:14Z</DateUtc></FrequencyChange></FrequencyChanges></Clock>\n	Hungry_Donkey_bar_English_2-140-1	60.018	-39	1.0.0.18	1	1182554225	Standard	2.0.10.353	2.0.10.353	05-03-2016	5/3/2016 9:43:14 PM	17:43:14	2.0.10.248	31	Bar50-50.bmp	44	2	?	8r_4g.bmp	50r_4g.bmp	1r_2g.bmp	10r_2g.bmp		50r_4g.bmp			TrialProc	TrialList	0	cvbn	-999999	16	175781	0	v	317	176098	98	-124	-26	6	-52	8	12	1	4	31	-8	-50	-1	-10	4	4	2	2	-50	4
Hungry_Donkey_bar_English_2	140	1	<?xml version="1.0"?>\n<Clock xmlns:dt="urn:schemas-microsoft-com:datatypes"><Description dt:dt="string">E-Prime Primary Realtime Clock</Description><StartTime><Timestamp dt:dt="int">0</Timestamp><DateUtc dt:dt="string">2016-05-03T21:43:14Z</DateUtc></StartTime><FrequencyChanges><FrequencyChange><Frequency dt:dt="r8">3507724</Frequency><Timestamp dt:dt="r8">1208067676419</Timestamp><Current dt:dt="r8">0</Current><DateUtc dt:dt="string">2016-05-03T21:43:14Z</DateUtc></FrequencyChange></FrequencyChanges></Clock>\n	Hungry_Donkey_bar_English_2-140-1	60.018	-39	1.0.0.18	1	1182554225	Standard	2.0.10.353	2.0.10.353	05-03-2016	5/3/2016 9:43:14 PM	17:43:14	2.0.10.248	32	Bar50-50.bmp	44	3	?	10r_4g.bmp	0r_4g.bmp	2r_2g.bmp	0r_2g.bmp			2r_2g.bmp		TrialProc	TrialList	0	cvbn	-999999	16	178130	0	b	592	178722	100	-126	-26	6	-52	8	12	3	4	32	-10	0	-2	0	4	4	2	2	-2	2
Hungry_Donkey_bar_English_2	140	1	<?xml version="1.0"?>\n<Clock xmlns:dt="urn:schemas-microsoft-com:datatypes"><Description dt:dt="string">E-Prime Primary Realtime Clock</Description><StartTime><Timestamp dt:dt="int">0</Timestamp><DateUtc dt:dt="string">2016-05-03T21:43:14Z</DateUtc></StartTime><FrequencyChanges><FrequencyChange><Frequency dt:dt="r8">3507724</Frequency><Timestamp dt:dt="r8">1208067676419</Timestamp><Current dt:dt="r8">0</Current><DateUtc dt:dt="string">2016-05-03T21:43:14Z</DateUtc></FrequencyChange></FrequencyChanges></Clock>\n	Hungry_Donkey_bar_English_2-140-1	60.018	-39	1.0.0.18	1	1182554225	Standard	2.0.10.353	2.0.10.353	05-03-2016	5/3/2016 9:43:14 PM	17:43:14	2.0.10.248	33	Bar50-50.bmp	45	4	?	0r_4g.bmp	0r_4g.bmp	0r_2g.bmp	0r_2g.bmp				0r_2g.bmp	TrialProc	TrialList	0	cvbn	-999999	16	180746	0	n	503	181249	102	-126	-24	6	-52	8	14	8	4	33	0	0	0	0	4	4	2	2	0	2
Hungry_Donkey_bar_English_2	140	1	<?xml version="1.0"?>\n<Clock xmlns:dt="urn:schemas-microsoft-com:datatypes"><Description dt:dt="string">E-Prime Primary Realtime Clock</Description><StartTime><Timestamp dt:dt="int">0</Timestamp><DateUtc dt:dt="string">2016-05-03T21:43:14Z</DateUtc></StartTime><FrequencyChanges><FrequencyChange><Frequency dt:dt="r8">3507724</Frequency><Timestamp dt:dt="r8">1208067676419</Timestamp><Current dt:dt="r8">0</Current><DateUtc dt:dt="string">2016-05-03T21:43:14Z</DateUtc></FrequencyChange></FrequencyChanges></Clock>\n	Hungry_Donkey_bar_English_2-140-1	60.018	-39	1.0.0.18	1	1182554225	Standard	2.0.10.353	2.0.10.353	05-03-2016	5/3/2016 9:43:14 PM	17:43:14	2.0.10.248	34	Bar50-50.bmp	45	4	?	10r_4g.bmp	0r_4g.bmp	2r_2g.bmp	0r_2g.bmp				0r_2g.bmp	TrialProc	TrialList	0	cvbn	-999999	16	183278	0	n	99	183377	104	-126	-22	6	-52	8	16	4	4	34	-10	0	-2	0	4	4	2	2	0	2
Hungry_Donkey_bar_English_2	140	1	<?xml version="1.0"?>\n<Clock xmlns:dt="urn:schemas-microsoft-com:datatypes"><Description dt:dt="string">E-Prime Primary Realtime Clock</Description><StartTime><Timestamp dt:dt="int">0</Timestamp><DateUtc dt:dt="string">2016-05-03T21:43:14Z</DateUtc></StartTime><FrequencyChanges><FrequencyChange><Frequency dt:dt="r8">3507724</Frequency><Timestamp dt:dt="r8">1208067676419</Timestamp><Current dt:dt="r8">0</Current><DateUtc dt:dt="string">2016-05-03T21:43:14Z</DateUtc></FrequencyChange></FrequencyChanges></Clock>\n	Hungry_Donkey_bar_English_2-140-1	60.018	-39	1.0.0.18	1	1182554225	Standard	2.0.10.353	2.0.10.353	05-03-2016	5/3/2016 9:43:14 PM	17:43:14	2.0.10.248	35	Bar50-50.bmp	46	4	?	0r_4g.bmp	0r_4g.bmp	0r_2g.bmp	0r_2g.bmp				0r_2g.bmp	TrialProc	TrialList	0	cvbn	-999999	16	185411	0	n	398	185809	106	-126	-20	6	-52	8	18	7	4	35	0	0	0	0	4	4	2	2	0	2
Hungry_Donkey_bar_English_2	140	1	<?xml version="1.0"?>\n<Clock xmlns:dt="urn:schemas-microsoft-com:datatypes"><Description dt:dt="string">E-Prime Primary Realtime Clock</Description><StartTime><Timestamp dt:dt="int">0</Timestamp><DateUtc dt:dt="string">2016-05-03T21:43:14Z</DateUtc></StartTime><FrequencyChanges><FrequencyChange><Frequency dt:dt="r8">3507724</Frequency><Timestamp dt:dt="r8">1208067676419</Timestamp><Current dt:dt="r8">0</Current><DateUtc dt:dt="string">2016-05-03T21:43:14Z</DateUtc></FrequencyChange></FrequencyChanges></Clock>\n	Hungry_Donkey_bar_English_2-140-1	60.018	-39	1.0.0.18	1	1182554225	Standard	2.0.10.353	2.0.10.353	05-03-2016	5/3/2016 9:43:14 PM	17:43:14	2.0.10.248	36	Bar50-50.bmp	46	4	?	12r_4g.bmp	0r_4g.bmp	3r_2g.bmp	0r_2g.bmp				0r_2g.bmp	TrialProc	TrialList	0	cvbn	-999999	16	187844	0	n	3181	191025	108	-126	-18	6	-52	8	20	5	4	36	-12	0	-3	0	4	4	2	2	0	2
Hungry_Donkey_bar_English_2	140	1	<?xml version="1.0"?>\n<Clock xmlns:dt="urn:schemas-microsoft-com:datatypes"><Description dt:dt="string">E-Prime Primary Realtime Clock</Description><StartTime><Timestamp dt:dt="int">0</Timestamp><DateUtc dt:dt="string">2016-05-03T21:43:14Z</DateUtc></StartTime><FrequencyChanges><FrequencyChange><Frequency dt:dt="r8">3507724</Frequency><Timestamp dt:dt="r8">1208067676419</Timestamp><Current dt:dt="r8">0</Current><DateUtc dt:dt="string">2016-05-03T21:43:14Z</DateUtc></FrequencyChange></FrequencyChanges></Clock>\n	Hungry_Donkey_bar_English_2-140-1	60.018	-39	1.0.0.18	1	1182554225	Standard	2.0.10.353	2.0.10.353	05-03-2016	5/3/2016 9:43:14 PM	17:43:14	2.0.10.248	37	Bar50-50.bmp	47	4	?	0r_4g.bmp	0r_4g.bmp	0r_2g.bmp	0r_2g.bmp				0r_2g.bmp	TrialProc	TrialList	0	cvbn	-999999	16	193059	0	n	110	193169	110	-126	-16	6	-52	8	22	6	4	37	0	0	0	0	4	4	2	2	0	2
Hungry_Donkey_bar_English_2	140	1	<?xml version="1.0"?>\n<Clock xmlns:dt="urn:schemas-microsoft-com:datatypes"><Description dt:dt="string">E-Prime Primary Realtime Clock</Description><StartTime><Timestamp dt:dt="int">0</Timestamp><DateUtc dt:dt="string">2016-05-03T21:43:14Z</DateUtc></StartTime><FrequencyChanges><FrequencyChange><Frequency dt:dt="r8">3507724</Frequency><Timestamp dt:dt="r8">1208067676419</Timestamp><Current dt:dt="r8">0</Current><DateUtc dt:dt="string">2016-05-03T21:43:14Z</DateUtc></FrequencyChange></FrequencyChanges></Clock>\n	Hungry_Donkey_bar_English_2-140-1	60.018	-39	1.0.0.18	1	1182554225	Standard	2.0.10.353	2.0.10.353	05-03-2016	5/3/2016 9:43:14 PM	17:43:14	2.0.10.248	38	Bar50-50.bmp	47	4	?	10r_4g.bmp	0r_4g.bmp	2r_2g.bmp	0r_2g.bmp				0r_2g.bmp	TrialProc	TrialList	0	cvbn	-999999	16	195208	0	n	169	195377	112	-126	-14	6	-52	8	24	2	4	38	-10	0	-2	0	4	4	2	2	0	2
Hungry_Donkey_bar_English_2	140	1	<?xml version="1.0"?>\n<Clock xmlns:dt="urn:schemas-microsoft-com:datatypes"><Description dt:dt="string">E-Prime Primary Realtime Clock</Description><StartTime><Timestamp dt:dt="int">0</Timestamp><DateUtc dt:dt="string">2016-05-03T21:43:14Z</DateUtc></StartTime><FrequencyChanges><FrequencyChange><Frequency dt:dt="r8">3507724</Frequency><Timestamp dt:dt="r8">1208067676419</Timestamp><Current dt:dt="r8">0</Current><DateUtc dt:dt="string">2016-05-03T21:43:14Z</DateUtc></FrequencyChange></FrequencyChanges></Clock>\n	Hungry_Donkey_bar_English_2-140-1	60.018	-39	1.0.0.18	1	1182554225	Standard	2.0.10.353	2.0.10.353	05-03-2016	5/3/2016 9:43:14 PM	17:43:14	2.0.10.248	39	Bar50-50.bmp	48	3	?	0r_4g.bmp	0r_4g.bmp	0r_2g.bmp	0r_2g.bmp			0r_2g.bmp		TrialProc	TrialList	0	cvbn	-999999	17	197408	0	b	304	197712	114	-126	-12	6	-52	10	24	9	4	39	0	0	0	0	4	4	2	2	0	2
Hungry_Donkey_bar_English_2	140	1	<?xml version="1.0"?>\n<Clock xmlns:dt="urn:schemas-microsoft-com:datatypes"><Description dt:dt="string">E-Prime Primary Realtime Clock</Description><StartTime><Timestamp dt:dt="int">0</Timestamp><DateUtc dt:dt="string">2016-05-03T21:43:14Z</DateUtc></StartTime><FrequencyChanges><FrequencyChange><Frequency dt:dt="r8">3507724</Frequency><Timestamp dt:dt="r8">1208067676419</Timestamp><Current dt:dt="r8">0</Current><DateUtc dt:dt="string">2016-05-03T21:43:14Z</DateUtc></FrequencyChange></FrequencyChanges></Clock>\n	Hungry_Donkey_bar_English_2-140-1	60.018	-39	1.0.0.18	1	1182554225	Standard	2.0.10.353	2.0.10.353	05-03-2016	5/3/2016 9:43:14 PM	17:43:14	2.0.10.248	40	Bar50-50.bmp	48	2	?	0r_4g.bmp	0r_4g.bmp	0r_2g.bmp	0r_2g.bmp		0r_4g.bmp			TrialProc	TrialList	0	cvbn	-999999	16	199740	0	v	404	200144	118	-126	-8	6	-48	10	24	10	4	40	0	0	0	0	4	4	2	2	0	4
Hungry_Donkey_bar_English_2	140	1	<?xml version="1.0"?>\n<Clock xmlns:dt="urn:schemas-microsoft-com:datatypes"><Description dt:dt="string">E-Prime Primary Realtime Clock</Description><StartTime><Timestamp dt:dt="int">0</Timestamp><DateUtc dt:dt="string">2016-05-03T21:43:14Z</DateUtc></StartTime><FrequencyChanges><FrequencyChange><Frequency dt:dt="r8">3507724</Frequency><Timestamp dt:dt="r8">1208067676419</Timestamp><Current dt:dt="r8">0</Current><DateUtc dt:dt="string">2016-05-03T21:43:14Z</DateUtc></FrequencyChange></FrequencyChanges></Clock>\n	Hungry_Donkey_bar_English_2-140-1	60.018	-39	1.0.0.18	1	1182554225	Standard	2.0.10.353	2.0.10.353	05-03-2016	5/3/2016 9:43:14 PM	17:43:14	2.0.10.248	41	Bar50-50.bmp	49	1	?	0r_4g.bmp	0r_4g.bmp	0r_2g.bmp	0r_2g.bmp	0r_4g.bmp				TrialProc	TrialList	0	cvbn	-999999	16	202173	0	c	307	202480	122	-126	-4	10	-48	10	24	9	5	41	0	0	0	0	4	4	2	2	0	4
Hungry_Donkey_bar_English_2	140	1	<?xml version="1.0"?>\n<Clock xmlns:dt="urn:schemas-microsoft-com:datatypes"><Description dt:dt="string">E-Prime Primary Realtime Clock</Description><StartTime><Timestamp dt:dt="int">0</Timestamp><DateUtc dt:dt="string">2016-05-03T21:43:14Z</DateUtc></StartTime><FrequencyChanges><FrequencyChange><Frequency dt:dt="r8">3507724</Frequency><Timestamp dt:dt="r8">1208067676419</Timestamp><Current dt:dt="r8">0</Current><DateUtc dt:dt="string">2016-05-03T21:43:14Z</DateUtc></FrequencyChange></FrequencyChanges></Clock>\n	Hungry_Donkey_bar_English_2-140-1	60.018	-39	1.0.0.18	1	1182554225	Standard	2.0.10.353	2.0.10.353	05-03-2016	5/3/2016 9:43:14 PM	17:43:14	2.0.10.248	42	Bar50-50.bmp	50	2	?	0r_4g.bmp	0r_4g.bmp	0r_2g.bmp	0r_2g.bmp		0r_4g.bmp			TrialProc	TrialList	0	cvbn	-999999	16	204505	0	v	263	204768	126	-126	0	10	-44	10	24	8	5	42	0	0	0	0	4	4	2	2	0	4
Hungry_Donkey_bar_English_2	140	1	<?xml version="1.0"?>\n<Clock xmlns:dt="urn:schemas-microsoft-com:datatypes"><Description dt:dt="string">E-Prime Primary Realtime Clock</Description><StartTime><Timestamp dt:dt="int">0</Timestamp><DateUtc dt:dt="string">2016-05-03T21:43:14Z</DateUtc></StartTime><FrequencyChanges><FrequencyChange><Frequency dt:dt="r8">3507724</Frequency><Timestamp dt:dt="r8">1208067676419</Timestamp><Current dt:dt="r8">0</Current><DateUtc dt:dt="string">2016-05-03T21:43:14Z</DateUtc></FrequencyChange></FrequencyChanges></Clock>\n	Hungry_Donkey_bar_English_2-140-1	60.018	-39	1.0.0.18	1	1182554225	Standard	2.0.10.353	2.0.10.353	05-03-2016	5/3/2016 9:43:14 PM	17:43:14	2.0.10.248	43	Bar50-50.bmp	49	1	?	8r_4g.bmp	50r_4g.bmp	1r_2g.bmp	10r_2g.bmp	8r_4g.bmp				TrialProc	TrialList	0	cvbn	-999999	16	206805	0	c	299	207104	130	-134	-4	6	-44	10	24	1	5	43	-8	-50	-1	-10	4	4	2	2	-8	4
Hungry_Donkey_bar_English_2	140	1	<?xml version="1.0"?>\n<Clock xmlns:dt="urn:schemas-microsoft-com:datatypes"><Description dt:dt="string">E-Prime Primary Realtime Clock</Description><StartTime><Timestamp dt:dt="int">0</Timestamp><DateUtc dt:dt="string">2016-05-03T21:43:14Z</DateUtc></StartTime><FrequencyChanges><FrequencyChange><Frequency dt:dt="r8">3507724</Frequency><Timestamp dt:dt="r8">1208067676419</Timestamp><Current dt:dt="r8">0</Current><DateUtc dt:dt="string">2016-05-03T21:43:14Z</DateUtc></FrequencyChange></FrequencyChanges></Clock>\n	Hungry_Donkey_bar_English_2-140-1	60.018	-39	1.0.0.18	1	1182554225	Standard	2.0.10.353	2.0.10.353	05-03-2016	5/3/2016 9:43:14 PM	17:43:14	2.0.10.248	44	Bar50-50.bmp	50	2	?	10r_4g.bmp	0r_4g.bmp	2r_2g.bmp	0r_2g.bmp		0r_4g.bmp			TrialProc	TrialList	0	cvbn	-999999	16	209137	0	v	367	209504	134	-134	0	6	-40	10	24	2	5	44	-10	0	-2	0	4	4	2	2	0	4
Hungry_Donkey_bar_English_2	140	1	<?xml version="1.0"?>\n<Clock xmlns:dt="urn:schemas-microsoft-com:datatypes"><Description dt:dt="string">E-Prime Primary Realtime Clock</Description><StartTime><Timestamp dt:dt="int">0</Timestamp><DateUtc dt:dt="string">2016-05-03T21:43:14Z</DateUtc></StartTime><FrequencyChanges><FrequencyChange><Frequency dt:dt="r8">3507724</Frequency><Timestamp dt:dt="r8">1208067676419</Timestamp><Current dt:dt="r8">0</Current><DateUtc dt:dt="string">2016-05-03T21:43:14Z</DateUtc></FrequencyChange></FrequencyChanges></Clock>\n	Hungry_Donkey_bar_English_2-140-1	60.018	-39	1.0.0.18	1	1182554225	Standard	2.0.10.353	2.0.10.353	05-03-2016	5/3/2016 9:43:14 PM	17:43:14	2.0.10.248	45	Bar50-50.bmp	50	3	?	0r_4g.bmp	0r_4g.bmp	0r_2g.bmp	0r_2g.bmp			0r_2g.bmp		TrialProc	TrialList	0	cvbn	-999999	16	211537	0	b	415	211952	136	-134	2	6	-40	12	24	7	5	45	0	0	0	0	4	4	2	2	0	2
Hungry_Donkey_bar_English_2	140	1	<?xml version="1.0"?>\n<Clock xmlns:dt="urn:schemas-microsoft-com:datatypes"><Description dt:dt="string">E-Prime Primary Realtime Clock</Description><StartTime><Timestamp dt:dt="int">0</Timestamp><DateUtc dt:dt="string">2016-05-03T21:43:14Z</DateUtc></StartTime><FrequencyChanges><FrequencyChange><Frequency dt:dt="r8">3507724</Frequency><Timestamp dt:dt="r8">1208067676419</Timestamp><Current dt:dt="r8">0</Current><DateUtc dt:dt="string">2016-05-03T21:43:14Z</DateUtc></FrequencyChange></FrequencyChanges></Clock>\n	Hungry_Donkey_bar_English_2-140-1	60.018	-39	1.0.0.18	1	1182554225	Standard	2.0.10.353	2.0.10.353	05-03-2016	5/3/2016 9:43:14 PM	17:43:14	2.0.10.248	46	Bar50-50.bmp	51	4	?	10r_4g.bmp	0r_4g.bmp	2r_2g.bmp	0r_2g.bmp				0r_2g.bmp	TrialProc	TrialList	0	cvbn	-999999	16	213986	0	n	845	214831	138	-134	4	6	-40	12	26	3	5	46	-10	0	-2	0	4	4	2	2	0	2
Hungry_Donkey_bar_English_2	140	1	<?xml version="1.0"?>\n<Clock xmlns:dt="urn:schemas-microsoft-com:datatypes"><Description dt:dt="string">E-Prime Primary Realtime Clock</Description><StartTime><Timestamp dt:dt="int">0</Timestamp><DateUtc dt:dt="string">2016-05-03T21:43:14Z</DateUtc></StartTime><FrequencyChanges><FrequencyChange><Frequency dt:dt="r8">3507724</Frequency><Timestamp dt:dt="r8">1208067676419</Timestamp><Current dt:dt="r8">0</Current><DateUtc dt:dt="string">2016-05-03T21:43:14Z</DateUtc></FrequencyChange></FrequencyChanges></Clock>\n	Hungry_Donkey_bar_English_2-140-1	60.018	-39	1.0.0.18	1	1182554225	Standard	2.0.10.353	2.0.10.353	05-03-2016	5/3/2016 9:43:14 PM	17:43:14	2.0.10.248	47	Bar50-50.bmp	51	4	?	12r_4g.bmp	0r_4g.bmp	3r_2g.bmp	0r_2g.bmp				0r_2g.bmp	TrialProc	TrialList	0	cvbn	-999999	16	216868	0	n	427	217295	140	-134	6	6	-40	12	28	5	5	47	-12	0	-3	0	4	4	2	2	0	2
Hungry_Donkey_bar_English_2	140	1	<?xml version="1.0"?>\n<Clock xmlns:dt="urn:schemas-microsoft-com:datatypes"><Description dt:dt="string">E-Prime Primary Realtime Clock</Description><StartTime><Timestamp dt:dt="int">0</Timestamp><DateUtc dt:dt="string">2016-05-03T21:43:14Z</DateUtc></StartTime><FrequencyChanges><FrequencyChange><Frequency dt:dt="r8">3507724</Frequency><Timestamp dt:dt="r8">1208067676419</Timestamp><Current dt:dt="r8">0</Current><DateUtc dt:dt="string">2016-05-03T21:43:14Z</DateUtc></FrequencyChange></FrequencyChanges></Clock>\n	Hungry_Donkey_bar_English_2-140-1	60.018	-39	1.0.0.18	1	1182554225	Standard	2.0.10.353	2.0.10.353	05-03-2016	5/3/2016 9:43:14 PM	17:43:14	2.0.10.248	48	Bar50-50.bmp	51	3	?	10r_4g.bmp	0r_4g.bmp	2r_2g.bmp	0r_2g.bmp			2r_2g.bmp		TrialProc	TrialList	0	cvbn	-999999	16	219334	0	b	249	219583	142	-136	6	6	-40	12	28	4	5	48	-10	0	-2	0	4	4	2	2	-2	2
Hungry_Donkey_bar_English_2	140	1	<?xml version="1.0"?>\n<Clock xmlns:dt="urn:schemas-microsoft-com:datatypes"><Description dt:dt="string">E-Prime Primary Realtime Clock</Description><StartTime><Timestamp dt:dt="int">0</Timestamp><DateUtc dt:dt="string">2016-05-03T21:43:14Z</DateUtc></StartTime><FrequencyChanges><FrequencyChange><Frequency dt:dt="r8">3507724</Frequency><Timestamp dt:dt="r8">1208067676419</Timestamp><Current dt:dt="r8">0</Current><DateUtc dt:dt="string">2016-05-03T21:43:14Z</DateUtc></FrequencyChange></FrequencyChanges></Clock>\n	Hungry_Donkey_bar_English_2-140-1	60.018	-39	1.0.0.18	1	1182554225	Standard	2.0.10.353	2.0.10.353	05-03-2016	5/3/2016 9:43:14 PM	17:43:14	2.0.10.248	49	Bar50-50.bmp	52	2	?	0r_4g.bmp	0r_4g.bmp	0r_2g.bmp	0r_2g.bmp		0r_4g.bmp			TrialProc	TrialList	0	cvbn	-999999	16	221617	0	v	238	221855	146	-136	10	6	-36	12	28	10	5	49	0	0	0	0	4	4	2	2	0	4
Hungry_Donkey_bar_English_2	140	1	<?xml version="1.0"?>\n<Clock xmlns:dt="urn:schemas-microsoft-com:datatypes"><Description dt:dt="string">E-Prime Primary Realtime Clock</Description><StartTime><Timestamp dt:dt="int">0</Timestamp><DateUtc dt:dt="string">2016-05-03T21:43:14Z</DateUtc></StartTime><FrequencyChanges><FrequencyChange><Frequency dt:dt="r8">3507724</Frequency><Timestamp dt:dt="r8">1208067676419</Timestamp><Current dt:dt="r8">0</Current><DateUtc dt:dt="string">2016-05-03T21:43:14Z</DateUtc></FrequencyChange></FrequencyChanges></Clock>\n	Hungry_Donkey_bar_English_2-140-1	60.018	-39	1.0.0.18	1	1182554225	Standard	2.0.10.353	2.0.10.353	05-03-2016	5/3/2016 9:43:14 PM	17:43:14	2.0.10.248	50	Bar50-50.bmp	52	1	?	0r_4g.bmp	0r_4g.bmp	0r_2g.bmp	0r_2g.bmp	0r_4g.bmp				TrialProc	TrialList	0	cvbn	-999999	16	223883	0	c	212	224095	150	-136	14	10	-36	12	28	6	5	50	0	0	0	0	4	4	2	2	0	4
Hungry_Donkey_bar_English_2	140	1	<?xml version="1.0"?>\n<Clock xmlns:dt="urn:schemas-microsoft-com:datatypes"><Description dt:dt="string">E-Prime Primary Realtime Clock</Description><StartTime><Timestamp dt:dt="int">0</Timestamp><DateUtc dt:dt="string">2016-05-03T21:43:14Z</DateUtc></StartTime><FrequencyChanges><FrequencyChange><Frequency dt:dt="r8">3507724</Frequency><Timestamp dt:dt="r8">1208067676419</Timestamp><Current dt:dt="r8">0</Current><DateUtc dt:dt="string">2016-05-03T21:43:14Z</DateUtc></FrequencyChange></FrequencyChanges></Clock>\n	Hungry_Donkey_bar_English_2-140-1	60.018	-39	1.0.0.18	1	1182554225	Standard	2.0.10.353	2.0.10.353	05-03-2016	5/3/2016 9:43:14 PM	17:43:14	2.0.10.248	51	Bar50-50.bmp	52	1	?	8r_4g.bmp	50r_4g.bmp	1r_2g.bmp	10r_2g.bmp	8r_4g.bmp				TrialProc	TrialList	0	cvbn	-999999	16	226132	0	c	283	226415	154	-144	10	6	-36	12	28	1	6	51	-8	-50	-1	-10	4	4	2	2	-8	4
Hungry_Donkey_bar_English_2	140	1	<?xml version="1.0"?>\n<Clock xmlns:dt="urn:schemas-microsoft-com:datatypes"><Description dt:dt="string">E-Prime Primary Realtime Clock</Description><StartTime><Timestamp dt:dt="int">0</Timestamp><DateUtc dt:dt="string">2016-05-03T21:43:14Z</DateUtc></StartTime><FrequencyChanges><FrequencyChange><Frequency dt:dt="r8">3507724</Frequency><Timestamp dt:dt="r8">1208067676419</Timestamp><Current dt:dt="r8">0</Current><DateUtc dt:dt="string">2016-05-03T21:43:14Z</DateUtc></FrequencyChange></FrequencyChanges></Clock>\n	Hungry_Donkey_bar_English_2-140-1	60.018	-39	1.0.0.18	1	1182554225	Standard	2.0.10.353	2.0.10.353	05-03-2016	5/3/2016 9:43:14 PM	17:43:14	2.0.10.248	52	Bar50-50.bmp	51	1	?	10r_4g.bmp	0r_4g.bmp	2r_2g.bmp	0r_2g.bmp	10r_4g.bmp				TrialProc	TrialList	0	cvbn	-999999	16	228448	0	c	302	228750	158	-154	4	0	-36	12	28	4	6	52	-10	0	-2	0	4	4	2	2	-10	4
Hungry_Donkey_bar_English_2	140	1	<?xml version="1.0"?>\n<Clock xmlns:dt="urn:schemas-microsoft-com:datatypes"><Description dt:dt="string">E-Prime Primary Realtime Clock</Description><StartTime><Timestamp dt:dt="int">0</Timestamp><DateUtc dt:dt="string">2016-05-03T21:43:14Z</DateUtc></StartTime><FrequencyChanges><FrequencyChange><Frequency dt:dt="r8">3507724</Frequency><Timestamp dt:dt="r8">1208067676419</Timestamp><Current dt:dt="r8">0</Current><DateUtc dt:dt="string">2016-05-03T21:43:14Z</DateUtc></FrequencyChange></FrequencyChanges></Clock>\n	Hungry_Donkey_bar_English_2-140-1	60.018	-39	1.0.0.18	1	1182554225	Standard	2.0.10.353	2.0.10.353	05-03-2016	5/3/2016 9:43:14 PM	17:43:14	2.0.10.248	53	Bar50-50.bmp	49	1	?	12r_4g.bmp	0r_4g.bmp	3r_2g.bmp	0r_2g.bmp	12r_4g.bmp				TrialProc	TrialList	0	cvbn	-999999	16	230781	0	c	289	231070	162	-166	-4	-8	-36	12	28	5	6	53	-12	0	-3	0	4	4	2	2	-12	4
Hungry_Donkey_bar_English_2	140	1	<?xml version="1.0"?>\n<Clock xmlns:dt="urn:schemas-microsoft-com:datatypes"><Description dt:dt="string">E-Prime Primary Realtime Clock</Description><StartTime><Timestamp dt:dt="int">0</Timestamp><DateUtc dt:dt="string">2016-05-03T21:43:14Z</DateUtc></StartTime><FrequencyChanges><FrequencyChange><Frequency dt:dt="r8">3507724</Frequency><Timestamp dt:dt="r8">1208067676419</Timestamp><Current dt:dt="r8">0</Current><DateUtc dt:dt="string">2016-05-03T21:43:14Z</DateUtc></FrequencyChange></FrequencyChanges></Clock>\n	Hungry_Donkey_bar_English_2-140-1	60.018	-39	1.0.0.18	1	1182554225	Standard	2.0.10.353	2.0.10.353	05-03-2016	5/3/2016 9:43:14 PM	17:43:14	2.0.10.248	54	Bar50-50.bmp	50	2	?	0r_4g.bmp	0r_4g.bmp	0r_2g.bmp	0r_2g.bmp		0r_4g.bmp			TrialProc	TrialList	0	cvbn	-999999	16	233097	0	v	293	233390	166	-166	0	-8	-32	12	28	9	6	54	0	0	0	0	4	4	2	2	0	4
Hungry_Donkey_bar_English_2	140	1	<?xml version="1.0"?>\n<Clock xmlns:dt="urn:schemas-microsoft-com:datatypes"><Description dt:dt="string">E-Prime Primary Realtime Clock</Description><StartTime><Timestamp dt:dt="int">0</Timestamp><DateUtc dt:dt="string">2016-05-03T21:43:14Z</DateUtc></StartTime><FrequencyChanges><FrequencyChange><Frequency dt:dt="r8">3507724</Frequency><Timestamp dt:dt="r8">1208067676419</Timestamp><Current dt:dt="r8">0</Current><DateUtc dt:dt="string">2016-05-03T21:43:14Z</DateUtc></FrequencyChange></FrequencyChanges></Clock>\n	Hungry_Donkey_bar_English_2-140-1	60.018	-39	1.0.0.18	1	1182554225	Standard	2.0.10.353	2.0.10.353	05-03-2016	5/3/2016 9:43:14 PM	17:43:14	2.0.10.248	55	Bar50-50.bmp	51	2	?	0r_4g.bmp	0r_4g.bmp	0r_2g.bmp	0r_2g.bmp		0r_4g.bmp			TrialProc	TrialList	0	cvbn	-999999	16	235429	0	v	265	235694	170	-166	4	-8	-28	12	28	10	6	55	0	0	0	0	4	4	2	2	0	4
Hungry_Donkey_bar_English_2	140	1	<?xml version="1.0"?>\n<Clock xmlns:dt="urn:schemas-microsoft-com:datatypes"><Description dt:dt="string">E-Prime Primary Realtime Clock</Description><StartTime><Timestamp dt:dt="int">0</Timestamp><DateUtc dt:dt="string">2016-05-03T21:43:14Z</DateUtc></StartTime><FrequencyChanges><FrequencyChange><Frequency dt:dt="r8">3507724</Frequency><Timestamp dt:dt="r8">1208067676419</Timestamp><Current dt:dt="r8">0</Current><DateUtc dt:dt="string">2016-05-03T21:43:14Z</DateUtc></FrequencyChange></FrequencyChanges></Clock>\n	Hungry_Donkey_bar_English_2-140-1	60.018	-39	1.0.0.18	1	1182554225	Standard	2.0.10.353	2.0.10.353	05-03-2016	5/3/2016 9:43:14 PM	17:43:14	2.0.10.248	56	Bar50-50.bmp	51	3	?	10r_4g.bmp	0r_4g.bmp	2r_2g.bmp	0r_2g.bmp			2r_2g.bmp		TrialProc	TrialList	0	cvbn	-999999	16	237729	0	b	301	238030	172	-168	4	-8	-28	12	28	3	6	56	-10	0	-2	0	4	4	2	2	-2	2
Hungry_Donkey_bar_English_2	140	1	<?xml version="1.0"?>\n<Clock xmlns:dt="urn:schemas-microsoft-com:datatypes"><Description dt:dt="string">E-Prime Primary Realtime Clock</Description><StartTime><Timestamp dt:dt="int">0</Timestamp><DateUtc dt:dt="string">2016-05-03T21:43:14Z</DateUtc></StartTime><FrequencyChanges><FrequencyChange><Frequency dt:dt="r8">3507724</Frequency><Timestamp dt:dt="r8">1208067676419</Timestamp><Current dt:dt="r8">0</Current><DateUtc dt:dt="string">2016-05-03T21:43:14Z</DateUtc></FrequencyChange></FrequencyChanges></Clock>\n	Hungry_Donkey_bar_English_2-140-1	60.018	-39	1.0.0.18	1	1182554225	Standard	2.0.10.353	2.0.10.353	05-03-2016	5/3/2016 9:43:14 PM	17:43:14	2.0.10.248	57	Bar50-50.bmp	51	3	?	0r_4g.bmp	0r_4g.bmp	0r_2g.bmp	0r_2g.bmp			0r_2g.bmp		TrialProc	TrialList	0	cvbn	-999999	16	240061	0	b	305	240366	174	-168	6	-8	-28	14	28	7	6	57	0	0	0	0	4	4	2	2	0	2
Hungry_Donkey_bar_English_2	140	1	<?xml version="1.0"?>\n<Clock xmlns:dt="urn:schemas-microsoft-com:datatypes"><Description dt:dt="string">E-Prime Primary Realtime Clock</Description><StartTime><Timestamp dt:dt="int">0</Timestamp><DateUtc dt:dt="string">2016-05-03T21:43:14Z</DateUtc></StartTime><FrequencyChanges><FrequencyChange><Frequency dt:dt="r8">3507724</Frequency><Timestamp dt:dt="r8">1208067676419</Timestamp><Current dt:dt="r8">0</Current><DateUtc dt:dt="string">2016-05-03T21:43:14Z</DateUtc></FrequencyChange></FrequencyChanges></Clock>\n	Hungry_Donkey_bar_English_2-140-1	60.018	-39	1.0.0.18	1	1182554225	Standard	2.0.10.353	2.0.10.353	05-03-2016	5/3/2016 9:43:14 PM	17:43:14	2.0.10.248	58	Bar50-50.bmp	51	4	?	0r_4g.bmp	0r_4g.bmp	0r_2g.bmp	0r_2g.bmp				0r_2g.bmp	TrialProc	TrialList	0	cvbn	-999999	16	242394	0	n	404	242798	176	-168	8	-8	-28	14	30	8	6	58	0	0	0	0	4	4	2	2	0	2
Hungry_Donkey_bar_English_2	140	1	<?xml version="1.0"?>\n<Clock xmlns:dt="urn:schemas-microsoft-com:datatypes"><Description dt:dt="string">E-Prime Primary Realtime Clock</Description><StartTime><Timestamp dt:dt="int">0</Timestamp><DateUtc dt:dt="string">2016-05-03T21:43:14Z</DateUtc></StartTime><FrequencyChanges><FrequencyChange><Frequency dt:dt="r8">3507724</Frequency><Timestamp dt:dt="r8">1208067676419</Timestamp><Current dt:dt="r8">0</Current><DateUtc dt:dt="string">2016-05-03T21:43:14Z</DateUtc></FrequencyChange></FrequencyChanges></Clock>\n	Hungry_Donkey_bar_English_2-140-1	60.018	-39	1.0.0.18	1	1182554225	Standard	2.0.10.353	2.0.10.353	05-03-2016	5/3/2016 9:43:14 PM	17:43:14	2.0.10.248	59	Bar50-50.bmp	51	4	?	10r_4g.bmp	0r_4g.bmp	2r_2g.bmp	0r_2g.bmp				0r_2g.bmp	TrialProc	TrialList	0	cvbn	-999999	16	244827	0	n	450	245277	178	-168	10	-8	-28	14	32	2	6	59	-10	0	-2	0	4	4	2	2	0	2
Hungry_Donkey_bar_English_2	140	1	<?xml version="1.0"?>\n<Clock xmlns:dt="urn:schemas-microsoft-com:datatypes"><Description dt:dt="string">E-Prime Primary Realtime Clock</Description><StartTime><Timestamp dt:dt="int">0</Timestamp><DateUtc dt:dt="string">2016-05-03T21:43:14Z</DateUtc></StartTime><FrequencyChanges><FrequencyChange><Frequency dt:dt="r8">3507724</Frequency><Timestamp dt:dt="r8">1208067676419</Timestamp><Current dt:dt="r8">0</Current><DateUtc dt:dt="string">2016-05-03T21:43:14Z</DateUtc></FrequencyChange></FrequencyChanges></Clock>\n	Hungry_Donkey_bar_English_2-140-1	60.018	-39	1.0.0.18	1	1182554225	Standard	2.0.10.353	2.0.10.353	05-03-2016	5/3/2016 9:43:14 PM	17:43:14	2.0.10.248	60	Bar50-50.bmp	52	3	?	0r_4g.bmp	0r_4g.bmp	0r_2g.bmp	0r_2g.bmp			0r_2g.bmp		TrialProc	TrialList	0	cvbn	-999999	16	247309	0	b	304	247613	180	-168	12	-8	-28	16	32	6	6	60	0	0	0	0	4	4	2	2	0	2
Hungry_Donkey_bar_English_2	140	1	<?xml version="1.0"?>\n<Clock xmlns:dt="urn:schemas-microsoft-com:datatypes"><Description dt:dt="string">E-Prime Primary Realtime Clock</Description><StartTime><Timestamp dt:dt="int">0</Timestamp><DateUtc dt:dt="string">2016-05-03T21:43:14Z</DateUtc></StartTime><FrequencyChanges><FrequencyChange><Frequency dt:dt="r8">3507724</Frequency><Timestamp dt:dt="r8">1208067676419</Timestamp><Current dt:dt="r8">0</Current><DateUtc dt:dt="string">2016-05-03T21:43:14Z</DateUtc></FrequencyChange></FrequencyChanges></Clock>\n	Hungry_Donkey_bar_English_2-140-1	60.018	-39	1.0.0.18	1	1182554225	Standard	2.0.10.353	2.0.10.353	05-03-2016	5/3/2016 9:43:14 PM	17:43:14	2.0.10.248	61	Bar50-50.bmp	52	2	?	10r_4g.bmp	0r_4g.bmp	2r_2g.bmp	0r_2g.bmp		0r_4g.bmp			TrialProc	TrialList	0	cvbn	-999999	16	249642	0	v	371	250013	184	-168	16	-8	-24	16	32	3	7	61	-10	0	-2	0	4	4	2	2	0	4
Hungry_Donkey_bar_English_2	140	1	<?xml version="1.0"?>\n<Clock xmlns:dt="urn:schemas-microsoft-com:datatypes"><Description dt:dt="string">E-Prime Primary Realtime Clock</Description><StartTime><Timestamp dt:dt="int">0</Timestamp><DateUtc dt:dt="string">2016-05-03T21:43:14Z</DateUtc></StartTime><FrequencyChanges><FrequencyChange><Frequency dt:dt="r8">3507724</Frequency><Timestamp dt:dt="r8">1208067676419</Timestamp><Current dt:dt="r8">0</Current><DateUtc dt:dt="string">2016-05-03T21:43:14Z</DateUtc></FrequencyChange></FrequencyChanges></Clock>\n	Hungry_Donkey_bar_English_2-140-1	60.018	-39	1.0.0.18	1	1182554225	Standard	2.0.10.353	2.0.10.353	05-03-2016	5/3/2016 9:43:14 PM	17:43:14	2.0.10.248	62	Bar50-50.bmp	53	4	?	10r_4g.bmp	0r_4g.bmp	2r_2g.bmp	0r_2g.bmp				0r_2g.bmp	TrialProc	TrialList	0	cvbn	-999999	16	252041	0	n	820	252861	186	-168	18	-8	-24	16	34	2	7	62	-10	0	-2	0	4	4	2	2	0	2
Hungry_Donkey_bar_English_2	140	1	<?xml version="1.0"?>\n<Clock xmlns:dt="urn:schemas-microsoft-com:datatypes"><Description dt:dt="string">E-Prime Primary Realtime Clock</Description><StartTime><Timestamp dt:dt="int">0</Timestamp><DateUtc dt:dt="string">2016-05-03T21:43:14Z</DateUtc></StartTime><FrequencyChanges><FrequencyChange><Frequency dt:dt="r8">3507724</Frequency><Timestamp dt:dt="r8">1208067676419</Timestamp><Current dt:dt="r8">0</Current><DateUtc dt:dt="string">2016-05-03T21:43:14Z</DateUtc></FrequencyChange></FrequencyChanges></Clock>\n	Hungry_Donkey_bar_English_2-140-1	60.018	-39	1.0.0.18	1	1182554225	Standard	2.0.10.353	2.0.10.353	05-03-2016	5/3/2016 9:43:14 PM	17:43:14	2.0.10.248	63	Bar50-50.bmp	53	3	?	10r_4g.bmp	0r_4g.bmp	2r_2g.bmp	0r_2g.bmp			2r_2g.bmp		TrialProc	TrialList	0	cvbn	-999999	16	254890	0	b	307	255197	188	-170	18	-8	-24	16	34	4	7	63	-10	0	-2	0	4	4	2	2	-2	2
Hungry_Donkey_bar_English_2	140	1	<?xml version="1.0"?>\n<Clock xmlns:dt="urn:schemas-microsoft-com:datatypes"><Description dt:dt="string">E-Prime Primary Realtime Clock</Description><StartTime><Timestamp dt:dt="int">0</Timestamp><DateUtc dt:dt="string">2016-05-03T21:43:14Z</DateUtc></StartTime><FrequencyChanges><FrequencyChange><Frequency dt:dt="r8">3507724</Frequency><Timestamp dt:dt="r8">1208067676419</Timestamp><Current dt:dt="r8">0</Current><DateUtc dt:dt="string">2016-05-03T21:43:14Z</DateUtc></FrequencyChange></FrequencyChanges></Clock>\n	Hungry_Donkey_bar_English_2-140-1	60.018	-39	1.0.0.18	1	1182554225	Standard	2.0.10.353	2.0.10.353	05-03-2016	5/3/2016 9:43:14 PM	17:43:14	2.0.10.248	64	Bar50-50.bmp	47	2	?	8r_4g.bmp	50r_4g.bmp	1r_2g.bmp	10r_2g.bmp		50r_4g.bmp			TrialProc	TrialList	0	cvbn	-999999	16	257223	0	v	406	257629	192	-220	-28	-8	-70	16	34	1	7	64	-8	-50	-1	-10	4	4	2	2	-50	4
Hungry_Donkey_bar_English_2	140	1	<?xml version="1.0"?>\n<Clock xmlns:dt="urn:schemas-microsoft-com:datatypes"><Description dt:dt="string">E-Prime Primary Realtime Clock</Description><StartTime><Timestamp dt:dt="int">0</Timestamp><DateUtc dt:dt="string">2016-05-03T21:43:14Z</DateUtc></StartTime><FrequencyChanges><FrequencyChange><Frequency dt:dt="r8">3507724</Frequency><Timestamp dt:dt="r8">1208067676419</Timestamp><Current dt:dt="r8">0</Current><DateUtc dt:dt="string">2016-05-03T21:43:14Z</DateUtc></FrequencyChange></FrequencyChanges></Clock>\n	Hungry_Donkey_bar_English_2-140-1	60.018	-39	1.0.0.18	1	1182554225	Standard	2.0.10.353	2.0.10.353	05-03-2016	5/3/2016 9:43:14 PM	17:43:14	2.0.10.248	65	Bar50-50.bmp	47	1	?	0r_4g.bmp	0r_4g.bmp	0r_2g.bmp	0r_2g.bmp	0r_4g.bmp				TrialProc	TrialList	0	cvbn	-999999	17	259656	0	c	181	259837	196	-220	-24	-4	-70	16	34	7	7	65	0	0	0	0	4	4	2	2	0	4
Hungry_Donkey_bar_English_2	140	1	<?xml version="1.0"?>\n<Clock xmlns:dt="urn:schemas-microsoft-com:datatypes"><Description dt:dt="string">E-Prime Primary Realtime Clock</Description><StartTime><Timestamp dt:dt="int">0</Timestamp><DateUtc dt:dt="string">2016-05-03T21:43:14Z</DateUtc></StartTime><FrequencyChanges><FrequencyChange><Frequency dt:dt="r8">3507724</Frequency><Timestamp dt:dt="r8">1208067676419</Timestamp><Current dt:dt="r8">0</Current><DateUtc dt:dt="string">2016-05-03T21:43:14Z</DateUtc></FrequencyChange></FrequencyChanges></Clock>\n	Hungry_Donkey_bar_English_2-140-1	60.018	-39	1.0.0.18	1	1182554225	Standard	2.0.10.353	2.0.10.353	05-03-2016	5/3/2016 9:43:14 PM	17:43:14	2.0.10.248	66	Bar50-50.bmp	47	3	?	0r_4g.bmp	0r_4g.bmp	0r_2g.bmp	0r_2g.bmp			0r_2g.bmp		TrialProc	TrialList	0	cvbn	-999999	17	261872	0	b	156	262028	198	-220	-22	-4	-70	18	34	10	7	66	0	0	0	0	4	4	2	2	0	2
Hungry_Donkey_bar_English_2	140	1	<?xml version="1.0"?>\n<Clock xmlns:dt="urn:schemas-microsoft-com:datatypes"><Description dt:dt="string">E-Prime Primary Realtime Clock</Description><StartTime><Timestamp dt:dt="int">0</Timestamp><DateUtc dt:dt="string">2016-05-03T21:43:14Z</DateUtc></StartTime><FrequencyChanges><FrequencyChange><Frequency dt:dt="r8">3507724</Frequency><Timestamp dt:dt="r8">1208067676419</Timestamp><Current dt:dt="r8">0</Current><DateUtc dt:dt="string">2016-05-03T21:43:14Z</DateUtc></FrequencyChange></FrequencyChanges></Clock>\n	Hungry_Donkey_bar_English_2-140-1	60.018	-39	1.0.0.18	1	1182554225	Standard	2.0.10.353	2.0.10.353	05-03-2016	5/3/2016 9:43:14 PM	17:43:14	2.0.10.248	67	Bar50-50.bmp	48	4	?	0r_4g.bmp	0r_4g.bmp	0r_2g.bmp	0r_2g.bmp				0r_2g.bmp	TrialProc	TrialList	0	cvbn	-999999	16	264054	0	n	486	264540	200	-220	-20	-4	-70	18	36	6	7	67	0	0	0	0	4	4	2	2	0	2
Hungry_Donkey_bar_English_2	140	1	<?xml version="1.0"?>\n<Clock xmlns:dt="urn:schemas-microsoft-com:datatypes"><Description dt:dt="string">E-Prime Primary Realtime Clock</Description><StartTime><Timestamp dt:dt="int">0</Timestamp><DateUtc dt:dt="string">2016-05-03T21:43:14Z</DateUtc></StartTime><FrequencyChanges><FrequencyChange><Frequency dt:dt="r8">3507724</Frequency><Timestamp dt:dt="r8">1208067676419</Timestamp><Current dt:dt="r8">0</Current><DateUtc dt:dt="string">2016-05-03T21:43:14Z</DateUtc></FrequencyChange></FrequencyChanges></Clock>\n	Hungry_Donkey_bar_English_2-140-1	60.018	-39	1.0.0.18	1	1182554225	Standard	2.0.10.353	2.0.10.353	05-03-2016	5/3/2016 9:43:14 PM	17:43:14	2.0.10.248	68	Bar50-50.bmp	48	2	?	0r_4g.bmp	0r_4g.bmp	0r_2g.bmp	0r_2g.bmp		0r_4g.bmp			TrialProc	TrialList	0	cvbn	-999999	16	266570	0	v	354	266924	204	-220	-16	-4	-66	18	36	9	7	68	0	0	0	0	4	4	2	2	0	4
Hungry_Donkey_bar_English_2	140	1	<?xml version="1.0"?>\n<Clock xmlns:dt="urn:schemas-microsoft-com:datatypes"><Description dt:dt="string">E-Prime Primary Realtime Clock</Description><StartTime><Timestamp dt:dt="int">0</Timestamp><DateUtc dt:dt="string">2016-05-03T21:43:14Z</DateUtc></StartTime><FrequencyChanges><FrequencyChange><Frequency dt:dt="r8">3507724</Frequency><Timestamp dt:dt="r8">1208067676419</Timestamp><Current dt:dt="r8">0</Current><DateUtc dt:dt="string">2016-05-03T21:43:14Z</DateUtc></FrequencyChange></FrequencyChanges></Clock>\n	Hungry_Donkey_bar_English_2-140-1	60.018	-39	1.0.0.18	1	1182554225	Standard	2.0.10.353	2.0.10.353	05-03-2016	5/3/2016 9:43:14 PM	17:43:14	2.0.10.248	69	Bar50-50.bmp	48	3	?	0r_4g.bmp	0r_4g.bmp	0r_2g.bmp	0r_2g.bmp			0r_2g.bmp		TrialProc	TrialList	0	cvbn	-999999	16	268953	0	b	419	269372	206	-220	-14	-4	-66	20	36	8	7	69	0	0	0	0	4	4	2	2	0	2
Hungry_Donkey_bar_English_2	140	1	<?xml version="1.0"?>\n<Clock xmlns:dt="urn:schemas-microsoft-com:datatypes"><Description dt:dt="string">E-Prime Primary Realtime Clock</Description><StartTime><Timestamp dt:dt="int">0</Timestamp><DateUtc dt:dt="string">2016-05-03T21:43:14Z</DateUtc></StartTime><FrequencyChanges><FrequencyChange><Frequency dt:dt="r8">3507724</Frequency><Timestamp dt:dt="r8">1208067676419</Timestamp><Current dt:dt="r8">0</Current><DateUtc dt:dt="string">2016-05-03T21:43:14Z</DateUtc></FrequencyChange></FrequencyChanges></Clock>\n	Hungry_Donkey_bar_English_2-140-1	60.018	-39	1.0.0.18	1	1182554225	Standard	2.0.10.353	2.0.10.353	05-03-2016	5/3/2016 9:43:14 PM	17:43:14	2.0.10.248	70	Bar50-50.bmp	49	2	?	12r_4g.bmp	0r_4g.bmp	3r_2g.bmp	0r_2g.bmp		0r_4g.bmp			TrialProc	TrialList	0	cvbn	-999999	16	271402	0	v	114	271516	210	-220	-10	-4	-62	20	36	5	7	70	-12	0	-3	0	4	4	2	2	0	4
Hungry_Donkey_bar_English_2	140	1	<?xml version="1.0"?>\n<Clock xmlns:dt="urn:schemas-microsoft-com:datatypes"><Description dt:dt="string">E-Prime Primary Realtime Clock</Description><StartTime><Timestamp dt:dt="int">0</Timestamp><DateUtc dt:dt="string">2016-05-03T21:43:14Z</DateUtc></StartTime><FrequencyChanges><FrequencyChange><Frequency dt:dt="r8">3507724</Frequency><Timestamp dt:dt="r8">1208067676419</Timestamp><Current dt:dt="r8">0</Current><DateUtc dt:dt="string">2016-05-03T21:43:14Z</DateUtc></FrequencyChange></FrequencyChanges></Clock>\n	Hungry_Donkey_bar_English_2-140-1	60.018	-39	1.0.0.18	1	1182554225	Standard	2.0.10.353	2.0.10.353	05-03-2016	5/3/2016 9:43:14 PM	17:43:14	2.0.10.248	71	Bar50-50.bmp	49	2	?	10r_4g.bmp	0r_4g.bmp	2r_2g.bmp	0r_2g.bmp		0r_4g.bmp			TrialProc	TrialList	0	cvbn	-999999	16	273551	0	v	429	273980	214	-220	-6	-4	-58	20	36	2	8	71	-10	0	-2	0	4	4	2	2	0	4
Hungry_Donkey_bar_English_2	140	1	<?xml version="1.0"?>\n<Clock xmlns:dt="urn:schemas-microsoft-com:datatypes"><Description dt:dt="string">E-Prime Primary Realtime Clock</Description><StartTime><Timestamp dt:dt="int">0</Timestamp><DateUtc dt:dt="string">2016-05-03T21:43:14Z</DateUtc></StartTime><FrequencyChanges><FrequencyChange><Frequency dt:dt="r8">3507724</Frequency><Timestamp dt:dt="r8">1208067676419</Timestamp><Current dt:dt="r8">0</Current><DateUtc dt:dt="string">2016-05-03T21:43:14Z</DateUtc></FrequencyChange></FrequencyChanges></Clock>\n	Hungry_Donkey_bar_English_2-140-1	60.018	-39	1.0.0.18	1	1182554225	Standard	2.0.10.353	2.0.10.353	05-03-2016	5/3/2016 9:43:14 PM	17:43:14	2.0.10.248	72	Bar50-50.bmp	50	2	?	10r_4g.bmp	0r_4g.bmp	2r_2g.bmp	0r_2g.bmp		0r_4g.bmp			TrialProc	TrialList	0	cvbn	-999999	16	276017	0	v	283	276300	218	-220	-2	-4	-54	20	36	3	8	72	-10	0	-2	0	4	4	2	2	0	4
Hungry_Donkey_bar_English_2	140	1	<?xml version="1.0"?>\n<Clock xmlns:dt="urn:schemas-microsoft-com:datatypes"><Description dt:dt="string">E-Prime Primary Realtime Clock</Description><StartTime><Timestamp dt:dt="int">0</Timestamp><DateUtc dt:dt="string">2016-05-03T21:43:14Z</DateUtc></StartTime><FrequencyChanges><FrequencyChange><Frequency dt:dt="r8">3507724</Frequency><Timestamp dt:dt="r8">1208067676419</Timestamp><Current dt:dt="r8">0</Current><DateUtc dt:dt="string">2016-05-03T21:43:14Z</DateUtc></FrequencyChange></FrequencyChanges></Clock>\n	Hungry_Donkey_bar_English_2-140-1	60.018	-39	1.0.0.18	1	1182554225	Standard	2.0.10.353	2.0.10.353	05-03-2016	5/3/2016 9:43:14 PM	17:43:14	2.0.10.248	73	Bar50-50.bmp	45	2	?	8r_4g.bmp	50r_4g.bmp	1r_2g.bmp	10r_2g.bmp		50r_4g.bmp			TrialProc	TrialList	0	cvbn	-999999	16	278333	0	v	318	278651	222	-270	-48	-4	-100	20	36	1	8	73	-8	-50	-1	-10	4	4	2	2	-50	4
Hungry_Donkey_bar_English_2	140	1	<?xml version="1.0"?>\n<Clock xmlns:dt="urn:schemas-microsoft-com:datatypes"><Description dt:dt="string">E-Prime Primary Realtime Clock</Description><StartTime><Timestamp dt:dt="int">0</Timestamp><DateUtc dt:dt="string">2016-05-03T21:43:14Z</DateUtc></StartTime><FrequencyChanges><FrequencyChange><Frequency dt:dt="r8">3507724</Frequency><Timestamp dt:dt="r8">1208067676419</Timestamp><Current dt:dt="r8">0</Current><DateUtc dt:dt="string">2016-05-03T21:43:14Z</DateUtc></FrequencyChange></FrequencyChanges></Clock>\n	Hungry_Donkey_bar_English_2-140-1	60.018	-39	1.0.0.18	1	1182554225	Standard	2.0.10.353	2.0.10.353	05-03-2016	5/3/2016 9:43:14 PM	17:43:14	2.0.10.248	74	Bar50-50.bmp	46	2	?	0r_4g.bmp	0r_4g.bmp	0r_2g.bmp	0r_2g.bmp		0r_4g.bmp			TrialProc	TrialList	0	cvbn	-999999	16	280683	0	v	464	281147	226	-270	-44	-4	-96	20	36	9	8	74	0	0	0	0	4	4	2	2	0	4
Hungry_Donkey_bar_English_2	140	1	<?xml version="1.0"?>\n<Clock xmlns:dt="urn:schemas-microsoft-com:datatypes"><Description dt:dt="string">E-Prime Primary Realtime Clock</Description><StartTime><Timestamp dt:dt="int">0</Timestamp><DateUtc dt:dt="string">2016-05-03T21:43:14Z</DateUtc></StartTime><FrequencyChanges><FrequencyChange><Frequency dt:dt="r8">3507724</Frequency><Timestamp dt:dt="r8">1208067676419</Timestamp><Current dt:dt="r8">0</Current><DateUtc dt:dt="string">2016-05-03T21:43:14Z</DateUtc></FrequencyChange></FrequencyChanges></Clock>\n	Hungry_Donkey_bar_English_2-140-1	60.018	-39	1.0.0.18	1	1182554225	Standard	2.0.10.353	2.0.10.353	05-03-2016	5/3/2016 9:43:14 PM	17:43:14	2.0.10.248	75	Bar50-50.bmp	46	2	?	12r_4g.bmp	0r_4g.bmp	3r_2g.bmp	0r_2g.bmp		0r_4g.bmp			TrialProc	TrialList	0	cvbn	-999999	16	283182	0	v	269	283451	230	-270	-40	-4	-92	20	36	5	8	75	-12	0	-3	0	4	4	2	2	0	4
Hungry_Donkey_bar_English_2	140	1	<?xml version="1.0"?>\n<Clock xmlns:dt="urn:schemas-microsoft-com:datatypes"><Description dt:dt="string">E-Prime Primary Realtime Clock</Description><StartTime><Timestamp dt:dt="int">0</Timestamp><DateUtc dt:dt="string">2016-05-03T21:43:14Z</DateUtc></StartTime><FrequencyChanges><FrequencyChange><Frequency dt:dt="r8">3507724</Frequency><Timestamp dt:dt="r8">1208067676419</Timestamp><Current dt:dt="r8">0</Current><DateUtc dt:dt="string">2016-05-03T21:43:14Z</DateUtc></FrequencyChange></FrequencyChanges></Clock>\n	Hungry_Donkey_bar_English_2-140-1	60.018	-39	1.0.0.18	1	1182554225	Standard	2.0.10.353	2.0.10.353	05-03-2016	5/3/2016 9:43:14 PM	17:43:14	2.0.10.248	76	Bar50-50.bmp	46	3	?	10r_4g.bmp	0r_4g.bmp	2r_2g.bmp	0r_2g.bmp			2r_2g.bmp		TrialProc	TrialList	0	cvbn	-999999	16	285481	0	b	386	285867	232	-272	-40	-4	-92	20	36	4	8	76	-10	0	-2	0	4	4	2	2	-2	2
Hungry_Donkey_bar_English_2	140	1	<?xml version="1.0"?>\n<Clock xmlns:dt="urn:schemas-microsoft-com:datatypes"><Description dt:dt="string">E-Prime Primary Realtime Clock</Description><StartTime><Timestamp dt:dt="int">0</Timestamp><DateUtc dt:dt="string">2016-05-03T21:43:14Z</DateUtc></StartTime><FrequencyChanges><FrequencyChange><Frequency dt:dt="r8">3507724</Frequency><Timestamp dt:dt="r8">1208067676419</Timestamp><Current dt:dt="r8">0</Current><DateUtc dt:dt="string">2016-05-03T21:43:14Z</DateUtc></FrequencyChange></FrequencyChanges></Clock>\n	Hungry_Donkey_bar_English_2-140-1	60.018	-39	1.0.0.18	1	1182554225	Standard	2.0.10.353	2.0.10.353	05-03-2016	5/3/2016 9:43:14 PM	17:43:14	2.0.10.248	77	Bar50-50.bmp	46	4	?	0r_4g.bmp	0r_4g.bmp	0r_2g.bmp	0r_2g.bmp				0r_2g.bmp	TrialProc	TrialList	0	cvbn	-999999	16	287897	0	n	338	288235	234	-272	-38	-4	-92	20	38	8	8	77	0	0	0	0	4	4	2	2	0	2
Hungry_Donkey_bar_English_2	140	1	<?xml version="1.0"?>\n<Clock xmlns:dt="urn:schemas-microsoft-com:datatypes"><Description dt:dt="string">E-Prime Primary Realtime Clock</Description><StartTime><Timestamp dt:dt="int">0</Timestamp><DateUtc dt:dt="string">2016-05-03T21:43:14Z</DateUtc></StartTime><FrequencyChanges><FrequencyChange><Frequency dt:dt="r8">3507724</Frequency><Timestamp dt:dt="r8">1208067676419</Timestamp><Current dt:dt="r8">0</Current><DateUtc dt:dt="string">2016-05-03T21:43:14Z</DateUtc></FrequencyChange></FrequencyChanges></Clock>\n	Hungry_Donkey_bar_English_2-140-1	60.018	-39	1.0.0.18	1	1182554225	Standard	2.0.10.353	2.0.10.353	05-03-2016	5/3/2016 9:43:14 PM	17:43:14	2.0.10.248	78	Bar50-50.bmp	46	4	?	0r_4g.bmp	0r_4g.bmp	0r_2g.bmp	0r_2g.bmp				0r_2g.bmp	TrialProc	TrialList	0	cvbn	-999999	16	290263	0	n	372	290635	236	-272	-36	-4	-92	20	40	10	8	78	0	0	0	0	4	4	2	2	0	2
Hungry_Donkey_bar_English_2	140	1	<?xml version="1.0"?>\n<Clock xmlns:dt="urn:schemas-microsoft-com:datatypes"><Description dt:dt="string">E-Prime Primary Realtime Clock</Description><StartTime><Timestamp dt:dt="int">0</Timestamp><DateUtc dt:dt="string">2016-05-03T21:43:14Z</DateUtc></StartTime><FrequencyChanges><FrequencyChange><Frequency dt:dt="r8">3507724</Frequency><Timestamp dt:dt="r8">1208067676419</Timestamp><Current dt:dt="r8">0</Current><DateUtc dt:dt="string">2016-05-03T21:43:14Z</DateUtc></FrequencyChange></FrequencyChanges></Clock>\n	Hungry_Donkey_bar_English_2-140-1	60.018	-39	1.0.0.18	1	1182554225	Standard	2.0.10.353	2.0.10.353	05-03-2016	5/3/2016 9:43:14 PM	17:43:14	2.0.10.248	79	Bar50-50.bmp	47	4	?	0r_4g.bmp	0r_4g.bmp	0r_2g.bmp	0r_2g.bmp				0r_2g.bmp	TrialProc	TrialList	0	cvbn	-999999	16	292662	0	n	388	293050	238	-272	-34	-4	-92	20	42	6	8	79	0	0	0	0	4	4	2	2	0	2
Hungry_Donkey_bar_English_2	140	1	<?xml version="1.0"?>\n<Clock xmlns:dt="urn:schemas-microsoft-com:datatypes"><Description dt:dt="string">E-Prime Primary Realtime Clock</Description><StartTime><Timestamp dt:dt="int">0</Timestamp><DateUtc dt:dt="string">2016-05-03T21:43:14Z</DateUtc></StartTime><FrequencyChanges><FrequencyChange><Frequency dt:dt="r8">3507724</Frequency><Timestamp dt:dt="r8">1208067676419</Timestamp><Current dt:dt="r8">0</Current><DateUtc dt:dt="string">2016-05-03T21:43:14Z</DateUtc></FrequencyChange></FrequencyChanges></Clock>\n	Hungry_Donkey_bar_English_2-140-1	60.018	-39	1.0.0.18	1	1182554225	Standard	2.0.10.353	2.0.10.353	05-03-2016	5/3/2016 9:43:14 PM	17:43:14	2.0.10.248	80	Bar50-50.bmp	47	4	?	0r_4g.bmp	0r_4g.bmp	0r_2g.bmp	0r_2g.bmp				0r_2g.bmp	TrialProc	TrialList	0	cvbn	-999999	16	295078	0	n	452	295530	240	-272	-32	-4	-92	20	44	7	8	80	0	0	0	0	4	4	2	2	0	2
Hungry_Donkey_bar_English_2	140	1	<?xml version="1.0"?>\n<Clock xmlns:dt="urn:schemas-microsoft-com:datatypes"><Description dt:dt="string">E-Prime Primary Realtime Clock</Description><StartTime><Timestamp dt:dt="int">0</Timestamp><DateUtc dt:dt="string">2016-05-03T21:43:14Z</DateUtc></StartTime><FrequencyChanges><FrequencyChange><Frequency dt:dt="r8">3507724</Frequency><Timestamp dt:dt="r8">1208067676419</Timestamp><Current dt:dt="r8">0</Current><DateUtc dt:dt="string">2016-05-03T21:43:14Z</DateUtc></FrequencyChange></FrequencyChanges></Clock>\n	Hungry_Donkey_bar_English_2-140-1	60.018	-39	1.0.0.18	1	1182554225	Standard	2.0.10.353	2.0.10.353	05-03-2016	5/3/2016 9:43:14 PM	17:43:14	2.0.10.248	81	Bar50-50.bmp	47	4	?	0r_4g.bmp	0r_4g.bmp	0r_2g.bmp	0r_2g.bmp				0r_2g.bmp	TrialProc	TrialList	0	cvbn	-999999	16	297561	0	n	449	298010	242	-272	-30	-4	-92	20	46	9	9	81	0	0	0	0	4	4	2	2	0	2
Hungry_Donkey_bar_English_2	140	1	<?xml version="1.0"?>\n<Clock xmlns:dt="urn:schemas-microsoft-com:datatypes"><Description dt:dt="string">E-Prime Primary Realtime Clock</Description><StartTime><Timestamp dt:dt="int">0</Timestamp><DateUtc dt:dt="string">2016-05-03T21:43:14Z</DateUtc></StartTime><FrequencyChanges><FrequencyChange><Frequency dt:dt="r8">3507724</Frequency><Timestamp dt:dt="r8">1208067676419</Timestamp><Current dt:dt="r8">0</Current><DateUtc dt:dt="string">2016-05-03T21:43:14Z</DateUtc></FrequencyChange></FrequencyChanges></Clock>\n	Hungry_Donkey_bar_English_2-140-1	60.018	-39	1.0.0.18	1	1182554225	Standard	2.0.10.353	2.0.10.353	05-03-2016	5/3/2016 9:43:14 PM	17:43:14	2.0.10.248	82	Bar50-50.bmp	47	3	?	0r_4g.bmp	0r_4g.bmp	0r_2g.bmp	0r_2g.bmp			0r_2g.bmp		TrialProc	TrialList	0	cvbn	-999999	16	300043	0	b	367	300410	244	-272	-28	-4	-92	22	46	6	9	82	0	0	0	0	4	4	2	2	0	2
Hungry_Donkey_bar_English_2	140	1	<?xml version="1.0"?>\n<Clock xmlns:dt="urn:schemas-microsoft-com:datatypes"><Description dt:dt="string">E-Prime Primary Realtime Clock</Description><StartTime><Timestamp dt:dt="int">0</Timestamp><DateUtc dt:dt="string">2016-05-03T21:43:14Z</DateUtc></StartTime><FrequencyChanges><FrequencyChange><Frequency dt:dt="r8">3507724</Frequency><Timestamp dt:dt="r8">1208067676419</Timestamp><Current dt:dt="r8">0</Current><DateUtc dt:dt="string">2016-05-03T21:43:14Z</DateUtc></FrequencyChange></FrequencyChanges></Clock>\n	Hungry_Donkey_bar_English_2-140-1	60.018	-39	1.0.0.18	1	1182554225	Standard	2.0.10.353	2.0.10.353	05-03-2016	5/3/2016 9:43:14 PM	17:43:14	2.0.10.248	83	Bar50-50.bmp	48	1	?	0r_4g.bmp	0r_4g.bmp	0r_2g.bmp	0r_2g.bmp	0r_4g.bmp				TrialProc	TrialList	0	cvbn	-999999	16	302443	0	c	831	303274	248	-272	-24	0	-92	22	46	10	9	83	0	0	0	0	4	4	2	2	0	4
Hungry_Donkey_bar_English_2	140	1	<?xml version="1.0"?>\n<Clock xmlns:dt="urn:schemas-microsoft-com:datatypes"><Description dt:dt="string">E-Prime Primary Realtime Clock</Description><StartTime><Timestamp dt:dt="int">0</Timestamp><DateUtc dt:dt="string">2016-05-03T21:43:14Z</DateUtc></StartTime><FrequencyChanges><FrequencyChange><Frequency dt:dt="r8">3507724</Frequency><Timestamp dt:dt="r8">1208067676419</Timestamp><Current dt:dt="r8">0</Current><DateUtc dt:dt="string">2016-05-03T21:43:14Z</DateUtc></FrequencyChange></FrequencyChanges></Clock>\n	Hungry_Donkey_bar_English_2-140-1	60.018	-39	1.0.0.18	1	1182554225	Standard	2.0.10.353	2.0.10.353	05-03-2016	5/3/2016 9:43:14 PM	17:43:14	2.0.10.248	84	Bar50-50.bmp	48	2	?	0r_4g.bmp	0r_4g.bmp	0r_2g.bmp	0r_2g.bmp		0r_4g.bmp			TrialProc	TrialList	0	cvbn	-999999	17	305309	0	v	365	305674	252	-272	-20	0	-88	22	46	8	9	84	0	0	0	0	4	4	2	2	0	4
Hungry_Donkey_bar_English_2	140	1	<?xml version="1.0"?>\n<Clock xmlns:dt="urn:schemas-microsoft-com:datatypes"><Description dt:dt="string">E-Prime Primary Realtime Clock</Description><StartTime><Timestamp dt:dt="int">0</Timestamp><DateUtc dt:dt="string">2016-05-03T21:43:14Z</DateUtc></StartTime><FrequencyChanges><FrequencyChange><Frequency dt:dt="r8">3507724</Frequency><Timestamp dt:dt="r8">1208067676419</Timestamp><Current dt:dt="r8">0</Current><DateUtc dt:dt="string">2016-05-03T21:43:14Z</DateUtc></FrequencyChange></FrequencyChanges></Clock>\n	Hungry_Donkey_bar_English_2-140-1	60.018	-39	1.0.0.18	1	1182554225	Standard	2.0.10.353	2.0.10.353	05-03-2016	5/3/2016 9:43:14 PM	17:43:14	2.0.10.248	85	Bar50-50.bmp	48	1	?	10r_4g.bmp	0r_4g.bmp	2r_2g.bmp	0r_2g.bmp	10r_4g.bmp				TrialProc	TrialList	0	cvbn	-999999	16	307708	0	c	510	308218	256	-282	-26	-6	-88	22	46	3	9	85	-10	0	-2	0	4	4	2	2	-10	4
Hungry_Donkey_bar_English_2	140	1	<?xml version="1.0"?>\n<Clock xmlns:dt="urn:schemas-microsoft-com:datatypes"><Description dt:dt="string">E-Prime Primary Realtime Clock</Description><StartTime><Timestamp dt:dt="int">0</Timestamp><DateUtc dt:dt="string">2016-05-03T21:43:14Z</DateUtc></StartTime><FrequencyChanges><FrequencyChange><Frequency dt:dt="r8">3507724</Frequency><Timestamp dt:dt="r8">1208067676419</Timestamp><Current dt:dt="r8">0</Current><DateUtc dt:dt="string">2016-05-03T21:43:14Z</DateUtc></FrequencyChange></FrequencyChanges></Clock>\n	Hungry_Donkey_bar_English_2-140-1	60.018	-39	1.0.0.18	1	1182554225	Standard	2.0.10.353	2.0.10.353	05-03-2016	5/3/2016 9:43:14 PM	17:43:14	2.0.10.248	86	Bar50-50.bmp	48	2	?	12r_4g.bmp	0r_4g.bmp	3r_2g.bmp	0r_2g.bmp		0r_4g.bmp			TrialProc	TrialList	0	cvbn	-999999	15	310240	0	v	393	310633	260	-282	-22	-6	-84	22	46	5	9	86	-12	0	-3	0	4	4	2	2	0	4
Hungry_Donkey_bar_English_2	140	1	<?xml version="1.0"?>\n<Clock xmlns:dt="urn:schemas-microsoft-com:datatypes"><Description dt:dt="string">E-Prime Primary Realtime Clock</Description><StartTime><Timestamp dt:dt="int">0</Timestamp><DateUtc dt:dt="string">2016-05-03T21:43:14Z</DateUtc></StartTime><FrequencyChanges><FrequencyChange><Frequency dt:dt="r8">3507724</Frequency><Timestamp dt:dt="r8">1208067676419</Timestamp><Current dt:dt="r8">0</Current><DateUtc dt:dt="string">2016-05-03T21:43:14Z</DateUtc></FrequencyChange></FrequencyChanges></Clock>\n	Hungry_Donkey_bar_English_2-140-1	60.018	-39	1.0.0.18	1	1182554225	Standard	2.0.10.353	2.0.10.353	05-03-2016	5/3/2016 9:43:14 PM	17:43:14	2.0.10.248	87	Bar50-50.bmp	44	2	?	8r_4g.bmp	50r_4g.bmp	1r_2g.bmp	10r_2g.bmp		50r_4g.bmp			TrialProc	TrialList	0	cvbn	-999999	16	312673	0	v	328	313001	264	-332	-68	-6	-130	22	46	1	9	87	-8	-50	-1	-10	4	4	2	2	-50	4
Hungry_Donkey_bar_English_2	140	1	<?xml version="1.0"?>\n<Clock xmlns:dt="urn:schemas-microsoft-com:datatypes"><Description dt:dt="string">E-Prime Primary Realtime Clock</Description><StartTime><Timestamp dt:dt="int">0</Timestamp><DateUtc dt:dt="string">2016-05-03T21:43:14Z</DateUtc></StartTime><FrequencyChanges><FrequencyChange><Frequency dt:dt="r8">3507724</Frequency><Timestamp dt:dt="r8">1208067676419</Timestamp><Current dt:dt="r8">0</Current><DateUtc dt:dt="string">2016-05-03T21:43:14Z</DateUtc></FrequencyChange></FrequencyChanges></Clock>\n	Hungry_Donkey_bar_English_2-140-1	60.018	-39	1.0.0.18	1	1182554225	Standard	2.0.10.353	2.0.10.353	05-03-2016	5/3/2016 9:43:14 PM	17:43:14	2.0.10.248	88	Bar50-50.bmp	45	2	?	10r_4g.bmp	0r_4g.bmp	2r_2g.bmp	0r_2g.bmp		0r_4g.bmp			TrialProc	TrialList	0	cvbn	-999999	16	315039	0	v	426	315465	268	-332	-64	-6	-126	22	46	2	9	88	-10	0	-2	0	4	4	2	2	0	4
Hungry_Donkey_bar_English_2	140	1	<?xml version="1.0"?>\n<Clock xmlns:dt="urn:schemas-microsoft-com:datatypes"><Description dt:dt="string">E-Prime Primary Realtime Clock</Description><StartTime><Timestamp dt:dt="int">0</Timestamp><DateUtc dt:dt="string">2016-05-03T21:43:14Z</DateUtc></StartTime><FrequencyChanges><FrequencyChange><Frequency dt:dt="r8">3507724</Frequency><Timestamp dt:dt="r8">1208067676419</Timestamp><Current dt:dt="r8">0</Current><DateUtc dt:dt="string">2016-05-03T21:43:14Z</DateUtc></FrequencyChange></FrequencyChanges></Clock>\n	Hungry_Donkey_bar_English_2-140-1	60.018	-39	1.0.0.18	1	1182554225	Standard	2.0.10.353	2.0.10.353	05-03-2016	5/3/2016 9:43:14 PM	17:43:14	2.0.10.248	89	Bar50-50.bmp	45	2	?	10r_4g.bmp	0r_4g.bmp	2r_2g.bmp	0r_2g.bmp		0r_4g.bmp			TrialProc	TrialList	0	cvbn	-999999	16	317505	0	v	344	317849	272	-332	-60	-6	-122	22	46	4	9	89	-10	0	-2	0	4	4	2	2	0	4
Hungry_Donkey_bar_English_2	140	1	<?xml version="1.0"?>\n<Clock xmlns:dt="urn:schemas-microsoft-com:datatypes"><Description dt:dt="string">E-Prime Primary Realtime Clock</Description><StartTime><Timestamp dt:dt="int">0</Timestamp><DateUtc dt:dt="string">2016-05-03T21:43:14Z</DateUtc></StartTime><FrequencyChanges><FrequencyChange><Frequency dt:dt="r8">3507724</Frequency><Timestamp dt:dt="r8">1208067676419</Timestamp><Current dt:dt="r8">0</Current><DateUtc dt:dt="string">2016-05-03T21:43:14Z</DateUtc></FrequencyChange></FrequencyChanges></Clock>\n	Hungry_Donkey_bar_English_2-140-1	60.018	-39	1.0.0.18	1	1182554225	Standard	2.0.10.353	2.0.10.353	05-03-2016	5/3/2016 9:43:14 PM	17:43:14	2.0.10.248	90	Bar50-50.bmp	45	4	?	0r_4g.bmp	0r_4g.bmp	0r_2g.bmp	0r_2g.bmp				0r_2g.bmp	TrialProc	TrialList	0	cvbn	-999999	16	319887	0	n	506	320393	274	-332	-58	-6	-122	22	48	7	9	90	0	0	0	0	4	4	2	2	0	2
Hungry_Donkey_bar_English_2	140	1	<?xml version="1.0"?>\n<Clock xmlns:dt="urn:schemas-microsoft-com:datatypes"><Description dt:dt="string">E-Prime Primary Realtime Clock</Description><StartTime><Timestamp dt:dt="int">0</Timestamp><DateUtc dt:dt="string">2016-05-03T21:43:14Z</DateUtc></StartTime><FrequencyChanges><FrequencyChange><Frequency dt:dt="r8">3507724</Frequency><Timestamp dt:dt="r8">1208067676419</Timestamp><Current dt:dt="r8">0</Current><DateUtc dt:dt="string">2016-05-03T21:43:14Z</DateUtc></FrequencyChange></FrequencyChanges></Clock>\n	Hungry_Donkey_bar_English_2-140-1	60.018	-39	1.0.0.18	1	1182554225	Standard	2.0.10.353	2.0.10.353	05-03-2016	5/3/2016 9:43:14 PM	17:43:14	2.0.10.248	91	Bar50-50.bmp	45	3	?	10r_4g.bmp	0r_4g.bmp	2r_2g.bmp	0r_2g.bmp			2r_2g.bmp		TrialProc	TrialList	0	cvbn	-999999	16	322420	0	b	485	322905	276	-334	-58	-6	-122	22	48	4	10	91	-10	0	-2	0	4	4	2	2	-2	2
Hungry_Donkey_bar_English_2	140	1	<?xml version="1.0"?>\n<Clock xmlns:dt="urn:schemas-microsoft-com:datatypes"><Description dt:dt="string">E-Prime Primary Realtime Clock</Description><StartTime><Timestamp dt:dt="int">0</Timestamp><DateUtc dt:dt="string">2016-05-03T21:43:14Z</DateUtc></StartTime><FrequencyChanges><FrequencyChange><Frequency dt:dt="r8">3507724</Frequency><Timestamp dt:dt="r8">1208067676419</Timestamp><Current dt:dt="r8">0</Current><DateUtc dt:dt="string">2016-05-03T21:43:14Z</DateUtc></FrequencyChange></FrequencyChanges></Clock>\n	Hungry_Donkey_bar_English_2-140-1	60.018	-39	1.0.0.18	1	1182554225	Standard	2.0.10.353	2.0.10.353	05-03-2016	5/3/2016 9:43:14 PM	17:43:14	2.0.10.248	92	Bar50-50.bmp	46	2	?	0r_4g.bmp	0r_4g.bmp	0r_2g.bmp	0r_2g.bmp		0r_4g.bmp			TrialProc	TrialList	0	cvbn	-999999	16	324936	0	v	480	325416	280	-334	-54	-6	-118	22	48	6	10	92	0	0	0	0	4	4	2	2	0	4
Hungry_Donkey_bar_English_2	140	1	<?xml version="1.0"?>\n<Clock xmlns:dt="urn:schemas-microsoft-com:datatypes"><Description dt:dt="string">E-Prime Primary Realtime Clock</Description><StartTime><Timestamp dt:dt="int">0</Timestamp><DateUtc dt:dt="string">2016-05-03T21:43:14Z</DateUtc></StartTime><FrequencyChanges><FrequencyChange><Frequency dt:dt="r8">3507724</Frequency><Timestamp dt:dt="r8">1208067676419</Timestamp><Current dt:dt="r8">0</Current><DateUtc dt:dt="string">2016-05-03T21:43:14Z</DateUtc></FrequencyChange></FrequencyChanges></Clock>\n	Hungry_Donkey_bar_English_2-140-1	60.018	-39	1.0.0.18	1	1182554225	Standard	2.0.10.353	2.0.10.353	05-03-2016	5/3/2016 9:43:14 PM	17:43:14	2.0.10.248	93	Bar50-50.bmp	46	1	?	0r_4g.bmp	0r_4g.bmp	0r_2g.bmp	0r_2g.bmp	0r_4g.bmp				TrialProc	TrialList	0	cvbn	-999999	16	327452	0	c	380	327832	284	-334	-50	-2	-118	22	48	7	10	93	0	0	0	0	4	4	2	2	0	4
Hungry_Donkey_bar_English_2	140	1	<?xml version="1.0"?>\n<Clock xmlns:dt="urn:schemas-microsoft-com:datatypes"><Description dt:dt="string">E-Prime Primary Realtime Clock</Description><StartTime><Timestamp dt:dt="int">0</Timestamp><DateUtc dt:dt="string">2016-05-03T21:43:14Z</DateUtc></StartTime><FrequencyChanges><FrequencyChange><Frequency dt:dt="r8">3507724</Frequency><Timestamp dt:dt="r8">1208067676419</Timestamp><Current dt:dt="r8">0</Current><DateUtc dt:dt="string">2016-05-03T21:43:14Z</DateUtc></FrequencyChange></FrequencyChanges></Clock>\n	Hungry_Donkey_bar_English_2-140-1	60.018	-39	1.0.0.18	1	1182554225	Standard	2.0.10.353	2.0.10.353	05-03-2016	5/3/2016 9:43:14 PM	17:43:14	2.0.10.248	94	Bar50-50.bmp	46	2	?	0r_4g.bmp	0r_4g.bmp	0r_2g.bmp	0r_2g.bmp		0r_4g.bmp			TrialProc	TrialList	0	cvbn	-999999	16	329868	0	v	396	330264	288	-334	-46	-2	-114	22	48	10	10	94	0	0	0	0	4	4	2	2	0	4
Hungry_Donkey_bar_English_2	140	1	<?xml version="1.0"?>\n<Clock xmlns:dt="urn:schemas-microsoft-com:datatypes"><Description dt:dt="string">E-Prime Primary Realtime Clock</Description><StartTime><Timestamp dt:dt="int">0</Timestamp><DateUtc dt:dt="string">2016-05-03T21:43:14Z</DateUtc></StartTime><FrequencyChanges><FrequencyChange><Frequency dt:dt="r8">3507724</Frequency><Timestamp dt:dt="r8">1208067676419</Timestamp><Current dt:dt="r8">0</Current><DateUtc dt:dt="string">2016-05-03T21:43:14Z</DateUtc></FrequencyChange></FrequencyChanges></Clock>\n	Hungry_Donkey_bar_English_2-140-1	60.018	-39	1.0.0.18	1	1182554225	Standard	2.0.10.353	2.0.10.353	05-03-2016	5/3/2016 9:43:14 PM	17:43:14	2.0.10.248	95	Bar50-50.bmp	47	1	?	0r_4g.bmp	0r_4g.bmp	0r_2g.bmp	0r_2g.bmp	0r_4g.bmp				TrialProc	TrialList	0	cvbn	-999999	16	332300	0	c	412	332712	292	-334	-42	2	-114	22	48	9	10	95	0	0	0	0	4	4	2	2	0	4
Hungry_Donkey_bar_English_2	140	1	<?xml version="1.0"?>\n<Clock xmlns:dt="urn:schemas-microsoft-com:datatypes"><Description dt:dt="string">E-Prime Primary Realtime Clock</Description><StartTime><Timestamp dt:dt="int">0</Timestamp><DateUtc dt:dt="string">2016-05-03T21:43:14Z</DateUtc></StartTime><FrequencyChanges><FrequencyChange><Frequency dt:dt="r8">3507724</Frequency><Timestamp dt:dt="r8">1208067676419</Timestamp><Current dt:dt="r8">0</Current><DateUtc dt:dt="string">2016-05-03T21:43:14Z</DateUtc></FrequencyChange></FrequencyChanges></Clock>\n	Hungry_Donkey_bar_English_2-140-1	60.018	-39	1.0.0.18	1	1182554225	Standard	2.0.10.353	2.0.10.353	05-03-2016	5/3/2016 9:43:14 PM	17:43:14	2.0.10.248	96	Bar50-50.bmp	47	3	?	10r_4g.bmp	0r_4g.bmp	2r_2g.bmp	0r_2g.bmp			2r_2g.bmp		TrialProc	TrialList	0	cvbn	-999999	16	334750	0	b	522	335272	294	-336	-42	2	-114	22	48	3	10	96	-10	0	-2	0	4	4	2	2	-2	2
Hungry_Donkey_bar_English_2	140	1	<?xml version="1.0"?>\n<Clock xmlns:dt="urn:schemas-microsoft-com:datatypes"><Description dt:dt="string">E-Prime Primary Realtime Clock</Description><StartTime><Timestamp dt:dt="int">0</Timestamp><DateUtc dt:dt="string">2016-05-03T21:43:14Z</DateUtc></StartTime><FrequencyChanges><FrequencyChange><Frequency dt:dt="r8">3507724</Frequency><Timestamp dt:dt="r8">1208067676419</Timestamp><Current dt:dt="r8">0</Current><DateUtc dt:dt="string">2016-05-03T21:43:14Z</DateUtc></FrequencyChange></FrequencyChanges></Clock>\n	Hungry_Donkey_bar_English_2-140-1	60.018	-39	1.0.0.18	1	1182554225	Standard	2.0.10.353	2.0.10.353	05-03-2016	5/3/2016 9:43:14 PM	17:43:14	2.0.10.248	97	Bar50-50.bmp	46	1	?	10r_4g.bmp	0r_4g.bmp	2r_2g.bmp	0r_2g.bmp	10r_4g.bmp				TrialProc	TrialList	0	cvbn	-999999	16	337299	0	c	309	337608	298	-346	-48	-4	-114	22	48	2	10	97	-10	0	-2	0	4	4	2	2	-10	4
Hungry_Donkey_bar_English_2	140	1	<?xml version="1.0"?>\n<Clock xmlns:dt="urn:schemas-microsoft-com:datatypes"><Description dt:dt="string">E-Prime Primary Realtime Clock</Description><StartTime><Timestamp dt:dt="int">0</Timestamp><DateUtc dt:dt="string">2016-05-03T21:43:14Z</DateUtc></StartTime><FrequencyChanges><FrequencyChange><Frequency dt:dt="r8">3507724</Frequency><Timestamp dt:dt="r8">1208067676419</Timestamp><Current dt:dt="r8">0</Current><DateUtc dt:dt="string">2016-05-03T21:43:14Z</DateUtc></FrequencyChange></FrequencyChanges></Clock>\n	Hungry_Donkey_bar_English_2-140-1	60.018	-39	1.0.0.18	1	1182554225	Standard	2.0.10.353	2.0.10.353	05-03-2016	5/3/2016 9:43:14 PM	17:43:14	2.0.10.248	98	Bar50-50.bmp	46	3	?	0r_4g.bmp	0r_4g.bmp	0r_2g.bmp	0r_2g.bmp			0r_2g.bmp		TrialProc	TrialList	0	cvbn	-999999	17	339632	0	b	408	340040	300	-346	-46	-4	-114	24	48	8	10	98	0	0	0	0	4	4	2	2	0	2
Hungry_Donkey_bar_English_2	140	1	<?xml version="1.0"?>\n<Clock xmlns:dt="urn:schemas-microsoft-com:datatypes"><Description dt:dt="string">E-Prime Primary Realtime Clock</Description><StartTime><Timestamp dt:dt="int">0</Timestamp><DateUtc dt:dt="string">2016-05-03T21:43:14Z</DateUtc></StartTime><FrequencyChanges><FrequencyChange><Frequency dt:dt="r8">3507724</Frequency><Timestamp dt:dt="r8">1208067676419</Timestamp><Current dt:dt="r8">0</Current><DateUtc dt:dt="string">2016-05-03T21:43:14Z</DateUtc></FrequencyChange></FrequencyChanges></Clock>\n	Hungry_Donkey_bar_English_2-140-1	60.018	-39	1.0.0.18	1	1182554225	Standard	2.0.10.353	2.0.10.353	05-03-2016	5/3/2016 9:43:14 PM	17:43:14	2.0.10.248	99	Bar37-63.bmp	43	2	?	8r_4g.bmp	50r_4g.bmp	1r_2g.bmp	10r_2g.bmp		50r_4g.bmp			TrialProc	TrialList	0	cvbn	-999999	16	342064	0	v	407	342471	304	-396	-92	-4	-160	24	48	1	10	99	-8	-50	-1	-10	4	4	2	2	-50	4
Hungry_Donkey_bar_English_2	140	1	<?xml version="1.0"?>\n<Clock xmlns:dt="urn:schemas-microsoft-com:datatypes"><Description dt:dt="string">E-Prime Primary Realtime Clock</Description><StartTime><Timestamp dt:dt="int">0</Timestamp><DateUtc dt:dt="string">2016-05-03T21:43:14Z</DateUtc></StartTime><FrequencyChanges><FrequencyChange><Frequency dt:dt="r8">3507724</Frequency><Timestamp dt:dt="r8">1208067676419</Timestamp><Current dt:dt="r8">0</Current><DateUtc dt:dt="string">2016-05-03T21:43:14Z</DateUtc></FrequencyChange></FrequencyChanges></Clock>\n	Hungry_Donkey_bar_English_2-140-1	60.018	-39	1.0.0.18	1	1182554225	Standard	2.0.10.353	2.0.10.353	05-03-2016	5/3/2016 9:43:14 PM	17:43:14	2.0.10.248	100	Bar37-63.bmp	43	3	?	12r_4g.bmp	0r_4g.bmp	3r_2g.bmp	0r_2g.bmp			3r_2g.bmp		TrialProc	TrialList	0	cvbn	-999999	16	344497	0	b	422	344919	306	-399	-93	-4	-160	23	48	5	10	100	-12	0	-3	0	4	4	2	2	-3	2
Hungry_Donkey_bar_English_2	140	1	<?xml version="1.0"?>\n<Clock xmlns:dt="urn:schemas-microsoft-com:datatypes"><Description dt:dt="string">E-Prime Primary Realtime Clock</Description><StartTime><Timestamp dt:dt="int">0</Timestamp><DateUtc dt:dt="string">2016-05-03T21:43:14Z</DateUtc></StartTime><FrequencyChanges><FrequencyChange><Frequency dt:dt="r8">3507724</Frequency><Timestamp dt:dt="r8">1208067676419</Timestamp><Current dt:dt="r8">0</Current><DateUtc dt:dt="string">2016-05-03T21:43:14Z</DateUtc></FrequencyChange></FrequencyChanges></Clock>\n	Hungry_Donkey_bar_English_2-140-1	60.018	-39	1.0.0.18	1	1182554225	Standard	2.0.10.353	2.0.10.353	05-03-2016	5/3/2016 9:43:14 PM	17:43:14	2.0.10.248	101	Bar50-50.bmp	44	2	?	10r_4g.bmp	0r_4g.bmp	2r_2g.bmp	0r_2g.bmp		0r_4g.bmp			TrialProc	TrialList	0	cvbn	-999999	16	346946	0	v	437	347383	310	-399	-89	-4	-156	23	48	3	11	101	-10	0	-2	0	4	4	2	2	0	4
Hungry_Donkey_bar_English_2	140	1	<?xml version="1.0"?>\n<Clock xmlns:dt="urn:schemas-microsoft-com:datatypes"><Description dt:dt="string">E-Prime Primary Realtime Clock</Description><StartTime><Timestamp dt:dt="int">0</Timestamp><DateUtc dt:dt="string">2016-05-03T21:43:14Z</DateUtc></StartTime><FrequencyChanges><FrequencyChange><Frequency dt:dt="r8">3507724</Frequency><Timestamp dt:dt="r8">1208067676419</Timestamp><Current dt:dt="r8">0</Current><DateUtc dt:dt="string">2016-05-03T21:43:14Z</DateUtc></FrequencyChange></FrequencyChanges></Clock>\n	Hungry_Donkey_bar_English_2-140-1	60.018	-39	1.0.0.18	1	1182554225	Standard	2.0.10.353	2.0.10.353	05-03-2016	5/3/2016 9:43:14 PM	17:43:14	2.0.10.248	102	Bar50-50.bmp	44	2	?	0r_4g.bmp	0r_4g.bmp	0r_2g.bmp	0r_2g.bmp		0r_4g.bmp			TrialProc	TrialList	0	cvbn	-999999	16	349412	0	v	371	349783	314	-399	-85	-4	-152	23	48	9	11	102	0	0	0	0	4	4	2	2	0	4
Hungry_Donkey_bar_English_2	140	1	<?xml version="1.0"?>\n<Clock xmlns:dt="urn:schemas-microsoft-com:datatypes"><Description dt:dt="string">E-Prime Primary Realtime Clock</Description><StartTime><Timestamp dt:dt="int">0</Timestamp><DateUtc dt:dt="string">2016-05-03T21:43:14Z</DateUtc></StartTime><FrequencyChanges><FrequencyChange><Frequency dt:dt="r8">3507724</Frequency><Timestamp dt:dt="r8">1208067676419</Timestamp><Current dt:dt="r8">0</Current><DateUtc dt:dt="string">2016-05-03T21:43:14Z</DateUtc></FrequencyChange></FrequencyChanges></Clock>\n	Hungry_Donkey_bar_English_2-140-1	60.018	-39	1.0.0.18	1	1182554225	Standard	2.0.10.353	2.0.10.353	05-03-2016	5/3/2016 9:43:14 PM	17:43:14	2.0.10.248	103	Bar50-50.bmp	44	2	?	0r_4g.bmp	0r_4g.bmp	0r_2g.bmp	0r_2g.bmp		0r_4g.bmp			TrialProc	TrialList	0	cvbn	-999999	16	351811	0	v	356	352167	318	-399	-81	-4	-148	23	48	8	11	103	0	0	0	0	4	4	2	2	0	4
Hungry_Donkey_bar_English_2	140	1	<?xml version="1.0"?>\n<Clock xmlns:dt="urn:schemas-microsoft-com:datatypes"><Description dt:dt="string">E-Prime Primary Realtime Clock</Description><StartTime><Timestamp dt:dt="int">0</Timestamp><DateUtc dt:dt="string">2016-05-03T21:43:14Z</DateUtc></StartTime><FrequencyChanges><FrequencyChange><Frequency dt:dt="r8">3507724</Frequency><Timestamp dt:dt="r8">1208067676419</Timestamp><Current dt:dt="r8">0</Current><DateUtc dt:dt="string">2016-05-03T21:43:14Z</DateUtc></FrequencyChange></FrequencyChanges></Clock>\n	Hungry_Donkey_bar_English_2-140-1	60.018	-39	1.0.0.18	1	1182554225	Standard	2.0.10.353	2.0.10.353	05-03-2016	5/3/2016 9:43:14 PM	17:43:14	2.0.10.248	104	Bar50-50.bmp	45	3	?	0r_4g.bmp	0r_4g.bmp	0r_2g.bmp	0r_2g.bmp			0r_2g.bmp		TrialProc	TrialList	0	cvbn	-999999	16	354194	0	b	341	354535	320	-399	-79	-4	-148	25	48	10	11	104	0	0	0	0	4	4	2	2	0	2
Hungry_Donkey_bar_English_2	140	1	<?xml version="1.0"?>\n<Clock xmlns:dt="urn:schemas-microsoft-com:datatypes"><Description dt:dt="string">E-Prime Primary Realtime Clock</Description><StartTime><Timestamp dt:dt="int">0</Timestamp><DateUtc dt:dt="string">2016-05-03T21:43:14Z</DateUtc></StartTime><FrequencyChanges><FrequencyChange><Frequency dt:dt="r8">3507724</Frequency><Timestamp dt:dt="r8">1208067676419</Timestamp><Current dt:dt="r8">0</Current><DateUtc dt:dt="string">2016-05-03T21:43:14Z</DateUtc></FrequencyChange></FrequencyChanges></Clock>\n	Hungry_Donkey_bar_English_2-140-1	60.018	-39	1.0.0.18	1	1182554225	Standard	2.0.10.353	2.0.10.353	05-03-2016	5/3/2016 9:43:14 PM	17:43:14	2.0.10.248	105	Bar50-50.bmp	44	4	?	8r_4g.bmp	50r_4g.bmp	1r_2g.bmp	10r_2g.bmp				10r_2g.bmp	TrialProc	TrialList	0	cvbn	-999999	16	356560	0	n	407	356967	322	-409	-87	-4	-148	25	40	1	11	105	-8	-50	-1	-10	4	4	2	2	-10	2
Hungry_Donkey_bar_English_2	140	1	<?xml version="1.0"?>\n<Clock xmlns:dt="urn:schemas-microsoft-com:datatypes"><Description dt:dt="string">E-Prime Primary Realtime Clock</Description><StartTime><Timestamp dt:dt="int">0</Timestamp><DateUtc dt:dt="string">2016-05-03T21:43:14Z</DateUtc></StartTime><FrequencyChanges><FrequencyChange><Frequency dt:dt="r8">3507724</Frequency><Timestamp dt:dt="r8">1208067676419</Timestamp><Current dt:dt="r8">0</Current><DateUtc dt:dt="string">2016-05-03T21:43:14Z</DateUtc></FrequencyChange></FrequencyChanges></Clock>\n	Hungry_Donkey_bar_English_2-140-1	60.018	-39	1.0.0.18	1	1182554225	Standard	2.0.10.353	2.0.10.353	05-03-2016	5/3/2016 9:43:14 PM	17:43:14	2.0.10.248	106	Bar50-50.bmp	44	3	?	10r_4g.bmp	0r_4g.bmp	2r_2g.bmp	0r_2g.bmp			2r_2g.bmp		TrialProc	TrialList	0	cvbn	-999999	15	358992	0	b	566	359558	324	-411	-87	-4	-148	25	40	2	11	106	-10	0	-2	0	4	4	2	2	-2	2
Hungry_Donkey_bar_English_2	140	1	<?xml version="1.0"?>\n<Clock xmlns:dt="urn:schemas-microsoft-com:datatypes"><Description dt:dt="string">E-Prime Primary Realtime Clock</Description><StartTime><Timestamp dt:dt="int">0</Timestamp><DateUtc dt:dt="string">2016-05-03T21:43:14Z</DateUtc></StartTime><FrequencyChanges><FrequencyChange><Frequency dt:dt="r8">3507724</Frequency><Timestamp dt:dt="r8">1208067676419</Timestamp><Current dt:dt="r8">0</Current><DateUtc dt:dt="string">2016-05-03T21:43:14Z</DateUtc></FrequencyChange></FrequencyChanges></Clock>\n	Hungry_Donkey_bar_English_2-140-1	60.018	-39	1.0.0.18	1	1182554225	Standard	2.0.10.353	2.0.10.353	05-03-2016	5/3/2016 9:43:14 PM	17:43:14	2.0.10.248	107	Bar50-50.bmp	44	2	?	0r_4g.bmp	0r_4g.bmp	0r_2g.bmp	0r_2g.bmp		0r_4g.bmp			TrialProc	TrialList	0	cvbn	-999999	16	361592	0	v	462	362054	328	-411	-83	-4	-144	25	40	6	11	107	0	0	0	0	4	4	2	2	0	4
Hungry_Donkey_bar_English_2	140	1	<?xml version="1.0"?>\n<Clock xmlns:dt="urn:schemas-microsoft-com:datatypes"><Description dt:dt="string">E-Prime Primary Realtime Clock</Description><StartTime><Timestamp dt:dt="int">0</Timestamp><DateUtc dt:dt="string">2016-05-03T21:43:14Z</DateUtc></StartTime><FrequencyChanges><FrequencyChange><Frequency dt:dt="r8">3507724</Frequency><Timestamp dt:dt="r8">1208067676419</Timestamp><Current dt:dt="r8">0</Current><DateUtc dt:dt="string">2016-05-03T21:43:14Z</DateUtc></FrequencyChange></FrequencyChanges></Clock>\n	Hungry_Donkey_bar_English_2-140-1	60.018	-39	1.0.0.18	1	1182554225	Standard	2.0.10.353	2.0.10.353	05-03-2016	5/3/2016 9:43:14 PM	17:43:14	2.0.10.248	108	Bar50-50.bmp	45	1	?	0r_4g.bmp	0r_4g.bmp	0r_2g.bmp	0r_2g.bmp	0r_4g.bmp				TrialProc	TrialList	0	cvbn	-999999	16	364091	0	c	539	364630	332	-411	-79	0	-144	25	40	7	11	108	0	0	0	0	4	4	2	2	0	4
Hungry_Donkey_bar_English_2	140	1	<?xml version="1.0"?>\n<Clock xmlns:dt="urn:schemas-microsoft-com:datatypes"><Description dt:dt="string">E-Prime Primary Realtime Clock</Description><StartTime><Timestamp dt:dt="int">0</Timestamp><DateUtc dt:dt="string">2016-05-03T21:43:14Z</DateUtc></StartTime><FrequencyChanges><FrequencyChange><Frequency dt:dt="r8">3507724</Frequency><Timestamp dt:dt="r8">1208067676419</Timestamp><Current dt:dt="r8">0</Current><DateUtc dt:dt="string">2016-05-03T21:43:14Z</DateUtc></FrequencyChange></FrequencyChanges></Clock>\n	Hungry_Donkey_bar_English_2-140-1	60.018	-39	1.0.0.18	1	1182554225	Standard	2.0.10.353	2.0.10.353	05-03-2016	5/3/2016 9:43:14 PM	17:43:14	2.0.10.248	109	Bar50-50.bmp	45	2	?	10r_4g.bmp	0r_4g.bmp	2r_2g.bmp	0r_2g.bmp		0r_4g.bmp			TrialProc	TrialList	0	cvbn	-999999	16	366657	0	v	949	367606	336	-411	-75	0	-140	25	40	4	11	109	-10	0	-2	0	4	4	2	2	0	4
Hungry_Donkey_bar_English_2	140	1	<?xml version="1.0"?>\n<Clock xmlns:dt="urn:schemas-microsoft-com:datatypes"><Description dt:dt="string">E-Prime Primary Realtime Clock</Description><StartTime><Timestamp dt:dt="int">0</Timestamp><DateUtc dt:dt="string">2016-05-03T21:43:14Z</DateUtc></StartTime><FrequencyChanges><FrequencyChange><Frequency dt:dt="r8">3507724</Frequency><Timestamp dt:dt="r8">1208067676419</Timestamp><Current dt:dt="r8">0</Current><DateUtc dt:dt="string">2016-05-03T21:43:14Z</DateUtc></FrequencyChange></FrequencyChanges></Clock>\n	Hungry_Donkey_bar_English_2-140-1	60.018	-39	1.0.0.18	1	1182554225	Standard	2.0.10.353	2.0.10.353	05-03-2016	5/3/2016 9:43:14 PM	17:43:14	2.0.10.248	110	Bar50-50.bmp	45	3	?	12r_4g.bmp	0r_4g.bmp	3r_2g.bmp	0r_2g.bmp			3r_2g.bmp		TrialProc	TrialList	0	cvbn	-999999	16	369639	0	b	1967	371606	338	-414	-76	0	-140	24	40	5	11	110	-12	0	-3	0	4	4	2	2	-3	2
Hungry_Donkey_bar_English_2	140	1	<?xml version="1.0"?>\n<Clock xmlns:dt="urn:schemas-microsoft-com:datatypes"><Description dt:dt="string">E-Prime Primary Realtime Clock</Description><StartTime><Timestamp dt:dt="int">0</Timestamp><DateUtc dt:dt="string">2016-05-03T21:43:14Z</DateUtc></StartTime><FrequencyChanges><FrequencyChange><Frequency dt:dt="r8">3507724</Frequency><Timestamp dt:dt="r8">1208067676419</Timestamp><Current dt:dt="r8">0</Current><DateUtc dt:dt="string">2016-05-03T21:43:14Z</DateUtc></FrequencyChange></FrequencyChanges></Clock>\n	Hungry_Donkey_bar_English_2-140-1	60.018	-39	1.0.0.18	1	1182554225	Standard	2.0.10.353	2.0.10.353	05-03-2016	5/3/2016 9:43:14 PM	17:43:14	2.0.10.248	111	Bar50-50.bmp	45	2	?	0r_4g.bmp	0r_4g.bmp	0r_2g.bmp	0r_2g.bmp		0r_4g.bmp			TrialProc	TrialList	0	cvbn	-999999	16	373638	0	v	671	374309	342	-414	-72	0	-136	24	40	8	12	111	0	0	0	0	4	4	2	2	0	4
