ExperimentName	Subject	Session	Clock.Information	DataFile.Basename	Display.RefreshRate	Eindtotaal[Session]	ExperimentVersion	Group	RandomSeed	RuntimeCapabilities	RuntimeVersion	RuntimeVersionExpected	SessionDate	SessionStartDateTimeUtc	SessionTime	StudioVersion	Block	BarImage	BarTotalWinst	DoorChoice	Eindtotaal[Block]	FBDoor1	FBDoor2	FBDoor3	FBDoor4	Image1	Image2	Image3	Image4	Procedure	Running	spel.ACC	spel.CRESP	spel.DurationError	spel.OnsetDelay	spel.OnsetTime	spel.OnsetToOnsetTime	spel.RESP	spel.RT	spel.RTTime	TotalGain	TotalLose	Totalsum	TotalsumD1	TotalsumD2	TotalsumD3	TotalsumD4	TrialList	TrialList.Cycle	TrialList.Sample	varV1	varV2	varV3	varV4	varW1	varW2	varW3	varW4	Verliesbedrag	Winstbedrag
Hungry_Donkey_bar_English_2	118	1	<?xml version="1.0"?>\n<Clock xmlns:dt="urn:schemas-microsoft-com:datatypes"><Description dt:dt="string">E-Prime Primary Realtime Clock</Description><StartTime><Timestamp dt:dt="int">0</Timestamp><DateUtc dt:dt="string">2015-07-14T21:36:31Z</DateUtc></StartTime><FrequencyChanges><FrequencyChange><Frequency dt:dt="r8">3507685</Frequency><Timestamp dt:dt="r8">2192267198897</Timestamp><Current dt:dt="r8">0</Current><DateUtc dt:dt="string">2015-07-14T21:36:31Z</DateUtc></FrequencyChange></FrequencyChanges></Clock>\n	Hungry_Donkey_bar_English_2-118-1	60.017	-62	1.0.0.18	1	1834564108	Standard	2.0.10.353	2.0.10.353	07-14-2015	7/14/2015 9:36:31 PM	17:36:31	2.0.10.248	1	Bar100-0.bmp	100	4	?	0r_4g.bmp	0r_4g.bmp	0r_2g.bmp	0r_2g.bmp				0r_2g.bmp	TrialProc	TrialList	0	cvbn	-999999	29	80414	0	n	3475	83889	2	0	2	0	0	0	2	7	1	1	0	0	0	0	4	4	2	2	0	2
Hungry_Donkey_bar_English_2	118	1	<?xml version="1.0"?>\n<Clock xmlns:dt="urn:schemas-microsoft-com:datatypes"><Description dt:dt="string">E-Prime Primary Realtime Clock</Description><StartTime><Timestamp dt:dt="int">0</Timestamp><DateUtc dt:dt="string">2015-07-14T21:36:31Z</DateUtc></StartTime><FrequencyChanges><FrequencyChange><Frequency dt:dt="r8">3507685</Frequency><Timestamp dt:dt="r8">2192267198897</Timestamp><Current dt:dt="r8">0</Current><DateUtc dt:dt="string">2015-07-14T21:36:31Z</DateUtc></FrequencyChange></FrequencyChanges></Clock>\n	Hungry_Donkey_bar_English_2-118-1	60.017	-62	1.0.0.18	1	1834564108	Standard	2.0.10.353	2.0.10.353	07-14-2015	7/14/2015 9:36:31 PM	17:36:31	2.0.10.248	2	Bar100-0.bmp	100	2	?	0r_4g.bmp	0r_4g.bmp	0r_2g.bmp	0r_2g.bmp		0r_4g.bmp			TrialProc	TrialList	0	cvbn	-999999	16	85929	0	v	1208	87137	6	0	6	0	4	0	2	10	1	2	0	0	0	0	4	4	2	2	0	4
Hungry_Donkey_bar_English_2	118	1	<?xml version="1.0"?>\n<Clock xmlns:dt="urn:schemas-microsoft-com:datatypes"><Description dt:dt="string">E-Prime Primary Realtime Clock</Description><StartTime><Timestamp dt:dt="int">0</Timestamp><DateUtc dt:dt="string">2015-07-14T21:36:31Z</DateUtc></StartTime><FrequencyChanges><FrequencyChange><Frequency dt:dt="r8">3507685</Frequency><Timestamp dt:dt="r8">2192267198897</Timestamp><Current dt:dt="r8">0</Current><DateUtc dt:dt="string">2015-07-14T21:36:31Z</DateUtc></FrequencyChange></FrequencyChanges></Clock>\n	Hungry_Donkey_bar_English_2-118-1	60.017	-62	1.0.0.18	1	1834564108	Standard	2.0.10.353	2.0.10.353	07-14-2015	7/14/2015 9:36:31 PM	17:36:31	2.0.10.248	3	Bar50-50.bmp	50	1	?	10r_4g.bmp	0r_4g.bmp	2r_2g.bmp	0r_2g.bmp	10r_4g.bmp				TrialProc	TrialList	0	cvbn	-999999	16	89178	0	c	775	89953	10	-10	0	-6	4	0	2	3	1	3	-10	0	-2	0	4	4	2	2	-10	4
Hungry_Donkey_bar_English_2	118	1	<?xml version="1.0"?>\n<Clock xmlns:dt="urn:schemas-microsoft-com:datatypes"><Description dt:dt="string">E-Prime Primary Realtime Clock</Description><StartTime><Timestamp dt:dt="int">0</Timestamp><DateUtc dt:dt="string">2015-07-14T21:36:31Z</DateUtc></StartTime><FrequencyChanges><FrequencyChange><Frequency dt:dt="r8">3507685</Frequency><Timestamp dt:dt="r8">2192267198897</Timestamp><Current dt:dt="r8">0</Current><DateUtc dt:dt="string">2015-07-14T21:36:31Z</DateUtc></FrequencyChange></FrequencyChanges></Clock>\n	Hungry_Donkey_bar_English_2-118-1	60.017	-62	1.0.0.18	1	1834564108	Standard	2.0.10.353	2.0.10.353	07-14-2015	7/14/2015 9:36:31 PM	17:36:31	2.0.10.248	4	Bar50-50.bmp	55	3	?	0r_4g.bmp	0r_4g.bmp	0r_2g.bmp	0r_2g.bmp			0r_2g.bmp		TrialProc	TrialList	0	cvbn	-999999	16	91994	0	b	887	92881	12	-10	2	-6	4	2	2	6	1	4	0	0	0	0	4	4	2	2	0	2
Hungry_Donkey_bar_English_2	118	1	<?xml version="1.0"?>\n<Clock xmlns:dt="urn:schemas-microsoft-com:datatypes"><Description dt:dt="string">E-Prime Primary Realtime Clock</Description><StartTime><Timestamp dt:dt="int">0</Timestamp><DateUtc dt:dt="string">2015-07-14T21:36:31Z</DateUtc></StartTime><FrequencyChanges><FrequencyChange><Frequency dt:dt="r8">3507685</Frequency><Timestamp dt:dt="r8">2192267198897</Timestamp><Current dt:dt="r8">0</Current><DateUtc dt:dt="string">2015-07-14T21:36:31Z</DateUtc></FrequencyChange></FrequencyChanges></Clock>\n	Hungry_Donkey_bar_English_2-118-1	60.017	-62	1.0.0.18	1	1834564108	Standard	2.0.10.353	2.0.10.353	07-14-2015	7/14/2015 9:36:31 PM	17:36:31	2.0.10.248	5	Bar25-75.bmp	21	2	?	8r_4g.bmp	50r_4g.bmp	1r_2g.bmp	10r_2g.bmp		50r_4g.bmp			TrialProc	TrialList	0	cvbn	-999999	16	94910	0	v	867	95777	16	-60	-44	-6	-42	2	2	1	1	5	-8	-50	-1	-10	4	4	2	2	-50	4
Hungry_Donkey_bar_English_2	118	1	<?xml version="1.0"?>\n<Clock xmlns:dt="urn:schemas-microsoft-com:datatypes"><Description dt:dt="string">E-Prime Primary Realtime Clock</Description><StartTime><Timestamp dt:dt="int">0</Timestamp><DateUtc dt:dt="string">2015-07-14T21:36:31Z</DateUtc></StartTime><FrequencyChanges><FrequencyChange><Frequency dt:dt="r8">3507685</Frequency><Timestamp dt:dt="r8">2192267198897</Timestamp><Current dt:dt="r8">0</Current><DateUtc dt:dt="string">2015-07-14T21:36:31Z</DateUtc></FrequencyChange></FrequencyChanges></Clock>\n	Hungry_Donkey_bar_English_2-118-1	60.017	-62	1.0.0.18	1	1834564108	Standard	2.0.10.353	2.0.10.353	07-14-2015	7/14/2015 9:36:31 PM	17:36:31	2.0.10.248	6	Bar25-75.bmp	23	4	?	10r_4g.bmp	0r_4g.bmp	2r_2g.bmp	0r_2g.bmp				0r_2g.bmp	TrialProc	TrialList	0	cvbn	-999999	16	97809	0	n	304	98113	18	-60	-42	-6	-42	2	4	4	1	6	-10	0	-2	0	4	4	2	2	0	2
Hungry_Donkey_bar_English_2	118	1	<?xml version="1.0"?>\n<Clock xmlns:dt="urn:schemas-microsoft-com:datatypes"><Description dt:dt="string">E-Prime Primary Realtime Clock</Description><StartTime><Timestamp dt:dt="int">0</Timestamp><DateUtc dt:dt="string">2015-07-14T21:36:31Z</DateUtc></StartTime><FrequencyChanges><FrequencyChange><Frequency dt:dt="r8">3507685</Frequency><Timestamp dt:dt="r8">2192267198897</Timestamp><Current dt:dt="r8">0</Current><DateUtc dt:dt="string">2015-07-14T21:36:31Z</DateUtc></FrequencyChange></FrequencyChanges></Clock>\n	Hungry_Donkey_bar_English_2-118-1	60.017	-62	1.0.0.18	1	1834564108	Standard	2.0.10.353	2.0.10.353	07-14-2015	7/14/2015 9:36:31 PM	17:36:31	2.0.10.248	7	Bar25-75.bmp	25	3	?	0r_4g.bmp	0r_4g.bmp	0r_2g.bmp	0r_2g.bmp			0r_2g.bmp		TrialProc	TrialList	0	cvbn	-999999	17	100142	0	b	466	100608	20	-60	-40	-6	-42	4	4	9	1	7	0	0	0	0	4	4	2	2	0	2
Hungry_Donkey_bar_English_2	118	1	<?xml version="1.0"?>\n<Clock xmlns:dt="urn:schemas-microsoft-com:datatypes"><Description dt:dt="string">E-Prime Primary Realtime Clock</Description><StartTime><Timestamp dt:dt="int">0</Timestamp><DateUtc dt:dt="string">2015-07-14T21:36:31Z</DateUtc></StartTime><FrequencyChanges><FrequencyChange><Frequency dt:dt="r8">3507685</Frequency><Timestamp dt:dt="r8">2192267198897</Timestamp><Current dt:dt="r8">0</Current><DateUtc dt:dt="string">2015-07-14T21:36:31Z</DateUtc></FrequencyChange></FrequencyChanges></Clock>\n	Hungry_Donkey_bar_English_2-118-1	60.017	-62	1.0.0.18	1	1834564108	Standard	2.0.10.353	2.0.10.353	07-14-2015	7/14/2015 9:36:31 PM	17:36:31	2.0.10.248	8	Bar25-75.bmp	25	1	?	12r_4g.bmp	0r_4g.bmp	3r_2g.bmp	0r_2g.bmp	12r_4g.bmp				TrialProc	TrialList	0	cvbn	-999999	16	102641	0	c	303	102944	24	-72	-48	-14	-42	4	4	5	1	8	-12	0	-3	0	4	4	2	2	-12	4
Hungry_Donkey_bar_English_2	118	1	<?xml version="1.0"?>\n<Clock xmlns:dt="urn:schemas-microsoft-com:datatypes"><Description dt:dt="string">E-Prime Primary Realtime Clock</Description><StartTime><Timestamp dt:dt="int">0</Timestamp><DateUtc dt:dt="string">2015-07-14T21:36:31Z</DateUtc></StartTime><FrequencyChanges><FrequencyChange><Frequency dt:dt="r8">3507685</Frequency><Timestamp dt:dt="r8">2192267198897</Timestamp><Current dt:dt="r8">0</Current><DateUtc dt:dt="string">2015-07-14T21:36:31Z</DateUtc></FrequencyChange></FrequencyChanges></Clock>\n	Hungry_Donkey_bar_English_2-118-1	60.017	-62	1.0.0.18	1	1834564108	Standard	2.0.10.353	2.0.10.353	07-14-2015	7/14/2015 9:36:31 PM	17:36:31	2.0.10.248	9	Bar25-75.bmp	28	2	?	10r_4g.bmp	0r_4g.bmp	2r_2g.bmp	0r_2g.bmp		0r_4g.bmp			TrialProc	TrialList	0	cvbn	-999999	16	104973	0	v	419	105392	28	-72	-44	-14	-38	4	4	2	1	9	-10	0	-2	0	4	4	2	2	0	4
Hungry_Donkey_bar_English_2	118	1	<?xml version="1.0"?>\n<Clock xmlns:dt="urn:schemas-microsoft-com:datatypes"><Description dt:dt="string">E-Prime Primary Realtime Clock</Description><StartTime><Timestamp dt:dt="int">0</Timestamp><DateUtc dt:dt="string">2015-07-14T21:36:31Z</DateUtc></StartTime><FrequencyChanges><FrequencyChange><Frequency dt:dt="r8">3507685</Frequency><Timestamp dt:dt="r8">2192267198897</Timestamp><Current dt:dt="r8">0</Current><DateUtc dt:dt="string">2015-07-14T21:36:31Z</DateUtc></FrequencyChange></FrequencyChanges></Clock>\n	Hungry_Donkey_bar_English_2-118-1	60.017	-62	1.0.0.18	1	1834564108	Standard	2.0.10.353	2.0.10.353	07-14-2015	7/14/2015 9:36:31 PM	17:36:31	2.0.10.248	10	Bar25-75.bmp	29	3	?	0r_4g.bmp	0r_4g.bmp	0r_2g.bmp	0r_2g.bmp			0r_2g.bmp		TrialProc	TrialList	0	cvbn	-999999	16	107423	0	b	49	107472	30	-72	-42	-14	-38	6	4	8	1	10	0	0	0	0	4	4	2	2	0	2
Hungry_Donkey_bar_English_2	118	1	<?xml version="1.0"?>\n<Clock xmlns:dt="urn:schemas-microsoft-com:datatypes"><Description dt:dt="string">E-Prime Primary Realtime Clock</Description><StartTime><Timestamp dt:dt="int">0</Timestamp><DateUtc dt:dt="string">2015-07-14T21:36:31Z</DateUtc></StartTime><FrequencyChanges><FrequencyChange><Frequency dt:dt="r8">3507685</Frequency><Timestamp dt:dt="r8">2192267198897</Timestamp><Current dt:dt="r8">0</Current><DateUtc dt:dt="string">2015-07-14T21:36:31Z</DateUtc></FrequencyChange></FrequencyChanges></Clock>\n	Hungry_Donkey_bar_English_2-118-1	60.017	-62	1.0.0.18	1	1834564108	Standard	2.0.10.353	2.0.10.353	07-14-2015	7/14/2015 9:36:31 PM	17:36:31	2.0.10.248	11	Bar25-75.bmp	31	3	?	0r_4g.bmp	0r_4g.bmp	0r_2g.bmp	0r_2g.bmp			0r_2g.bmp		TrialProc	TrialList	0	cvbn	-999999	16	109505	0	b	351	109856	32	-72	-40	-14	-38	8	4	9	2	11	0	0	0	0	4	4	2	2	0	2
Hungry_Donkey_bar_English_2	118	1	<?xml version="1.0"?>\n<Clock xmlns:dt="urn:schemas-microsoft-com:datatypes"><Description dt:dt="string">E-Prime Primary Realtime Clock</Description><StartTime><Timestamp dt:dt="int">0</Timestamp><DateUtc dt:dt="string">2015-07-14T21:36:31Z</DateUtc></StartTime><FrequencyChanges><FrequencyChange><Frequency dt:dt="r8">3507685</Frequency><Timestamp dt:dt="r8">2192267198897</Timestamp><Current dt:dt="r8">0</Current><DateUtc dt:dt="string">2015-07-14T21:36:31Z</DateUtc></FrequencyChange></FrequencyChanges></Clock>\n	Hungry_Donkey_bar_English_2-118-1	60.017	-62	1.0.0.18	1	1834564108	Standard	2.0.10.353	2.0.10.353	07-14-2015	7/14/2015 9:36:31 PM	17:36:31	2.0.10.248	12	Bar37-63.bmp	32	3	?	8r_4g.bmp	50r_4g.bmp	1r_2g.bmp	10r_2g.bmp			1r_2g.bmp		TrialProc	TrialList	0	cvbn	-999999	16	111888	0	b	448	112336	34	-73	-39	-14	-38	9	4	1	2	12	-8	-50	-1	-10	4	4	2	2	-1	2
Hungry_Donkey_bar_English_2	118	1	<?xml version="1.0"?>\n<Clock xmlns:dt="urn:schemas-microsoft-com:datatypes"><Description dt:dt="string">E-Prime Primary Realtime Clock</Description><StartTime><Timestamp dt:dt="int">0</Timestamp><DateUtc dt:dt="string">2015-07-14T21:36:31Z</DateUtc></StartTime><FrequencyChanges><FrequencyChange><Frequency dt:dt="r8">3507685</Frequency><Timestamp dt:dt="r8">2192267198897</Timestamp><Current dt:dt="r8">0</Current><DateUtc dt:dt="string">2015-07-14T21:36:31Z</DateUtc></FrequencyChange></FrequencyChanges></Clock>\n	Hungry_Donkey_bar_English_2-118-1	60.017	-62	1.0.0.18	1	1834564108	Standard	2.0.10.353	2.0.10.353	07-14-2015	7/14/2015 9:36:31 PM	17:36:31	2.0.10.248	13	Bar37-63.bmp	34	2	?	10r_4g.bmp	0r_4g.bmp	2r_2g.bmp	0r_2g.bmp		0r_4g.bmp			TrialProc	TrialList	0	cvbn	-999999	16	114371	0	v	781	115152	38	-73	-35	-14	-34	9	4	3	2	13	-10	0	-2	0	4	4	2	2	0	4
Hungry_Donkey_bar_English_2	118	1	<?xml version="1.0"?>\n<Clock xmlns:dt="urn:schemas-microsoft-com:datatypes"><Description dt:dt="string">E-Prime Primary Realtime Clock</Description><StartTime><Timestamp dt:dt="int">0</Timestamp><DateUtc dt:dt="string">2015-07-14T21:36:31Z</DateUtc></StartTime><FrequencyChanges><FrequencyChange><Frequency dt:dt="r8">3507685</Frequency><Timestamp dt:dt="r8">2192267198897</Timestamp><Current dt:dt="r8">0</Current><DateUtc dt:dt="string">2015-07-14T21:36:31Z</DateUtc></FrequencyChange></FrequencyChanges></Clock>\n	Hungry_Donkey_bar_English_2-118-1	60.017	-62	1.0.0.18	1	1834564108	Standard	2.0.10.353	2.0.10.353	07-14-2015	7/14/2015 9:36:31 PM	17:36:31	2.0.10.248	14	Bar37-63.bmp	37	2	?	12r_4g.bmp	0r_4g.bmp	3r_2g.bmp	0r_2g.bmp		0r_4g.bmp			TrialProc	TrialList	0	cvbn	-999999	16	117187	0	v	317	117504	42	-73	-31	-14	-30	9	4	5	2	14	-12	0	-3	0	4	4	2	2	0	4
Hungry_Donkey_bar_English_2	118	1	<?xml version="1.0"?>\n<Clock xmlns:dt="urn:schemas-microsoft-com:datatypes"><Description dt:dt="string">E-Prime Primary Realtime Clock</Description><StartTime><Timestamp dt:dt="int">0</Timestamp><DateUtc dt:dt="string">2015-07-14T21:36:31Z</DateUtc></StartTime><FrequencyChanges><FrequencyChange><Frequency dt:dt="r8">3507685</Frequency><Timestamp dt:dt="r8">2192267198897</Timestamp><Current dt:dt="r8">0</Current><DateUtc dt:dt="string">2015-07-14T21:36:31Z</DateUtc></FrequencyChange></FrequencyChanges></Clock>\n	Hungry_Donkey_bar_English_2-118-1	60.017	-62	1.0.0.18	1	1834564108	Standard	2.0.10.353	2.0.10.353	07-14-2015	7/14/2015 9:36:31 PM	17:36:31	2.0.10.248	15	Bar37-63.bmp	39	2	?	0r_4g.bmp	0r_4g.bmp	0r_2g.bmp	0r_2g.bmp		0r_4g.bmp			TrialProc	TrialList	0	cvbn	-999999	16	119536	0	v	303	119839	46	-73	-27	-14	-26	9	4	10	2	15	0	0	0	0	4	4	2	2	0	4
Hungry_Donkey_bar_English_2	118	1	<?xml version="1.0"?>\n<Clock xmlns:dt="urn:schemas-microsoft-com:datatypes"><Description dt:dt="string">E-Prime Primary Realtime Clock</Description><StartTime><Timestamp dt:dt="int">0</Timestamp><DateUtc dt:dt="string">2015-07-14T21:36:31Z</DateUtc></StartTime><FrequencyChanges><FrequencyChange><Frequency dt:dt="r8">3507685</Frequency><Timestamp dt:dt="r8">2192267198897</Timestamp><Current dt:dt="r8">0</Current><DateUtc dt:dt="string">2015-07-14T21:36:31Z</DateUtc></FrequencyChange></FrequencyChanges></Clock>\n	Hungry_Donkey_bar_English_2-118-1	60.017	-62	1.0.0.18	1	1834564108	Standard	2.0.10.353	2.0.10.353	07-14-2015	7/14/2015 9:36:31 PM	17:36:31	2.0.10.248	16	Bar37-63.bmp	41	2	?	0r_4g.bmp	0r_4g.bmp	0r_2g.bmp	0r_2g.bmp		0r_4g.bmp			TrialProc	TrialList	0	cvbn	-999999	16	121869	0	v	354	122223	50	-73	-23	-14	-22	9	4	8	2	16	0	0	0	0	4	4	2	2	0	4
Hungry_Donkey_bar_English_2	118	1	<?xml version="1.0"?>\n<Clock xmlns:dt="urn:schemas-microsoft-com:datatypes"><Description dt:dt="string">E-Prime Primary Realtime Clock</Description><StartTime><Timestamp dt:dt="int">0</Timestamp><DateUtc dt:dt="string">2015-07-14T21:36:31Z</DateUtc></StartTime><FrequencyChanges><FrequencyChange><Frequency dt:dt="r8">3507685</Frequency><Timestamp dt:dt="r8">2192267198897</Timestamp><Current dt:dt="r8">0</Current><DateUtc dt:dt="string">2015-07-14T21:36:31Z</DateUtc></FrequencyChange></FrequencyChanges></Clock>\n	Hungry_Donkey_bar_English_2-118-1	60.017	-62	1.0.0.18	1	1834564108	Standard	2.0.10.353	2.0.10.353	07-14-2015	7/14/2015 9:36:31 PM	17:36:31	2.0.10.248	17	Bar37-63.bmp	43	2	?	0r_4g.bmp	0r_4g.bmp	0r_2g.bmp	0r_2g.bmp		0r_4g.bmp			TrialProc	TrialList	0	cvbn	-999999	16	124251	0	v	340	124591	54	-73	-19	-14	-18	9	4	6	2	17	0	0	0	0	4	4	2	2	0	4
Hungry_Donkey_bar_English_2	118	1	<?xml version="1.0"?>\n<Clock xmlns:dt="urn:schemas-microsoft-com:datatypes"><Description dt:dt="string">E-Prime Primary Realtime Clock</Description><StartTime><Timestamp dt:dt="int">0</Timestamp><DateUtc dt:dt="string">2015-07-14T21:36:31Z</DateUtc></StartTime><FrequencyChanges><FrequencyChange><Frequency dt:dt="r8">3507685</Frequency><Timestamp dt:dt="r8">2192267198897</Timestamp><Current dt:dt="r8">0</Current><DateUtc dt:dt="string">2015-07-14T21:36:31Z</DateUtc></FrequencyChange></FrequencyChanges></Clock>\n	Hungry_Donkey_bar_English_2-118-1	60.017	-62	1.0.0.18	1	1834564108	Standard	2.0.10.353	2.0.10.353	07-14-2015	7/14/2015 9:36:31 PM	17:36:31	2.0.10.248	18	Bar37-63.bmp	43	3	?	0r_4g.bmp	0r_4g.bmp	0r_2g.bmp	0r_2g.bmp			0r_2g.bmp		TrialProc	TrialList	0	cvbn	-999999	16	126617	0	b	934	127551	56	-73	-17	-14	-18	11	4	7	2	18	0	0	0	0	4	4	2	2	0	2
Hungry_Donkey_bar_English_2	118	1	<?xml version="1.0"?>\n<Clock xmlns:dt="urn:schemas-microsoft-com:datatypes"><Description dt:dt="string">E-Prime Primary Realtime Clock</Description><StartTime><Timestamp dt:dt="int">0</Timestamp><DateUtc dt:dt="string">2015-07-14T21:36:31Z</DateUtc></StartTime><FrequencyChanges><FrequencyChange><Frequency dt:dt="r8">3507685</Frequency><Timestamp dt:dt="r8">2192267198897</Timestamp><Current dt:dt="r8">0</Current><DateUtc dt:dt="string">2015-07-14T21:36:31Z</DateUtc></FrequencyChange></FrequencyChanges></Clock>\n	Hungry_Donkey_bar_English_2-118-1	60.017	-62	1.0.0.18	1	1834564108	Standard	2.0.10.353	2.0.10.353	07-14-2015	7/14/2015 9:36:31 PM	17:36:31	2.0.10.248	19	Bar50-50.bmp	44	4	?	10r_4g.bmp	0r_4g.bmp	2r_2g.bmp	0r_2g.bmp				0r_2g.bmp	TrialProc	TrialList	0	cvbn	-999999	16	129583	0	n	432	130015	58	-73	-15	-14	-18	11	6	2	2	19	-10	0	-2	0	4	4	2	2	0	2
Hungry_Donkey_bar_English_2	118	1	<?xml version="1.0"?>\n<Clock xmlns:dt="urn:schemas-microsoft-com:datatypes"><Description dt:dt="string">E-Prime Primary Realtime Clock</Description><StartTime><Timestamp dt:dt="int">0</Timestamp><DateUtc dt:dt="string">2015-07-14T21:36:31Z</DateUtc></StartTime><FrequencyChanges><FrequencyChange><Frequency dt:dt="r8">3507685</Frequency><Timestamp dt:dt="r8">2192267198897</Timestamp><Current dt:dt="r8">0</Current><DateUtc dt:dt="string">2015-07-14T21:36:31Z</DateUtc></FrequencyChange></FrequencyChanges></Clock>\n	Hungry_Donkey_bar_English_2-118-1	60.017	-62	1.0.0.18	1	1834564108	Standard	2.0.10.353	2.0.10.353	07-14-2015	7/14/2015 9:36:31 PM	17:36:31	2.0.10.248	20	Bar37-63.bmp	43	1	?	10r_4g.bmp	0r_4g.bmp	2r_2g.bmp	0r_2g.bmp	10r_4g.bmp				TrialProc	TrialList	0	cvbn	-999999	16	132049	0	c	302	132351	62	-83	-21	-20	-18	11	6	4	2	20	-10	0	-2	0	4	4	2	2	-10	4
Hungry_Donkey_bar_English_2	118	1	<?xml version="1.0"?>\n<Clock xmlns:dt="urn:schemas-microsoft-com:datatypes"><Description dt:dt="string">E-Prime Primary Realtime Clock</Description><StartTime><Timestamp dt:dt="int">0</Timestamp><DateUtc dt:dt="string">2015-07-14T21:36:31Z</DateUtc></StartTime><FrequencyChanges><FrequencyChange><Frequency dt:dt="r8">3507685</Frequency><Timestamp dt:dt="r8">2192267198897</Timestamp><Current dt:dt="r8">0</Current><DateUtc dt:dt="string">2015-07-14T21:36:31Z</DateUtc></FrequencyChange></FrequencyChanges></Clock>\n	Hungry_Donkey_bar_English_2-118-1	60.017	-62	1.0.0.18	1	1834564108	Standard	2.0.10.353	2.0.10.353	07-14-2015	7/14/2015 9:36:31 PM	17:36:31	2.0.10.248	21	Bar50-50.bmp	44	2	?	0r_4g.bmp	0r_4g.bmp	0r_2g.bmp	0r_2g.bmp		0r_4g.bmp			TrialProc	TrialList	0	cvbn	-999999	16	134382	0	v	305	134687	66	-83	-17	-20	-14	11	6	9	3	21	0	0	0	0	4	4	2	2	0	4
Hungry_Donkey_bar_English_2	118	1	<?xml version="1.0"?>\n<Clock xmlns:dt="urn:schemas-microsoft-com:datatypes"><Description dt:dt="string">E-Prime Primary Realtime Clock</Description><StartTime><Timestamp dt:dt="int">0</Timestamp><DateUtc dt:dt="string">2015-07-14T21:36:31Z</DateUtc></StartTime><FrequencyChanges><FrequencyChange><Frequency dt:dt="r8">3507685</Frequency><Timestamp dt:dt="r8">2192267198897</Timestamp><Current dt:dt="r8">0</Current><DateUtc dt:dt="string">2015-07-14T21:36:31Z</DateUtc></FrequencyChange></FrequencyChanges></Clock>\n	Hungry_Donkey_bar_English_2-118-1	60.017	-62	1.0.0.18	1	1834564108	Standard	2.0.10.353	2.0.10.353	07-14-2015	7/14/2015 9:36:31 PM	17:36:31	2.0.10.248	22	Bar50-50.bmp	46	2	?	10r_4g.bmp	0r_4g.bmp	2r_2g.bmp	0r_2g.bmp		0r_4g.bmp			TrialProc	TrialList	0	cvbn	-999999	16	136714	0	v	405	137119	70	-83	-13	-20	-10	11	6	3	3	22	-10	0	-2	0	4	4	2	2	0	4
Hungry_Donkey_bar_English_2	118	1	<?xml version="1.0"?>\n<Clock xmlns:dt="urn:schemas-microsoft-com:datatypes"><Description dt:dt="string">E-Prime Primary Realtime Clock</Description><StartTime><Timestamp dt:dt="int">0</Timestamp><DateUtc dt:dt="string">2015-07-14T21:36:31Z</DateUtc></StartTime><FrequencyChanges><FrequencyChange><Frequency dt:dt="r8">3507685</Frequency><Timestamp dt:dt="r8">2192267198897</Timestamp><Current dt:dt="r8">0</Current><DateUtc dt:dt="string">2015-07-14T21:36:31Z</DateUtc></FrequencyChange></FrequencyChanges></Clock>\n	Hungry_Donkey_bar_English_2-118-1	60.017	-62	1.0.0.18	1	1834564108	Standard	2.0.10.353	2.0.10.353	07-14-2015	7/14/2015 9:36:31 PM	17:36:31	2.0.10.248	23	Bar50-50.bmp	47	2	?	0r_4g.bmp	0r_4g.bmp	0r_2g.bmp	0r_2g.bmp		0r_4g.bmp			TrialProc	TrialList	0	cvbn	-999999	16	139147	0	v	323	139470	74	-83	-9	-20	-6	11	6	10	3	23	0	0	0	0	4	4	2	2	0	4
Hungry_Donkey_bar_English_2	118	1	<?xml version="1.0"?>\n<Clock xmlns:dt="urn:schemas-microsoft-com:datatypes"><Description dt:dt="string">E-Prime Primary Realtime Clock</Description><StartTime><Timestamp dt:dt="int">0</Timestamp><DateUtc dt:dt="string">2015-07-14T21:36:31Z</DateUtc></StartTime><FrequencyChanges><FrequencyChange><Frequency dt:dt="r8">3507685</Frequency><Timestamp dt:dt="r8">2192267198897</Timestamp><Current dt:dt="r8">0</Current><DateUtc dt:dt="string">2015-07-14T21:36:31Z</DateUtc></FrequencyChange></FrequencyChanges></Clock>\n	Hungry_Donkey_bar_English_2-118-1	60.017	-62	1.0.0.18	1	1834564108	Standard	2.0.10.353	2.0.10.353	07-14-2015	7/14/2015 9:36:31 PM	17:36:31	2.0.10.248	24	Bar50-50.bmp	48	2	?	0r_4g.bmp	0r_4g.bmp	0r_2g.bmp	0r_2g.bmp		0r_4g.bmp			TrialProc	TrialList	0	cvbn	-999999	16	141496	0	v	422	141918	78	-83	-5	-20	-2	11	6	7	3	24	0	0	0	0	4	4	2	2	0	4
Hungry_Donkey_bar_English_2	118	1	<?xml version="1.0"?>\n<Clock xmlns:dt="urn:schemas-microsoft-com:datatypes"><Description dt:dt="string">E-Prime Primary Realtime Clock</Description><StartTime><Timestamp dt:dt="int">0</Timestamp><DateUtc dt:dt="string">2015-07-14T21:36:31Z</DateUtc></StartTime><FrequencyChanges><FrequencyChange><Frequency dt:dt="r8">3507685</Frequency><Timestamp dt:dt="r8">2192267198897</Timestamp><Current dt:dt="r8">0</Current><DateUtc dt:dt="string">2015-07-14T21:36:31Z</DateUtc></FrequencyChange></FrequencyChanges></Clock>\n	Hungry_Donkey_bar_English_2-118-1	60.017	-62	1.0.0.18	1	1834564108	Standard	2.0.10.353	2.0.10.353	07-14-2015	7/14/2015 9:36:31 PM	17:36:31	2.0.10.248	25	Bar37-63.bmp	38	2	?	8r_4g.bmp	50r_4g.bmp	1r_2g.bmp	10r_2g.bmp		50r_4g.bmp			TrialProc	TrialList	0	cvbn	-999999	17	143946	0	v	820	144766	82	-133	-51	-20	-48	11	6	1	3	25	-8	-50	-1	-10	4	4	2	2	-50	4
Hungry_Donkey_bar_English_2	118	1	<?xml version="1.0"?>\n<Clock xmlns:dt="urn:schemas-microsoft-com:datatypes"><Description dt:dt="string">E-Prime Primary Realtime Clock</Description><StartTime><Timestamp dt:dt="int">0</Timestamp><DateUtc dt:dt="string">2015-07-14T21:36:31Z</DateUtc></StartTime><FrequencyChanges><FrequencyChange><Frequency dt:dt="r8">3507685</Frequency><Timestamp dt:dt="r8">2192267198897</Timestamp><Current dt:dt="r8">0</Current><DateUtc dt:dt="string">2015-07-14T21:36:31Z</DateUtc></FrequencyChange></FrequencyChanges></Clock>\n	Hungry_Donkey_bar_English_2-118-1	60.017	-62	1.0.0.18	1	1834564108	Standard	2.0.10.353	2.0.10.353	07-14-2015	7/14/2015 9:36:31 PM	17:36:31	2.0.10.248	26	Bar37-63.bmp	39	2	?	12r_4g.bmp	0r_4g.bmp	3r_2g.bmp	0r_2g.bmp		0r_4g.bmp			TrialProc	TrialList	0	cvbn	-999999	16	146795	0	v	403	147198	86	-133	-47	-20	-44	11	6	5	3	26	-12	0	-3	0	4	4	2	2	0	4
Hungry_Donkey_bar_English_2	118	1	<?xml version="1.0"?>\n<Clock xmlns:dt="urn:schemas-microsoft-com:datatypes"><Description dt:dt="string">E-Prime Primary Realtime Clock</Description><StartTime><Timestamp dt:dt="int">0</Timestamp><DateUtc dt:dt="string">2015-07-14T21:36:31Z</DateUtc></StartTime><FrequencyChanges><FrequencyChange><Frequency dt:dt="r8">3507685</Frequency><Timestamp dt:dt="r8">2192267198897</Timestamp><Current dt:dt="r8">0</Current><DateUtc dt:dt="string">2015-07-14T21:36:31Z</DateUtc></FrequencyChange></FrequencyChanges></Clock>\n	Hungry_Donkey_bar_English_2-118-1	60.017	-62	1.0.0.18	1	1834564108	Standard	2.0.10.353	2.0.10.353	07-14-2015	7/14/2015 9:36:31 PM	17:36:31	2.0.10.248	27	Bar37-63.bmp	40	2	?	0r_4g.bmp	0r_4g.bmp	0r_2g.bmp	0r_2g.bmp		0r_4g.bmp			TrialProc	TrialList	0	cvbn	-999999	16	149227	0	v	243	149470	90	-133	-43	-20	-40	11	6	8	3	27	0	0	0	0	4	4	2	2	0	4
Hungry_Donkey_bar_English_2	118	1	<?xml version="1.0"?>\n<Clock xmlns:dt="urn:schemas-microsoft-com:datatypes"><Description dt:dt="string">E-Prime Primary Realtime Clock</Description><StartTime><Timestamp dt:dt="int">0</Timestamp><DateUtc dt:dt="string">2015-07-14T21:36:31Z</DateUtc></StartTime><FrequencyChanges><FrequencyChange><Frequency dt:dt="r8">3507685</Frequency><Timestamp dt:dt="r8">2192267198897</Timestamp><Current dt:dt="r8">0</Current><DateUtc dt:dt="string">2015-07-14T21:36:31Z</DateUtc></FrequencyChange></FrequencyChanges></Clock>\n	Hungry_Donkey_bar_English_2-118-1	60.017	-62	1.0.0.18	1	1834564108	Standard	2.0.10.353	2.0.10.353	07-14-2015	7/14/2015 9:36:31 PM	17:36:31	2.0.10.248	28	Bar37-63.bmp	41	2	?	10r_4g.bmp	0r_4g.bmp	2r_2g.bmp	0r_2g.bmp		0r_4g.bmp			TrialProc	TrialList	0	cvbn	-999999	15	151493	0	v	313	151806	94	-133	-39	-20	-36	11	6	4	3	28	-10	0	-2	0	4	4	2	2	0	4
Hungry_Donkey_bar_English_2	118	1	<?xml version="1.0"?>\n<Clock xmlns:dt="urn:schemas-microsoft-com:datatypes"><Description dt:dt="string">E-Prime Primary Realtime Clock</Description><StartTime><Timestamp dt:dt="int">0</Timestamp><DateUtc dt:dt="string">2015-07-14T21:36:31Z</DateUtc></StartTime><FrequencyChanges><FrequencyChange><Frequency dt:dt="r8">3507685</Frequency><Timestamp dt:dt="r8">2192267198897</Timestamp><Current dt:dt="r8">0</Current><DateUtc dt:dt="string">2015-07-14T21:36:31Z</DateUtc></FrequencyChange></FrequencyChanges></Clock>\n	Hungry_Donkey_bar_English_2-118-1	60.017	-62	1.0.0.18	1	1834564108	Standard	2.0.10.353	2.0.10.353	07-14-2015	7/14/2015 9:36:31 PM	17:36:31	2.0.10.248	29	Bar37-63.bmp	42	2	?	0r_4g.bmp	0r_4g.bmp	0r_2g.bmp	0r_2g.bmp		0r_4g.bmp			TrialProc	TrialList	0	cvbn	-999999	16	153843	0	v	379	154222	98	-133	-35	-20	-32	11	6	6	3	29	0	0	0	0	4	4	2	2	0	4
Hungry_Donkey_bar_English_2	118	1	<?xml version="1.0"?>\n<Clock xmlns:dt="urn:schemas-microsoft-com:datatypes"><Description dt:dt="string">E-Prime Primary Realtime Clock</Description><StartTime><Timestamp dt:dt="int">0</Timestamp><DateUtc dt:dt="string">2015-07-14T21:36:31Z</DateUtc></StartTime><FrequencyChanges><FrequencyChange><Frequency dt:dt="r8">3507685</Frequency><Timestamp dt:dt="r8">2192267198897</Timestamp><Current dt:dt="r8">0</Current><DateUtc dt:dt="string">2015-07-14T21:36:31Z</DateUtc></FrequencyChange></FrequencyChanges></Clock>\n	Hungry_Donkey_bar_English_2-118-1	60.017	-62	1.0.0.18	1	1834564108	Standard	2.0.10.353	2.0.10.353	07-14-2015	7/14/2015 9:36:31 PM	17:36:31	2.0.10.248	30	Bar37-63.bmp	43	2	?	10r_4g.bmp	0r_4g.bmp	2r_2g.bmp	0r_2g.bmp		0r_4g.bmp			TrialProc	TrialList	0	cvbn	-999999	16	156259	0	v	363	156622	102	-133	-31	-20	-28	11	6	2	3	30	-10	0	-2	0	4	4	2	2	0	4
Hungry_Donkey_bar_English_2	118	1	<?xml version="1.0"?>\n<Clock xmlns:dt="urn:schemas-microsoft-com:datatypes"><Description dt:dt="string">E-Prime Primary Realtime Clock</Description><StartTime><Timestamp dt:dt="int">0</Timestamp><DateUtc dt:dt="string">2015-07-14T21:36:31Z</DateUtc></StartTime><FrequencyChanges><FrequencyChange><Frequency dt:dt="r8">3507685</Frequency><Timestamp dt:dt="r8">2192267198897</Timestamp><Current dt:dt="r8">0</Current><DateUtc dt:dt="string">2015-07-14T21:36:31Z</DateUtc></FrequencyChange></FrequencyChanges></Clock>\n	Hungry_Donkey_bar_English_2-118-1	60.017	-62	1.0.0.18	1	1834564108	Standard	2.0.10.353	2.0.10.353	07-14-2015	7/14/2015 9:36:31 PM	17:36:31	2.0.10.248	31	Bar50-50.bmp	44	2	?	0r_4g.bmp	0r_4g.bmp	0r_2g.bmp	0r_2g.bmp		0r_4g.bmp			TrialProc	TrialList	0	cvbn	-999999	16	158658	0	v	315	158973	106	-133	-27	-20	-24	11	6	8	4	31	0	0	0	0	4	4	2	2	0	4
Hungry_Donkey_bar_English_2	118	1	<?xml version="1.0"?>\n<Clock xmlns:dt="urn:schemas-microsoft-com:datatypes"><Description dt:dt="string">E-Prime Primary Realtime Clock</Description><StartTime><Timestamp dt:dt="int">0</Timestamp><DateUtc dt:dt="string">2015-07-14T21:36:31Z</DateUtc></StartTime><FrequencyChanges><FrequencyChange><Frequency dt:dt="r8">3507685</Frequency><Timestamp dt:dt="r8">2192267198897</Timestamp><Current dt:dt="r8">0</Current><DateUtc dt:dt="string">2015-07-14T21:36:31Z</DateUtc></FrequencyChange></FrequencyChanges></Clock>\n	Hungry_Donkey_bar_English_2-118-1	60.017	-62	1.0.0.18	1	1834564108	Standard	2.0.10.353	2.0.10.353	07-14-2015	7/14/2015 9:36:31 PM	17:36:31	2.0.10.248	32	Bar50-50.bmp	45	2	?	0r_4g.bmp	0r_4g.bmp	0r_2g.bmp	0r_2g.bmp		0r_4g.bmp			TrialProc	TrialList	0	cvbn	-999999	16	161007	0	v	350	161357	110	-133	-23	-20	-20	11	6	6	4	32	0	0	0	0	4	4	2	2	0	4
Hungry_Donkey_bar_English_2	118	1	<?xml version="1.0"?>\n<Clock xmlns:dt="urn:schemas-microsoft-com:datatypes"><Description dt:dt="string">E-Prime Primary Realtime Clock</Description><StartTime><Timestamp dt:dt="int">0</Timestamp><DateUtc dt:dt="string">2015-07-14T21:36:31Z</DateUtc></StartTime><FrequencyChanges><FrequencyChange><Frequency dt:dt="r8">3507685</Frequency><Timestamp dt:dt="r8">2192267198897</Timestamp><Current dt:dt="r8">0</Current><DateUtc dt:dt="string">2015-07-14T21:36:31Z</DateUtc></FrequencyChange></FrequencyChanges></Clock>\n	Hungry_Donkey_bar_English_2-118-1	60.017	-62	1.0.0.18	1	1834564108	Standard	2.0.10.353	2.0.10.353	07-14-2015	7/14/2015 9:36:31 PM	17:36:31	2.0.10.248	33	Bar50-50.bmp	46	2	?	10r_4g.bmp	0r_4g.bmp	2r_2g.bmp	0r_2g.bmp		0r_4g.bmp			TrialProc	TrialList	0	cvbn	-999999	16	163390	0	v	575	163965	114	-133	-19	-20	-16	11	6	4	4	33	-10	0	-2	0	4	4	2	2	0	4
Hungry_Donkey_bar_English_2	118	1	<?xml version="1.0"?>\n<Clock xmlns:dt="urn:schemas-microsoft-com:datatypes"><Description dt:dt="string">E-Prime Primary Realtime Clock</Description><StartTime><Timestamp dt:dt="int">0</Timestamp><DateUtc dt:dt="string">2015-07-14T21:36:31Z</DateUtc></StartTime><FrequencyChanges><FrequencyChange><Frequency dt:dt="r8">3507685</Frequency><Timestamp dt:dt="r8">2192267198897</Timestamp><Current dt:dt="r8">0</Current><DateUtc dt:dt="string">2015-07-14T21:36:31Z</DateUtc></FrequencyChange></FrequencyChanges></Clock>\n	Hungry_Donkey_bar_English_2-118-1	60.017	-62	1.0.0.18	1	1834564108	Standard	2.0.10.353	2.0.10.353	07-14-2015	7/14/2015 9:36:31 PM	17:36:31	2.0.10.248	34	Bar50-50.bmp	47	2	?	0r_4g.bmp	0r_4g.bmp	0r_2g.bmp	0r_2g.bmp		0r_4g.bmp			TrialProc	TrialList	0	cvbn	-999999	15	165989	0	v	312	166301	118	-133	-15	-20	-12	11	6	7	4	34	0	0	0	0	4	4	2	2	0	4
Hungry_Donkey_bar_English_2	118	1	<?xml version="1.0"?>\n<Clock xmlns:dt="urn:schemas-microsoft-com:datatypes"><Description dt:dt="string">E-Prime Primary Realtime Clock</Description><StartTime><Timestamp dt:dt="int">0</Timestamp><DateUtc dt:dt="string">2015-07-14T21:36:31Z</DateUtc></StartTime><FrequencyChanges><FrequencyChange><Frequency dt:dt="r8">3507685</Frequency><Timestamp dt:dt="r8">2192267198897</Timestamp><Current dt:dt="r8">0</Current><DateUtc dt:dt="string">2015-07-14T21:36:31Z</DateUtc></FrequencyChange></FrequencyChanges></Clock>\n	Hungry_Donkey_bar_English_2-118-1	60.017	-62	1.0.0.18	1	1834564108	Standard	2.0.10.353	2.0.10.353	07-14-2015	7/14/2015 9:36:31 PM	17:36:31	2.0.10.248	35	Bar50-50.bmp	47	3	?	8r_4g.bmp	50r_4g.bmp	1r_2g.bmp	10r_2g.bmp			1r_2g.bmp		TrialProc	TrialList	0	cvbn	-999999	17	168339	0	b	282	168621	120	-134	-14	-20	-12	12	6	1	4	35	-8	-50	-1	-10	4	4	2	2	-1	2
Hungry_Donkey_bar_English_2	118	1	<?xml version="1.0"?>\n<Clock xmlns:dt="urn:schemas-microsoft-com:datatypes"><Description dt:dt="string">E-Prime Primary Realtime Clock</Description><StartTime><Timestamp dt:dt="int">0</Timestamp><DateUtc dt:dt="string">2015-07-14T21:36:31Z</DateUtc></StartTime><FrequencyChanges><FrequencyChange><Frequency dt:dt="r8">3507685</Frequency><Timestamp dt:dt="r8">2192267198897</Timestamp><Current dt:dt="r8">0</Current><DateUtc dt:dt="string">2015-07-14T21:36:31Z</DateUtc></FrequencyChange></FrequencyChanges></Clock>\n	Hungry_Donkey_bar_English_2-118-1	60.017	-62	1.0.0.18	1	1834564108	Standard	2.0.10.353	2.0.10.353	07-14-2015	7/14/2015 9:36:31 PM	17:36:31	2.0.10.248	36	Bar50-50.bmp	47	3	?	10r_4g.bmp	0r_4g.bmp	2r_2g.bmp	0r_2g.bmp			2r_2g.bmp		TrialProc	TrialList	0	cvbn	-999999	17	170655	0	b	318	170973	122	-136	-14	-20	-12	12	6	2	4	36	-10	0	-2	0	4	4	2	2	-2	2
Hungry_Donkey_bar_English_2	118	1	<?xml version="1.0"?>\n<Clock xmlns:dt="urn:schemas-microsoft-com:datatypes"><Description dt:dt="string">E-Prime Primary Realtime Clock</Description><StartTime><Timestamp dt:dt="int">0</Timestamp><DateUtc dt:dt="string">2015-07-14T21:36:31Z</DateUtc></StartTime><FrequencyChanges><FrequencyChange><Frequency dt:dt="r8">3507685</Frequency><Timestamp dt:dt="r8">2192267198897</Timestamp><Current dt:dt="r8">0</Current><DateUtc dt:dt="string">2015-07-14T21:36:31Z</DateUtc></FrequencyChange></FrequencyChanges></Clock>\n	Hungry_Donkey_bar_English_2-118-1	60.017	-62	1.0.0.18	1	1834564108	Standard	2.0.10.353	2.0.10.353	07-14-2015	7/14/2015 9:36:31 PM	17:36:31	2.0.10.248	37	Bar50-50.bmp	48	3	?	0r_4g.bmp	0r_4g.bmp	0r_2g.bmp	0r_2g.bmp			0r_2g.bmp		TrialProc	TrialList	0	cvbn	-999999	16	173004	0	b	241	173245	124	-136	-12	-20	-12	14	6	9	4	37	0	0	0	0	4	4	2	2	0	2
Hungry_Donkey_bar_English_2	118	1	<?xml version="1.0"?>\n<Clock xmlns:dt="urn:schemas-microsoft-com:datatypes"><Description dt:dt="string">E-Prime Primary Realtime Clock</Description><StartTime><Timestamp dt:dt="int">0</Timestamp><DateUtc dt:dt="string">2015-07-14T21:36:31Z</DateUtc></StartTime><FrequencyChanges><FrequencyChange><Frequency dt:dt="r8">3507685</Frequency><Timestamp dt:dt="r8">2192267198897</Timestamp><Current dt:dt="r8">0</Current><DateUtc dt:dt="string">2015-07-14T21:36:31Z</DateUtc></FrequencyChange></FrequencyChanges></Clock>\n	Hungry_Donkey_bar_English_2-118-1	60.017	-62	1.0.0.18	1	1834564108	Standard	2.0.10.353	2.0.10.353	07-14-2015	7/14/2015 9:36:31 PM	17:36:31	2.0.10.248	38	Bar50-50.bmp	48	3	?	12r_4g.bmp	0r_4g.bmp	3r_2g.bmp	0r_2g.bmp			3r_2g.bmp		TrialProc	TrialList	0	cvbn	-999999	16	175270	0	b	151	175421	126	-139	-13	-20	-12	13	6	5	4	38	-12	0	-3	0	4	4	2	2	-3	2
Hungry_Donkey_bar_English_2	118	1	<?xml version="1.0"?>\n<Clock xmlns:dt="urn:schemas-microsoft-com:datatypes"><Description dt:dt="string">E-Prime Primary Realtime Clock</Description><StartTime><Timestamp dt:dt="int">0</Timestamp><DateUtc dt:dt="string">2015-07-14T21:36:31Z</DateUtc></StartTime><FrequencyChanges><FrequencyChange><Frequency dt:dt="r8">3507685</Frequency><Timestamp dt:dt="r8">2192267198897</Timestamp><Current dt:dt="r8">0</Current><DateUtc dt:dt="string">2015-07-14T21:36:31Z</DateUtc></FrequencyChange></FrequencyChanges></Clock>\n	Hungry_Donkey_bar_English_2-118-1	60.017	-62	1.0.0.18	1	1834564108	Standard	2.0.10.353	2.0.10.353	07-14-2015	7/14/2015 9:36:31 PM	17:36:31	2.0.10.248	39	Bar50-50.bmp	48	4	?	0r_4g.bmp	0r_4g.bmp	0r_2g.bmp	0r_2g.bmp				0r_2g.bmp	TrialProc	TrialList	0	cvbn	-999999	17	177453	0	n	511	177964	128	-139	-11	-20	-12	13	8	10	4	39	0	0	0	0	4	4	2	2	0	2
Hungry_Donkey_bar_English_2	118	1	<?xml version="1.0"?>\n<Clock xmlns:dt="urn:schemas-microsoft-com:datatypes"><Description dt:dt="string">E-Prime Primary Realtime Clock</Description><StartTime><Timestamp dt:dt="int">0</Timestamp><DateUtc dt:dt="string">2015-07-14T21:36:31Z</DateUtc></StartTime><FrequencyChanges><FrequencyChange><Frequency dt:dt="r8">3507685</Frequency><Timestamp dt:dt="r8">2192267198897</Timestamp><Current dt:dt="r8">0</Current><DateUtc dt:dt="string">2015-07-14T21:36:31Z</DateUtc></FrequencyChange></FrequencyChanges></Clock>\n	Hungry_Donkey_bar_English_2-118-1	60.017	-62	1.0.0.18	1	1834564108	Standard	2.0.10.353	2.0.10.353	07-14-2015	7/14/2015 9:36:31 PM	17:36:31	2.0.10.248	40	Bar50-50.bmp	49	2	?	10r_4g.bmp	0r_4g.bmp	2r_2g.bmp	0r_2g.bmp		0r_4g.bmp			TrialProc	TrialList	0	cvbn	-999999	16	180002	0	v	330	180332	132	-139	-7	-20	-8	13	8	3	4	40	-10	0	-2	0	4	4	2	2	0	4
Hungry_Donkey_bar_English_2	118	1	<?xml version="1.0"?>\n<Clock xmlns:dt="urn:schemas-microsoft-com:datatypes"><Description dt:dt="string">E-Prime Primary Realtime Clock</Description><StartTime><Timestamp dt:dt="int">0</Timestamp><DateUtc dt:dt="string">2015-07-14T21:36:31Z</DateUtc></StartTime><FrequencyChanges><FrequencyChange><Frequency dt:dt="r8">3507685</Frequency><Timestamp dt:dt="r8">2192267198897</Timestamp><Current dt:dt="r8">0</Current><DateUtc dt:dt="string">2015-07-14T21:36:31Z</DateUtc></FrequencyChange></FrequencyChanges></Clock>\n	Hungry_Donkey_bar_English_2-118-1	60.017	-62	1.0.0.18	1	1834564108	Standard	2.0.10.353	2.0.10.353	07-14-2015	7/14/2015 9:36:31 PM	17:36:31	2.0.10.248	41	Bar50-50.bmp	49	2	?	10r_4g.bmp	0r_4g.bmp	2r_2g.bmp	0r_2g.bmp		0r_4g.bmp			TrialProc	TrialList	0	cvbn	-999999	16	182368	0	v	332	182700	136	-139	-3	-20	-4	13	8	4	5	41	-10	0	-2	0	4	4	2	2	0	4
Hungry_Donkey_bar_English_2	118	1	<?xml version="1.0"?>\n<Clock xmlns:dt="urn:schemas-microsoft-com:datatypes"><Description dt:dt="string">E-Prime Primary Realtime Clock</Description><StartTime><Timestamp dt:dt="int">0</Timestamp><DateUtc dt:dt="string">2015-07-14T21:36:31Z</DateUtc></StartTime><FrequencyChanges><FrequencyChange><Frequency dt:dt="r8">3507685</Frequency><Timestamp dt:dt="r8">2192267198897</Timestamp><Current dt:dt="r8">0</Current><DateUtc dt:dt="string">2015-07-14T21:36:31Z</DateUtc></FrequencyChange></FrequencyChanges></Clock>\n	Hungry_Donkey_bar_English_2-118-1	60.017	-62	1.0.0.18	1	1834564108	Standard	2.0.10.353	2.0.10.353	07-14-2015	7/14/2015 9:36:31 PM	17:36:31	2.0.10.248	42	Bar50-50.bmp	50	2	?	12r_4g.bmp	0r_4g.bmp	3r_2g.bmp	0r_2g.bmp		0r_4g.bmp			TrialProc	TrialList	0	cvbn	-999999	16	184734	0	v	366	185100	140	-139	1	-20	0	13	8	5	5	42	-12	0	-3	0	4	4	2	2	0	4
Hungry_Donkey_bar_English_2	118	1	<?xml version="1.0"?>\n<Clock xmlns:dt="urn:schemas-microsoft-com:datatypes"><Description dt:dt="string">E-Prime Primary Realtime Clock</Description><StartTime><Timestamp dt:dt="int">0</Timestamp><DateUtc dt:dt="string">2015-07-14T21:36:31Z</DateUtc></StartTime><FrequencyChanges><FrequencyChange><Frequency dt:dt="r8">3507685</Frequency><Timestamp dt:dt="r8">2192267198897</Timestamp><Current dt:dt="r8">0</Current><DateUtc dt:dt="string">2015-07-14T21:36:31Z</DateUtc></FrequencyChange></FrequencyChanges></Clock>\n	Hungry_Donkey_bar_English_2-118-1	60.017	-62	1.0.0.18	1	1834564108	Standard	2.0.10.353	2.0.10.353	07-14-2015	7/14/2015 9:36:31 PM	17:36:31	2.0.10.248	43	Bar50-50.bmp	51	2	?	0r_4g.bmp	0r_4g.bmp	0r_2g.bmp	0r_2g.bmp		0r_4g.bmp			TrialProc	TrialList	0	cvbn	-999999	16	187133	0	v	319	187452	144	-139	5	-20	4	13	8	6	5	43	0	0	0	0	4	4	2	2	0	4
Hungry_Donkey_bar_English_2	118	1	<?xml version="1.0"?>\n<Clock xmlns:dt="urn:schemas-microsoft-com:datatypes"><Description dt:dt="string">E-Prime Primary Realtime Clock</Description><StartTime><Timestamp dt:dt="int">0</Timestamp><DateUtc dt:dt="string">2015-07-14T21:36:31Z</DateUtc></StartTime><FrequencyChanges><FrequencyChange><Frequency dt:dt="r8">3507685</Frequency><Timestamp dt:dt="r8">2192267198897</Timestamp><Current dt:dt="r8">0</Current><DateUtc dt:dt="string">2015-07-14T21:36:31Z</DateUtc></FrequencyChange></FrequencyChanges></Clock>\n	Hungry_Donkey_bar_English_2-118-1	60.017	-62	1.0.0.18	1	1834564108	Standard	2.0.10.353	2.0.10.353	07-14-2015	7/14/2015 9:36:31 PM	17:36:31	2.0.10.248	44	Bar50-50.bmp	51	3	?	10r_4g.bmp	0r_4g.bmp	2r_2g.bmp	0r_2g.bmp			2r_2g.bmp		TrialProc	TrialList	0	cvbn	-999999	16	189482	0	b	402	189884	146	-141	5	-20	4	13	8	2	5	44	-10	0	-2	0	4	4	2	2	-2	2
Hungry_Donkey_bar_English_2	118	1	<?xml version="1.0"?>\n<Clock xmlns:dt="urn:schemas-microsoft-com:datatypes"><Description dt:dt="string">E-Prime Primary Realtime Clock</Description><StartTime><Timestamp dt:dt="int">0</Timestamp><DateUtc dt:dt="string">2015-07-14T21:36:31Z</DateUtc></StartTime><FrequencyChanges><FrequencyChange><Frequency dt:dt="r8">3507685</Frequency><Timestamp dt:dt="r8">2192267198897</Timestamp><Current dt:dt="r8">0</Current><DateUtc dt:dt="string">2015-07-14T21:36:31Z</DateUtc></FrequencyChange></FrequencyChanges></Clock>\n	Hungry_Donkey_bar_English_2-118-1	60.017	-62	1.0.0.18	1	1834564108	Standard	2.0.10.353	2.0.10.353	07-14-2015	7/14/2015 9:36:31 PM	17:36:31	2.0.10.248	45	Bar50-50.bmp	52	1	?	0r_4g.bmp	0r_4g.bmp	0r_2g.bmp	0r_2g.bmp	0r_4g.bmp				TrialProc	TrialList	0	cvbn	-999999	16	191915	0	c	401	192316	150	-141	9	-16	4	13	8	7	5	45	0	0	0	0	4	4	2	2	0	4
Hungry_Donkey_bar_English_2	118	1	<?xml version="1.0"?>\n<Clock xmlns:dt="urn:schemas-microsoft-com:datatypes"><Description dt:dt="string">E-Prime Primary Realtime Clock</Description><StartTime><Timestamp dt:dt="int">0</Timestamp><DateUtc dt:dt="string">2015-07-14T21:36:31Z</DateUtc></StartTime><FrequencyChanges><FrequencyChange><Frequency dt:dt="r8">3507685</Frequency><Timestamp dt:dt="r8">2192267198897</Timestamp><Current dt:dt="r8">0</Current><DateUtc dt:dt="string">2015-07-14T21:36:31Z</DateUtc></FrequencyChange></FrequencyChanges></Clock>\n	Hungry_Donkey_bar_English_2-118-1	60.017	-62	1.0.0.18	1	1834564108	Standard	2.0.10.353	2.0.10.353	07-14-2015	7/14/2015 9:36:31 PM	17:36:31	2.0.10.248	46	Bar50-50.bmp	52	4	?	0r_4g.bmp	0r_4g.bmp	0r_2g.bmp	0r_2g.bmp				0r_2g.bmp	TrialProc	TrialList	0	cvbn	-999999	16	194348	0	n	1168	195516	152	-141	11	-16	4	13	10	10	5	46	0	0	0	0	4	4	2	2	0	2
Hungry_Donkey_bar_English_2	118	1	<?xml version="1.0"?>\n<Clock xmlns:dt="urn:schemas-microsoft-com:datatypes"><Description dt:dt="string">E-Prime Primary Realtime Clock</Description><StartTime><Timestamp dt:dt="int">0</Timestamp><DateUtc dt:dt="string">2015-07-14T21:36:31Z</DateUtc></StartTime><FrequencyChanges><FrequencyChange><Frequency dt:dt="r8">3507685</Frequency><Timestamp dt:dt="r8">2192267198897</Timestamp><Current dt:dt="r8">0</Current><DateUtc dt:dt="string">2015-07-14T21:36:31Z</DateUtc></FrequencyChange></FrequencyChanges></Clock>\n	Hungry_Donkey_bar_English_2-118-1	60.017	-62	1.0.0.18	1	1834564108	Standard	2.0.10.353	2.0.10.353	07-14-2015	7/14/2015 9:36:31 PM	17:36:31	2.0.10.248	47	Bar50-50.bmp	53	1	?	0r_4g.bmp	0r_4g.bmp	0r_2g.bmp	0r_2g.bmp	0r_4g.bmp				TrialProc	TrialList	0	cvbn	-999999	16	197547	0	c	368	197915	156	-141	15	-12	4	13	10	9	5	47	0	0	0	0	4	4	2	2	0	4
Hungry_Donkey_bar_English_2	118	1	<?xml version="1.0"?>\n<Clock xmlns:dt="urn:schemas-microsoft-com:datatypes"><Description dt:dt="string">E-Prime Primary Realtime Clock</Description><StartTime><Timestamp dt:dt="int">0</Timestamp><DateUtc dt:dt="string">2015-07-14T21:36:31Z</DateUtc></StartTime><FrequencyChanges><FrequencyChange><Frequency dt:dt="r8">3507685</Frequency><Timestamp dt:dt="r8">2192267198897</Timestamp><Current dt:dt="r8">0</Current><DateUtc dt:dt="string">2015-07-14T21:36:31Z</DateUtc></FrequencyChange></FrequencyChanges></Clock>\n	Hungry_Donkey_bar_English_2-118-1	60.017	-62	1.0.0.18	1	1834564108	Standard	2.0.10.353	2.0.10.353	07-14-2015	7/14/2015 9:36:31 PM	17:36:31	2.0.10.248	48	Bar50-50.bmp	46	2	?	8r_4g.bmp	50r_4g.bmp	1r_2g.bmp	10r_2g.bmp		50r_4g.bmp			TrialProc	TrialList	0	cvbn	-999999	16	199946	0	v	353	200299	160	-191	-31	-12	-42	13	10	1	5	48	-8	-50	-1	-10	4	4	2	2	-50	4
Hungry_Donkey_bar_English_2	118	1	<?xml version="1.0"?>\n<Clock xmlns:dt="urn:schemas-microsoft-com:datatypes"><Description dt:dt="string">E-Prime Primary Realtime Clock</Description><StartTime><Timestamp dt:dt="int">0</Timestamp><DateUtc dt:dt="string">2015-07-14T21:36:31Z</DateUtc></StartTime><FrequencyChanges><FrequencyChange><Frequency dt:dt="r8">3507685</Frequency><Timestamp dt:dt="r8">2192267198897</Timestamp><Current dt:dt="r8">0</Current><DateUtc dt:dt="string">2015-07-14T21:36:31Z</DateUtc></FrequencyChange></FrequencyChanges></Clock>\n	Hungry_Donkey_bar_English_2-118-1	60.017	-62	1.0.0.18	1	1834564108	Standard	2.0.10.353	2.0.10.353	07-14-2015	7/14/2015 9:36:31 PM	17:36:31	2.0.10.248	49	Bar50-50.bmp	46	2	?	0r_4g.bmp	0r_4g.bmp	0r_2g.bmp	0r_2g.bmp		0r_4g.bmp			TrialProc	TrialList	0	cvbn	-999999	16	202329	0	v	306	202635	164	-191	-27	-12	-38	13	10	8	5	49	0	0	0	0	4	4	2	2	0	4
Hungry_Donkey_bar_English_2	118	1	<?xml version="1.0"?>\n<Clock xmlns:dt="urn:schemas-microsoft-com:datatypes"><Description dt:dt="string">E-Prime Primary Realtime Clock</Description><StartTime><Timestamp dt:dt="int">0</Timestamp><DateUtc dt:dt="string">2015-07-14T21:36:31Z</DateUtc></StartTime><FrequencyChanges><FrequencyChange><Frequency dt:dt="r8">3507685</Frequency><Timestamp dt:dt="r8">2192267198897</Timestamp><Current dt:dt="r8">0</Current><DateUtc dt:dt="string">2015-07-14T21:36:31Z</DateUtc></FrequencyChange></FrequencyChanges></Clock>\n	Hungry_Donkey_bar_English_2-118-1	60.017	-62	1.0.0.18	1	1834564108	Standard	2.0.10.353	2.0.10.353	07-14-2015	7/14/2015 9:36:31 PM	17:36:31	2.0.10.248	50	Bar50-50.bmp	47	2	?	10r_4g.bmp	0r_4g.bmp	2r_2g.bmp	0r_2g.bmp		0r_4g.bmp			TrialProc	TrialList	0	cvbn	-999999	16	204661	0	v	182	204843	168	-191	-23	-12	-34	13	10	3	5	50	-10	0	-2	0	4	4	2	2	0	4
Hungry_Donkey_bar_English_2	118	1	<?xml version="1.0"?>\n<Clock xmlns:dt="urn:schemas-microsoft-com:datatypes"><Description dt:dt="string">E-Prime Primary Realtime Clock</Description><StartTime><Timestamp dt:dt="int">0</Timestamp><DateUtc dt:dt="string">2015-07-14T21:36:31Z</DateUtc></StartTime><FrequencyChanges><FrequencyChange><Frequency dt:dt="r8">3507685</Frequency><Timestamp dt:dt="r8">2192267198897</Timestamp><Current dt:dt="r8">0</Current><DateUtc dt:dt="string">2015-07-14T21:36:31Z</DateUtc></FrequencyChange></FrequencyChanges></Clock>\n	Hungry_Donkey_bar_English_2-118-1	60.017	-62	1.0.0.18	1	1834564108	Standard	2.0.10.353	2.0.10.353	07-14-2015	7/14/2015 9:36:31 PM	17:36:31	2.0.10.248	51	Bar50-50.bmp	47	2	?	0r_4g.bmp	0r_4g.bmp	0r_2g.bmp	0r_2g.bmp		0r_4g.bmp			TrialProc	TrialList	0	cvbn	-999999	16	206877	0	v	270	207147	172	-191	-19	-12	-30	13	10	6	6	51	0	0	0	0	4	4	2	2	0	4
Hungry_Donkey_bar_English_2	118	1	<?xml version="1.0"?>\n<Clock xmlns:dt="urn:schemas-microsoft-com:datatypes"><Description dt:dt="string">E-Prime Primary Realtime Clock</Description><StartTime><Timestamp dt:dt="int">0</Timestamp><DateUtc dt:dt="string">2015-07-14T21:36:31Z</DateUtc></StartTime><FrequencyChanges><FrequencyChange><Frequency dt:dt="r8">3507685</Frequency><Timestamp dt:dt="r8">2192267198897</Timestamp><Current dt:dt="r8">0</Current><DateUtc dt:dt="string">2015-07-14T21:36:31Z</DateUtc></FrequencyChange></FrequencyChanges></Clock>\n	Hungry_Donkey_bar_English_2-118-1	60.017	-62	1.0.0.18	1	1834564108	Standard	2.0.10.353	2.0.10.353	07-14-2015	7/14/2015 9:36:31 PM	17:36:31	2.0.10.248	52	Bar50-50.bmp	48	2	?	0r_4g.bmp	0r_4g.bmp	0r_2g.bmp	0r_2g.bmp		0r_4g.bmp			TrialProc	TrialList	0	cvbn	-999999	16	209177	0	v	322	209499	176	-191	-15	-12	-26	13	10	8	6	52	0	0	0	0	4	4	2	2	0	4
Hungry_Donkey_bar_English_2	118	1	<?xml version="1.0"?>\n<Clock xmlns:dt="urn:schemas-microsoft-com:datatypes"><Description dt:dt="string">E-Prime Primary Realtime Clock</Description><StartTime><Timestamp dt:dt="int">0</Timestamp><DateUtc dt:dt="string">2015-07-14T21:36:31Z</DateUtc></StartTime><FrequencyChanges><FrequencyChange><Frequency dt:dt="r8">3507685</Frequency><Timestamp dt:dt="r8">2192267198897</Timestamp><Current dt:dt="r8">0</Current><DateUtc dt:dt="string">2015-07-14T21:36:31Z</DateUtc></FrequencyChange></FrequencyChanges></Clock>\n	Hungry_Donkey_bar_English_2-118-1	60.017	-62	1.0.0.18	1	1834564108	Standard	2.0.10.353	2.0.10.353	07-14-2015	7/14/2015 9:36:31 PM	17:36:31	2.0.10.248	53	Bar50-50.bmp	49	2	?	10r_4g.bmp	0r_4g.bmp	2r_2g.bmp	0r_2g.bmp		0r_4g.bmp			TrialProc	TrialList	0	cvbn	-999999	16	211526	0	v	133	211659	180	-191	-11	-12	-22	13	10	4	6	53	-10	0	-2	0	4	4	2	2	0	4
Hungry_Donkey_bar_English_2	118	1	<?xml version="1.0"?>\n<Clock xmlns:dt="urn:schemas-microsoft-com:datatypes"><Description dt:dt="string">E-Prime Primary Realtime Clock</Description><StartTime><Timestamp dt:dt="int">0</Timestamp><DateUtc dt:dt="string">2015-07-14T21:36:31Z</DateUtc></StartTime><FrequencyChanges><FrequencyChange><Frequency dt:dt="r8">3507685</Frequency><Timestamp dt:dt="r8">2192267198897</Timestamp><Current dt:dt="r8">0</Current><DateUtc dt:dt="string">2015-07-14T21:36:31Z</DateUtc></FrequencyChange></FrequencyChanges></Clock>\n	Hungry_Donkey_bar_English_2-118-1	60.017	-62	1.0.0.18	1	1834564108	Standard	2.0.10.353	2.0.10.353	07-14-2015	7/14/2015 9:36:31 PM	17:36:31	2.0.10.248	54	Bar50-50.bmp	49	2	?	12r_4g.bmp	0r_4g.bmp	3r_2g.bmp	0r_2g.bmp		0r_4g.bmp			TrialProc	TrialList	0	cvbn	-999999	16	213692	0	v	15	213707	184	-191	-7	-12	-18	13	10	5	6	54	-12	0	-3	0	4	4	2	2	0	4
Hungry_Donkey_bar_English_2	118	1	<?xml version="1.0"?>\n<Clock xmlns:dt="urn:schemas-microsoft-com:datatypes"><Description dt:dt="string">E-Prime Primary Realtime Clock</Description><StartTime><Timestamp dt:dt="int">0</Timestamp><DateUtc dt:dt="string">2015-07-14T21:36:31Z</DateUtc></StartTime><FrequencyChanges><FrequencyChange><Frequency dt:dt="r8">3507685</Frequency><Timestamp dt:dt="r8">2192267198897</Timestamp><Current dt:dt="r8">0</Current><DateUtc dt:dt="string">2015-07-14T21:36:31Z</DateUtc></FrequencyChange></FrequencyChanges></Clock>\n	Hungry_Donkey_bar_English_2-118-1	60.017	-62	1.0.0.18	1	1834564108	Standard	2.0.10.353	2.0.10.353	07-14-2015	7/14/2015 9:36:31 PM	17:36:31	2.0.10.248	55	Bar50-50.bmp	50	2	?	0r_4g.bmp	0r_4g.bmp	0r_2g.bmp	0r_2g.bmp		0r_4g.bmp			TrialProc	TrialList	0	cvbn	-999999	16	215741	0	v	477	216218	188	-191	-3	-12	-14	13	10	10	6	55	0	0	0	0	4	4	2	2	0	4
Hungry_Donkey_bar_English_2	118	1	<?xml version="1.0"?>\n<Clock xmlns:dt="urn:schemas-microsoft-com:datatypes"><Description dt:dt="string">E-Prime Primary Realtime Clock</Description><StartTime><Timestamp dt:dt="int">0</Timestamp><DateUtc dt:dt="string">2015-07-14T21:36:31Z</DateUtc></StartTime><FrequencyChanges><FrequencyChange><Frequency dt:dt="r8">3507685</Frequency><Timestamp dt:dt="r8">2192267198897</Timestamp><Current dt:dt="r8">0</Current><DateUtc dt:dt="string">2015-07-14T21:36:31Z</DateUtc></FrequencyChange></FrequencyChanges></Clock>\n	Hungry_Donkey_bar_English_2-118-1	60.017	-62	1.0.0.18	1	1834564108	Standard	2.0.10.353	2.0.10.353	07-14-2015	7/14/2015 9:36:31 PM	17:36:31	2.0.10.248	56	Bar50-50.bmp	50	2	?	10r_4g.bmp	0r_4g.bmp	2r_2g.bmp	0r_2g.bmp		0r_4g.bmp			TrialProc	TrialList	0	cvbn	-999999	16	218257	0	v	313	218570	192	-191	1	-12	-10	13	10	3	6	56	-10	0	-2	0	4	4	2	2	0	4
Hungry_Donkey_bar_English_2	118	1	<?xml version="1.0"?>\n<Clock xmlns:dt="urn:schemas-microsoft-com:datatypes"><Description dt:dt="string">E-Prime Primary Realtime Clock</Description><StartTime><Timestamp dt:dt="int">0</Timestamp><DateUtc dt:dt="string">2015-07-14T21:36:31Z</DateUtc></StartTime><FrequencyChanges><FrequencyChange><Frequency dt:dt="r8">3507685</Frequency><Timestamp dt:dt="r8">2192267198897</Timestamp><Current dt:dt="r8">0</Current><DateUtc dt:dt="string">2015-07-14T21:36:31Z</DateUtc></FrequencyChange></FrequencyChanges></Clock>\n	Hungry_Donkey_bar_English_2-118-1	60.017	-62	1.0.0.18	1	1834564108	Standard	2.0.10.353	2.0.10.353	07-14-2015	7/14/2015 9:36:31 PM	17:36:31	2.0.10.248	57	Bar50-50.bmp	51	2	?	0r_4g.bmp	0r_4g.bmp	0r_2g.bmp	0r_2g.bmp		0r_4g.bmp			TrialProc	TrialList	0	cvbn	-999999	16	220607	0	v	267	220874	196	-191	5	-12	-6	13	10	7	6	57	0	0	0	0	4	4	2	2	0	4
Hungry_Donkey_bar_English_2	118	1	<?xml version="1.0"?>\n<Clock xmlns:dt="urn:schemas-microsoft-com:datatypes"><Description dt:dt="string">E-Prime Primary Realtime Clock</Description><StartTime><Timestamp dt:dt="int">0</Timestamp><DateUtc dt:dt="string">2015-07-14T21:36:31Z</DateUtc></StartTime><FrequencyChanges><FrequencyChange><Frequency dt:dt="r8">3507685</Frequency><Timestamp dt:dt="r8">2192267198897</Timestamp><Current dt:dt="r8">0</Current><DateUtc dt:dt="string">2015-07-14T21:36:31Z</DateUtc></FrequencyChange></FrequencyChanges></Clock>\n	Hungry_Donkey_bar_English_2-118-1	60.017	-62	1.0.0.18	1	1834564108	Standard	2.0.10.353	2.0.10.353	07-14-2015	7/14/2015 9:36:31 PM	17:36:31	2.0.10.248	58	Bar50-50.bmp	50	1	?	8r_4g.bmp	50r_4g.bmp	1r_2g.bmp	10r_2g.bmp	8r_4g.bmp				TrialProc	TrialList	0	cvbn	-999999	16	222906	0	c	304	223210	200	-199	1	-16	-6	13	10	1	6	58	-8	-50	-1	-10	4	4	2	2	-8	4
Hungry_Donkey_bar_English_2	118	1	<?xml version="1.0"?>\n<Clock xmlns:dt="urn:schemas-microsoft-com:datatypes"><Description dt:dt="string">E-Prime Primary Realtime Clock</Description><StartTime><Timestamp dt:dt="int">0</Timestamp><DateUtc dt:dt="string">2015-07-14T21:36:31Z</DateUtc></StartTime><FrequencyChanges><FrequencyChange><Frequency dt:dt="r8">3507685</Frequency><Timestamp dt:dt="r8">2192267198897</Timestamp><Current dt:dt="r8">0</Current><DateUtc dt:dt="string">2015-07-14T21:36:31Z</DateUtc></FrequencyChange></FrequencyChanges></Clock>\n	Hungry_Donkey_bar_English_2-118-1	60.017	-62	1.0.0.18	1	1834564108	Standard	2.0.10.353	2.0.10.353	07-14-2015	7/14/2015 9:36:31 PM	17:36:31	2.0.10.248	59	Bar50-50.bmp	51	2	?	0r_4g.bmp	0r_4g.bmp	0r_2g.bmp	0r_2g.bmp		0r_4g.bmp			TrialProc	TrialList	0	cvbn	-999999	16	225239	0	v	323	225562	204	-199	5	-16	-2	13	10	9	6	59	0	0	0	0	4	4	2	2	0	4
Hungry_Donkey_bar_English_2	118	1	<?xml version="1.0"?>\n<Clock xmlns:dt="urn:schemas-microsoft-com:datatypes"><Description dt:dt="string">E-Prime Primary Realtime Clock</Description><StartTime><Timestamp dt:dt="int">0</Timestamp><DateUtc dt:dt="string">2015-07-14T21:36:31Z</DateUtc></StartTime><FrequencyChanges><FrequencyChange><Frequency dt:dt="r8">3507685</Frequency><Timestamp dt:dt="r8">2192267198897</Timestamp><Current dt:dt="r8">0</Current><DateUtc dt:dt="string">2015-07-14T21:36:31Z</DateUtc></FrequencyChange></FrequencyChanges></Clock>\n	Hungry_Donkey_bar_English_2-118-1	60.017	-62	1.0.0.18	1	1834564108	Standard	2.0.10.353	2.0.10.353	07-14-2015	7/14/2015 9:36:31 PM	17:36:31	2.0.10.248	60	Bar50-50.bmp	50	1	?	10r_4g.bmp	0r_4g.bmp	2r_2g.bmp	0r_2g.bmp	10r_4g.bmp				TrialProc	TrialList	0	cvbn	-999999	16	227588	0	c	342	227930	208	-209	-1	-22	-2	13	10	2	6	60	-10	0	-2	0	4	4	2	2	-10	4
Hungry_Donkey_bar_English_2	118	1	<?xml version="1.0"?>\n<Clock xmlns:dt="urn:schemas-microsoft-com:datatypes"><Description dt:dt="string">E-Prime Primary Realtime Clock</Description><StartTime><Timestamp dt:dt="int">0</Timestamp><DateUtc dt:dt="string">2015-07-14T21:36:31Z</DateUtc></StartTime><FrequencyChanges><FrequencyChange><Frequency dt:dt="r8">3507685</Frequency><Timestamp dt:dt="r8">2192267198897</Timestamp><Current dt:dt="r8">0</Current><DateUtc dt:dt="string">2015-07-14T21:36:31Z</DateUtc></FrequencyChange></FrequencyChanges></Clock>\n	Hungry_Donkey_bar_English_2-118-1	60.017	-62	1.0.0.18	1	1834564108	Standard	2.0.10.353	2.0.10.353	07-14-2015	7/14/2015 9:36:31 PM	17:36:31	2.0.10.248	61	Bar50-50.bmp	50	1	?	0r_4g.bmp	0r_4g.bmp	0r_2g.bmp	0r_2g.bmp	0r_4g.bmp				TrialProc	TrialList	0	cvbn	-999999	16	229954	0	c	232	230186	212	-209	3	-18	-2	13	10	8	7	61	0	0	0	0	4	4	2	2	0	4
Hungry_Donkey_bar_English_2	118	1	<?xml version="1.0"?>\n<Clock xmlns:dt="urn:schemas-microsoft-com:datatypes"><Description dt:dt="string">E-Prime Primary Realtime Clock</Description><StartTime><Timestamp dt:dt="int">0</Timestamp><DateUtc dt:dt="string">2015-07-14T21:36:31Z</DateUtc></StartTime><FrequencyChanges><FrequencyChange><Frequency dt:dt="r8">3507685</Frequency><Timestamp dt:dt="r8">2192267198897</Timestamp><Current dt:dt="r8">0</Current><DateUtc dt:dt="string">2015-07-14T21:36:31Z</DateUtc></FrequencyChange></FrequencyChanges></Clock>\n	Hungry_Donkey_bar_English_2-118-1	60.017	-62	1.0.0.18	1	1834564108	Standard	2.0.10.353	2.0.10.353	07-14-2015	7/14/2015 9:36:31 PM	17:36:31	2.0.10.248	62	Bar50-50.bmp	50	1	?	10r_4g.bmp	0r_4g.bmp	2r_2g.bmp	0r_2g.bmp	10r_4g.bmp				TrialProc	TrialList	0	cvbn	-999999	16	232220	0	c	286	232506	216	-219	-3	-24	-2	13	10	4	7	62	-10	0	-2	0	4	4	2	2	-10	4
Hungry_Donkey_bar_English_2	118	1	<?xml version="1.0"?>\n<Clock xmlns:dt="urn:schemas-microsoft-com:datatypes"><Description dt:dt="string">E-Prime Primary Realtime Clock</Description><StartTime><Timestamp dt:dt="int">0</Timestamp><DateUtc dt:dt="string">2015-07-14T21:36:31Z</DateUtc></StartTime><FrequencyChanges><FrequencyChange><Frequency dt:dt="r8">3507685</Frequency><Timestamp dt:dt="r8">2192267198897</Timestamp><Current dt:dt="r8">0</Current><DateUtc dt:dt="string">2015-07-14T21:36:31Z</DateUtc></FrequencyChange></FrequencyChanges></Clock>\n	Hungry_Donkey_bar_English_2-118-1	60.017	-62	1.0.0.18	1	1834564108	Standard	2.0.10.353	2.0.10.353	07-14-2015	7/14/2015 9:36:31 PM	17:36:31	2.0.10.248	63	Bar50-50.bmp	49	1	?	10r_4g.bmp	0r_4g.bmp	2r_2g.bmp	0r_2g.bmp	10r_4g.bmp				TrialProc	TrialList	0	cvbn	-999999	16	234536	0	c	354	234890	220	-229	-9	-30	-2	13	10	2	7	63	-10	0	-2	0	4	4	2	2	-10	4
Hungry_Donkey_bar_English_2	118	1	<?xml version="1.0"?>\n<Clock xmlns:dt="urn:schemas-microsoft-com:datatypes"><Description dt:dt="string">E-Prime Primary Realtime Clock</Description><StartTime><Timestamp dt:dt="int">0</Timestamp><DateUtc dt:dt="string">2015-07-14T21:36:31Z</DateUtc></StartTime><FrequencyChanges><FrequencyChange><Frequency dt:dt="r8">3507685</Frequency><Timestamp dt:dt="r8">2192267198897</Timestamp><Current dt:dt="r8">0</Current><DateUtc dt:dt="string">2015-07-14T21:36:31Z</DateUtc></FrequencyChange></FrequencyChanges></Clock>\n	Hungry_Donkey_bar_English_2-118-1	60.017	-62	1.0.0.18	1	1834564108	Standard	2.0.10.353	2.0.10.353	07-14-2015	7/14/2015 9:36:31 PM	17:36:31	2.0.10.248	64	Bar50-50.bmp	49	2	?	12r_4g.bmp	0r_4g.bmp	3r_2g.bmp	0r_2g.bmp		0r_4g.bmp			TrialProc	TrialList	0	cvbn	-999999	16	236919	0	v	258	237177	224	-229	-5	-30	2	13	10	5	7	64	-12	0	-3	0	4	4	2	2	0	4
Hungry_Donkey_bar_English_2	118	1	<?xml version="1.0"?>\n<Clock xmlns:dt="urn:schemas-microsoft-com:datatypes"><Description dt:dt="string">E-Prime Primary Realtime Clock</Description><StartTime><Timestamp dt:dt="int">0</Timestamp><DateUtc dt:dt="string">2015-07-14T21:36:31Z</DateUtc></StartTime><FrequencyChanges><FrequencyChange><Frequency dt:dt="r8">3507685</Frequency><Timestamp dt:dt="r8">2192267198897</Timestamp><Current dt:dt="r8">0</Current><DateUtc dt:dt="string">2015-07-14T21:36:31Z</DateUtc></FrequencyChange></FrequencyChanges></Clock>\n	Hungry_Donkey_bar_English_2-118-1	60.017	-62	1.0.0.18	1	1834564108	Standard	2.0.10.353	2.0.10.353	07-14-2015	7/14/2015 9:36:31 PM	17:36:31	2.0.10.248	65	Bar50-50.bmp	50	2	?	0r_4g.bmp	0r_4g.bmp	0r_2g.bmp	0r_2g.bmp		0r_4g.bmp			TrialProc	TrialList	0	cvbn	-999999	16	239218	0	v	183	239401	228	-229	-1	-30	6	13	10	7	7	65	0	0	0	0	4	4	2	2	0	4
Hungry_Donkey_bar_English_2	118	1	<?xml version="1.0"?>\n<Clock xmlns:dt="urn:schemas-microsoft-com:datatypes"><Description dt:dt="string">E-Prime Primary Realtime Clock</Description><StartTime><Timestamp dt:dt="int">0</Timestamp><DateUtc dt:dt="string">2015-07-14T21:36:31Z</DateUtc></StartTime><FrequencyChanges><FrequencyChange><Frequency dt:dt="r8">3507685</Frequency><Timestamp dt:dt="r8">2192267198897</Timestamp><Current dt:dt="r8">0</Current><DateUtc dt:dt="string">2015-07-14T21:36:31Z</DateUtc></FrequencyChange></FrequencyChanges></Clock>\n	Hungry_Donkey_bar_English_2-118-1	60.017	-62	1.0.0.18	1	1834564108	Standard	2.0.10.353	2.0.10.353	07-14-2015	7/14/2015 9:36:31 PM	17:36:31	2.0.10.248	66	Bar50-50.bmp	50	2	?	0r_4g.bmp	0r_4g.bmp	0r_2g.bmp	0r_2g.bmp		0r_4g.bmp			TrialProc	TrialList	0	cvbn	-999999	16	241434	0	v	175	241609	232	-229	3	-30	10	13	10	9	7	66	0	0	0	0	4	4	2	2	0	4
Hungry_Donkey_bar_English_2	118	1	<?xml version="1.0"?>\n<Clock xmlns:dt="urn:schemas-microsoft-com:datatypes"><Description dt:dt="string">E-Prime Primary Realtime Clock</Description><StartTime><Timestamp dt:dt="int">0</Timestamp><DateUtc dt:dt="string">2015-07-14T21:36:31Z</DateUtc></StartTime><FrequencyChanges><FrequencyChange><Frequency dt:dt="r8">3507685</Frequency><Timestamp dt:dt="r8">2192267198897</Timestamp><Current dt:dt="r8">0</Current><DateUtc dt:dt="string">2015-07-14T21:36:31Z</DateUtc></FrequencyChange></FrequencyChanges></Clock>\n	Hungry_Donkey_bar_English_2-118-1	60.017	-62	1.0.0.18	1	1834564108	Standard	2.0.10.353	2.0.10.353	07-14-2015	7/14/2015 9:36:31 PM	17:36:31	2.0.10.248	67	Bar50-50.bmp	50	3	?	8r_4g.bmp	50r_4g.bmp	1r_2g.bmp	10r_2g.bmp			1r_2g.bmp		TrialProc	TrialList	0	cvbn	-999999	16	243650	0	b	39	243689	234	-230	4	-30	10	14	10	1	7	67	-8	-50	-1	-10	4	4	2	2	-1	2
Hungry_Donkey_bar_English_2	118	1	<?xml version="1.0"?>\n<Clock xmlns:dt="urn:schemas-microsoft-com:datatypes"><Description dt:dt="string">E-Prime Primary Realtime Clock</Description><StartTime><Timestamp dt:dt="int">0</Timestamp><DateUtc dt:dt="string">2015-07-14T21:36:31Z</DateUtc></StartTime><FrequencyChanges><FrequencyChange><Frequency dt:dt="r8">3507685</Frequency><Timestamp dt:dt="r8">2192267198897</Timestamp><Current dt:dt="r8">0</Current><DateUtc dt:dt="string">2015-07-14T21:36:31Z</DateUtc></FrequencyChange></FrequencyChanges></Clock>\n	Hungry_Donkey_bar_English_2-118-1	60.017	-62	1.0.0.18	1	1834564108	Standard	2.0.10.353	2.0.10.353	07-14-2015	7/14/2015 9:36:31 PM	17:36:31	2.0.10.248	68	Bar50-50.bmp	51	3	?	0r_4g.bmp	0r_4g.bmp	0r_2g.bmp	0r_2g.bmp			0r_2g.bmp		TrialProc	TrialList	0	cvbn	-999999	16	245716	0	b	405	246121	236	-230	6	-30	10	16	10	10	7	68	0	0	0	0	4	4	2	2	0	2
Hungry_Donkey_bar_English_2	118	1	<?xml version="1.0"?>\n<Clock xmlns:dt="urn:schemas-microsoft-com:datatypes"><Description dt:dt="string">E-Prime Primary Realtime Clock</Description><StartTime><Timestamp dt:dt="int">0</Timestamp><DateUtc dt:dt="string">2015-07-14T21:36:31Z</DateUtc></StartTime><FrequencyChanges><FrequencyChange><Frequency dt:dt="r8">3507685</Frequency><Timestamp dt:dt="r8">2192267198897</Timestamp><Current dt:dt="r8">0</Current><DateUtc dt:dt="string">2015-07-14T21:36:31Z</DateUtc></FrequencyChange></FrequencyChanges></Clock>\n	Hungry_Donkey_bar_English_2-118-1	60.017	-62	1.0.0.18	1	1834564108	Standard	2.0.10.353	2.0.10.353	07-14-2015	7/14/2015 9:36:31 PM	17:36:31	2.0.10.248	69	Bar50-50.bmp	50	1	?	10r_4g.bmp	0r_4g.bmp	2r_2g.bmp	0r_2g.bmp	10r_4g.bmp				TrialProc	TrialList	0	cvbn	-999999	16	248149	0	c	308	248457	240	-240	0	-36	10	16	10	3	7	69	-10	0	-2	0	4	4	2	2	-10	4
Hungry_Donkey_bar_English_2	118	1	<?xml version="1.0"?>\n<Clock xmlns:dt="urn:schemas-microsoft-com:datatypes"><Description dt:dt="string">E-Prime Primary Realtime Clock</Description><StartTime><Timestamp dt:dt="int">0</Timestamp><DateUtc dt:dt="string">2015-07-14T21:36:31Z</DateUtc></StartTime><FrequencyChanges><FrequencyChange><Frequency dt:dt="r8">3507685</Frequency><Timestamp dt:dt="r8">2192267198897</Timestamp><Current dt:dt="r8">0</Current><DateUtc dt:dt="string">2015-07-14T21:36:31Z</DateUtc></FrequencyChange></FrequencyChanges></Clock>\n	Hungry_Donkey_bar_English_2-118-1	60.017	-62	1.0.0.18	1	1834564108	Standard	2.0.10.353	2.0.10.353	07-14-2015	7/14/2015 9:36:31 PM	17:36:31	2.0.10.248	70	Bar50-50.bmp	50	2	?	0r_4g.bmp	0r_4g.bmp	0r_2g.bmp	0r_2g.bmp		0r_4g.bmp			TrialProc	TrialList	0	cvbn	-999999	16	250498	0	v	167	250665	244	-240	4	-36	14	16	10	6	7	70	0	0	0	0	4	4	2	2	0	4
Hungry_Donkey_bar_English_2	118	1	<?xml version="1.0"?>\n<Clock xmlns:dt="urn:schemas-microsoft-com:datatypes"><Description dt:dt="string">E-Prime Primary Realtime Clock</Description><StartTime><Timestamp dt:dt="int">0</Timestamp><DateUtc dt:dt="string">2015-07-14T21:36:31Z</DateUtc></StartTime><FrequencyChanges><FrequencyChange><Frequency dt:dt="r8">3507685</Frequency><Timestamp dt:dt="r8">2192267198897</Timestamp><Current dt:dt="r8">0</Current><DateUtc dt:dt="string">2015-07-14T21:36:31Z</DateUtc></FrequencyChange></FrequencyChanges></Clock>\n	Hungry_Donkey_bar_English_2-118-1	60.017	-62	1.0.0.18	1	1834564108	Standard	2.0.10.353	2.0.10.353	07-14-2015	7/14/2015 9:36:31 PM	17:36:31	2.0.10.248	71	Bar50-50.bmp	51	2	?	0r_4g.bmp	0r_4g.bmp	0r_2g.bmp	0r_2g.bmp		0r_4g.bmp			TrialProc	TrialList	0	cvbn	-999999	16	252697	0	v	240	252937	248	-240	8	-36	18	16	10	6	8	71	0	0	0	0	4	4	2	2	0	4
Hungry_Donkey_bar_English_2	118	1	<?xml version="1.0"?>\n<Clock xmlns:dt="urn:schemas-microsoft-com:datatypes"><Description dt:dt="string">E-Prime Primary Realtime Clock</Description><StartTime><Timestamp dt:dt="int">0</Timestamp><DateUtc dt:dt="string">2015-07-14T21:36:31Z</DateUtc></StartTime><FrequencyChanges><FrequencyChange><Frequency dt:dt="r8">3507685</Frequency><Timestamp dt:dt="r8">2192267198897</Timestamp><Current dt:dt="r8">0</Current><DateUtc dt:dt="string">2015-07-14T21:36:31Z</DateUtc></FrequencyChange></FrequencyChanges></Clock>\n	Hungry_Donkey_bar_English_2-118-1	60.017	-62	1.0.0.18	1	1834564108	Standard	2.0.10.353	2.0.10.353	07-14-2015	7/14/2015 9:36:31 PM	17:36:31	2.0.10.248	72	Bar50-50.bmp	51	4	?	0r_4g.bmp	0r_4g.bmp	0r_2g.bmp	0r_2g.bmp				0r_2g.bmp	TrialProc	TrialList	0	cvbn	-999999	16	254963	0	n	294	255257	250	-240	10	-36	18	16	12	9	8	72	0	0	0	0	4	4	2	2	0	2
Hungry_Donkey_bar_English_2	118	1	<?xml version="1.0"?>\n<Clock xmlns:dt="urn:schemas-microsoft-com:datatypes"><Description dt:dt="string">E-Prime Primary Realtime Clock</Description><StartTime><Timestamp dt:dt="int">0</Timestamp><DateUtc dt:dt="string">2015-07-14T21:36:31Z</DateUtc></StartTime><FrequencyChanges><FrequencyChange><Frequency dt:dt="r8">3507685</Frequency><Timestamp dt:dt="r8">2192267198897</Timestamp><Current dt:dt="r8">0</Current><DateUtc dt:dt="string">2015-07-14T21:36:31Z</DateUtc></FrequencyChange></FrequencyChanges></Clock>\n	Hungry_Donkey_bar_English_2-118-1	60.017	-62	1.0.0.18	1	1834564108	Standard	2.0.10.353	2.0.10.353	07-14-2015	7/14/2015 9:36:31 PM	17:36:31	2.0.10.248	73	Bar50-50.bmp	51	4	?	12r_4g.bmp	0r_4g.bmp	3r_2g.bmp	0r_2g.bmp				0r_2g.bmp	TrialProc	TrialList	0	cvbn	-999999	16	257296	0	n	280	257576	252	-240	12	-36	18	16	14	5	8	73	-12	0	-3	0	4	4	2	2	0	2
Hungry_Donkey_bar_English_2	118	1	<?xml version="1.0"?>\n<Clock xmlns:dt="urn:schemas-microsoft-com:datatypes"><Description dt:dt="string">E-Prime Primary Realtime Clock</Description><StartTime><Timestamp dt:dt="int">0</Timestamp><DateUtc dt:dt="string">2015-07-14T21:36:31Z</DateUtc></StartTime><FrequencyChanges><FrequencyChange><Frequency dt:dt="r8">3507685</Frequency><Timestamp dt:dt="r8">2192267198897</Timestamp><Current dt:dt="r8">0</Current><DateUtc dt:dt="string">2015-07-14T21:36:31Z</DateUtc></FrequencyChange></FrequencyChanges></Clock>\n	Hungry_Donkey_bar_English_2-118-1	60.017	-62	1.0.0.18	1	1834564108	Standard	2.0.10.353	2.0.10.353	07-14-2015	7/14/2015 9:36:31 PM	17:36:31	2.0.10.248	74	Bar50-50.bmp	52	2	?	10r_4g.bmp	0r_4g.bmp	2r_2g.bmp	0r_2g.bmp		0r_4g.bmp			TrialProc	TrialList	0	cvbn	-999999	16	259612	0	v	220	259832	256	-240	16	-36	22	16	14	2	8	74	-10	0	-2	0	4	4	2	2	0	4
Hungry_Donkey_bar_English_2	118	1	<?xml version="1.0"?>\n<Clock xmlns:dt="urn:schemas-microsoft-com:datatypes"><Description dt:dt="string">E-Prime Primary Realtime Clock</Description><StartTime><Timestamp dt:dt="int">0</Timestamp><DateUtc dt:dt="string">2015-07-14T21:36:31Z</DateUtc></StartTime><FrequencyChanges><FrequencyChange><Frequency dt:dt="r8">3507685</Frequency><Timestamp dt:dt="r8">2192267198897</Timestamp><Current dt:dt="r8">0</Current><DateUtc dt:dt="string">2015-07-14T21:36:31Z</DateUtc></FrequencyChange></FrequencyChanges></Clock>\n	Hungry_Donkey_bar_English_2-118-1	60.017	-62	1.0.0.18	1	1834564108	Standard	2.0.10.353	2.0.10.353	07-14-2015	7/14/2015 9:36:31 PM	17:36:31	2.0.10.248	75	Bar50-50.bmp	52	3	?	10r_4g.bmp	0r_4g.bmp	2r_2g.bmp	0r_2g.bmp			2r_2g.bmp		TrialProc	TrialList	0	cvbn	-999999	17	261862	0	b	386	262248	258	-242	16	-36	22	16	14	3	8	75	-10	0	-2	0	4	4	2	2	-2	2
Hungry_Donkey_bar_English_2	118	1	<?xml version="1.0"?>\n<Clock xmlns:dt="urn:schemas-microsoft-com:datatypes"><Description dt:dt="string">E-Prime Primary Realtime Clock</Description><StartTime><Timestamp dt:dt="int">0</Timestamp><DateUtc dt:dt="string">2015-07-14T21:36:31Z</DateUtc></StartTime><FrequencyChanges><FrequencyChange><Frequency dt:dt="r8">3507685</Frequency><Timestamp dt:dt="r8">2192267198897</Timestamp><Current dt:dt="r8">0</Current><DateUtc dt:dt="string">2015-07-14T21:36:31Z</DateUtc></FrequencyChange></FrequencyChanges></Clock>\n	Hungry_Donkey_bar_English_2-118-1	60.017	-62	1.0.0.18	1	1834564108	Standard	2.0.10.353	2.0.10.353	07-14-2015	7/14/2015 9:36:31 PM	17:36:31	2.0.10.248	76	Bar50-50.bmp	52	2	?	0r_4g.bmp	0r_4g.bmp	0r_2g.bmp	0r_2g.bmp		0r_4g.bmp			TrialProc	TrialList	0	cvbn	-999999	16	264277	0	v	243	264520	262	-242	20	-36	26	16	14	10	8	76	0	0	0	0	4	4	2	2	0	4
Hungry_Donkey_bar_English_2	118	1	<?xml version="1.0"?>\n<Clock xmlns:dt="urn:schemas-microsoft-com:datatypes"><Description dt:dt="string">E-Prime Primary Realtime Clock</Description><StartTime><Timestamp dt:dt="int">0</Timestamp><DateUtc dt:dt="string">2015-07-14T21:36:31Z</DateUtc></StartTime><FrequencyChanges><FrequencyChange><Frequency dt:dt="r8">3507685</Frequency><Timestamp dt:dt="r8">2192267198897</Timestamp><Current dt:dt="r8">0</Current><DateUtc dt:dt="string">2015-07-14T21:36:31Z</DateUtc></FrequencyChange></FrequencyChanges></Clock>\n	Hungry_Donkey_bar_English_2-118-1	60.017	-62	1.0.0.18	1	1834564108	Standard	2.0.10.353	2.0.10.353	07-14-2015	7/14/2015 9:36:31 PM	17:36:31	2.0.10.248	77	Bar50-50.bmp	48	2	?	8r_4g.bmp	50r_4g.bmp	1r_2g.bmp	10r_2g.bmp		50r_4g.bmp			TrialProc	TrialList	0	cvbn	-999999	16	266560	0	v	280	266840	266	-292	-26	-36	-20	16	14	1	8	77	-8	-50	-1	-10	4	4	2	2	-50	4
Hungry_Donkey_bar_English_2	118	1	<?xml version="1.0"?>\n<Clock xmlns:dt="urn:schemas-microsoft-com:datatypes"><Description dt:dt="string">E-Prime Primary Realtime Clock</Description><StartTime><Timestamp dt:dt="int">0</Timestamp><DateUtc dt:dt="string">2015-07-14T21:36:31Z</DateUtc></StartTime><FrequencyChanges><FrequencyChange><Frequency dt:dt="r8">3507685</Frequency><Timestamp dt:dt="r8">2192267198897</Timestamp><Current dt:dt="r8">0</Current><DateUtc dt:dt="string">2015-07-14T21:36:31Z</DateUtc></FrequencyChange></FrequencyChanges></Clock>\n	Hungry_Donkey_bar_English_2-118-1	60.017	-62	1.0.0.18	1	1834564108	Standard	2.0.10.353	2.0.10.353	07-14-2015	7/14/2015 9:36:31 PM	17:36:31	2.0.10.248	78	Bar50-50.bmp	48	2	?	0r_4g.bmp	0r_4g.bmp	0r_2g.bmp	0r_2g.bmp		0r_4g.bmp			TrialProc	TrialList	0	cvbn	-999999	16	268876	0	v	332	269208	270	-292	-22	-36	-16	16	14	8	8	78	0	0	0	0	4	4	2	2	0	4
Hungry_Donkey_bar_English_2	118	1	<?xml version="1.0"?>\n<Clock xmlns:dt="urn:schemas-microsoft-com:datatypes"><Description dt:dt="string">E-Prime Primary Realtime Clock</Description><StartTime><Timestamp dt:dt="int">0</Timestamp><DateUtc dt:dt="string">2015-07-14T21:36:31Z</DateUtc></StartTime><FrequencyChanges><FrequencyChange><Frequency dt:dt="r8">3507685</Frequency><Timestamp dt:dt="r8">2192267198897</Timestamp><Current dt:dt="r8">0</Current><DateUtc dt:dt="string">2015-07-14T21:36:31Z</DateUtc></FrequencyChange></FrequencyChanges></Clock>\n	Hungry_Donkey_bar_English_2-118-1	60.017	-62	1.0.0.18	1	1834564108	Standard	2.0.10.353	2.0.10.353	07-14-2015	7/14/2015 9:36:31 PM	17:36:31	2.0.10.248	79	Bar50-50.bmp	48	2	?	10r_4g.bmp	0r_4g.bmp	2r_2g.bmp	0r_2g.bmp		0r_4g.bmp			TrialProc	TrialList	0	cvbn	-999999	16	271242	0	v	206	271448	274	-292	-18	-36	-12	16	14	4	8	79	-10	0	-2	0	4	4	2	2	0	4
Hungry_Donkey_bar_English_2	118	1	<?xml version="1.0"?>\n<Clock xmlns:dt="urn:schemas-microsoft-com:datatypes"><Description dt:dt="string">E-Prime Primary Realtime Clock</Description><StartTime><Timestamp dt:dt="int">0</Timestamp><DateUtc dt:dt="string">2015-07-14T21:36:31Z</DateUtc></StartTime><FrequencyChanges><FrequencyChange><Frequency dt:dt="r8">3507685</Frequency><Timestamp dt:dt="r8">2192267198897</Timestamp><Current dt:dt="r8">0</Current><DateUtc dt:dt="string">2015-07-14T21:36:31Z</DateUtc></FrequencyChange></FrequencyChanges></Clock>\n	Hungry_Donkey_bar_English_2-118-1	60.017	-62	1.0.0.18	1	1834564108	Standard	2.0.10.353	2.0.10.353	07-14-2015	7/14/2015 9:36:31 PM	17:36:31	2.0.10.248	80	Bar50-50.bmp	49	4	?	0r_4g.bmp	0r_4g.bmp	0r_2g.bmp	0r_2g.bmp				0r_2g.bmp	TrialProc	TrialList	0	cvbn	-999999	16	273475	0	n	277	273752	276	-292	-16	-36	-12	16	16	7	8	80	0	0	0	0	4	4	2	2	0	2
Hungry_Donkey_bar_English_2	118	1	<?xml version="1.0"?>\n<Clock xmlns:dt="urn:schemas-microsoft-com:datatypes"><Description dt:dt="string">E-Prime Primary Realtime Clock</Description><StartTime><Timestamp dt:dt="int">0</Timestamp><DateUtc dt:dt="string">2015-07-14T21:36:31Z</DateUtc></StartTime><FrequencyChanges><FrequencyChange><Frequency dt:dt="r8">3507685</Frequency><Timestamp dt:dt="r8">2192267198897</Timestamp><Current dt:dt="r8">0</Current><DateUtc dt:dt="string">2015-07-14T21:36:31Z</DateUtc></FrequencyChange></FrequencyChanges></Clock>\n	Hungry_Donkey_bar_English_2-118-1	60.017	-62	1.0.0.18	1	1834564108	Standard	2.0.10.353	2.0.10.353	07-14-2015	7/14/2015 9:36:31 PM	17:36:31	2.0.10.248	81	Bar50-50.bmp	48	1	?	12r_4g.bmp	0r_4g.bmp	3r_2g.bmp	0r_2g.bmp	12r_4g.bmp				TrialProc	TrialList	0	cvbn	-999999	16	275791	0	c	344	276135	280	-304	-24	-44	-12	16	16	5	9	81	-12	0	-3	0	4	4	2	2	-12	4
Hungry_Donkey_bar_English_2	118	1	<?xml version="1.0"?>\n<Clock xmlns:dt="urn:schemas-microsoft-com:datatypes"><Description dt:dt="string">E-Prime Primary Realtime Clock</Description><StartTime><Timestamp dt:dt="int">0</Timestamp><DateUtc dt:dt="string">2015-07-14T21:36:31Z</DateUtc></StartTime><FrequencyChanges><FrequencyChange><Frequency dt:dt="r8">3507685</Frequency><Timestamp dt:dt="r8">2192267198897</Timestamp><Current dt:dt="r8">0</Current><DateUtc dt:dt="string">2015-07-14T21:36:31Z</DateUtc></FrequencyChange></FrequencyChanges></Clock>\n	Hungry_Donkey_bar_English_2-118-1	60.017	-62	1.0.0.18	1	1834564108	Standard	2.0.10.353	2.0.10.353	07-14-2015	7/14/2015 9:36:31 PM	17:36:31	2.0.10.248	82	Bar50-50.bmp	48	2	?	10r_4g.bmp	0r_4g.bmp	2r_2g.bmp	0r_2g.bmp		0r_4g.bmp			TrialProc	TrialList	0	cvbn	-999999	16	278173	0	v	138	278311	284	-304	-20	-44	-8	16	16	2	9	82	-10	0	-2	0	4	4	2	2	0	4
Hungry_Donkey_bar_English_2	118	1	<?xml version="1.0"?>\n<Clock xmlns:dt="urn:schemas-microsoft-com:datatypes"><Description dt:dt="string">E-Prime Primary Realtime Clock</Description><StartTime><Timestamp dt:dt="int">0</Timestamp><DateUtc dt:dt="string">2015-07-14T21:36:31Z</DateUtc></StartTime><FrequencyChanges><FrequencyChange><Frequency dt:dt="r8">3507685</Frequency><Timestamp dt:dt="r8">2192267198897</Timestamp><Current dt:dt="r8">0</Current><DateUtc dt:dt="string">2015-07-14T21:36:31Z</DateUtc></FrequencyChange></FrequencyChanges></Clock>\n	Hungry_Donkey_bar_English_2-118-1	60.017	-62	1.0.0.18	1	1834564108	Standard	2.0.10.353	2.0.10.353	07-14-2015	7/14/2015 9:36:31 PM	17:36:31	2.0.10.248	83	Bar50-50.bmp	45	2	?	8r_4g.bmp	50r_4g.bmp	1r_2g.bmp	10r_2g.bmp		50r_4g.bmp			TrialProc	TrialList	0	cvbn	-999999	16	280339	0	v	36	280375	288	-354	-66	-44	-54	16	16	1	9	83	-8	-50	-1	-10	4	4	2	2	-50	4
Hungry_Donkey_bar_English_2	118	1	<?xml version="1.0"?>\n<Clock xmlns:dt="urn:schemas-microsoft-com:datatypes"><Description dt:dt="string">E-Prime Primary Realtime Clock</Description><StartTime><Timestamp dt:dt="int">0</Timestamp><DateUtc dt:dt="string">2015-07-14T21:36:31Z</DateUtc></StartTime><FrequencyChanges><FrequencyChange><Frequency dt:dt="r8">3507685</Frequency><Timestamp dt:dt="r8">2192267198897</Timestamp><Current dt:dt="r8">0</Current><DateUtc dt:dt="string">2015-07-14T21:36:31Z</DateUtc></FrequencyChange></FrequencyChanges></Clock>\n	Hungry_Donkey_bar_English_2-118-1	60.017	-62	1.0.0.18	1	1834564108	Standard	2.0.10.353	2.0.10.353	07-14-2015	7/14/2015 9:36:31 PM	17:36:31	2.0.10.248	84	Bar50-50.bmp	45	2	?	0r_4g.bmp	0r_4g.bmp	0r_2g.bmp	0r_2g.bmp		0r_4g.bmp			TrialProc	TrialList	0	cvbn	-999999	17	282406	0	v	353	282759	292	-354	-62	-44	-50	16	16	9	9	84	0	0	0	0	4	4	2	2	0	4
Hungry_Donkey_bar_English_2	118	1	<?xml version="1.0"?>\n<Clock xmlns:dt="urn:schemas-microsoft-com:datatypes"><Description dt:dt="string">E-Prime Primary Realtime Clock</Description><StartTime><Timestamp dt:dt="int">0</Timestamp><DateUtc dt:dt="string">2015-07-14T21:36:31Z</DateUtc></StartTime><FrequencyChanges><FrequencyChange><Frequency dt:dt="r8">3507685</Frequency><Timestamp dt:dt="r8">2192267198897</Timestamp><Current dt:dt="r8">0</Current><DateUtc dt:dt="string">2015-07-14T21:36:31Z</DateUtc></FrequencyChange></FrequencyChanges></Clock>\n	Hungry_Donkey_bar_English_2-118-1	60.017	-62	1.0.0.18	1	1834564108	Standard	2.0.10.353	2.0.10.353	07-14-2015	7/14/2015 9:36:31 PM	17:36:31	2.0.10.248	85	Bar50-50.bmp	45	3	?	0r_4g.bmp	0r_4g.bmp	0r_2g.bmp	0r_2g.bmp			0r_2g.bmp		TrialProc	TrialList	0	cvbn	-999999	16	284788	0	b	451	285239	294	-354	-60	-44	-50	18	16	7	9	85	0	0	0	0	4	4	2	2	0	2
Hungry_Donkey_bar_English_2	118	1	<?xml version="1.0"?>\n<Clock xmlns:dt="urn:schemas-microsoft-com:datatypes"><Description dt:dt="string">E-Prime Primary Realtime Clock</Description><StartTime><Timestamp dt:dt="int">0</Timestamp><DateUtc dt:dt="string">2015-07-14T21:36:31Z</DateUtc></StartTime><FrequencyChanges><FrequencyChange><Frequency dt:dt="r8">3507685</Frequency><Timestamp dt:dt="r8">2192267198897</Timestamp><Current dt:dt="r8">0</Current><DateUtc dt:dt="string">2015-07-14T21:36:31Z</DateUtc></FrequencyChange></FrequencyChanges></Clock>\n	Hungry_Donkey_bar_English_2-118-1	60.017	-62	1.0.0.18	1	1834564108	Standard	2.0.10.353	2.0.10.353	07-14-2015	7/14/2015 9:36:31 PM	17:36:31	2.0.10.248	86	Bar50-50.bmp	46	2	?	10r_4g.bmp	0r_4g.bmp	2r_2g.bmp	0r_2g.bmp		0r_4g.bmp			TrialProc	TrialList	0	cvbn	-999999	16	287271	0	v	384	287655	298	-354	-56	-44	-46	18	16	3	9	86	-10	0	-2	0	4	4	2	2	0	4
Hungry_Donkey_bar_English_2	118	1	<?xml version="1.0"?>\n<Clock xmlns:dt="urn:schemas-microsoft-com:datatypes"><Description dt:dt="string">E-Prime Primary Realtime Clock</Description><StartTime><Timestamp dt:dt="int">0</Timestamp><DateUtc dt:dt="string">2015-07-14T21:36:31Z</DateUtc></StartTime><FrequencyChanges><FrequencyChange><Frequency dt:dt="r8">3507685</Frequency><Timestamp dt:dt="r8">2192267198897</Timestamp><Current dt:dt="r8">0</Current><DateUtc dt:dt="string">2015-07-14T21:36:31Z</DateUtc></FrequencyChange></FrequencyChanges></Clock>\n	Hungry_Donkey_bar_English_2-118-1	60.017	-62	1.0.0.18	1	1834564108	Standard	2.0.10.353	2.0.10.353	07-14-2015	7/14/2015 9:36:31 PM	17:36:31	2.0.10.248	87	Bar50-50.bmp	46	2	?	0r_4g.bmp	0r_4g.bmp	0r_2g.bmp	0r_2g.bmp		0r_4g.bmp			TrialProc	TrialList	0	cvbn	-999999	16	289687	0	v	320	290007	302	-354	-52	-44	-42	18	16	10	9	87	0	0	0	0	4	4	2	2	0	4
Hungry_Donkey_bar_English_2	118	1	<?xml version="1.0"?>\n<Clock xmlns:dt="urn:schemas-microsoft-com:datatypes"><Description dt:dt="string">E-Prime Primary Realtime Clock</Description><StartTime><Timestamp dt:dt="int">0</Timestamp><DateUtc dt:dt="string">2015-07-14T21:36:31Z</DateUtc></StartTime><FrequencyChanges><FrequencyChange><Frequency dt:dt="r8">3507685</Frequency><Timestamp dt:dt="r8">2192267198897</Timestamp><Current dt:dt="r8">0</Current><DateUtc dt:dt="string">2015-07-14T21:36:31Z</DateUtc></FrequencyChange></FrequencyChanges></Clock>\n	Hungry_Donkey_bar_English_2-118-1	60.017	-62	1.0.0.18	1	1834564108	Standard	2.0.10.353	2.0.10.353	07-14-2015	7/14/2015 9:36:31 PM	17:36:31	2.0.10.248	88	Bar50-50.bmp	46	2	?	0r_4g.bmp	0r_4g.bmp	0r_2g.bmp	0r_2g.bmp		0r_4g.bmp			TrialProc	TrialList	0	cvbn	-999999	16	292036	0	v	371	292407	306	-354	-48	-44	-38	18	16	8	9	88	0	0	0	0	4	4	2	2	0	4
Hungry_Donkey_bar_English_2	118	1	<?xml version="1.0"?>\n<Clock xmlns:dt="urn:schemas-microsoft-com:datatypes"><Description dt:dt="string">E-Prime Primary Realtime Clock</Description><StartTime><Timestamp dt:dt="int">0</Timestamp><DateUtc dt:dt="string">2015-07-14T21:36:31Z</DateUtc></StartTime><FrequencyChanges><FrequencyChange><Frequency dt:dt="r8">3507685</Frequency><Timestamp dt:dt="r8">2192267198897</Timestamp><Current dt:dt="r8">0</Current><DateUtc dt:dt="string">2015-07-14T21:36:31Z</DateUtc></FrequencyChange></FrequencyChanges></Clock>\n	Hungry_Donkey_bar_English_2-118-1	60.017	-62	1.0.0.18	1	1834564108	Standard	2.0.10.353	2.0.10.353	07-14-2015	7/14/2015 9:36:31 PM	17:36:31	2.0.10.248	89	Bar50-50.bmp	47	2	?	10r_4g.bmp	0r_4g.bmp	2r_2g.bmp	0r_2g.bmp		0r_4g.bmp			TrialProc	TrialList	0	cvbn	-999999	16	294435	0	v	291	294726	310	-354	-44	-44	-34	18	16	4	9	89	-10	0	-2	0	4	4	2	2	0	4
Hungry_Donkey_bar_English_2	118	1	<?xml version="1.0"?>\n<Clock xmlns:dt="urn:schemas-microsoft-com:datatypes"><Description dt:dt="string">E-Prime Primary Realtime Clock</Description><StartTime><Timestamp dt:dt="int">0</Timestamp><DateUtc dt:dt="string">2015-07-14T21:36:31Z</DateUtc></StartTime><FrequencyChanges><FrequencyChange><Frequency dt:dt="r8">3507685</Frequency><Timestamp dt:dt="r8">2192267198897</Timestamp><Current dt:dt="r8">0</Current><DateUtc dt:dt="string">2015-07-14T21:36:31Z</DateUtc></FrequencyChange></FrequencyChanges></Clock>\n	Hungry_Donkey_bar_English_2-118-1	60.017	-62	1.0.0.18	1	1834564108	Standard	2.0.10.353	2.0.10.353	07-14-2015	7/14/2015 9:36:31 PM	17:36:31	2.0.10.248	90	Bar50-50.bmp	47	2	?	0r_4g.bmp	0r_4g.bmp	0r_2g.bmp	0r_2g.bmp		0r_4g.bmp			TrialProc	TrialList	0	cvbn	-999999	15	296751	0	v	311	297062	314	-354	-40	-44	-30	18	16	6	9	90	0	0	0	0	4	4	2	2	0	4
Hungry_Donkey_bar_English_2	118	1	<?xml version="1.0"?>\n<Clock xmlns:dt="urn:schemas-microsoft-com:datatypes"><Description dt:dt="string">E-Prime Primary Realtime Clock</Description><StartTime><Timestamp dt:dt="int">0</Timestamp><DateUtc dt:dt="string">2015-07-14T21:36:31Z</DateUtc></StartTime><FrequencyChanges><FrequencyChange><Frequency dt:dt="r8">3507685</Frequency><Timestamp dt:dt="r8">2192267198897</Timestamp><Current dt:dt="r8">0</Current><DateUtc dt:dt="string">2015-07-14T21:36:31Z</DateUtc></FrequencyChange></FrequencyChanges></Clock>\n	Hungry_Donkey_bar_English_2-118-1	60.017	-62	1.0.0.18	1	1834564108	Standard	2.0.10.353	2.0.10.353	07-14-2015	7/14/2015 9:36:31 PM	17:36:31	2.0.10.248	91	Bar50-50.bmp	44	2	?	8r_4g.bmp	50r_4g.bmp	1r_2g.bmp	10r_2g.bmp		50r_4g.bmp			TrialProc	TrialList	0	cvbn	-999999	16	299101	0	v	377	299478	318	-404	-86	-44	-76	18	16	1	10	91	-8	-50	-1	-10	4	4	2	2	-50	4
Hungry_Donkey_bar_English_2	118	1	<?xml version="1.0"?>\n<Clock xmlns:dt="urn:schemas-microsoft-com:datatypes"><Description dt:dt="string">E-Prime Primary Realtime Clock</Description><StartTime><Timestamp dt:dt="int">0</Timestamp><DateUtc dt:dt="string">2015-07-14T21:36:31Z</DateUtc></StartTime><FrequencyChanges><FrequencyChange><Frequency dt:dt="r8">3507685</Frequency><Timestamp dt:dt="r8">2192267198897</Timestamp><Current dt:dt="r8">0</Current><DateUtc dt:dt="string">2015-07-14T21:36:31Z</DateUtc></FrequencyChange></FrequencyChanges></Clock>\n	Hungry_Donkey_bar_English_2-118-1	60.017	-62	1.0.0.18	1	1834564108	Standard	2.0.10.353	2.0.10.353	07-14-2015	7/14/2015 9:36:31 PM	17:36:31	2.0.10.248	92	Bar50-50.bmp	44	4	?	0r_4g.bmp	0r_4g.bmp	0r_2g.bmp	0r_2g.bmp				0r_2g.bmp	TrialProc	TrialList	0	cvbn	-999999	16	301517	0	n	1257	302774	320	-404	-84	-44	-76	18	18	8	10	92	0	0	0	0	4	4	2	2	0	2
Hungry_Donkey_bar_English_2	118	1	<?xml version="1.0"?>\n<Clock xmlns:dt="urn:schemas-microsoft-com:datatypes"><Description dt:dt="string">E-Prime Primary Realtime Clock</Description><StartTime><Timestamp dt:dt="int">0</Timestamp><DateUtc dt:dt="string">2015-07-14T21:36:31Z</DateUtc></StartTime><FrequencyChanges><FrequencyChange><Frequency dt:dt="r8">3507685</Frequency><Timestamp dt:dt="r8">2192267198897</Timestamp><Current dt:dt="r8">0</Current><DateUtc dt:dt="string">2015-07-14T21:36:31Z</DateUtc></FrequencyChange></FrequencyChanges></Clock>\n	Hungry_Donkey_bar_English_2-118-1	60.017	-62	1.0.0.18	1	1834564108	Standard	2.0.10.353	2.0.10.353	07-14-2015	7/14/2015 9:36:31 PM	17:36:31	2.0.10.248	93	Bar50-50.bmp	44	3	?	10r_4g.bmp	0r_4g.bmp	2r_2g.bmp	0r_2g.bmp			2r_2g.bmp		TrialProc	TrialList	0	cvbn	-999999	16	304799	0	b	487	305286	322	-406	-84	-44	-76	18	18	4	10	93	-10	0	-2	0	4	4	2	2	-2	2
Hungry_Donkey_bar_English_2	118	1	<?xml version="1.0"?>\n<Clock xmlns:dt="urn:schemas-microsoft-com:datatypes"><Description dt:dt="string">E-Prime Primary Realtime Clock</Description><StartTime><Timestamp dt:dt="int">0</Timestamp><DateUtc dt:dt="string">2015-07-14T21:36:31Z</DateUtc></StartTime><FrequencyChanges><FrequencyChange><Frequency dt:dt="r8">3507685</Frequency><Timestamp dt:dt="r8">2192267198897</Timestamp><Current dt:dt="r8">0</Current><DateUtc dt:dt="string">2015-07-14T21:36:31Z</DateUtc></FrequencyChange></FrequencyChanges></Clock>\n	Hungry_Donkey_bar_English_2-118-1	60.017	-62	1.0.0.18	1	1834564108	Standard	2.0.10.353	2.0.10.353	07-14-2015	7/14/2015 9:36:31 PM	17:36:31	2.0.10.248	94	Bar50-50.bmp	45	1	?	0r_4g.bmp	0r_4g.bmp	0r_2g.bmp	0r_2g.bmp	0r_4g.bmp				TrialProc	TrialList	0	cvbn	-999999	16	307315	0	c	163	307478	326	-406	-80	-40	-76	18	18	9	10	94	0	0	0	0	4	4	2	2	0	4
Hungry_Donkey_bar_English_2	118	1	<?xml version="1.0"?>\n<Clock xmlns:dt="urn:schemas-microsoft-com:datatypes"><Description dt:dt="string">E-Prime Primary Realtime Clock</Description><StartTime><Timestamp dt:dt="int">0</Timestamp><DateUtc dt:dt="string">2015-07-14T21:36:31Z</DateUtc></StartTime><FrequencyChanges><FrequencyChange><Frequency dt:dt="r8">3507685</Frequency><Timestamp dt:dt="r8">2192267198897</Timestamp><Current dt:dt="r8">0</Current><DateUtc dt:dt="string">2015-07-14T21:36:31Z</DateUtc></FrequencyChange></FrequencyChanges></Clock>\n	Hungry_Donkey_bar_English_2-118-1	60.017	-62	1.0.0.18	1	1834564108	Standard	2.0.10.353	2.0.10.353	07-14-2015	7/14/2015 9:36:31 PM	17:36:31	2.0.10.248	95	Bar50-50.bmp	45	1	?	0r_4g.bmp	0r_4g.bmp	0r_2g.bmp	0r_2g.bmp	0r_4g.bmp				TrialProc	TrialList	0	cvbn	-999999	16	309514	0	c	204	309718	330	-406	-76	-36	-76	18	18	6	10	95	0	0	0	0	4	4	2	2	0	4
Hungry_Donkey_bar_English_2	118	1	<?xml version="1.0"?>\n<Clock xmlns:dt="urn:schemas-microsoft-com:datatypes"><Description dt:dt="string">E-Prime Primary Realtime Clock</Description><StartTime><Timestamp dt:dt="int">0</Timestamp><DateUtc dt:dt="string">2015-07-14T21:36:31Z</DateUtc></StartTime><FrequencyChanges><FrequencyChange><Frequency dt:dt="r8">3507685</Frequency><Timestamp dt:dt="r8">2192267198897</Timestamp><Current dt:dt="r8">0</Current><DateUtc dt:dt="string">2015-07-14T21:36:31Z</DateUtc></FrequencyChange></FrequencyChanges></Clock>\n	Hungry_Donkey_bar_English_2-118-1	60.017	-62	1.0.0.18	1	1834564108	Standard	2.0.10.353	2.0.10.353	07-14-2015	7/14/2015 9:36:31 PM	17:36:31	2.0.10.248	96	Bar50-50.bmp	45	1	?	10r_4g.bmp	0r_4g.bmp	2r_2g.bmp	0r_2g.bmp	10r_4g.bmp				TrialProc	TrialList	0	cvbn	-999999	16	311747	0	c	547	312294	334	-416	-82	-42	-76	18	18	3	10	96	-10	0	-2	0	4	4	2	2	-10	4
Hungry_Donkey_bar_English_2	118	1	<?xml version="1.0"?>\n<Clock xmlns:dt="urn:schemas-microsoft-com:datatypes"><Description dt:dt="string">E-Prime Primary Realtime Clock</Description><StartTime><Timestamp dt:dt="int">0</Timestamp><DateUtc dt:dt="string">2015-07-14T21:36:31Z</DateUtc></StartTime><FrequencyChanges><FrequencyChange><Frequency dt:dt="r8">3507685</Frequency><Timestamp dt:dt="r8">2192267198897</Timestamp><Current dt:dt="r8">0</Current><DateUtc dt:dt="string">2015-07-14T21:36:31Z</DateUtc></FrequencyChange></FrequencyChanges></Clock>\n	Hungry_Donkey_bar_English_2-118-1	60.017	-62	1.0.0.18	1	1834564108	Standard	2.0.10.353	2.0.10.353	07-14-2015	7/14/2015 9:36:31 PM	17:36:31	2.0.10.248	97	Bar50-50.bmp	44	1	?	12r_4g.bmp	0r_4g.bmp	3r_2g.bmp	0r_2g.bmp	12r_4g.bmp				TrialProc	TrialList	0	cvbn	-999999	16	314330	0	c	331	314661	338	-428	-90	-50	-76	18	18	5	10	97	-12	0	-3	0	4	4	2	2	-12	4
Hungry_Donkey_bar_English_2	118	1	<?xml version="1.0"?>\n<Clock xmlns:dt="urn:schemas-microsoft-com:datatypes"><Description dt:dt="string">E-Prime Primary Realtime Clock</Description><StartTime><Timestamp dt:dt="int">0</Timestamp><DateUtc dt:dt="string">2015-07-14T21:36:31Z</DateUtc></StartTime><FrequencyChanges><FrequencyChange><Frequency dt:dt="r8">3507685</Frequency><Timestamp dt:dt="r8">2192267198897</Timestamp><Current dt:dt="r8">0</Current><DateUtc dt:dt="string">2015-07-14T21:36:31Z</DateUtc></FrequencyChange></FrequencyChanges></Clock>\n	Hungry_Donkey_bar_English_2-118-1	60.017	-62	1.0.0.18	1	1834564108	Standard	2.0.10.353	2.0.10.353	07-14-2015	7/14/2015 9:36:31 PM	17:36:31	2.0.10.248	98	Bar50-50.bmp	44	2	?	0r_4g.bmp	0r_4g.bmp	0r_2g.bmp	0r_2g.bmp		0r_4g.bmp			TrialProc	TrialList	0	cvbn	-999999	16	316696	0	v	749	317445	342	-428	-86	-50	-72	18	18	10	10	98	0	0	0	0	4	4	2	2	0	4
Hungry_Donkey_bar_English_2	118	1	<?xml version="1.0"?>\n<Clock xmlns:dt="urn:schemas-microsoft-com:datatypes"><Description dt:dt="string">E-Prime Primary Realtime Clock</Description><StartTime><Timestamp dt:dt="int">0</Timestamp><DateUtc dt:dt="string">2015-07-14T21:36:31Z</DateUtc></StartTime><FrequencyChanges><FrequencyChange><Frequency dt:dt="r8">3507685</Frequency><Timestamp dt:dt="r8">2192267198897</Timestamp><Current dt:dt="r8">0</Current><DateUtc dt:dt="string">2015-07-14T21:36:31Z</DateUtc></FrequencyChange></FrequencyChanges></Clock>\n	Hungry_Donkey_bar_English_2-118-1	60.017	-62	1.0.0.18	1	1834564108	Standard	2.0.10.353	2.0.10.353	07-14-2015	7/14/2015 9:36:31 PM	17:36:31	2.0.10.248	99	Bar50-50.bmp	45	2	?	0r_4g.bmp	0r_4g.bmp	0r_2g.bmp	0r_2g.bmp		0r_4g.bmp			TrialProc	TrialList	0	cvbn	-999999	16	319478	0	v	1263	320741	346	-428	-82	-50	-68	18	18	7	10	99	0	0	0	0	4	4	2	2	0	4
Hungry_Donkey_bar_English_2	118	1	<?xml version="1.0"?>\n<Clock xmlns:dt="urn:schemas-microsoft-com:datatypes"><Description dt:dt="string">E-Prime Primary Realtime Clock</Description><StartTime><Timestamp dt:dt="int">0</Timestamp><DateUtc dt:dt="string">2015-07-14T21:36:31Z</DateUtc></StartTime><FrequencyChanges><FrequencyChange><Frequency dt:dt="r8">3507685</Frequency><Timestamp dt:dt="r8">2192267198897</Timestamp><Current dt:dt="r8">0</Current><DateUtc dt:dt="string">2015-07-14T21:36:31Z</DateUtc></FrequencyChange></FrequencyChanges></Clock>\n	Hungry_Donkey_bar_English_2-118-1	60.017	-62	1.0.0.18	1	1834564108	Standard	2.0.10.353	2.0.10.353	07-14-2015	7/14/2015 9:36:31 PM	17:36:31	2.0.10.248	100	Bar50-50.bmp	45	2	?	10r_4g.bmp	0r_4g.bmp	2r_2g.bmp	0r_2g.bmp		0r_4g.bmp			TrialProc	TrialList	0	cvbn	-999999	16	322777	0	v	348	323125	350	-428	-78	-50	-64	18	18	2	10	100	-10	0	-2	0	4	4	2	2	0	4
Hungry_Donkey_bar_English_2	118	1	<?xml version="1.0"?>\n<Clock xmlns:dt="urn:schemas-microsoft-com:datatypes"><Description dt:dt="string">E-Prime Primary Realtime Clock</Description><StartTime><Timestamp dt:dt="int">0</Timestamp><DateUtc dt:dt="string">2015-07-14T21:36:31Z</DateUtc></StartTime><FrequencyChanges><FrequencyChange><Frequency dt:dt="r8">3507685</Frequency><Timestamp dt:dt="r8">2192267198897</Timestamp><Current dt:dt="r8">0</Current><DateUtc dt:dt="string">2015-07-14T21:36:31Z</DateUtc></FrequencyChange></FrequencyChanges></Clock>\n	Hungry_Donkey_bar_English_2-118-1	60.017	-62	1.0.0.18	1	1834564108	Standard	2.0.10.353	2.0.10.353	07-14-2015	7/14/2015 9:36:31 PM	17:36:31	2.0.10.248	101	Bar50-50.bmp	45	2	?	0r_4g.bmp	0r_4g.bmp	0r_2g.bmp	0r_2g.bmp		0r_4g.bmp			TrialProc	TrialList	0	cvbn	-999999	16	325160	0	v	365	325525	354	-428	-74	-50	-60	18	18	8	11	101	0	0	0	0	4	4	2	2	0	4
Hungry_Donkey_bar_English_2	118	1	<?xml version="1.0"?>\n<Clock xmlns:dt="urn:schemas-microsoft-com:datatypes"><Description dt:dt="string">E-Prime Primary Realtime Clock</Description><StartTime><Timestamp dt:dt="int">0</Timestamp><DateUtc dt:dt="string">2015-07-14T21:36:31Z</DateUtc></StartTime><FrequencyChanges><FrequencyChange><Frequency dt:dt="r8">3507685</Frequency><Timestamp dt:dt="r8">2192267198897</Timestamp><Current dt:dt="r8">0</Current><DateUtc dt:dt="string">2015-07-14T21:36:31Z</DateUtc></FrequencyChange></FrequencyChanges></Clock>\n	Hungry_Donkey_bar_English_2-118-1	60.017	-62	1.0.0.18	1	1834564108	Standard	2.0.10.353	2.0.10.353	07-14-2015	7/14/2015 9:36:31 PM	17:36:31	2.0.10.248	102	Bar50-50.bmp	46	2	?	0r_4g.bmp	0r_4g.bmp	0r_2g.bmp	0r_2g.bmp		0r_4g.bmp			TrialProc	TrialList	0	cvbn	-999999	16	327559	0	v	382	327941	358	-428	-70	-50	-56	18	18	10	11	102	0	0	0	0	4	4	2	2	0	4
Hungry_Donkey_bar_English_2	118	1	<?xml version="1.0"?>\n<Clock xmlns:dt="urn:schemas-microsoft-com:datatypes"><Description dt:dt="string">E-Prime Primary Realtime Clock</Description><StartTime><Timestamp dt:dt="int">0</Timestamp><DateUtc dt:dt="string">2015-07-14T21:36:31Z</DateUtc></StartTime><FrequencyChanges><FrequencyChange><Frequency dt:dt="r8">3507685</Frequency><Timestamp dt:dt="r8">2192267198897</Timestamp><Current dt:dt="r8">0</Current><DateUtc dt:dt="string">2015-07-14T21:36:31Z</DateUtc></FrequencyChange></FrequencyChanges></Clock>\n	Hungry_Donkey_bar_English_2-118-1	60.017	-62	1.0.0.18	1	1834564108	Standard	2.0.10.353	2.0.10.353	07-14-2015	7/14/2015 9:36:31 PM	17:36:31	2.0.10.248	103	Bar37-63.bmp	43	2	?	8r_4g.bmp	50r_4g.bmp	1r_2g.bmp	10r_2g.bmp		50r_4g.bmp			TrialProc	TrialList	0	cvbn	-999999	16	329975	0	v	462	330437	362	-478	-116	-50	-102	18	18	1	11	103	-8	-50	-1	-10	4	4	2	2	-50	4
Hungry_Donkey_bar_English_2	118	1	<?xml version="1.0"?>\n<Clock xmlns:dt="urn:schemas-microsoft-com:datatypes"><Description dt:dt="string">E-Prime Primary Realtime Clock</Description><StartTime><Timestamp dt:dt="int">0</Timestamp><DateUtc dt:dt="string">2015-07-14T21:36:31Z</DateUtc></StartTime><FrequencyChanges><FrequencyChange><Frequency dt:dt="r8">3507685</Frequency><Timestamp dt:dt="r8">2192267198897</Timestamp><Current dt:dt="r8">0</Current><DateUtc dt:dt="string">2015-07-14T21:36:31Z</DateUtc></FrequencyChange></FrequencyChanges></Clock>\n	Hungry_Donkey_bar_English_2-118-1	60.017	-62	1.0.0.18	1	1834564108	Standard	2.0.10.353	2.0.10.353	07-14-2015	7/14/2015 9:36:31 PM	17:36:31	2.0.10.248	104	Bar37-63.bmp	43	2	?	10r_4g.bmp	0r_4g.bmp	2r_2g.bmp	0r_2g.bmp		0r_4g.bmp			TrialProc	TrialList	0	cvbn	-999999	16	332474	0	v	1019	333493	366	-478	-112	-50	-98	18	18	3	11	104	-10	0	-2	0	4	4	2	2	0	4
Hungry_Donkey_bar_English_2	118	1	<?xml version="1.0"?>\n<Clock xmlns:dt="urn:schemas-microsoft-com:datatypes"><Description dt:dt="string">E-Prime Primary Realtime Clock</Description><StartTime><Timestamp dt:dt="int">0</Timestamp><DateUtc dt:dt="string">2015-07-14T21:36:31Z</DateUtc></StartTime><FrequencyChanges><FrequencyChange><Frequency dt:dt="r8">3507685</Frequency><Timestamp dt:dt="r8">2192267198897</Timestamp><Current dt:dt="r8">0</Current><DateUtc dt:dt="string">2015-07-14T21:36:31Z</DateUtc></FrequencyChange></FrequencyChanges></Clock>\n	Hungry_Donkey_bar_English_2-118-1	60.017	-62	1.0.0.18	1	1834564108	Standard	2.0.10.353	2.0.10.353	07-14-2015	7/14/2015 9:36:31 PM	17:36:31	2.0.10.248	105	Bar37-63.bmp	43	3	?	10r_4g.bmp	0r_4g.bmp	2r_2g.bmp	0r_2g.bmp			2r_2g.bmp		TrialProc	TrialList	0	cvbn	-999999	17	335524	0	b	160	335684	368	-480	-112	-50	-98	18	18	4	11	105	-10	0	-2	0	4	4	2	2	-2	2
Hungry_Donkey_bar_English_2	118	1	<?xml version="1.0"?>\n<Clock xmlns:dt="urn:schemas-microsoft-com:datatypes"><Description dt:dt="string">E-Prime Primary Realtime Clock</Description><StartTime><Timestamp dt:dt="int">0</Timestamp><DateUtc dt:dt="string">2015-07-14T21:36:31Z</DateUtc></StartTime><FrequencyChanges><FrequencyChange><Frequency dt:dt="r8">3507685</Frequency><Timestamp dt:dt="r8">2192267198897</Timestamp><Current dt:dt="r8">0</Current><DateUtc dt:dt="string">2015-07-14T21:36:31Z</DateUtc></FrequencyChange></FrequencyChanges></Clock>\n	Hungry_Donkey_bar_English_2-118-1	60.017	-62	1.0.0.18	1	1834564108	Standard	2.0.10.353	2.0.10.353	07-14-2015	7/14/2015 9:36:31 PM	17:36:31	2.0.10.248	106	Bar50-50.bmp	44	3	?	0r_4g.bmp	0r_4g.bmp	0r_2g.bmp	0r_2g.bmp			0r_2g.bmp		TrialProc	TrialList	0	cvbn	-999999	16	337723	0	b	329	338052	370	-480	-110	-50	-98	20	18	6	11	106	0	0	0	0	4	4	2	2	0	2
Hungry_Donkey_bar_English_2	118	1	<?xml version="1.0"?>\n<Clock xmlns:dt="urn:schemas-microsoft-com:datatypes"><Description dt:dt="string">E-Prime Primary Realtime Clock</Description><StartTime><Timestamp dt:dt="int">0</Timestamp><DateUtc dt:dt="string">2015-07-14T21:36:31Z</DateUtc></StartTime><FrequencyChanges><FrequencyChange><Frequency dt:dt="r8">3507685</Frequency><Timestamp dt:dt="r8">2192267198897</Timestamp><Current dt:dt="r8">0</Current><DateUtc dt:dt="string">2015-07-14T21:36:31Z</DateUtc></FrequencyChange></FrequencyChanges></Clock>\n	Hungry_Donkey_bar_English_2-118-1	60.017	-62	1.0.0.18	1	1834564108	Standard	2.0.10.353	2.0.10.353	07-14-2015	7/14/2015 9:36:31 PM	17:36:31	2.0.10.248	107	Bar50-50.bmp	44	3	?	10r_4g.bmp	0r_4g.bmp	2r_2g.bmp	0r_2g.bmp			2r_2g.bmp		TrialProc	TrialList	0	cvbn	-999999	16	340089	0	b	651	340740	372	-482	-110	-50	-98	20	18	2	11	107	-10	0	-2	0	4	4	2	2	-2	2
Hungry_Donkey_bar_English_2	118	1	<?xml version="1.0"?>\n<Clock xmlns:dt="urn:schemas-microsoft-com:datatypes"><Description dt:dt="string">E-Prime Primary Realtime Clock</Description><StartTime><Timestamp dt:dt="int">0</Timestamp><DateUtc dt:dt="string">2015-07-14T21:36:31Z</DateUtc></StartTime><FrequencyChanges><FrequencyChange><Frequency dt:dt="r8">3507685</Frequency><Timestamp dt:dt="r8">2192267198897</Timestamp><Current dt:dt="r8">0</Current><DateUtc dt:dt="string">2015-07-14T21:36:31Z</DateUtc></FrequencyChange></FrequencyChanges></Clock>\n	Hungry_Donkey_bar_English_2-118-1	60.017	-62	1.0.0.18	1	1834564108	Standard	2.0.10.353	2.0.10.353	07-14-2015	7/14/2015 9:36:31 PM	17:36:31	2.0.10.248	108	Bar50-50.bmp	44	4	?	12r_4g.bmp	0r_4g.bmp	3r_2g.bmp	0r_2g.bmp				0r_2g.bmp	TrialProc	TrialList	0	cvbn	-999999	16	342771	0	n	1073	343844	374	-482	-108	-50	-98	20	20	5	11	108	-12	0	-3	0	4	4	2	2	0	2
Hungry_Donkey_bar_English_2	118	1	<?xml version="1.0"?>\n<Clock xmlns:dt="urn:schemas-microsoft-com:datatypes"><Description dt:dt="string">E-Prime Primary Realtime Clock</Description><StartTime><Timestamp dt:dt="int">0</Timestamp><DateUtc dt:dt="string">2015-07-14T21:36:31Z</DateUtc></StartTime><FrequencyChanges><FrequencyChange><Frequency dt:dt="r8">3507685</Frequency><Timestamp dt:dt="r8">2192267198897</Timestamp><Current dt:dt="r8">0</Current><DateUtc dt:dt="string">2015-07-14T21:36:31Z</DateUtc></FrequencyChange></FrequencyChanges></Clock>\n	Hungry_Donkey_bar_English_2-118-1	60.017	-62	1.0.0.18	1	1834564108	Standard	2.0.10.353	2.0.10.353	07-14-2015	7/14/2015 9:36:31 PM	17:36:31	2.0.10.248	109	Bar50-50.bmp	44	4	?	0r_4g.bmp	0r_4g.bmp	0r_2g.bmp	0r_2g.bmp				0r_2g.bmp	TrialProc	TrialList	0	cvbn	-999999	17	345871	0	n	517	346388	376	-482	-106	-50	-98	20	22	7	11	109	0	0	0	0	4	4	2	2	0	2
Hungry_Donkey_bar_English_2	118	1	<?xml version="1.0"?>\n<Clock xmlns:dt="urn:schemas-microsoft-com:datatypes"><Description dt:dt="string">E-Prime Primary Realtime Clock</Description><StartTime><Timestamp dt:dt="int">0</Timestamp><DateUtc dt:dt="string">2015-07-14T21:36:31Z</DateUtc></StartTime><FrequencyChanges><FrequencyChange><Frequency dt:dt="r8">3507685</Frequency><Timestamp dt:dt="r8">2192267198897</Timestamp><Current dt:dt="r8">0</Current><DateUtc dt:dt="string">2015-07-14T21:36:31Z</DateUtc></FrequencyChange></FrequencyChanges></Clock>\n	Hungry_Donkey_bar_English_2-118-1	60.017	-62	1.0.0.18	1	1834564108	Standard	2.0.10.353	2.0.10.353	07-14-2015	7/14/2015 9:36:31 PM	17:36:31	2.0.10.248	110	Bar50-50.bmp	44	2	?	0r_4g.bmp	0r_4g.bmp	0r_2g.bmp	0r_2g.bmp		0r_4g.bmp			TrialProc	TrialList	0	cvbn	-999999	16	348420	0	v	336	348756	380	-482	-102	-50	-94	20	22	9	11	110	0	0	0	0	4	4	2	2	0	4
Hungry_Donkey_bar_English_2	118	1	<?xml version="1.0"?>\n<Clock xmlns:dt="urn:schemas-microsoft-com:datatypes"><Description dt:dt="string">E-Prime Primary Realtime Clock</Description><StartTime><Timestamp dt:dt="int">0</Timestamp><DateUtc dt:dt="string">2015-07-14T21:36:31Z</DateUtc></StartTime><FrequencyChanges><FrequencyChange><Frequency dt:dt="r8">3507685</Frequency><Timestamp dt:dt="r8">2192267198897</Timestamp><Current dt:dt="r8">0</Current><DateUtc dt:dt="string">2015-07-14T21:36:31Z</DateUtc></FrequencyChange></FrequencyChanges></Clock>\n	Hungry_Donkey_bar_English_2-118-1	60.017	-62	1.0.0.18	1	1834564108	Standard	2.0.10.353	2.0.10.353	07-14-2015	7/14/2015 9:36:31 PM	17:36:31	2.0.10.248	111	Bar50-50.bmp	44	2	?	0r_4g.bmp	0r_4g.bmp	0r_2g.bmp	0r_2g.bmp		0r_4g.bmp			TrialProc	TrialList	0	cvbn	-999999	16	350786	0	v	578	351364	384	-482	-98	-50	-90	20	22	6	12	111	0	0	0	0	4	4	2	2	0	4
