ExperimentName	Subject	Session	Clock.Information	DataFile.Basename	Display.RefreshRate	Eindtotaal[Session]	ExperimentVersion	Group	RandomSeed	RuntimeCapabilities	RuntimeVersion	RuntimeVersionExpected	SessionDate	SessionStartDateTimeUtc	SessionTime	StudioVersion	Block	BarImage	BarTotalWinst	DoorChoice	Eindtotaal[Block]	FBDoor1	FBDoor2	FBDoor3	FBDoor4	Image1	Image2	Image3	Image4	Procedure	Running	spel.ACC	spel.CRESP	spel.DurationError	spel.OnsetDelay	spel.OnsetTime	spel.OnsetToOnsetTime	spel.RESP	spel.RT	spel.RTTime	TotalGain	TotalLose	Totalsum	TotalsumD1	TotalsumD2	TotalsumD3	TotalsumD4	TrialList	TrialList.Cycle	TrialList.Sample	varV1	varV2	varV3	varV4	varW1	varW2	varW3	varW4	Verliesbedrag	Winstbedrag
Hungry_Donkey_bar_English_2	149	1	<?xml version="1.0"?>\n<Clock xmlns:dt="urn:schemas-microsoft-com:datatypes"><Description dt:dt="string">E-Prime Primary Realtime Clock</Description><StartTime><Timestamp dt:dt="int">0</Timestamp><DateUtc dt:dt="string">2016-06-15T16:35:00Z</DateUtc></StartTime><FrequencyChanges><FrequencyChange><Frequency dt:dt="r8">3507675</Frequency><Timestamp dt:dt="r8">1731477551638</Timestamp><Current dt:dt="r8">0</Current><DateUtc dt:dt="string">2016-06-15T16:35:00Z</DateUtc></FrequencyChange></FrequencyChanges></Clock>\n	Hungry_Donkey_bar_English_2-149-1	60.017	30	1.0.0.18	1	606435794	Standard	2.0.10.353	2.0.10.353	06-15-2016	6/15/2016 4:35:00 PM	12:35:00	2.0.10.248	1	Bar100-0.bmp	100	4	?	0r_4g.bmp	0r_4g.bmp	0r_2g.bmp	0r_2g.bmp				0r_2g.bmp	TrialProc	TrialList	0	cvbn	-999999	29	66832	0	n	9810	76642	2	0	2	0	0	0	2	7	1	1	0	0	0	0	4	4	2	2	0	2
Hungry_Donkey_bar_English_2	149	1	<?xml version="1.0"?>\n<Clock xmlns:dt="urn:schemas-microsoft-com:datatypes"><Description dt:dt="string">E-Prime Primary Realtime Clock</Description><StartTime><Timestamp dt:dt="int">0</Timestamp><DateUtc dt:dt="string">2016-06-15T16:35:00Z</DateUtc></StartTime><FrequencyChanges><FrequencyChange><Frequency dt:dt="r8">3507675</Frequency><Timestamp dt:dt="r8">1731477551638</Timestamp><Current dt:dt="r8">0</Current><DateUtc dt:dt="string">2016-06-15T16:35:00Z</DateUtc></FrequencyChange></FrequencyChanges></Clock>\n	Hungry_Donkey_bar_English_2-149-1	60.017	30	1.0.0.18	1	606435794	Standard	2.0.10.353	2.0.10.353	06-15-2016	6/15/2016 4:35:00 PM	12:35:00	2.0.10.248	2	Bar100-0.bmp	100	3	?	0r_4g.bmp	0r_4g.bmp	0r_2g.bmp	0r_2g.bmp			0r_2g.bmp		TrialProc	TrialList	0	cvbn	-999999	16	78679	0	b	5499	84178	4	0	4	0	0	2	2	9	1	2	0	0	0	0	4	4	2	2	0	2
Hungry_Donkey_bar_English_2	149	1	<?xml version="1.0"?>\n<Clock xmlns:dt="urn:schemas-microsoft-com:datatypes"><Description dt:dt="string">E-Prime Primary Realtime Clock</Description><StartTime><Timestamp dt:dt="int">0</Timestamp><DateUtc dt:dt="string">2016-06-15T16:35:00Z</DateUtc></StartTime><FrequencyChanges><FrequencyChange><Frequency dt:dt="r8">3507675</Frequency><Timestamp dt:dt="r8">1731477551638</Timestamp><Current dt:dt="r8">0</Current><DateUtc dt:dt="string">2016-06-15T16:35:00Z</DateUtc></FrequencyChange></FrequencyChanges></Clock>\n	Hungry_Donkey_bar_English_2-149-1	60.017	30	1.0.0.18	1	606435794	Standard	2.0.10.353	2.0.10.353	06-15-2016	6/15/2016 4:35:00 PM	12:35:00	2.0.10.248	3	Bar75-25.bmp	75	3	?	10r_4g.bmp	0r_4g.bmp	2r_2g.bmp	0r_2g.bmp			2r_2g.bmp		TrialProc	TrialList	0	cvbn	-999999	16	86210	0	b	7007	93217	6	-2	4	0	0	2	2	3	1	3	-10	0	-2	0	4	4	2	2	-2	2
Hungry_Donkey_bar_English_2	149	1	<?xml version="1.0"?>\n<Clock xmlns:dt="urn:schemas-microsoft-com:datatypes"><Description dt:dt="string">E-Prime Primary Realtime Clock</Description><StartTime><Timestamp dt:dt="int">0</Timestamp><DateUtc dt:dt="string">2016-06-15T16:35:00Z</DateUtc></StartTime><FrequencyChanges><FrequencyChange><Frequency dt:dt="r8">3507675</Frequency><Timestamp dt:dt="r8">1731477551638</Timestamp><Current dt:dt="r8">0</Current><DateUtc dt:dt="string">2016-06-15T16:35:00Z</DateUtc></FrequencyChange></FrequencyChanges></Clock>\n	Hungry_Donkey_bar_English_2-149-1	60.017	30	1.0.0.18	1	606435794	Standard	2.0.10.353	2.0.10.353	06-15-2016	6/15/2016 4:35:00 PM	12:35:00	2.0.10.248	4	Bar75-25.bmp	80	4	?	10r_4g.bmp	0r_4g.bmp	2r_2g.bmp	0r_2g.bmp				0r_2g.bmp	TrialProc	TrialList	0	cvbn	-999999	16	95257	0	n	2872	98129	8	-2	6	0	0	2	4	2	1	4	-10	0	-2	0	4	4	2	2	0	2
Hungry_Donkey_bar_English_2	149	1	<?xml version="1.0"?>\n<Clock xmlns:dt="urn:schemas-microsoft-com:datatypes"><Description dt:dt="string">E-Prime Primary Realtime Clock</Description><StartTime><Timestamp dt:dt="int">0</Timestamp><DateUtc dt:dt="string">2016-06-15T16:35:00Z</DateUtc></StartTime><FrequencyChanges><FrequencyChange><Frequency dt:dt="r8">3507675</Frequency><Timestamp dt:dt="r8">1731477551638</Timestamp><Current dt:dt="r8">0</Current><DateUtc dt:dt="string">2016-06-15T16:35:00Z</DateUtc></FrequencyChange></FrequencyChanges></Clock>\n	Hungry_Donkey_bar_English_2-149-1	60.017	30	1.0.0.18	1	606435794	Standard	2.0.10.353	2.0.10.353	06-15-2016	6/15/2016 4:35:00 PM	12:35:00	2.0.10.248	5	Bar87-13.bmp	86	2	?	0r_4g.bmp	0r_4g.bmp	0r_2g.bmp	0r_2g.bmp		0r_4g.bmp			TrialProc	TrialList	0	cvbn	-999999	16	100156	0	v	2533	102689	12	-2	10	0	4	2	4	8	1	5	0	0	0	0	4	4	2	2	0	4
Hungry_Donkey_bar_English_2	149	1	<?xml version="1.0"?>\n<Clock xmlns:dt="urn:schemas-microsoft-com:datatypes"><Description dt:dt="string">E-Prime Primary Realtime Clock</Description><StartTime><Timestamp dt:dt="int">0</Timestamp><DateUtc dt:dt="string">2016-06-15T16:35:00Z</DateUtc></StartTime><FrequencyChanges><FrequencyChange><Frequency dt:dt="r8">3507675</Frequency><Timestamp dt:dt="r8">1731477551638</Timestamp><Current dt:dt="r8">0</Current><DateUtc dt:dt="string">2016-06-15T16:35:00Z</DateUtc></FrequencyChange></FrequencyChanges></Clock>\n	Hungry_Donkey_bar_English_2-149-1	60.017	30	1.0.0.18	1	606435794	Standard	2.0.10.353	2.0.10.353	06-15-2016	6/15/2016 4:35:00 PM	12:35:00	2.0.10.248	6	Bar75-25.bmp	74	3	?	12r_4g.bmp	0r_4g.bmp	3r_2g.bmp	0r_2g.bmp			3r_2g.bmp		TrialProc	TrialList	0	cvbn	-999999	16	104721	0	b	1920	106641	14	-5	9	0	4	1	4	5	1	6	-12	0	-3	0	4	4	2	2	-3	2
Hungry_Donkey_bar_English_2	149	1	<?xml version="1.0"?>\n<Clock xmlns:dt="urn:schemas-microsoft-com:datatypes"><Description dt:dt="string">E-Prime Primary Realtime Clock</Description><StartTime><Timestamp dt:dt="int">0</Timestamp><DateUtc dt:dt="string">2016-06-15T16:35:00Z</DateUtc></StartTime><FrequencyChanges><FrequencyChange><Frequency dt:dt="r8">3507675</Frequency><Timestamp dt:dt="r8">1731477551638</Timestamp><Current dt:dt="r8">0</Current><DateUtc dt:dt="string">2016-06-15T16:35:00Z</DateUtc></FrequencyChange></FrequencyChanges></Clock>\n	Hungry_Donkey_bar_English_2-149-1	60.017	30	1.0.0.18	1	606435794	Standard	2.0.10.353	2.0.10.353	06-15-2016	6/15/2016 4:35:00 PM	12:35:00	2.0.10.248	7	Bar50-50.bmp	55	1	?	10r_4g.bmp	0r_4g.bmp	2r_2g.bmp	0r_2g.bmp	10r_4g.bmp				TrialProc	TrialList	0	cvbn	-999999	16	108670	0	c	658	109328	18	-15	3	-6	4	1	4	4	1	7	-10	0	-2	0	4	4	2	2	-10	4
Hungry_Donkey_bar_English_2	149	1	<?xml version="1.0"?>\n<Clock xmlns:dt="urn:schemas-microsoft-com:datatypes"><Description dt:dt="string">E-Prime Primary Realtime Clock</Description><StartTime><Timestamp dt:dt="int">0</Timestamp><DateUtc dt:dt="string">2016-06-15T16:35:00Z</DateUtc></StartTime><FrequencyChanges><FrequencyChange><Frequency dt:dt="r8">3507675</Frequency><Timestamp dt:dt="r8">1731477551638</Timestamp><Current dt:dt="r8">0</Current><DateUtc dt:dt="string">2016-06-15T16:35:00Z</DateUtc></FrequencyChange></FrequencyChanges></Clock>\n	Hungry_Donkey_bar_English_2-149-1	60.017	30	1.0.0.18	1	606435794	Standard	2.0.10.353	2.0.10.353	06-15-2016	6/15/2016 4:35:00 PM	12:35:00	2.0.10.248	8	Bar63-37.bmp	57	4	?	0r_4g.bmp	0r_4g.bmp	0r_2g.bmp	0r_2g.bmp				0r_2g.bmp	TrialProc	TrialList	0	cvbn	-999999	16	111369	0	n	1463	112832	20	-15	5	-6	4	1	6	10	1	8	0	0	0	0	4	4	2	2	0	2
Hungry_Donkey_bar_English_2	149	1	<?xml version="1.0"?>\n<Clock xmlns:dt="urn:schemas-microsoft-com:datatypes"><Description dt:dt="string">E-Prime Primary Realtime Clock</Description><StartTime><Timestamp dt:dt="int">0</Timestamp><DateUtc dt:dt="string">2016-06-15T16:35:00Z</DateUtc></StartTime><FrequencyChanges><FrequencyChange><Frequency dt:dt="r8">3507675</Frequency><Timestamp dt:dt="r8">1731477551638</Timestamp><Current dt:dt="r8">0</Current><DateUtc dt:dt="string">2016-06-15T16:35:00Z</DateUtc></FrequencyChange></FrequencyChanges></Clock>\n	Hungry_Donkey_bar_English_2-149-1	60.017	30	1.0.0.18	1	606435794	Standard	2.0.10.353	2.0.10.353	06-15-2016	6/15/2016 4:35:00 PM	12:35:00	2.0.10.248	9	Bar63-37.bmp	59	3	?	0r_4g.bmp	0r_4g.bmp	0r_2g.bmp	0r_2g.bmp			0r_2g.bmp		TrialProc	TrialList	0	cvbn	-999999	16	114868	0	b	556	115424	22	-15	7	-6	4	3	6	6	1	9	0	0	0	0	4	4	2	2	0	2
Hungry_Donkey_bar_English_2	149	1	<?xml version="1.0"?>\n<Clock xmlns:dt="urn:schemas-microsoft-com:datatypes"><Description dt:dt="string">E-Prime Primary Realtime Clock</Description><StartTime><Timestamp dt:dt="int">0</Timestamp><DateUtc dt:dt="string">2016-06-15T16:35:00Z</DateUtc></StartTime><FrequencyChanges><FrequencyChange><Frequency dt:dt="r8">3507675</Frequency><Timestamp dt:dt="r8">1731477551638</Timestamp><Current dt:dt="r8">0</Current><DateUtc dt:dt="string">2016-06-15T16:35:00Z</DateUtc></FrequencyChange></FrequencyChanges></Clock>\n	Hungry_Donkey_bar_English_2-149-1	60.017	30	1.0.0.18	1	606435794	Standard	2.0.10.353	2.0.10.353	06-15-2016	6/15/2016 4:35:00 PM	12:35:00	2.0.10.248	10	Bar50-50.bmp	49	4	?	8r_4g.bmp	50r_4g.bmp	1r_2g.bmp	10r_2g.bmp				10r_2g.bmp	TrialProc	TrialList	0	cvbn	-999999	16	117451	0	n	565	118016	24	-25	-1	-6	4	3	-2	1	1	10	-8	-50	-1	-10	4	4	2	2	-10	2
Hungry_Donkey_bar_English_2	149	1	<?xml version="1.0"?>\n<Clock xmlns:dt="urn:schemas-microsoft-com:datatypes"><Description dt:dt="string">E-Prime Primary Realtime Clock</Description><StartTime><Timestamp dt:dt="int">0</Timestamp><DateUtc dt:dt="string">2016-06-15T16:35:00Z</DateUtc></StartTime><FrequencyChanges><FrequencyChange><Frequency dt:dt="r8">3507675</Frequency><Timestamp dt:dt="r8">1731477551638</Timestamp><Current dt:dt="r8">0</Current><DateUtc dt:dt="string">2016-06-15T16:35:00Z</DateUtc></FrequencyChange></FrequencyChanges></Clock>\n	Hungry_Donkey_bar_English_2-149-1	60.017	30	1.0.0.18	1	606435794	Standard	2.0.10.353	2.0.10.353	06-15-2016	6/15/2016 4:35:00 PM	12:35:00	2.0.10.248	11	Bar50-50.bmp	49	3	?	10r_4g.bmp	0r_4g.bmp	2r_2g.bmp	0r_2g.bmp			2r_2g.bmp		TrialProc	TrialList	0	cvbn	-999999	16	120050	0	b	1118	121168	26	-27	-1	-6	4	3	-2	2	2	11	-10	0	-2	0	4	4	2	2	-2	2
Hungry_Donkey_bar_English_2	149	1	<?xml version="1.0"?>\n<Clock xmlns:dt="urn:schemas-microsoft-com:datatypes"><Description dt:dt="string">E-Prime Primary Realtime Clock</Description><StartTime><Timestamp dt:dt="int">0</Timestamp><DateUtc dt:dt="string">2016-06-15T16:35:00Z</DateUtc></StartTime><FrequencyChanges><FrequencyChange><Frequency dt:dt="r8">3507675</Frequency><Timestamp dt:dt="r8">1731477551638</Timestamp><Current dt:dt="r8">0</Current><DateUtc dt:dt="string">2016-06-15T16:35:00Z</DateUtc></FrequencyChange></FrequencyChanges></Clock>\n	Hungry_Donkey_bar_English_2-149-1	60.017	30	1.0.0.18	1	606435794	Standard	2.0.10.353	2.0.10.353	06-15-2016	6/15/2016 4:35:00 PM	12:35:00	2.0.10.248	12	Bar50-50.bmp	53	2	?	0r_4g.bmp	0r_4g.bmp	0r_2g.bmp	0r_2g.bmp		0r_4g.bmp			TrialProc	TrialList	0	cvbn	-999999	16	123199	0	v	1169	124368	30	-27	3	-6	8	3	-2	6	2	12	0	0	0	0	4	4	2	2	0	4
Hungry_Donkey_bar_English_2	149	1	<?xml version="1.0"?>\n<Clock xmlns:dt="urn:schemas-microsoft-com:datatypes"><Description dt:dt="string">E-Prime Primary Realtime Clock</Description><StartTime><Timestamp dt:dt="int">0</Timestamp><DateUtc dt:dt="string">2016-06-15T16:35:00Z</DateUtc></StartTime><FrequencyChanges><FrequencyChange><Frequency dt:dt="r8">3507675</Frequency><Timestamp dt:dt="r8">1731477551638</Timestamp><Current dt:dt="r8">0</Current><DateUtc dt:dt="string">2016-06-15T16:35:00Z</DateUtc></FrequencyChange></FrequencyChanges></Clock>\n	Hungry_Donkey_bar_English_2-149-1	60.017	30	1.0.0.18	1	606435794	Standard	2.0.10.353	2.0.10.353	06-15-2016	6/15/2016 4:35:00 PM	12:35:00	2.0.10.248	13	Bar50-50.bmp	54	4	?	10r_4g.bmp	0r_4g.bmp	2r_2g.bmp	0r_2g.bmp				0r_2g.bmp	TrialProc	TrialList	0	cvbn	-999999	16	126398	0	n	1122	127520	32	-27	5	-6	8	3	0	3	2	13	-10	0	-2	0	4	4	2	2	0	2
Hungry_Donkey_bar_English_2	149	1	<?xml version="1.0"?>\n<Clock xmlns:dt="urn:schemas-microsoft-com:datatypes"><Description dt:dt="string">E-Prime Primary Realtime Clock</Description><StartTime><Timestamp dt:dt="int">0</Timestamp><DateUtc dt:dt="string">2016-06-15T16:35:00Z</DateUtc></StartTime><FrequencyChanges><FrequencyChange><Frequency dt:dt="r8">3507675</Frequency><Timestamp dt:dt="r8">1731477551638</Timestamp><Current dt:dt="r8">0</Current><DateUtc dt:dt="string">2016-06-15T16:35:00Z</DateUtc></FrequencyChange></FrequencyChanges></Clock>\n	Hungry_Donkey_bar_English_2-149-1	60.017	30	1.0.0.18	1	606435794	Standard	2.0.10.353	2.0.10.353	06-15-2016	6/15/2016 4:35:00 PM	12:35:00	2.0.10.248	14	Bar50-50.bmp	54	3	?	10r_4g.bmp	0r_4g.bmp	2r_2g.bmp	0r_2g.bmp			2r_2g.bmp		TrialProc	TrialList	0	cvbn	-999999	17	129548	0	b	1123	130671	34	-29	5	-6	8	3	0	4	2	14	-10	0	-2	0	4	4	2	2	-2	2
Hungry_Donkey_bar_English_2	149	1	<?xml version="1.0"?>\n<Clock xmlns:dt="urn:schemas-microsoft-com:datatypes"><Description dt:dt="string">E-Prime Primary Realtime Clock</Description><StartTime><Timestamp dt:dt="int">0</Timestamp><DateUtc dt:dt="string">2016-06-15T16:35:00Z</DateUtc></StartTime><FrequencyChanges><FrequencyChange><Frequency dt:dt="r8">3507675</Frequency><Timestamp dt:dt="r8">1731477551638</Timestamp><Current dt:dt="r8">0</Current><DateUtc dt:dt="string">2016-06-15T16:35:00Z</DateUtc></FrequencyChange></FrequencyChanges></Clock>\n	Hungry_Donkey_bar_English_2-149-1	60.017	30	1.0.0.18	1	606435794	Standard	2.0.10.353	2.0.10.353	06-15-2016	6/15/2016 4:35:00 PM	12:35:00	2.0.10.248	15	Bar50-50.bmp	48	4	?	8r_4g.bmp	50r_4g.bmp	1r_2g.bmp	10r_2g.bmp				10r_2g.bmp	TrialProc	TrialList	0	cvbn	-999999	16	132697	0	n	486	133183	36	-39	-3	-6	8	3	-8	1	2	15	-8	-50	-1	-10	4	4	2	2	-10	2
Hungry_Donkey_bar_English_2	149	1	<?xml version="1.0"?>\n<Clock xmlns:dt="urn:schemas-microsoft-com:datatypes"><Description dt:dt="string">E-Prime Primary Realtime Clock</Description><StartTime><Timestamp dt:dt="int">0</Timestamp><DateUtc dt:dt="string">2016-06-15T16:35:00Z</DateUtc></StartTime><FrequencyChanges><FrequencyChange><Frequency dt:dt="r8">3507675</Frequency><Timestamp dt:dt="r8">1731477551638</Timestamp><Current dt:dt="r8">0</Current><DateUtc dt:dt="string">2016-06-15T16:35:00Z</DateUtc></FrequencyChange></FrequencyChanges></Clock>\n	Hungry_Donkey_bar_English_2-149-1	60.017	30	1.0.0.18	1	606435794	Standard	2.0.10.353	2.0.10.353	06-15-2016	6/15/2016 4:35:00 PM	12:35:00	2.0.10.248	16	Bar50-50.bmp	51	2	?	0r_4g.bmp	0r_4g.bmp	0r_2g.bmp	0r_2g.bmp		0r_4g.bmp			TrialProc	TrialList	0	cvbn	-999999	16	135213	0	v	1122	136335	40	-39	1	-6	12	3	-8	9	2	16	0	0	0	0	4	4	2	2	0	4
Hungry_Donkey_bar_English_2	149	1	<?xml version="1.0"?>\n<Clock xmlns:dt="urn:schemas-microsoft-com:datatypes"><Description dt:dt="string">E-Prime Primary Realtime Clock</Description><StartTime><Timestamp dt:dt="int">0</Timestamp><DateUtc dt:dt="string">2016-06-15T16:35:00Z</DateUtc></StartTime><FrequencyChanges><FrequencyChange><Frequency dt:dt="r8">3507675</Frequency><Timestamp dt:dt="r8">1731477551638</Timestamp><Current dt:dt="r8">0</Current><DateUtc dt:dt="string">2016-06-15T16:35:00Z</DateUtc></FrequencyChange></FrequencyChanges></Clock>\n	Hungry_Donkey_bar_English_2-149-1	60.017	30	1.0.0.18	1	606435794	Standard	2.0.10.353	2.0.10.353	06-15-2016	6/15/2016 4:35:00 PM	12:35:00	2.0.10.248	17	Bar50-50.bmp	53	1	?	0r_4g.bmp	0r_4g.bmp	0r_2g.bmp	0r_2g.bmp	0r_4g.bmp				TrialProc	TrialList	0	cvbn	-999999	16	138362	0	c	1253	139615	44	-39	5	-2	12	3	-8	8	2	17	0	0	0	0	4	4	2	2	0	4
Hungry_Donkey_bar_English_2	149	1	<?xml version="1.0"?>\n<Clock xmlns:dt="urn:schemas-microsoft-com:datatypes"><Description dt:dt="string">E-Prime Primary Realtime Clock</Description><StartTime><Timestamp dt:dt="int">0</Timestamp><DateUtc dt:dt="string">2016-06-15T16:35:00Z</DateUtc></StartTime><FrequencyChanges><FrequencyChange><Frequency dt:dt="r8">3507675</Frequency><Timestamp dt:dt="r8">1731477551638</Timestamp><Current dt:dt="r8">0</Current><DateUtc dt:dt="string">2016-06-15T16:35:00Z</DateUtc></FrequencyChange></FrequencyChanges></Clock>\n	Hungry_Donkey_bar_English_2-149-1	60.017	30	1.0.0.18	1	606435794	Standard	2.0.10.353	2.0.10.353	06-15-2016	6/15/2016 4:35:00 PM	12:35:00	2.0.10.248	18	Bar50-50.bmp	55	2	?	12r_4g.bmp	0r_4g.bmp	3r_2g.bmp	0r_2g.bmp		0r_4g.bmp			TrialProc	TrialList	0	cvbn	-999999	16	141644	0	v	1267	142911	48	-39	9	-2	16	3	-8	5	2	18	-12	0	-3	0	4	4	2	2	0	4
Hungry_Donkey_bar_English_2	149	1	<?xml version="1.0"?>\n<Clock xmlns:dt="urn:schemas-microsoft-com:datatypes"><Description dt:dt="string">E-Prime Primary Realtime Clock</Description><StartTime><Timestamp dt:dt="int">0</Timestamp><DateUtc dt:dt="string">2016-06-15T16:35:00Z</DateUtc></StartTime><FrequencyChanges><FrequencyChange><Frequency dt:dt="r8">3507675</Frequency><Timestamp dt:dt="r8">1731477551638</Timestamp><Current dt:dt="r8">0</Current><DateUtc dt:dt="string">2016-06-15T16:35:00Z</DateUtc></FrequencyChange></FrequencyChanges></Clock>\n	Hungry_Donkey_bar_English_2-149-1	60.017	30	1.0.0.18	1	606435794	Standard	2.0.10.353	2.0.10.353	06-15-2016	6/15/2016 4:35:00 PM	12:35:00	2.0.10.248	19	Bar50-50.bmp	56	4	?	0r_4g.bmp	0r_4g.bmp	0r_2g.bmp	0r_2g.bmp				0r_2g.bmp	TrialProc	TrialList	0	cvbn	-999999	16	144943	0	n	1136	146079	50	-39	11	-2	16	3	-6	10	2	19	0	0	0	0	4	4	2	2	0	2
Hungry_Donkey_bar_English_2	149	1	<?xml version="1.0"?>\n<Clock xmlns:dt="urn:schemas-microsoft-com:datatypes"><Description dt:dt="string">E-Prime Primary Realtime Clock</Description><StartTime><Timestamp dt:dt="int">0</Timestamp><DateUtc dt:dt="string">2016-06-15T16:35:00Z</DateUtc></StartTime><FrequencyChanges><FrequencyChange><Frequency dt:dt="r8">3507675</Frequency><Timestamp dt:dt="r8">1731477551638</Timestamp><Current dt:dt="r8">0</Current><DateUtc dt:dt="string">2016-06-15T16:35:00Z</DateUtc></FrequencyChange></FrequencyChanges></Clock>\n	Hungry_Donkey_bar_English_2-149-1	60.017	30	1.0.0.18	1	606435794	Standard	2.0.10.353	2.0.10.353	06-15-2016	6/15/2016 4:35:00 PM	12:35:00	2.0.10.248	20	Bar63-37.bmp	58	2	?	0r_4g.bmp	0r_4g.bmp	0r_2g.bmp	0r_2g.bmp		0r_4g.bmp			TrialProc	TrialList	0	cvbn	-999999	16	148109	0	v	482	148591	54	-39	15	-2	20	3	-6	7	2	20	0	0	0	0	4	4	2	2	0	4
Hungry_Donkey_bar_English_2	149	1	<?xml version="1.0"?>\n<Clock xmlns:dt="urn:schemas-microsoft-com:datatypes"><Description dt:dt="string">E-Prime Primary Realtime Clock</Description><StartTime><Timestamp dt:dt="int">0</Timestamp><DateUtc dt:dt="string">2016-06-15T16:35:00Z</DateUtc></StartTime><FrequencyChanges><FrequencyChange><Frequency dt:dt="r8">3507675</Frequency><Timestamp dt:dt="r8">1731477551638</Timestamp><Current dt:dt="r8">0</Current><DateUtc dt:dt="string">2016-06-15T16:35:00Z</DateUtc></FrequencyChange></FrequencyChanges></Clock>\n	Hungry_Donkey_bar_English_2-149-1	60.017	30	1.0.0.18	1	606435794	Standard	2.0.10.353	2.0.10.353	06-15-2016	6/15/2016 4:35:00 PM	12:35:00	2.0.10.248	21	Bar63-37.bmp	59	4	?	0r_4g.bmp	0r_4g.bmp	0r_2g.bmp	0r_2g.bmp				0r_2g.bmp	TrialProc	TrialList	0	cvbn	-999999	16	150625	0	n	5357	155982	56	-39	17	-2	20	3	-4	10	3	21	0	0	0	0	4	4	2	2	0	2
Hungry_Donkey_bar_English_2	149	1	<?xml version="1.0"?>\n<Clock xmlns:dt="urn:schemas-microsoft-com:datatypes"><Description dt:dt="string">E-Prime Primary Realtime Clock</Description><StartTime><Timestamp dt:dt="int">0</Timestamp><DateUtc dt:dt="string">2016-06-15T16:35:00Z</DateUtc></StartTime><FrequencyChanges><FrequencyChange><Frequency dt:dt="r8">3507675</Frequency><Timestamp dt:dt="r8">1731477551638</Timestamp><Current dt:dt="r8">0</Current><DateUtc dt:dt="string">2016-06-15T16:35:00Z</DateUtc></FrequencyChange></FrequencyChanges></Clock>\n	Hungry_Donkey_bar_English_2-149-1	60.017	30	1.0.0.18	1	606435794	Standard	2.0.10.353	2.0.10.353	06-15-2016	6/15/2016 4:35:00 PM	12:35:00	2.0.10.248	22	Bar63-37.bmp	60	3	?	0r_4g.bmp	0r_4g.bmp	0r_2g.bmp	0r_2g.bmp			0r_2g.bmp		TrialProc	TrialList	0	cvbn	-999999	16	158023	0	b	2039	160062	58	-39	19	-2	20	5	-4	9	3	22	0	0	0	0	4	4	2	2	0	2
Hungry_Donkey_bar_English_2	149	1	<?xml version="1.0"?>\n<Clock xmlns:dt="urn:schemas-microsoft-com:datatypes"><Description dt:dt="string">E-Prime Primary Realtime Clock</Description><StartTime><Timestamp dt:dt="int">0</Timestamp><DateUtc dt:dt="string">2016-06-15T16:35:00Z</DateUtc></StartTime><FrequencyChanges><FrequencyChange><Frequency dt:dt="r8">3507675</Frequency><Timestamp dt:dt="r8">1731477551638</Timestamp><Current dt:dt="r8">0</Current><DateUtc dt:dt="string">2016-06-15T16:35:00Z</DateUtc></FrequencyChange></FrequencyChanges></Clock>\n	Hungry_Donkey_bar_English_2-149-1	60.017	30	1.0.0.18	1	606435794	Standard	2.0.10.353	2.0.10.353	06-15-2016	6/15/2016 4:35:00 PM	12:35:00	2.0.10.248	23	Bar63-37.bmp	61	2	?	10r_4g.bmp	0r_4g.bmp	2r_2g.bmp	0r_2g.bmp		0r_4g.bmp			TrialProc	TrialList	0	cvbn	-999999	16	162088	0	v	1110	163198	62	-39	23	-2	24	5	-4	3	3	23	-10	0	-2	0	4	4	2	2	0	4
Hungry_Donkey_bar_English_2	149	1	<?xml version="1.0"?>\n<Clock xmlns:dt="urn:schemas-microsoft-com:datatypes"><Description dt:dt="string">E-Prime Primary Realtime Clock</Description><StartTime><Timestamp dt:dt="int">0</Timestamp><DateUtc dt:dt="string">2016-06-15T16:35:00Z</DateUtc></StartTime><FrequencyChanges><FrequencyChange><Frequency dt:dt="r8">3507675</Frequency><Timestamp dt:dt="r8">1731477551638</Timestamp><Current dt:dt="r8">0</Current><DateUtc dt:dt="string">2016-06-15T16:35:00Z</DateUtc></FrequencyChange></FrequencyChanges></Clock>\n	Hungry_Donkey_bar_English_2-149-1	60.017	30	1.0.0.18	1	606435794	Standard	2.0.10.353	2.0.10.353	06-15-2016	6/15/2016 4:35:00 PM	12:35:00	2.0.10.248	24	Bar63-37.bmp	62	4	?	0r_4g.bmp	0r_4g.bmp	0r_2g.bmp	0r_2g.bmp				0r_2g.bmp	TrialProc	TrialList	0	cvbn	-999999	16	165221	0	n	3833	169054	64	-39	25	-2	24	5	-2	8	3	24	0	0	0	0	4	4	2	2	0	2
Hungry_Donkey_bar_English_2	149	1	<?xml version="1.0"?>\n<Clock xmlns:dt="urn:schemas-microsoft-com:datatypes"><Description dt:dt="string">E-Prime Primary Realtime Clock</Description><StartTime><Timestamp dt:dt="int">0</Timestamp><DateUtc dt:dt="string">2016-06-15T16:35:00Z</DateUtc></StartTime><FrequencyChanges><FrequencyChange><Frequency dt:dt="r8">3507675</Frequency><Timestamp dt:dt="r8">1731477551638</Timestamp><Current dt:dt="r8">0</Current><DateUtc dt:dt="string">2016-06-15T16:35:00Z</DateUtc></FrequencyChange></FrequencyChanges></Clock>\n	Hungry_Donkey_bar_English_2-149-1	60.017	30	1.0.0.18	1	606435794	Standard	2.0.10.353	2.0.10.353	06-15-2016	6/15/2016 4:35:00 PM	12:35:00	2.0.10.248	25	Bar63-37.bmp	63	3	?	0r_4g.bmp	0r_4g.bmp	0r_2g.bmp	0r_2g.bmp			0r_2g.bmp		TrialProc	TrialList	0	cvbn	-999999	16	171086	0	b	511	171597	66	-39	27	-2	24	7	-2	7	3	25	0	0	0	0	4	4	2	2	0	2
Hungry_Donkey_bar_English_2	149	1	<?xml version="1.0"?>\n<Clock xmlns:dt="urn:schemas-microsoft-com:datatypes"><Description dt:dt="string">E-Prime Primary Realtime Clock</Description><StartTime><Timestamp dt:dt="int">0</Timestamp><DateUtc dt:dt="string">2016-06-15T16:35:00Z</DateUtc></StartTime><FrequencyChanges><FrequencyChange><Frequency dt:dt="r8">3507675</Frequency><Timestamp dt:dt="r8">1731477551638</Timestamp><Current dt:dt="r8">0</Current><DateUtc dt:dt="string">2016-06-15T16:35:00Z</DateUtc></FrequencyChange></FrequencyChanges></Clock>\n	Hungry_Donkey_bar_English_2-149-1	60.017	30	1.0.0.18	1	606435794	Standard	2.0.10.353	2.0.10.353	06-15-2016	6/15/2016 4:35:00 PM	12:35:00	2.0.10.248	26	Bar63-37.bmp	59	1	?	10r_4g.bmp	0r_4g.bmp	2r_2g.bmp	0r_2g.bmp	10r_4g.bmp				TrialProc	TrialList	0	cvbn	-999999	16	173635	0	c	666	174301	70	-49	21	-8	24	7	-2	2	3	26	-10	0	-2	0	4	4	2	2	-10	4
Hungry_Donkey_bar_English_2	149	1	<?xml version="1.0"?>\n<Clock xmlns:dt="urn:schemas-microsoft-com:datatypes"><Description dt:dt="string">E-Prime Primary Realtime Clock</Description><StartTime><Timestamp dt:dt="int">0</Timestamp><DateUtc dt:dt="string">2016-06-15T16:35:00Z</DateUtc></StartTime><FrequencyChanges><FrequencyChange><Frequency dt:dt="r8">3507675</Frequency><Timestamp dt:dt="r8">1731477551638</Timestamp><Current dt:dt="r8">0</Current><DateUtc dt:dt="string">2016-06-15T16:35:00Z</DateUtc></FrequencyChange></FrequencyChanges></Clock>\n	Hungry_Donkey_bar_English_2-149-1	60.017	30	1.0.0.18	1	606435794	Standard	2.0.10.353	2.0.10.353	06-15-2016	6/15/2016 4:35:00 PM	12:35:00	2.0.10.248	27	Bar63-37.bmp	60	3	?	0r_4g.bmp	0r_4g.bmp	0r_2g.bmp	0r_2g.bmp			0r_2g.bmp		TrialProc	TrialList	0	cvbn	-999999	16	176334	0	b	1071	177405	72	-49	23	-8	24	9	-2	6	3	27	0	0	0	0	4	4	2	2	0	2
Hungry_Donkey_bar_English_2	149	1	<?xml version="1.0"?>\n<Clock xmlns:dt="urn:schemas-microsoft-com:datatypes"><Description dt:dt="string">E-Prime Primary Realtime Clock</Description><StartTime><Timestamp dt:dt="int">0</Timestamp><DateUtc dt:dt="string">2016-06-15T16:35:00Z</DateUtc></StartTime><FrequencyChanges><FrequencyChange><Frequency dt:dt="r8">3507675</Frequency><Timestamp dt:dt="r8">1731477551638</Timestamp><Current dt:dt="r8">0</Current><DateUtc dt:dt="string">2016-06-15T16:35:00Z</DateUtc></FrequencyChange></FrequencyChanges></Clock>\n	Hungry_Donkey_bar_English_2-149-1	60.017	30	1.0.0.18	1	606435794	Standard	2.0.10.353	2.0.10.353	06-15-2016	6/15/2016 4:35:00 PM	12:35:00	2.0.10.248	28	Bar63-37.bmp	60	4	?	12r_4g.bmp	0r_4g.bmp	3r_2g.bmp	0r_2g.bmp				0r_2g.bmp	TrialProc	TrialList	0	cvbn	-999999	16	179433	0	n	484	179917	74	-49	25	-8	24	9	0	5	3	28	-12	0	-3	0	4	4	2	2	0	2
Hungry_Donkey_bar_English_2	149	1	<?xml version="1.0"?>\n<Clock xmlns:dt="urn:schemas-microsoft-com:datatypes"><Description dt:dt="string">E-Prime Primary Realtime Clock</Description><StartTime><Timestamp dt:dt="int">0</Timestamp><DateUtc dt:dt="string">2016-06-15T16:35:00Z</DateUtc></StartTime><FrequencyChanges><FrequencyChange><Frequency dt:dt="r8">3507675</Frequency><Timestamp dt:dt="r8">1731477551638</Timestamp><Current dt:dt="r8">0</Current><DateUtc dt:dt="string">2016-06-15T16:35:00Z</DateUtc></FrequencyChange></FrequencyChanges></Clock>\n	Hungry_Donkey_bar_English_2-149-1	60.017	30	1.0.0.18	1	606435794	Standard	2.0.10.353	2.0.10.353	06-15-2016	6/15/2016 4:35:00 PM	12:35:00	2.0.10.248	29	Bar50-50.bmp	44	2	?	8r_4g.bmp	50r_4g.bmp	1r_2g.bmp	10r_2g.bmp		50r_4g.bmp			TrialProc	TrialList	0	cvbn	-999999	16	181949	0	v	640	182589	78	-99	-21	-8	-22	9	0	1	3	29	-8	-50	-1	-10	4	4	2	2	-50	4
Hungry_Donkey_bar_English_2	149	1	<?xml version="1.0"?>\n<Clock xmlns:dt="urn:schemas-microsoft-com:datatypes"><Description dt:dt="string">E-Prime Primary Realtime Clock</Description><StartTime><Timestamp dt:dt="int">0</Timestamp><DateUtc dt:dt="string">2016-06-15T16:35:00Z</DateUtc></StartTime><FrequencyChanges><FrequencyChange><Frequency dt:dt="r8">3507675</Frequency><Timestamp dt:dt="r8">1731477551638</Timestamp><Current dt:dt="r8">0</Current><DateUtc dt:dt="string">2016-06-15T16:35:00Z</DateUtc></FrequencyChange></FrequencyChanges></Clock>\n	Hungry_Donkey_bar_English_2-149-1	60.017	30	1.0.0.18	1	606435794	Standard	2.0.10.353	2.0.10.353	06-15-2016	6/15/2016 4:35:00 PM	12:35:00	2.0.10.248	30	Bar50-50.bmp	45	4	?	10r_4g.bmp	0r_4g.bmp	2r_2g.bmp	0r_2g.bmp				0r_2g.bmp	TrialProc	TrialList	0	cvbn	-999999	16	184615	0	n	1094	185709	80	-99	-19	-8	-22	9	2	4	3	30	-10	0	-2	0	4	4	2	2	0	2
Hungry_Donkey_bar_English_2	149	1	<?xml version="1.0"?>\n<Clock xmlns:dt="urn:schemas-microsoft-com:datatypes"><Description dt:dt="string">E-Prime Primary Realtime Clock</Description><StartTime><Timestamp dt:dt="int">0</Timestamp><DateUtc dt:dt="string">2016-06-15T16:35:00Z</DateUtc></StartTime><FrequencyChanges><FrequencyChange><Frequency dt:dt="r8">3507675</Frequency><Timestamp dt:dt="r8">1731477551638</Timestamp><Current dt:dt="r8">0</Current><DateUtc dt:dt="string">2016-06-15T16:35:00Z</DateUtc></FrequencyChange></FrequencyChanges></Clock>\n	Hungry_Donkey_bar_English_2-149-1	60.017	30	1.0.0.18	1	606435794	Standard	2.0.10.353	2.0.10.353	06-15-2016	6/15/2016 4:35:00 PM	12:35:00	2.0.10.248	31	Bar50-50.bmp	45	4	?	10r_4g.bmp	0r_4g.bmp	2r_2g.bmp	0r_2g.bmp				0r_2g.bmp	TrialProc	TrialList	0	cvbn	-999999	16	187748	0	n	2793	190541	82	-99	-17	-8	-22	9	4	4	4	31	-10	0	-2	0	4	4	2	2	0	2
Hungry_Donkey_bar_English_2	149	1	<?xml version="1.0"?>\n<Clock xmlns:dt="urn:schemas-microsoft-com:datatypes"><Description dt:dt="string">E-Prime Primary Realtime Clock</Description><StartTime><Timestamp dt:dt="int">0</Timestamp><DateUtc dt:dt="string">2016-06-15T16:35:00Z</DateUtc></StartTime><FrequencyChanges><FrequencyChange><Frequency dt:dt="r8">3507675</Frequency><Timestamp dt:dt="r8">1731477551638</Timestamp><Current dt:dt="r8">0</Current><DateUtc dt:dt="string">2016-06-15T16:35:00Z</DateUtc></FrequencyChange></FrequencyChanges></Clock>\n	Hungry_Donkey_bar_English_2-149-1	60.017	30	1.0.0.18	1	606435794	Standard	2.0.10.353	2.0.10.353	06-15-2016	6/15/2016 4:35:00 PM	12:35:00	2.0.10.248	32	Bar50-50.bmp	46	4	?	0r_4g.bmp	0r_4g.bmp	0r_2g.bmp	0r_2g.bmp				0r_2g.bmp	TrialProc	TrialList	0	cvbn	-999999	17	192580	0	n	504	193084	84	-99	-15	-8	-22	9	6	7	4	32	0	0	0	0	4	4	2	2	0	2
Hungry_Donkey_bar_English_2	149	1	<?xml version="1.0"?>\n<Clock xmlns:dt="urn:schemas-microsoft-com:datatypes"><Description dt:dt="string">E-Prime Primary Realtime Clock</Description><StartTime><Timestamp dt:dt="int">0</Timestamp><DateUtc dt:dt="string">2016-06-15T16:35:00Z</DateUtc></StartTime><FrequencyChanges><FrequencyChange><Frequency dt:dt="r8">3507675</Frequency><Timestamp dt:dt="r8">1731477551638</Timestamp><Current dt:dt="r8">0</Current><DateUtc dt:dt="string">2016-06-15T16:35:00Z</DateUtc></FrequencyChange></FrequencyChanges></Clock>\n	Hungry_Donkey_bar_English_2-149-1	60.017	30	1.0.0.18	1	606435794	Standard	2.0.10.353	2.0.10.353	06-15-2016	6/15/2016 4:35:00 PM	12:35:00	2.0.10.248	33	Bar50-50.bmp	44	4	?	8r_4g.bmp	50r_4g.bmp	1r_2g.bmp	10r_2g.bmp				10r_2g.bmp	TrialProc	TrialList	0	cvbn	-999999	16	195112	0	n	516	195628	86	-109	-23	-8	-22	9	-2	1	4	33	-8	-50	-1	-10	4	4	2	2	-10	2
Hungry_Donkey_bar_English_2	149	1	<?xml version="1.0"?>\n<Clock xmlns:dt="urn:schemas-microsoft-com:datatypes"><Description dt:dt="string">E-Prime Primary Realtime Clock</Description><StartTime><Timestamp dt:dt="int">0</Timestamp><DateUtc dt:dt="string">2016-06-15T16:35:00Z</DateUtc></StartTime><FrequencyChanges><FrequencyChange><Frequency dt:dt="r8">3507675</Frequency><Timestamp dt:dt="r8">1731477551638</Timestamp><Current dt:dt="r8">0</Current><DateUtc dt:dt="string">2016-06-15T16:35:00Z</DateUtc></FrequencyChange></FrequencyChanges></Clock>\n	Hungry_Donkey_bar_English_2-149-1	60.017	30	1.0.0.18	1	606435794	Standard	2.0.10.353	2.0.10.353	06-15-2016	6/15/2016 4:35:00 PM	12:35:00	2.0.10.248	34	Bar50-50.bmp	45	3	?	0r_4g.bmp	0r_4g.bmp	0r_2g.bmp	0r_2g.bmp			0r_2g.bmp		TrialProc	TrialList	0	cvbn	-999999	16	197661	0	b	1599	199260	88	-109	-21	-8	-22	11	-2	8	4	34	0	0	0	0	4	4	2	2	0	2
Hungry_Donkey_bar_English_2	149	1	<?xml version="1.0"?>\n<Clock xmlns:dt="urn:schemas-microsoft-com:datatypes"><Description dt:dt="string">E-Prime Primary Realtime Clock</Description><StartTime><Timestamp dt:dt="int">0</Timestamp><DateUtc dt:dt="string">2016-06-15T16:35:00Z</DateUtc></StartTime><FrequencyChanges><FrequencyChange><Frequency dt:dt="r8">3507675</Frequency><Timestamp dt:dt="r8">1731477551638</Timestamp><Current dt:dt="r8">0</Current><DateUtc dt:dt="string">2016-06-15T16:35:00Z</DateUtc></FrequencyChange></FrequencyChanges></Clock>\n	Hungry_Donkey_bar_English_2-149-1	60.017	30	1.0.0.18	1	606435794	Standard	2.0.10.353	2.0.10.353	06-15-2016	6/15/2016 4:35:00 PM	12:35:00	2.0.10.248	35	Bar50-50.bmp	45	3	?	10r_4g.bmp	0r_4g.bmp	2r_2g.bmp	0r_2g.bmp			2r_2g.bmp		TrialProc	TrialList	0	cvbn	-999999	16	201294	0	b	414	201708	90	-111	-21	-8	-22	11	-2	2	4	35	-10	0	-2	0	4	4	2	2	-2	2
Hungry_Donkey_bar_English_2	149	1	<?xml version="1.0"?>\n<Clock xmlns:dt="urn:schemas-microsoft-com:datatypes"><Description dt:dt="string">E-Prime Primary Realtime Clock</Description><StartTime><Timestamp dt:dt="int">0</Timestamp><DateUtc dt:dt="string">2016-06-15T16:35:00Z</DateUtc></StartTime><FrequencyChanges><FrequencyChange><Frequency dt:dt="r8">3507675</Frequency><Timestamp dt:dt="r8">1731477551638</Timestamp><Current dt:dt="r8">0</Current><DateUtc dt:dt="string">2016-06-15T16:35:00Z</DateUtc></FrequencyChange></FrequencyChanges></Clock>\n	Hungry_Donkey_bar_English_2-149-1	60.017	30	1.0.0.18	1	606435794	Standard	2.0.10.353	2.0.10.353	06-15-2016	6/15/2016 4:35:00 PM	12:35:00	2.0.10.248	36	Bar50-50.bmp	45	3	?	12r_4g.bmp	0r_4g.bmp	3r_2g.bmp	0r_2g.bmp			3r_2g.bmp		TrialProc	TrialList	0	cvbn	-999999	16	203743	0	b	637	204380	92	-114	-22	-8	-22	10	-2	5	4	36	-12	0	-3	0	4	4	2	2	-3	2
Hungry_Donkey_bar_English_2	149	1	<?xml version="1.0"?>\n<Clock xmlns:dt="urn:schemas-microsoft-com:datatypes"><Description dt:dt="string">E-Prime Primary Realtime Clock</Description><StartTime><Timestamp dt:dt="int">0</Timestamp><DateUtc dt:dt="string">2016-06-15T16:35:00Z</DateUtc></StartTime><FrequencyChanges><FrequencyChange><Frequency dt:dt="r8">3507675</Frequency><Timestamp dt:dt="r8">1731477551638</Timestamp><Current dt:dt="r8">0</Current><DateUtc dt:dt="string">2016-06-15T16:35:00Z</DateUtc></FrequencyChange></FrequencyChanges></Clock>\n	Hungry_Donkey_bar_English_2-149-1	60.017	30	1.0.0.18	1	606435794	Standard	2.0.10.353	2.0.10.353	06-15-2016	6/15/2016 4:35:00 PM	12:35:00	2.0.10.248	37	Bar50-50.bmp	46	2	?	0r_4g.bmp	0r_4g.bmp	0r_2g.bmp	0r_2g.bmp		0r_4g.bmp			TrialProc	TrialList	0	cvbn	-999999	16	206409	0	v	387	206796	96	-114	-18	-8	-18	10	-2	6	4	37	0	0	0	0	4	4	2	2	0	4
Hungry_Donkey_bar_English_2	149	1	<?xml version="1.0"?>\n<Clock xmlns:dt="urn:schemas-microsoft-com:datatypes"><Description dt:dt="string">E-Prime Primary Realtime Clock</Description><StartTime><Timestamp dt:dt="int">0</Timestamp><DateUtc dt:dt="string">2016-06-15T16:35:00Z</DateUtc></StartTime><FrequencyChanges><FrequencyChange><Frequency dt:dt="r8">3507675</Frequency><Timestamp dt:dt="r8">1731477551638</Timestamp><Current dt:dt="r8">0</Current><DateUtc dt:dt="string">2016-06-15T16:35:00Z</DateUtc></FrequencyChange></FrequencyChanges></Clock>\n	Hungry_Donkey_bar_English_2-149-1	60.017	30	1.0.0.18	1	606435794	Standard	2.0.10.353	2.0.10.353	06-15-2016	6/15/2016 4:35:00 PM	12:35:00	2.0.10.248	38	Bar50-50.bmp	45	1	?	10r_4g.bmp	0r_4g.bmp	2r_2g.bmp	0r_2g.bmp	10r_4g.bmp				TrialProc	TrialList	0	cvbn	-999999	16	208825	0	c	2067	210892	100	-124	-24	-14	-18	10	-2	3	4	38	-10	0	-2	0	4	4	2	2	-10	4
Hungry_Donkey_bar_English_2	149	1	<?xml version="1.0"?>\n<Clock xmlns:dt="urn:schemas-microsoft-com:datatypes"><Description dt:dt="string">E-Prime Primary Realtime Clock</Description><StartTime><Timestamp dt:dt="int">0</Timestamp><DateUtc dt:dt="string">2016-06-15T16:35:00Z</DateUtc></StartTime><FrequencyChanges><FrequencyChange><Frequency dt:dt="r8">3507675</Frequency><Timestamp dt:dt="r8">1731477551638</Timestamp><Current dt:dt="r8">0</Current><DateUtc dt:dt="string">2016-06-15T16:35:00Z</DateUtc></FrequencyChange></FrequencyChanges></Clock>\n	Hungry_Donkey_bar_English_2-149-1	60.017	30	1.0.0.18	1	606435794	Standard	2.0.10.353	2.0.10.353	06-15-2016	6/15/2016 4:35:00 PM	12:35:00	2.0.10.248	39	Bar50-50.bmp	46	2	?	0r_4g.bmp	0r_4g.bmp	0r_2g.bmp	0r_2g.bmp		0r_4g.bmp			TrialProc	TrialList	0	cvbn	-999999	16	212924	0	v	607	213531	104	-124	-20	-14	-14	10	-2	9	4	39	0	0	0	0	4	4	2	2	0	4
Hungry_Donkey_bar_English_2	149	1	<?xml version="1.0"?>\n<Clock xmlns:dt="urn:schemas-microsoft-com:datatypes"><Description dt:dt="string">E-Prime Primary Realtime Clock</Description><StartTime><Timestamp dt:dt="int">0</Timestamp><DateUtc dt:dt="string">2016-06-15T16:35:00Z</DateUtc></StartTime><FrequencyChanges><FrequencyChange><Frequency dt:dt="r8">3507675</Frequency><Timestamp dt:dt="r8">1731477551638</Timestamp><Current dt:dt="r8">0</Current><DateUtc dt:dt="string">2016-06-15T16:35:00Z</DateUtc></FrequencyChange></FrequencyChanges></Clock>\n	Hungry_Donkey_bar_English_2-149-1	60.017	30	1.0.0.18	1	606435794	Standard	2.0.10.353	2.0.10.353	06-15-2016	6/15/2016 4:35:00 PM	12:35:00	2.0.10.248	40	Bar50-50.bmp	46	3	?	0r_4g.bmp	0r_4g.bmp	0r_2g.bmp	0r_2g.bmp			0r_2g.bmp		TrialProc	TrialList	0	cvbn	-999999	16	215556	0	b	1415	216971	106	-124	-18	-14	-14	12	-2	10	4	40	0	0	0	0	4	4	2	2	0	2
Hungry_Donkey_bar_English_2	149	1	<?xml version="1.0"?>\n<Clock xmlns:dt="urn:schemas-microsoft-com:datatypes"><Description dt:dt="string">E-Prime Primary Realtime Clock</Description><StartTime><Timestamp dt:dt="int">0</Timestamp><DateUtc dt:dt="string">2016-06-15T16:35:00Z</DateUtc></StartTime><FrequencyChanges><FrequencyChange><Frequency dt:dt="r8">3507675</Frequency><Timestamp dt:dt="r8">1731477551638</Timestamp><Current dt:dt="r8">0</Current><DateUtc dt:dt="string">2016-06-15T16:35:00Z</DateUtc></FrequencyChange></FrequencyChanges></Clock>\n	Hungry_Donkey_bar_English_2-149-1	60.017	30	1.0.0.18	1	606435794	Standard	2.0.10.353	2.0.10.353	06-15-2016	6/15/2016 4:35:00 PM	12:35:00	2.0.10.248	41	Bar50-50.bmp	47	4	?	10r_4g.bmp	0r_4g.bmp	2r_2g.bmp	0r_2g.bmp				0r_2g.bmp	TrialProc	TrialList	0	cvbn	-999999	16	219005	0	n	1038	220043	108	-124	-16	-14	-14	12	0	3	5	41	-10	0	-2	0	4	4	2	2	0	2
Hungry_Donkey_bar_English_2	149	1	<?xml version="1.0"?>\n<Clock xmlns:dt="urn:schemas-microsoft-com:datatypes"><Description dt:dt="string">E-Prime Primary Realtime Clock</Description><StartTime><Timestamp dt:dt="int">0</Timestamp><DateUtc dt:dt="string">2016-06-15T16:35:00Z</DateUtc></StartTime><FrequencyChanges><FrequencyChange><Frequency dt:dt="r8">3507675</Frequency><Timestamp dt:dt="r8">1731477551638</Timestamp><Current dt:dt="r8">0</Current><DateUtc dt:dt="string">2016-06-15T16:35:00Z</DateUtc></FrequencyChange></FrequencyChanges></Clock>\n	Hungry_Donkey_bar_English_2-149-1	60.017	30	1.0.0.18	1	606435794	Standard	2.0.10.353	2.0.10.353	06-15-2016	6/15/2016 4:35:00 PM	12:35:00	2.0.10.248	42	Bar50-50.bmp	47	3	?	10r_4g.bmp	0r_4g.bmp	2r_2g.bmp	0r_2g.bmp			2r_2g.bmp		TrialProc	TrialList	0	cvbn	-999999	16	222071	0	b	820	222891	110	-126	-16	-14	-14	12	0	4	5	42	-10	0	-2	0	4	4	2	2	-2	2
Hungry_Donkey_bar_English_2	149	1	<?xml version="1.0"?>\n<Clock xmlns:dt="urn:schemas-microsoft-com:datatypes"><Description dt:dt="string">E-Prime Primary Realtime Clock</Description><StartTime><Timestamp dt:dt="int">0</Timestamp><DateUtc dt:dt="string">2016-06-15T16:35:00Z</DateUtc></StartTime><FrequencyChanges><FrequencyChange><Frequency dt:dt="r8">3507675</Frequency><Timestamp dt:dt="r8">1731477551638</Timestamp><Current dt:dt="r8">0</Current><DateUtc dt:dt="string">2016-06-15T16:35:00Z</DateUtc></FrequencyChange></FrequencyChanges></Clock>\n	Hungry_Donkey_bar_English_2-149-1	60.017	30	1.0.0.18	1	606435794	Standard	2.0.10.353	2.0.10.353	06-15-2016	6/15/2016 4:35:00 PM	12:35:00	2.0.10.248	43	Bar50-50.bmp	48	2	?	0r_4g.bmp	0r_4g.bmp	0r_2g.bmp	0r_2g.bmp		0r_4g.bmp			TrialProc	TrialList	0	cvbn	-999999	16	224920	0	v	563	225483	114	-126	-12	-14	-10	12	0	9	5	43	0	0	0	0	4	4	2	2	0	4
Hungry_Donkey_bar_English_2	149	1	<?xml version="1.0"?>\n<Clock xmlns:dt="urn:schemas-microsoft-com:datatypes"><Description dt:dt="string">E-Prime Primary Realtime Clock</Description><StartTime><Timestamp dt:dt="int">0</Timestamp><DateUtc dt:dt="string">2016-06-15T16:35:00Z</DateUtc></StartTime><FrequencyChanges><FrequencyChange><Frequency dt:dt="r8">3507675</Frequency><Timestamp dt:dt="r8">1731477551638</Timestamp><Current dt:dt="r8">0</Current><DateUtc dt:dt="string">2016-06-15T16:35:00Z</DateUtc></FrequencyChange></FrequencyChanges></Clock>\n	Hungry_Donkey_bar_English_2-149-1	60.017	30	1.0.0.18	1	606435794	Standard	2.0.10.353	2.0.10.353	06-15-2016	6/15/2016 4:35:00 PM	12:35:00	2.0.10.248	44	Bar50-50.bmp	47	1	?	8r_4g.bmp	50r_4g.bmp	1r_2g.bmp	10r_2g.bmp	8r_4g.bmp				TrialProc	TrialList	0	cvbn	-999999	17	227520	0	c	1995	229515	118	-134	-16	-18	-10	12	0	1	5	44	-8	-50	-1	-10	4	4	2	2	-8	4
Hungry_Donkey_bar_English_2	149	1	<?xml version="1.0"?>\n<Clock xmlns:dt="urn:schemas-microsoft-com:datatypes"><Description dt:dt="string">E-Prime Primary Realtime Clock</Description><StartTime><Timestamp dt:dt="int">0</Timestamp><DateUtc dt:dt="string">2016-06-15T16:35:00Z</DateUtc></StartTime><FrequencyChanges><FrequencyChange><Frequency dt:dt="r8">3507675</Frequency><Timestamp dt:dt="r8">1731477551638</Timestamp><Current dt:dt="r8">0</Current><DateUtc dt:dt="string">2016-06-15T16:35:00Z</DateUtc></FrequencyChange></FrequencyChanges></Clock>\n	Hungry_Donkey_bar_English_2-149-1	60.017	30	1.0.0.18	1	606435794	Standard	2.0.10.353	2.0.10.353	06-15-2016	6/15/2016 4:35:00 PM	12:35:00	2.0.10.248	45	Bar50-50.bmp	47	4	?	10r_4g.bmp	0r_4g.bmp	2r_2g.bmp	0r_2g.bmp				0r_2g.bmp	TrialProc	TrialList	0	cvbn	-999999	16	231552	0	n	1802	233354	120	-134	-14	-18	-10	12	2	2	5	45	-10	0	-2	0	4	4	2	2	0	2
Hungry_Donkey_bar_English_2	149	1	<?xml version="1.0"?>\n<Clock xmlns:dt="urn:schemas-microsoft-com:datatypes"><Description dt:dt="string">E-Prime Primary Realtime Clock</Description><StartTime><Timestamp dt:dt="int">0</Timestamp><DateUtc dt:dt="string">2016-06-15T16:35:00Z</DateUtc></StartTime><FrequencyChanges><FrequencyChange><Frequency dt:dt="r8">3507675</Frequency><Timestamp dt:dt="r8">1731477551638</Timestamp><Current dt:dt="r8">0</Current><DateUtc dt:dt="string">2016-06-15T16:35:00Z</DateUtc></FrequencyChange></FrequencyChanges></Clock>\n	Hungry_Donkey_bar_English_2-149-1	60.017	30	1.0.0.18	1	606435794	Standard	2.0.10.353	2.0.10.353	06-15-2016	6/15/2016 4:35:00 PM	12:35:00	2.0.10.248	46	Bar50-50.bmp	48	4	?	0r_4g.bmp	0r_4g.bmp	0r_2g.bmp	0r_2g.bmp				0r_2g.bmp	TrialProc	TrialList	0	cvbn	-999999	16	235384	0	n	1858	237242	122	-134	-12	-18	-10	12	4	6	5	46	0	0	0	0	4	4	2	2	0	2
Hungry_Donkey_bar_English_2	149	1	<?xml version="1.0"?>\n<Clock xmlns:dt="urn:schemas-microsoft-com:datatypes"><Description dt:dt="string">E-Prime Primary Realtime Clock</Description><StartTime><Timestamp dt:dt="int">0</Timestamp><DateUtc dt:dt="string">2016-06-15T16:35:00Z</DateUtc></StartTime><FrequencyChanges><FrequencyChange><Frequency dt:dt="r8">3507675</Frequency><Timestamp dt:dt="r8">1731477551638</Timestamp><Current dt:dt="r8">0</Current><DateUtc dt:dt="string">2016-06-15T16:35:00Z</DateUtc></FrequencyChange></FrequencyChanges></Clock>\n	Hungry_Donkey_bar_English_2-149-1	60.017	30	1.0.0.18	1	606435794	Standard	2.0.10.353	2.0.10.353	06-15-2016	6/15/2016 4:35:00 PM	12:35:00	2.0.10.248	47	Bar50-50.bmp	48	4	?	12r_4g.bmp	0r_4g.bmp	3r_2g.bmp	0r_2g.bmp				0r_2g.bmp	TrialProc	TrialList	0	cvbn	-999999	15	239266	0	n	648	239914	124	-134	-10	-18	-10	12	6	5	5	47	-12	0	-3	0	4	4	2	2	0	2
Hungry_Donkey_bar_English_2	149	1	<?xml version="1.0"?>\n<Clock xmlns:dt="urn:schemas-microsoft-com:datatypes"><Description dt:dt="string">E-Prime Primary Realtime Clock</Description><StartTime><Timestamp dt:dt="int">0</Timestamp><DateUtc dt:dt="string">2016-06-15T16:35:00Z</DateUtc></StartTime><FrequencyChanges><FrequencyChange><Frequency dt:dt="r8">3507675</Frequency><Timestamp dt:dt="r8">1731477551638</Timestamp><Current dt:dt="r8">0</Current><DateUtc dt:dt="string">2016-06-15T16:35:00Z</DateUtc></FrequencyChange></FrequencyChanges></Clock>\n	Hungry_Donkey_bar_English_2-149-1	60.017	30	1.0.0.18	1	606435794	Standard	2.0.10.353	2.0.10.353	06-15-2016	6/15/2016 4:35:00 PM	12:35:00	2.0.10.248	48	Bar50-50.bmp	48	4	?	0r_4g.bmp	0r_4g.bmp	0r_2g.bmp	0r_2g.bmp				0r_2g.bmp	TrialProc	TrialList	0	cvbn	-999999	16	241949	0	n	749	242698	126	-134	-8	-18	-10	12	8	7	5	48	0	0	0	0	4	4	2	2	0	2
Hungry_Donkey_bar_English_2	149	1	<?xml version="1.0"?>\n<Clock xmlns:dt="urn:schemas-microsoft-com:datatypes"><Description dt:dt="string">E-Prime Primary Realtime Clock</Description><StartTime><Timestamp dt:dt="int">0</Timestamp><DateUtc dt:dt="string">2016-06-15T16:35:00Z</DateUtc></StartTime><FrequencyChanges><FrequencyChange><Frequency dt:dt="r8">3507675</Frequency><Timestamp dt:dt="r8">1731477551638</Timestamp><Current dt:dt="r8">0</Current><DateUtc dt:dt="string">2016-06-15T16:35:00Z</DateUtc></FrequencyChange></FrequencyChanges></Clock>\n	Hungry_Donkey_bar_English_2-149-1	60.017	30	1.0.0.18	1	606435794	Standard	2.0.10.353	2.0.10.353	06-15-2016	6/15/2016 4:35:00 PM	12:35:00	2.0.10.248	49	Bar50-50.bmp	49	4	?	0r_4g.bmp	0r_4g.bmp	0r_2g.bmp	0r_2g.bmp				0r_2g.bmp	TrialProc	TrialList	0	cvbn	-999999	16	244731	0	n	399	245130	128	-134	-6	-18	-10	12	10	10	5	49	0	0	0	0	4	4	2	2	0	2
Hungry_Donkey_bar_English_2	149	1	<?xml version="1.0"?>\n<Clock xmlns:dt="urn:schemas-microsoft-com:datatypes"><Description dt:dt="string">E-Prime Primary Realtime Clock</Description><StartTime><Timestamp dt:dt="int">0</Timestamp><DateUtc dt:dt="string">2016-06-15T16:35:00Z</DateUtc></StartTime><FrequencyChanges><FrequencyChange><Frequency dt:dt="r8">3507675</Frequency><Timestamp dt:dt="r8">1731477551638</Timestamp><Current dt:dt="r8">0</Current><DateUtc dt:dt="string">2016-06-15T16:35:00Z</DateUtc></FrequencyChange></FrequencyChanges></Clock>\n	Hungry_Donkey_bar_English_2-149-1	60.017	30	1.0.0.18	1	606435794	Standard	2.0.10.353	2.0.10.353	06-15-2016	6/15/2016 4:35:00 PM	12:35:00	2.0.10.248	50	Bar50-50.bmp	49	4	?	0r_4g.bmp	0r_4g.bmp	0r_2g.bmp	0r_2g.bmp				0r_2g.bmp	TrialProc	TrialList	0	cvbn	-999999	16	247164	0	n	398	247562	130	-134	-4	-18	-10	12	12	8	5	50	0	0	0	0	4	4	2	2	0	2
Hungry_Donkey_bar_English_2	149	1	<?xml version="1.0"?>\n<Clock xmlns:dt="urn:schemas-microsoft-com:datatypes"><Description dt:dt="string">E-Prime Primary Realtime Clock</Description><StartTime><Timestamp dt:dt="int">0</Timestamp><DateUtc dt:dt="string">2016-06-15T16:35:00Z</DateUtc></StartTime><FrequencyChanges><FrequencyChange><Frequency dt:dt="r8">3507675</Frequency><Timestamp dt:dt="r8">1731477551638</Timestamp><Current dt:dt="r8">0</Current><DateUtc dt:dt="string">2016-06-15T16:35:00Z</DateUtc></FrequencyChange></FrequencyChanges></Clock>\n	Hungry_Donkey_bar_English_2-149-1	60.017	30	1.0.0.18	1	606435794	Standard	2.0.10.353	2.0.10.353	06-15-2016	6/15/2016 4:35:00 PM	12:35:00	2.0.10.248	51	Bar50-50.bmp	48	4	?	8r_4g.bmp	50r_4g.bmp	1r_2g.bmp	10r_2g.bmp				10r_2g.bmp	TrialProc	TrialList	0	cvbn	-999999	17	249597	0	n	701	250298	132	-144	-12	-18	-10	12	4	1	6	51	-8	-50	-1	-10	4	4	2	2	-10	2
Hungry_Donkey_bar_English_2	149	1	<?xml version="1.0"?>\n<Clock xmlns:dt="urn:schemas-microsoft-com:datatypes"><Description dt:dt="string">E-Prime Primary Realtime Clock</Description><StartTime><Timestamp dt:dt="int">0</Timestamp><DateUtc dt:dt="string">2016-06-15T16:35:00Z</DateUtc></StartTime><FrequencyChanges><FrequencyChange><Frequency dt:dt="r8">3507675</Frequency><Timestamp dt:dt="r8">1731477551638</Timestamp><Current dt:dt="r8">0</Current><DateUtc dt:dt="string">2016-06-15T16:35:00Z</DateUtc></FrequencyChange></FrequencyChanges></Clock>\n	Hungry_Donkey_bar_English_2-149-1	60.017	30	1.0.0.18	1	606435794	Standard	2.0.10.353	2.0.10.353	06-15-2016	6/15/2016 4:35:00 PM	12:35:00	2.0.10.248	52	Bar50-50.bmp	48	3	?	0r_4g.bmp	0r_4g.bmp	0r_2g.bmp	0r_2g.bmp			0r_2g.bmp		TrialProc	TrialList	0	cvbn	-999999	16	252329	0	b	1664	253993	134	-144	-10	-18	-10	14	4	10	6	52	0	0	0	0	4	4	2	2	0	2
Hungry_Donkey_bar_English_2	149	1	<?xml version="1.0"?>\n<Clock xmlns:dt="urn:schemas-microsoft-com:datatypes"><Description dt:dt="string">E-Prime Primary Realtime Clock</Description><StartTime><Timestamp dt:dt="int">0</Timestamp><DateUtc dt:dt="string">2016-06-15T16:35:00Z</DateUtc></StartTime><FrequencyChanges><FrequencyChange><Frequency dt:dt="r8">3507675</Frequency><Timestamp dt:dt="r8">1731477551638</Timestamp><Current dt:dt="r8">0</Current><DateUtc dt:dt="string">2016-06-15T16:35:00Z</DateUtc></FrequencyChange></FrequencyChanges></Clock>\n	Hungry_Donkey_bar_English_2-149-1	60.017	30	1.0.0.18	1	606435794	Standard	2.0.10.353	2.0.10.353	06-15-2016	6/15/2016 4:35:00 PM	12:35:00	2.0.10.248	53	Bar50-50.bmp	49	2	?	12r_4g.bmp	0r_4g.bmp	3r_2g.bmp	0r_2g.bmp		0r_4g.bmp			TrialProc	TrialList	0	cvbn	-999999	16	256028	0	v	141	256169	138	-144	-6	-18	-6	14	4	5	6	53	-12	0	-3	0	4	4	2	2	0	4
Hungry_Donkey_bar_English_2	149	1	<?xml version="1.0"?>\n<Clock xmlns:dt="urn:schemas-microsoft-com:datatypes"><Description dt:dt="string">E-Prime Primary Realtime Clock</Description><StartTime><Timestamp dt:dt="int">0</Timestamp><DateUtc dt:dt="string">2016-06-15T16:35:00Z</DateUtc></StartTime><FrequencyChanges><FrequencyChange><Frequency dt:dt="r8">3507675</Frequency><Timestamp dt:dt="r8">1731477551638</Timestamp><Current dt:dt="r8">0</Current><DateUtc dt:dt="string">2016-06-15T16:35:00Z</DateUtc></FrequencyChange></FrequencyChanges></Clock>\n	Hungry_Donkey_bar_English_2-149-1	60.017	30	1.0.0.18	1	606435794	Standard	2.0.10.353	2.0.10.353	06-15-2016	6/15/2016 4:35:00 PM	12:35:00	2.0.10.248	54	Bar50-50.bmp	49	4	?	10r_4g.bmp	0r_4g.bmp	2r_2g.bmp	0r_2g.bmp				0r_2g.bmp	TrialProc	TrialList	0	cvbn	-999999	16	258194	0	n	471	258665	140	-144	-4	-18	-6	14	6	3	6	54	-10	0	-2	0	4	4	2	2	0	2
Hungry_Donkey_bar_English_2	149	1	<?xml version="1.0"?>\n<Clock xmlns:dt="urn:schemas-microsoft-com:datatypes"><Description dt:dt="string">E-Prime Primary Realtime Clock</Description><StartTime><Timestamp dt:dt="int">0</Timestamp><DateUtc dt:dt="string">2016-06-15T16:35:00Z</DateUtc></StartTime><FrequencyChanges><FrequencyChange><Frequency dt:dt="r8">3507675</Frequency><Timestamp dt:dt="r8">1731477551638</Timestamp><Current dt:dt="r8">0</Current><DateUtc dt:dt="string">2016-06-15T16:35:00Z</DateUtc></FrequencyChange></FrequencyChanges></Clock>\n	Hungry_Donkey_bar_English_2-149-1	60.017	30	1.0.0.18	1	606435794	Standard	2.0.10.353	2.0.10.353	06-15-2016	6/15/2016 4:35:00 PM	12:35:00	2.0.10.248	55	Bar50-50.bmp	50	3	?	0r_4g.bmp	0r_4g.bmp	0r_2g.bmp	0r_2g.bmp			0r_2g.bmp		TrialProc	TrialList	0	cvbn	-999999	16	260693	0	b	420	261113	142	-144	-2	-18	-6	16	6	7	6	55	0	0	0	0	4	4	2	2	0	2
Hungry_Donkey_bar_English_2	149	1	<?xml version="1.0"?>\n<Clock xmlns:dt="urn:schemas-microsoft-com:datatypes"><Description dt:dt="string">E-Prime Primary Realtime Clock</Description><StartTime><Timestamp dt:dt="int">0</Timestamp><DateUtc dt:dt="string">2016-06-15T16:35:00Z</DateUtc></StartTime><FrequencyChanges><FrequencyChange><Frequency dt:dt="r8">3507675</Frequency><Timestamp dt:dt="r8">1731477551638</Timestamp><Current dt:dt="r8">0</Current><DateUtc dt:dt="string">2016-06-15T16:35:00Z</DateUtc></FrequencyChange></FrequencyChanges></Clock>\n	Hungry_Donkey_bar_English_2-149-1	60.017	30	1.0.0.18	1	606435794	Standard	2.0.10.353	2.0.10.353	06-15-2016	6/15/2016 4:35:00 PM	12:35:00	2.0.10.248	56	Bar50-50.bmp	50	2	?	10r_4g.bmp	0r_4g.bmp	2r_2g.bmp	0r_2g.bmp		0r_4g.bmp			TrialProc	TrialList	0	cvbn	-999999	16	263143	0	v	402	263545	146	-144	2	-18	-2	16	6	4	6	56	-10	0	-2	0	4	4	2	2	0	4
Hungry_Donkey_bar_English_2	149	1	<?xml version="1.0"?>\n<Clock xmlns:dt="urn:schemas-microsoft-com:datatypes"><Description dt:dt="string">E-Prime Primary Realtime Clock</Description><StartTime><Timestamp dt:dt="int">0</Timestamp><DateUtc dt:dt="string">2016-06-15T16:35:00Z</DateUtc></StartTime><FrequencyChanges><FrequencyChange><Frequency dt:dt="r8">3507675</Frequency><Timestamp dt:dt="r8">1731477551638</Timestamp><Current dt:dt="r8">0</Current><DateUtc dt:dt="string">2016-06-15T16:35:00Z</DateUtc></FrequencyChange></FrequencyChanges></Clock>\n	Hungry_Donkey_bar_English_2-149-1	60.017	30	1.0.0.18	1	606435794	Standard	2.0.10.353	2.0.10.353	06-15-2016	6/15/2016 4:35:00 PM	12:35:00	2.0.10.248	57	Bar50-50.bmp	51	4	?	0r_4g.bmp	0r_4g.bmp	0r_2g.bmp	0r_2g.bmp				0r_2g.bmp	TrialProc	TrialList	0	cvbn	-999999	16	265575	0	n	754	266329	148	-144	4	-18	-2	16	8	6	6	57	0	0	0	0	4	4	2	2	0	2
Hungry_Donkey_bar_English_2	149	1	<?xml version="1.0"?>\n<Clock xmlns:dt="urn:schemas-microsoft-com:datatypes"><Description dt:dt="string">E-Prime Primary Realtime Clock</Description><StartTime><Timestamp dt:dt="int">0</Timestamp><DateUtc dt:dt="string">2016-06-15T16:35:00Z</DateUtc></StartTime><FrequencyChanges><FrequencyChange><Frequency dt:dt="r8">3507675</Frequency><Timestamp dt:dt="r8">1731477551638</Timestamp><Current dt:dt="r8">0</Current><DateUtc dt:dt="string">2016-06-15T16:35:00Z</DateUtc></FrequencyChange></FrequencyChanges></Clock>\n	Hungry_Donkey_bar_English_2-149-1	60.017	30	1.0.0.18	1	606435794	Standard	2.0.10.353	2.0.10.353	06-15-2016	6/15/2016 4:35:00 PM	12:35:00	2.0.10.248	58	Bar50-50.bmp	51	3	?	10r_4g.bmp	0r_4g.bmp	2r_2g.bmp	0r_2g.bmp			2r_2g.bmp		TrialProc	TrialList	0	cvbn	-999999	16	268358	0	b	403	268761	150	-146	4	-18	-2	16	8	2	6	58	-10	0	-2	0	4	4	2	2	-2	2
Hungry_Donkey_bar_English_2	149	1	<?xml version="1.0"?>\n<Clock xmlns:dt="urn:schemas-microsoft-com:datatypes"><Description dt:dt="string">E-Prime Primary Realtime Clock</Description><StartTime><Timestamp dt:dt="int">0</Timestamp><DateUtc dt:dt="string">2016-06-15T16:35:00Z</DateUtc></StartTime><FrequencyChanges><FrequencyChange><Frequency dt:dt="r8">3507675</Frequency><Timestamp dt:dt="r8">1731477551638</Timestamp><Current dt:dt="r8">0</Current><DateUtc dt:dt="string">2016-06-15T16:35:00Z</DateUtc></FrequencyChange></FrequencyChanges></Clock>\n	Hungry_Donkey_bar_English_2-149-1	60.017	30	1.0.0.18	1	606435794	Standard	2.0.10.353	2.0.10.353	06-15-2016	6/15/2016 4:35:00 PM	12:35:00	2.0.10.248	59	Bar50-50.bmp	51	2	?	0r_4g.bmp	0r_4g.bmp	0r_2g.bmp	0r_2g.bmp		0r_4g.bmp			TrialProc	TrialList	0	cvbn	-999999	17	270791	0	v	946	271737	154	-146	8	-18	2	16	8	8	6	59	0	0	0	0	4	4	2	2	0	4
Hungry_Donkey_bar_English_2	149	1	<?xml version="1.0"?>\n<Clock xmlns:dt="urn:schemas-microsoft-com:datatypes"><Description dt:dt="string">E-Prime Primary Realtime Clock</Description><StartTime><Timestamp dt:dt="int">0</Timestamp><DateUtc dt:dt="string">2016-06-15T16:35:00Z</DateUtc></StartTime><FrequencyChanges><FrequencyChange><Frequency dt:dt="r8">3507675</Frequency><Timestamp dt:dt="r8">1731477551638</Timestamp><Current dt:dt="r8">0</Current><DateUtc dt:dt="string">2016-06-15T16:35:00Z</DateUtc></FrequencyChange></FrequencyChanges></Clock>\n	Hungry_Donkey_bar_English_2-149-1	60.017	30	1.0.0.18	1	606435794	Standard	2.0.10.353	2.0.10.353	06-15-2016	6/15/2016 4:35:00 PM	12:35:00	2.0.10.248	60	Bar50-50.bmp	52	4	?	0r_4g.bmp	0r_4g.bmp	0r_2g.bmp	0r_2g.bmp				0r_2g.bmp	TrialProc	TrialList	0	cvbn	-999999	16	273773	0	n	1147	274920	156	-146	10	-18	2	16	10	9	6	60	0	0	0	0	4	4	2	2	0	2
Hungry_Donkey_bar_English_2	149	1	<?xml version="1.0"?>\n<Clock xmlns:dt="urn:schemas-microsoft-com:datatypes"><Description dt:dt="string">E-Prime Primary Realtime Clock</Description><StartTime><Timestamp dt:dt="int">0</Timestamp><DateUtc dt:dt="string">2016-06-15T16:35:00Z</DateUtc></StartTime><FrequencyChanges><FrequencyChange><Frequency dt:dt="r8">3507675</Frequency><Timestamp dt:dt="r8">1731477551638</Timestamp><Current dt:dt="r8">0</Current><DateUtc dt:dt="string">2016-06-15T16:35:00Z</DateUtc></FrequencyChange></FrequencyChanges></Clock>\n	Hungry_Donkey_bar_English_2-149-1	60.017	30	1.0.0.18	1	606435794	Standard	2.0.10.353	2.0.10.353	06-15-2016	6/15/2016 4:35:00 PM	12:35:00	2.0.10.248	61	Bar50-50.bmp	51	1	?	8r_4g.bmp	50r_4g.bmp	1r_2g.bmp	10r_2g.bmp	8r_4g.bmp				TrialProc	TrialList	0	cvbn	-999999	16	276955	0	c	781	277736	160	-154	6	-22	2	16	10	1	7	61	-8	-50	-1	-10	4	4	2	2	-8	4
Hungry_Donkey_bar_English_2	149	1	<?xml version="1.0"?>\n<Clock xmlns:dt="urn:schemas-microsoft-com:datatypes"><Description dt:dt="string">E-Prime Primary Realtime Clock</Description><StartTime><Timestamp dt:dt="int">0</Timestamp><DateUtc dt:dt="string">2016-06-15T16:35:00Z</DateUtc></StartTime><FrequencyChanges><FrequencyChange><Frequency dt:dt="r8">3507675</Frequency><Timestamp dt:dt="r8">1731477551638</Timestamp><Current dt:dt="r8">0</Current><DateUtc dt:dt="string">2016-06-15T16:35:00Z</DateUtc></FrequencyChange></FrequencyChanges></Clock>\n	Hungry_Donkey_bar_English_2-149-1	60.017	30	1.0.0.18	1	606435794	Standard	2.0.10.353	2.0.10.353	06-15-2016	6/15/2016 4:35:00 PM	12:35:00	2.0.10.248	62	Bar50-50.bmp	51	4	?	0r_4g.bmp	0r_4g.bmp	0r_2g.bmp	0r_2g.bmp				0r_2g.bmp	TrialProc	TrialList	0	cvbn	-999999	16	279771	0	n	1613	281384	162	-154	8	-22	2	16	12	10	7	62	0	0	0	0	4	4	2	2	0	2
Hungry_Donkey_bar_English_2	149	1	<?xml version="1.0"?>\n<Clock xmlns:dt="urn:schemas-microsoft-com:datatypes"><Description dt:dt="string">E-Prime Primary Realtime Clock</Description><StartTime><Timestamp dt:dt="int">0</Timestamp><DateUtc dt:dt="string">2016-06-15T16:35:00Z</DateUtc></StartTime><FrequencyChanges><FrequencyChange><Frequency dt:dt="r8">3507675</Frequency><Timestamp dt:dt="r8">1731477551638</Timestamp><Current dt:dt="r8">0</Current><DateUtc dt:dt="string">2016-06-15T16:35:00Z</DateUtc></FrequencyChange></FrequencyChanges></Clock>\n	Hungry_Donkey_bar_English_2-149-1	60.017	30	1.0.0.18	1	606435794	Standard	2.0.10.353	2.0.10.353	06-15-2016	6/15/2016 4:35:00 PM	12:35:00	2.0.10.248	63	Bar50-50.bmp	52	2	?	0r_4g.bmp	0r_4g.bmp	0r_2g.bmp	0r_2g.bmp		0r_4g.bmp			TrialProc	TrialList	0	cvbn	-999999	16	283420	0	v	4572	287992	166	-154	12	-22	6	16	12	9	7	63	0	0	0	0	4	4	2	2	0	4
Hungry_Donkey_bar_English_2	149	1	<?xml version="1.0"?>\n<Clock xmlns:dt="urn:schemas-microsoft-com:datatypes"><Description dt:dt="string">E-Prime Primary Realtime Clock</Description><StartTime><Timestamp dt:dt="int">0</Timestamp><DateUtc dt:dt="string">2016-06-15T16:35:00Z</DateUtc></StartTime><FrequencyChanges><FrequencyChange><Frequency dt:dt="r8">3507675</Frequency><Timestamp dt:dt="r8">1731477551638</Timestamp><Current dt:dt="r8">0</Current><DateUtc dt:dt="string">2016-06-15T16:35:00Z</DateUtc></FrequencyChange></FrequencyChanges></Clock>\n	Hungry_Donkey_bar_English_2-149-1	60.017	30	1.0.0.18	1	606435794	Standard	2.0.10.353	2.0.10.353	06-15-2016	6/15/2016 4:35:00 PM	12:35:00	2.0.10.248	64	Bar50-50.bmp	52	4	?	0r_4g.bmp	0r_4g.bmp	0r_2g.bmp	0r_2g.bmp				0r_2g.bmp	TrialProc	TrialList	0	cvbn	-999999	16	290018	0	n	5014	295032	168	-154	14	-22	6	16	14	7	7	64	0	0	0	0	4	4	2	2	0	2
Hungry_Donkey_bar_English_2	149	1	<?xml version="1.0"?>\n<Clock xmlns:dt="urn:schemas-microsoft-com:datatypes"><Description dt:dt="string">E-Prime Primary Realtime Clock</Description><StartTime><Timestamp dt:dt="int">0</Timestamp><DateUtc dt:dt="string">2016-06-15T16:35:00Z</DateUtc></StartTime><FrequencyChanges><FrequencyChange><Frequency dt:dt="r8">3507675</Frequency><Timestamp dt:dt="r8">1731477551638</Timestamp><Current dt:dt="r8">0</Current><DateUtc dt:dt="string">2016-06-15T16:35:00Z</DateUtc></FrequencyChange></FrequencyChanges></Clock>\n	Hungry_Donkey_bar_English_2-149-1	60.017	30	1.0.0.18	1	606435794	Standard	2.0.10.353	2.0.10.353	06-15-2016	6/15/2016 4:35:00 PM	12:35:00	2.0.10.248	65	Bar50-50.bmp	52	3	?	12r_4g.bmp	0r_4g.bmp	3r_2g.bmp	0r_2g.bmp			3r_2g.bmp		TrialProc	TrialList	0	cvbn	-999999	16	297066	0	b	3037	300103	170	-157	13	-22	6	15	14	5	7	65	-12	0	-3	0	4	4	2	2	-3	2
Hungry_Donkey_bar_English_2	149	1	<?xml version="1.0"?>\n<Clock xmlns:dt="urn:schemas-microsoft-com:datatypes"><Description dt:dt="string">E-Prime Primary Realtime Clock</Description><StartTime><Timestamp dt:dt="int">0</Timestamp><DateUtc dt:dt="string">2016-06-15T16:35:00Z</DateUtc></StartTime><FrequencyChanges><FrequencyChange><Frequency dt:dt="r8">3507675</Frequency><Timestamp dt:dt="r8">1731477551638</Timestamp><Current dt:dt="r8">0</Current><DateUtc dt:dt="string">2016-06-15T16:35:00Z</DateUtc></FrequencyChange></FrequencyChanges></Clock>\n	Hungry_Donkey_bar_English_2-149-1	60.017	30	1.0.0.18	1	606435794	Standard	2.0.10.353	2.0.10.353	06-15-2016	6/15/2016 4:35:00 PM	12:35:00	2.0.10.248	66	Bar50-50.bmp	52	4	?	0r_4g.bmp	0r_4g.bmp	0r_2g.bmp	0r_2g.bmp				0r_2g.bmp	TrialProc	TrialList	0	cvbn	-999999	17	302132	0	n	1571	303703	172	-157	15	-22	6	15	16	8	7	66	0	0	0	0	4	4	2	2	0	2
Hungry_Donkey_bar_English_2	149	1	<?xml version="1.0"?>\n<Clock xmlns:dt="urn:schemas-microsoft-com:datatypes"><Description dt:dt="string">E-Prime Primary Realtime Clock</Description><StartTime><Timestamp dt:dt="int">0</Timestamp><DateUtc dt:dt="string">2016-06-15T16:35:00Z</DateUtc></StartTime><FrequencyChanges><FrequencyChange><Frequency dt:dt="r8">3507675</Frequency><Timestamp dt:dt="r8">1731477551638</Timestamp><Current dt:dt="r8">0</Current><DateUtc dt:dt="string">2016-06-15T16:35:00Z</DateUtc></FrequencyChange></FrequencyChanges></Clock>\n	Hungry_Donkey_bar_English_2-149-1	60.017	30	1.0.0.18	1	606435794	Standard	2.0.10.353	2.0.10.353	06-15-2016	6/15/2016 4:35:00 PM	12:35:00	2.0.10.248	67	Bar50-50.bmp	53	2	?	10r_4g.bmp	0r_4g.bmp	2r_2g.bmp	0r_2g.bmp		0r_4g.bmp			TrialProc	TrialList	0	cvbn	-999999	17	305731	0	v	3588	309319	176	-157	19	-22	10	15	16	2	7	67	-10	0	-2	0	4	4	2	2	0	4
Hungry_Donkey_bar_English_2	149	1	<?xml version="1.0"?>\n<Clock xmlns:dt="urn:schemas-microsoft-com:datatypes"><Description dt:dt="string">E-Prime Primary Realtime Clock</Description><StartTime><Timestamp dt:dt="int">0</Timestamp><DateUtc dt:dt="string">2016-06-15T16:35:00Z</DateUtc></StartTime><FrequencyChanges><FrequencyChange><Frequency dt:dt="r8">3507675</Frequency><Timestamp dt:dt="r8">1731477551638</Timestamp><Current dt:dt="r8">0</Current><DateUtc dt:dt="string">2016-06-15T16:35:00Z</DateUtc></FrequencyChange></FrequencyChanges></Clock>\n	Hungry_Donkey_bar_English_2-149-1	60.017	30	1.0.0.18	1	606435794	Standard	2.0.10.353	2.0.10.353	06-15-2016	6/15/2016 4:35:00 PM	12:35:00	2.0.10.248	68	Bar50-50.bmp	53	3	?	10r_4g.bmp	0r_4g.bmp	2r_2g.bmp	0r_2g.bmp			2r_2g.bmp		TrialProc	TrialList	0	cvbn	-999999	16	311346	0	b	2437	313783	178	-159	19	-22	10	15	16	4	7	68	-10	0	-2	0	4	4	2	2	-2	2
Hungry_Donkey_bar_English_2	149	1	<?xml version="1.0"?>\n<Clock xmlns:dt="urn:schemas-microsoft-com:datatypes"><Description dt:dt="string">E-Prime Primary Realtime Clock</Description><StartTime><Timestamp dt:dt="int">0</Timestamp><DateUtc dt:dt="string">2016-06-15T16:35:00Z</DateUtc></StartTime><FrequencyChanges><FrequencyChange><Frequency dt:dt="r8">3507675</Frequency><Timestamp dt:dt="r8">1731477551638</Timestamp><Current dt:dt="r8">0</Current><DateUtc dt:dt="string">2016-06-15T16:35:00Z</DateUtc></FrequencyChange></FrequencyChanges></Clock>\n	Hungry_Donkey_bar_English_2-149-1	60.017	30	1.0.0.18	1	606435794	Standard	2.0.10.353	2.0.10.353	06-15-2016	6/15/2016 4:35:00 PM	12:35:00	2.0.10.248	69	Bar50-50.bmp	53	4	?	10r_4g.bmp	0r_4g.bmp	2r_2g.bmp	0r_2g.bmp				0r_2g.bmp	TrialProc	TrialList	0	cvbn	-999999	16	315811	0	n	1235	317046	180	-159	21	-22	10	15	18	3	7	69	-10	0	-2	0	4	4	2	2	0	2
Hungry_Donkey_bar_English_2	149	1	<?xml version="1.0"?>\n<Clock xmlns:dt="urn:schemas-microsoft-com:datatypes"><Description dt:dt="string">E-Prime Primary Realtime Clock</Description><StartTime><Timestamp dt:dt="int">0</Timestamp><DateUtc dt:dt="string">2016-06-15T16:35:00Z</DateUtc></StartTime><FrequencyChanges><FrequencyChange><Frequency dt:dt="r8">3507675</Frequency><Timestamp dt:dt="r8">1731477551638</Timestamp><Current dt:dt="r8">0</Current><DateUtc dt:dt="string">2016-06-15T16:35:00Z</DateUtc></FrequencyChange></FrequencyChanges></Clock>\n	Hungry_Donkey_bar_English_2-149-1	60.017	30	1.0.0.18	1	606435794	Standard	2.0.10.353	2.0.10.353	06-15-2016	6/15/2016 4:35:00 PM	12:35:00	2.0.10.248	70	Bar50-50.bmp	53	4	?	0r_4g.bmp	0r_4g.bmp	0r_2g.bmp	0r_2g.bmp				0r_2g.bmp	TrialProc	TrialList	0	cvbn	-999999	16	319077	0	n	897	319974	182	-159	23	-22	10	15	20	6	7	70	0	0	0	0	4	4	2	2	0	2
Hungry_Donkey_bar_English_2	149	1	<?xml version="1.0"?>\n<Clock xmlns:dt="urn:schemas-microsoft-com:datatypes"><Description dt:dt="string">E-Prime Primary Realtime Clock</Description><StartTime><Timestamp dt:dt="int">0</Timestamp><DateUtc dt:dt="string">2016-06-15T16:35:00Z</DateUtc></StartTime><FrequencyChanges><FrequencyChange><Frequency dt:dt="r8">3507675</Frequency><Timestamp dt:dt="r8">1731477551638</Timestamp><Current dt:dt="r8">0</Current><DateUtc dt:dt="string">2016-06-15T16:35:00Z</DateUtc></FrequencyChange></FrequencyChanges></Clock>\n	Hungry_Donkey_bar_English_2-149-1	60.017	30	1.0.0.18	1	606435794	Standard	2.0.10.353	2.0.10.353	06-15-2016	6/15/2016 4:35:00 PM	12:35:00	2.0.10.248	71	Bar50-50.bmp	52	4	?	8r_4g.bmp	50r_4g.bmp	1r_2g.bmp	10r_2g.bmp				10r_2g.bmp	TrialProc	TrialList	0	cvbn	-999999	16	322009	0	n	1885	323894	184	-169	15	-22	10	15	12	1	8	71	-8	-50	-1	-10	4	4	2	2	-10	2
Hungry_Donkey_bar_English_2	149	1	<?xml version="1.0"?>\n<Clock xmlns:dt="urn:schemas-microsoft-com:datatypes"><Description dt:dt="string">E-Prime Primary Realtime Clock</Description><StartTime><Timestamp dt:dt="int">0</Timestamp><DateUtc dt:dt="string">2016-06-15T16:35:00Z</DateUtc></StartTime><FrequencyChanges><FrequencyChange><Frequency dt:dt="r8">3507675</Frequency><Timestamp dt:dt="r8">1731477551638</Timestamp><Current dt:dt="r8">0</Current><DateUtc dt:dt="string">2016-06-15T16:35:00Z</DateUtc></FrequencyChange></FrequencyChanges></Clock>\n	Hungry_Donkey_bar_English_2-149-1	60.017	30	1.0.0.18	1	606435794	Standard	2.0.10.353	2.0.10.353	06-15-2016	6/15/2016 4:35:00 PM	12:35:00	2.0.10.248	72	Bar50-50.bmp	52	3	?	10r_4g.bmp	0r_4g.bmp	2r_2g.bmp	0r_2g.bmp			2r_2g.bmp		TrialProc	TrialList	0	cvbn	-999999	16	325925	0	b	2577	328502	186	-171	15	-22	10	15	12	3	8	72	-10	0	-2	0	4	4	2	2	-2	2
Hungry_Donkey_bar_English_2	149	1	<?xml version="1.0"?>\n<Clock xmlns:dt="urn:schemas-microsoft-com:datatypes"><Description dt:dt="string">E-Prime Primary Realtime Clock</Description><StartTime><Timestamp dt:dt="int">0</Timestamp><DateUtc dt:dt="string">2016-06-15T16:35:00Z</DateUtc></StartTime><FrequencyChanges><FrequencyChange><Frequency dt:dt="r8">3507675</Frequency><Timestamp dt:dt="r8">1731477551638</Timestamp><Current dt:dt="r8">0</Current><DateUtc dt:dt="string">2016-06-15T16:35:00Z</DateUtc></FrequencyChange></FrequencyChanges></Clock>\n	Hungry_Donkey_bar_English_2-149-1	60.017	30	1.0.0.18	1	606435794	Standard	2.0.10.353	2.0.10.353	06-15-2016	6/15/2016 4:35:00 PM	12:35:00	2.0.10.248	73	Bar50-50.bmp	52	4	?	0r_4g.bmp	0r_4g.bmp	0r_2g.bmp	0r_2g.bmp				0r_2g.bmp	TrialProc	TrialList	0	cvbn	-999999	16	330540	0	n	746	331286	188	-171	17	-22	10	15	14	8	8	73	0	0	0	0	4	4	2	2	0	2
Hungry_Donkey_bar_English_2	149	1	<?xml version="1.0"?>\n<Clock xmlns:dt="urn:schemas-microsoft-com:datatypes"><Description dt:dt="string">E-Prime Primary Realtime Clock</Description><StartTime><Timestamp dt:dt="int">0</Timestamp><DateUtc dt:dt="string">2016-06-15T16:35:00Z</DateUtc></StartTime><FrequencyChanges><FrequencyChange><Frequency dt:dt="r8">3507675</Frequency><Timestamp dt:dt="r8">1731477551638</Timestamp><Current dt:dt="r8">0</Current><DateUtc dt:dt="string">2016-06-15T16:35:00Z</DateUtc></FrequencyChange></FrequencyChanges></Clock>\n	Hungry_Donkey_bar_English_2-149-1	60.017	30	1.0.0.18	1	606435794	Standard	2.0.10.353	2.0.10.353	06-15-2016	6/15/2016 4:35:00 PM	12:35:00	2.0.10.248	74	Bar50-50.bmp	53	4	?	0r_4g.bmp	0r_4g.bmp	0r_2g.bmp	0r_2g.bmp				0r_2g.bmp	TrialProc	TrialList	0	cvbn	-999999	16	333323	0	n	891	334214	190	-171	19	-22	10	15	16	6	8	74	0	0	0	0	4	4	2	2	0	2
Hungry_Donkey_bar_English_2	149	1	<?xml version="1.0"?>\n<Clock xmlns:dt="urn:schemas-microsoft-com:datatypes"><Description dt:dt="string">E-Prime Primary Realtime Clock</Description><StartTime><Timestamp dt:dt="int">0</Timestamp><DateUtc dt:dt="string">2016-06-15T16:35:00Z</DateUtc></StartTime><FrequencyChanges><FrequencyChange><Frequency dt:dt="r8">3507675</Frequency><Timestamp dt:dt="r8">1731477551638</Timestamp><Current dt:dt="r8">0</Current><DateUtc dt:dt="string">2016-06-15T16:35:00Z</DateUtc></FrequencyChange></FrequencyChanges></Clock>\n	Hungry_Donkey_bar_English_2-149-1	60.017	30	1.0.0.18	1	606435794	Standard	2.0.10.353	2.0.10.353	06-15-2016	6/15/2016 4:35:00 PM	12:35:00	2.0.10.248	75	Bar50-50.bmp	53	3	?	10r_4g.bmp	0r_4g.bmp	2r_2g.bmp	0r_2g.bmp			2r_2g.bmp		TrialProc	TrialList	0	cvbn	-999999	16	336238	0	b	1607	337845	192	-173	19	-22	10	15	16	4	8	75	-10	0	-2	0	4	4	2	2	-2	2
Hungry_Donkey_bar_English_2	149	1	<?xml version="1.0"?>\n<Clock xmlns:dt="urn:schemas-microsoft-com:datatypes"><Description dt:dt="string">E-Prime Primary Realtime Clock</Description><StartTime><Timestamp dt:dt="int">0</Timestamp><DateUtc dt:dt="string">2016-06-15T16:35:00Z</DateUtc></StartTime><FrequencyChanges><FrequencyChange><Frequency dt:dt="r8">3507675</Frequency><Timestamp dt:dt="r8">1731477551638</Timestamp><Current dt:dt="r8">0</Current><DateUtc dt:dt="string">2016-06-15T16:35:00Z</DateUtc></FrequencyChange></FrequencyChanges></Clock>\n	Hungry_Donkey_bar_English_2-149-1	60.017	30	1.0.0.18	1	606435794	Standard	2.0.10.353	2.0.10.353	06-15-2016	6/15/2016 4:35:00 PM	12:35:00	2.0.10.248	76	Bar50-50.bmp	53	2	?	10r_4g.bmp	0r_4g.bmp	2r_2g.bmp	0r_2g.bmp		0r_4g.bmp			TrialProc	TrialList	0	cvbn	-999999	16	339871	0	v	2070	341941	196	-173	23	-22	14	15	16	2	8	76	-10	0	-2	0	4	4	2	2	0	4
Hungry_Donkey_bar_English_2	149	1	<?xml version="1.0"?>\n<Clock xmlns:dt="urn:schemas-microsoft-com:datatypes"><Description dt:dt="string">E-Prime Primary Realtime Clock</Description><StartTime><Timestamp dt:dt="int">0</Timestamp><DateUtc dt:dt="string">2016-06-15T16:35:00Z</DateUtc></StartTime><FrequencyChanges><FrequencyChange><Frequency dt:dt="r8">3507675</Frequency><Timestamp dt:dt="r8">1731477551638</Timestamp><Current dt:dt="r8">0</Current><DateUtc dt:dt="string">2016-06-15T16:35:00Z</DateUtc></FrequencyChange></FrequencyChanges></Clock>\n	Hungry_Donkey_bar_English_2-149-1	60.017	30	1.0.0.18	1	606435794	Standard	2.0.10.353	2.0.10.353	06-15-2016	6/15/2016 4:35:00 PM	12:35:00	2.0.10.248	77	Bar50-50.bmp	54	2	?	0r_4g.bmp	0r_4g.bmp	0r_2g.bmp	0r_2g.bmp		0r_4g.bmp			TrialProc	TrialList	0	cvbn	-999999	16	343970	0	v	1779	345749	200	-173	27	-22	18	15	16	10	8	77	0	0	0	0	4	4	2	2	0	4
Hungry_Donkey_bar_English_2	149	1	<?xml version="1.0"?>\n<Clock xmlns:dt="urn:schemas-microsoft-com:datatypes"><Description dt:dt="string">E-Prime Primary Realtime Clock</Description><StartTime><Timestamp dt:dt="int">0</Timestamp><DateUtc dt:dt="string">2016-06-15T16:35:00Z</DateUtc></StartTime><FrequencyChanges><FrequencyChange><Frequency dt:dt="r8">3507675</Frequency><Timestamp dt:dt="r8">1731477551638</Timestamp><Current dt:dt="r8">0</Current><DateUtc dt:dt="string">2016-06-15T16:35:00Z</DateUtc></FrequencyChange></FrequencyChanges></Clock>\n	Hungry_Donkey_bar_English_2-149-1	60.017	30	1.0.0.18	1	606435794	Standard	2.0.10.353	2.0.10.353	06-15-2016	6/15/2016 4:35:00 PM	12:35:00	2.0.10.248	78	Bar50-50.bmp	53	3	?	12r_4g.bmp	0r_4g.bmp	3r_2g.bmp	0r_2g.bmp			3r_2g.bmp		TrialProc	TrialList	0	cvbn	-999999	16	347785	0	b	2364	350149	202	-176	26	-22	18	14	16	5	8	78	-12	0	-3	0	4	4	2	2	-3	2
Hungry_Donkey_bar_English_2	149	1	<?xml version="1.0"?>\n<Clock xmlns:dt="urn:schemas-microsoft-com:datatypes"><Description dt:dt="string">E-Prime Primary Realtime Clock</Description><StartTime><Timestamp dt:dt="int">0</Timestamp><DateUtc dt:dt="string">2016-06-15T16:35:00Z</DateUtc></StartTime><FrequencyChanges><FrequencyChange><Frequency dt:dt="r8">3507675</Frequency><Timestamp dt:dt="r8">1731477551638</Timestamp><Current dt:dt="r8">0</Current><DateUtc dt:dt="string">2016-06-15T16:35:00Z</DateUtc></FrequencyChange></FrequencyChanges></Clock>\n	Hungry_Donkey_bar_English_2-149-1	60.017	30	1.0.0.18	1	606435794	Standard	2.0.10.353	2.0.10.353	06-15-2016	6/15/2016 4:35:00 PM	12:35:00	2.0.10.248	79	Bar50-50.bmp	54	2	?	0r_4g.bmp	0r_4g.bmp	0r_2g.bmp	0r_2g.bmp		0r_4g.bmp			TrialProc	TrialList	0	cvbn	-999999	16	352184	0	v	1661	353845	206	-176	30	-22	22	14	16	9	8	79	0	0	0	0	4	4	2	2	0	4
Hungry_Donkey_bar_English_2	149	1	<?xml version="1.0"?>\n<Clock xmlns:dt="urn:schemas-microsoft-com:datatypes"><Description dt:dt="string">E-Prime Primary Realtime Clock</Description><StartTime><Timestamp dt:dt="int">0</Timestamp><DateUtc dt:dt="string">2016-06-15T16:35:00Z</DateUtc></StartTime><FrequencyChanges><FrequencyChange><Frequency dt:dt="r8">3507675</Frequency><Timestamp dt:dt="r8">1731477551638</Timestamp><Current dt:dt="r8">0</Current><DateUtc dt:dt="string">2016-06-15T16:35:00Z</DateUtc></FrequencyChange></FrequencyChanges></Clock>\n	Hungry_Donkey_bar_English_2-149-1	60.017	30	1.0.0.18	1	606435794	Standard	2.0.10.353	2.0.10.353	06-15-2016	6/15/2016 4:35:00 PM	12:35:00	2.0.10.248	80	Bar50-50.bmp	54	4	?	0r_4g.bmp	0r_4g.bmp	0r_2g.bmp	0r_2g.bmp				0r_2g.bmp	TrialProc	TrialList	0	cvbn	-999999	16	355883	0	n	1482	357365	208	-176	32	-22	22	14	18	7	8	80	0	0	0	0	4	4	2	2	0	2
Hungry_Donkey_bar_English_2	149	1	<?xml version="1.0"?>\n<Clock xmlns:dt="urn:schemas-microsoft-com:datatypes"><Description dt:dt="string">E-Prime Primary Realtime Clock</Description><StartTime><Timestamp dt:dt="int">0</Timestamp><DateUtc dt:dt="string">2016-06-15T16:35:00Z</DateUtc></StartTime><FrequencyChanges><FrequencyChange><Frequency dt:dt="r8">3507675</Frequency><Timestamp dt:dt="r8">1731477551638</Timestamp><Current dt:dt="r8">0</Current><DateUtc dt:dt="string">2016-06-15T16:35:00Z</DateUtc></FrequencyChange></FrequencyChanges></Clock>\n	Hungry_Donkey_bar_English_2-149-1	60.017	30	1.0.0.18	1	606435794	Standard	2.0.10.353	2.0.10.353	06-15-2016	6/15/2016 4:35:00 PM	12:35:00	2.0.10.248	81	Bar50-50.bmp	54	3	?	0r_4g.bmp	0r_4g.bmp	0r_2g.bmp	0r_2g.bmp			0r_2g.bmp		TrialProc	TrialList	0	cvbn	-999999	17	359399	0	b	4973	364372	210	-176	34	-22	22	16	18	6	9	81	0	0	0	0	4	4	2	2	0	2
Hungry_Donkey_bar_English_2	149	1	<?xml version="1.0"?>\n<Clock xmlns:dt="urn:schemas-microsoft-com:datatypes"><Description dt:dt="string">E-Prime Primary Realtime Clock</Description><StartTime><Timestamp dt:dt="int">0</Timestamp><DateUtc dt:dt="string">2016-06-15T16:35:00Z</DateUtc></StartTime><FrequencyChanges><FrequencyChange><Frequency dt:dt="r8">3507675</Frequency><Timestamp dt:dt="r8">1731477551638</Timestamp><Current dt:dt="r8">0</Current><DateUtc dt:dt="string">2016-06-15T16:35:00Z</DateUtc></FrequencyChange></FrequencyChanges></Clock>\n	Hungry_Donkey_bar_English_2-149-1	60.017	30	1.0.0.18	1	606435794	Standard	2.0.10.353	2.0.10.353	06-15-2016	6/15/2016 4:35:00 PM	12:35:00	2.0.10.248	82	Bar50-50.bmp	54	3	?	12r_4g.bmp	0r_4g.bmp	3r_2g.bmp	0r_2g.bmp			3r_2g.bmp		TrialProc	TrialList	0	cvbn	-999999	16	366397	0	b	1031	367428	212	-179	33	-22	22	15	18	5	9	82	-12	0	-3	0	4	4	2	2	-3	2
Hungry_Donkey_bar_English_2	149	1	<?xml version="1.0"?>\n<Clock xmlns:dt="urn:schemas-microsoft-com:datatypes"><Description dt:dt="string">E-Prime Primary Realtime Clock</Description><StartTime><Timestamp dt:dt="int">0</Timestamp><DateUtc dt:dt="string">2016-06-15T16:35:00Z</DateUtc></StartTime><FrequencyChanges><FrequencyChange><Frequency dt:dt="r8">3507675</Frequency><Timestamp dt:dt="r8">1731477551638</Timestamp><Current dt:dt="r8">0</Current><DateUtc dt:dt="string">2016-06-15T16:35:00Z</DateUtc></FrequencyChange></FrequencyChanges></Clock>\n	Hungry_Donkey_bar_English_2-149-1	60.017	30	1.0.0.18	1	606435794	Standard	2.0.10.353	2.0.10.353	06-15-2016	6/15/2016 4:35:00 PM	12:35:00	2.0.10.248	83	Bar50-50.bmp	53	4	?	8r_4g.bmp	50r_4g.bmp	1r_2g.bmp	10r_2g.bmp				10r_2g.bmp	TrialProc	TrialList	0	cvbn	-999999	16	369462	0	n	3694	373156	214	-189	25	-22	22	15	10	1	9	83	-8	-50	-1	-10	4	4	2	2	-10	2
Hungry_Donkey_bar_English_2	149	1	<?xml version="1.0"?>\n<Clock xmlns:dt="urn:schemas-microsoft-com:datatypes"><Description dt:dt="string">E-Prime Primary Realtime Clock</Description><StartTime><Timestamp dt:dt="int">0</Timestamp><DateUtc dt:dt="string">2016-06-15T16:35:00Z</DateUtc></StartTime><FrequencyChanges><FrequencyChange><Frequency dt:dt="r8">3507675</Frequency><Timestamp dt:dt="r8">1731477551638</Timestamp><Current dt:dt="r8">0</Current><DateUtc dt:dt="string">2016-06-15T16:35:00Z</DateUtc></FrequencyChange></FrequencyChanges></Clock>\n	Hungry_Donkey_bar_English_2-149-1	60.017	30	1.0.0.18	1	606435794	Standard	2.0.10.353	2.0.10.353	06-15-2016	6/15/2016 4:35:00 PM	12:35:00	2.0.10.248	84	Bar50-50.bmp	53	3	?	10r_4g.bmp	0r_4g.bmp	2r_2g.bmp	0r_2g.bmp			2r_2g.bmp		TrialProc	TrialList	0	cvbn	-999999	16	375194	0	b	1690	376884	216	-191	25	-22	22	15	10	3	9	84	-10	0	-2	0	4	4	2	2	-2	2
Hungry_Donkey_bar_English_2	149	1	<?xml version="1.0"?>\n<Clock xmlns:dt="urn:schemas-microsoft-com:datatypes"><Description dt:dt="string">E-Prime Primary Realtime Clock</Description><StartTime><Timestamp dt:dt="int">0</Timestamp><DateUtc dt:dt="string">2016-06-15T16:35:00Z</DateUtc></StartTime><FrequencyChanges><FrequencyChange><Frequency dt:dt="r8">3507675</Frequency><Timestamp dt:dt="r8">1731477551638</Timestamp><Current dt:dt="r8">0</Current><DateUtc dt:dt="string">2016-06-15T16:35:00Z</DateUtc></FrequencyChange></FrequencyChanges></Clock>\n	Hungry_Donkey_bar_English_2-149-1	60.017	30	1.0.0.18	1	606435794	Standard	2.0.10.353	2.0.10.353	06-15-2016	6/15/2016 4:35:00 PM	12:35:00	2.0.10.248	85	Bar50-50.bmp	54	2	?	0r_4g.bmp	0r_4g.bmp	0r_2g.bmp	0r_2g.bmp		0r_4g.bmp			TrialProc	TrialList	0	cvbn	-999999	16	378910	0	v	1573	380483	220	-191	29	-22	26	15	10	9	9	85	0	0	0	0	4	4	2	2	0	4
Hungry_Donkey_bar_English_2	149	1	<?xml version="1.0"?>\n<Clock xmlns:dt="urn:schemas-microsoft-com:datatypes"><Description dt:dt="string">E-Prime Primary Realtime Clock</Description><StartTime><Timestamp dt:dt="int">0</Timestamp><DateUtc dt:dt="string">2016-06-15T16:35:00Z</DateUtc></StartTime><FrequencyChanges><FrequencyChange><Frequency dt:dt="r8">3507675</Frequency><Timestamp dt:dt="r8">1731477551638</Timestamp><Current dt:dt="r8">0</Current><DateUtc dt:dt="string">2016-06-15T16:35:00Z</DateUtc></FrequencyChange></FrequencyChanges></Clock>\n	Hungry_Donkey_bar_English_2-149-1	60.017	30	1.0.0.18	1	606435794	Standard	2.0.10.353	2.0.10.353	06-15-2016	6/15/2016 4:35:00 PM	12:35:00	2.0.10.248	86	Bar50-50.bmp	53	1	?	10r_4g.bmp	0r_4g.bmp	2r_2g.bmp	0r_2g.bmp	10r_4g.bmp				TrialProc	TrialList	0	cvbn	-999999	17	382509	0	c	2470	384979	224	-201	23	-28	26	15	10	2	9	86	-10	0	-2	0	4	4	2	2	-10	4
Hungry_Donkey_bar_English_2	149	1	<?xml version="1.0"?>\n<Clock xmlns:dt="urn:schemas-microsoft-com:datatypes"><Description dt:dt="string">E-Prime Primary Realtime Clock</Description><StartTime><Timestamp dt:dt="int">0</Timestamp><DateUtc dt:dt="string">2016-06-15T16:35:00Z</DateUtc></StartTime><FrequencyChanges><FrequencyChange><Frequency dt:dt="r8">3507675</Frequency><Timestamp dt:dt="r8">1731477551638</Timestamp><Current dt:dt="r8">0</Current><DateUtc dt:dt="string">2016-06-15T16:35:00Z</DateUtc></FrequencyChange></FrequencyChanges></Clock>\n	Hungry_Donkey_bar_English_2-149-1	60.017	30	1.0.0.18	1	606435794	Standard	2.0.10.353	2.0.10.353	06-15-2016	6/15/2016 4:35:00 PM	12:35:00	2.0.10.248	87	Bar50-50.bmp	53	3	?	0r_4g.bmp	0r_4g.bmp	0r_2g.bmp	0r_2g.bmp			0r_2g.bmp		TrialProc	TrialList	0	cvbn	-999999	16	387007	0	b	1524	388531	226	-201	25	-28	26	17	10	8	9	87	0	0	0	0	4	4	2	2	0	2
Hungry_Donkey_bar_English_2	149	1	<?xml version="1.0"?>\n<Clock xmlns:dt="urn:schemas-microsoft-com:datatypes"><Description dt:dt="string">E-Prime Primary Realtime Clock</Description><StartTime><Timestamp dt:dt="int">0</Timestamp><DateUtc dt:dt="string">2016-06-15T16:35:00Z</DateUtc></StartTime><FrequencyChanges><FrequencyChange><Frequency dt:dt="r8">3507675</Frequency><Timestamp dt:dt="r8">1731477551638</Timestamp><Current dt:dt="r8">0</Current><DateUtc dt:dt="string">2016-06-15T16:35:00Z</DateUtc></FrequencyChange></FrequencyChanges></Clock>\n	Hungry_Donkey_bar_English_2-149-1	60.017	30	1.0.0.18	1	606435794	Standard	2.0.10.353	2.0.10.353	06-15-2016	6/15/2016 4:35:00 PM	12:35:00	2.0.10.248	88	Bar50-50.bmp	53	4	?	0r_4g.bmp	0r_4g.bmp	0r_2g.bmp	0r_2g.bmp				0r_2g.bmp	TrialProc	TrialList	0	cvbn	-999999	16	390556	0	n	2087	392643	228	-201	27	-28	26	17	12	10	9	88	0	0	0	0	4	4	2	2	0	2
Hungry_Donkey_bar_English_2	149	1	<?xml version="1.0"?>\n<Clock xmlns:dt="urn:schemas-microsoft-com:datatypes"><Description dt:dt="string">E-Prime Primary Realtime Clock</Description><StartTime><Timestamp dt:dt="int">0</Timestamp><DateUtc dt:dt="string">2016-06-15T16:35:00Z</DateUtc></StartTime><FrequencyChanges><FrequencyChange><Frequency dt:dt="r8">3507675</Frequency><Timestamp dt:dt="r8">1731477551638</Timestamp><Current dt:dt="r8">0</Current><DateUtc dt:dt="string">2016-06-15T16:35:00Z</DateUtc></FrequencyChange></FrequencyChanges></Clock>\n	Hungry_Donkey_bar_English_2-149-1	60.017	30	1.0.0.18	1	606435794	Standard	2.0.10.353	2.0.10.353	06-15-2016	6/15/2016 4:35:00 PM	12:35:00	2.0.10.248	89	Bar50-50.bmp	53	4	?	0r_4g.bmp	0r_4g.bmp	0r_2g.bmp	0r_2g.bmp				0r_2g.bmp	TrialProc	TrialList	0	cvbn	-999999	16	394672	0	n	1843	396515	230	-201	29	-28	26	17	14	7	9	89	0	0	0	0	4	4	2	2	0	2
Hungry_Donkey_bar_English_2	149	1	<?xml version="1.0"?>\n<Clock xmlns:dt="urn:schemas-microsoft-com:datatypes"><Description dt:dt="string">E-Prime Primary Realtime Clock</Description><StartTime><Timestamp dt:dt="int">0</Timestamp><DateUtc dt:dt="string">2016-06-15T16:35:00Z</DateUtc></StartTime><FrequencyChanges><FrequencyChange><Frequency dt:dt="r8">3507675</Frequency><Timestamp dt:dt="r8">1731477551638</Timestamp><Current dt:dt="r8">0</Current><DateUtc dt:dt="string">2016-06-15T16:35:00Z</DateUtc></FrequencyChange></FrequencyChanges></Clock>\n	Hungry_Donkey_bar_English_2-149-1	60.017	30	1.0.0.18	1	606435794	Standard	2.0.10.353	2.0.10.353	06-15-2016	6/15/2016 4:35:00 PM	12:35:00	2.0.10.248	90	Bar50-50.bmp	54	4	?	10r_4g.bmp	0r_4g.bmp	2r_2g.bmp	0r_2g.bmp				0r_2g.bmp	TrialProc	TrialList	0	cvbn	-999999	16	398554	0	n	281	398835	232	-201	31	-28	26	17	16	4	9	90	-10	0	-2	0	4	4	2	2	0	2
Hungry_Donkey_bar_English_2	149	1	<?xml version="1.0"?>\n<Clock xmlns:dt="urn:schemas-microsoft-com:datatypes"><Description dt:dt="string">E-Prime Primary Realtime Clock</Description><StartTime><Timestamp dt:dt="int">0</Timestamp><DateUtc dt:dt="string">2016-06-15T16:35:00Z</DateUtc></StartTime><FrequencyChanges><FrequencyChange><Frequency dt:dt="r8">3507675</Frequency><Timestamp dt:dt="r8">1731477551638</Timestamp><Current dt:dt="r8">0</Current><DateUtc dt:dt="string">2016-06-15T16:35:00Z</DateUtc></FrequencyChange></FrequencyChanges></Clock>\n	Hungry_Donkey_bar_English_2-149-1	60.017	30	1.0.0.18	1	606435794	Standard	2.0.10.353	2.0.10.353	06-15-2016	6/15/2016 4:35:00 PM	12:35:00	2.0.10.248	91	Bar50-50.bmp	54	3	?	8r_4g.bmp	50r_4g.bmp	1r_2g.bmp	10r_2g.bmp			1r_2g.bmp		TrialProc	TrialList	0	cvbn	-999999	16	400870	0	b	828	401698	234	-202	32	-28	26	18	16	1	10	91	-8	-50	-1	-10	4	4	2	2	-1	2
Hungry_Donkey_bar_English_2	149	1	<?xml version="1.0"?>\n<Clock xmlns:dt="urn:schemas-microsoft-com:datatypes"><Description dt:dt="string">E-Prime Primary Realtime Clock</Description><StartTime><Timestamp dt:dt="int">0</Timestamp><DateUtc dt:dt="string">2016-06-15T16:35:00Z</DateUtc></StartTime><FrequencyChanges><FrequencyChange><Frequency dt:dt="r8">3507675</Frequency><Timestamp dt:dt="r8">1731477551638</Timestamp><Current dt:dt="r8">0</Current><DateUtc dt:dt="string">2016-06-15T16:35:00Z</DateUtc></FrequencyChange></FrequencyChanges></Clock>\n	Hungry_Donkey_bar_English_2-149-1	60.017	30	1.0.0.18	1	606435794	Standard	2.0.10.353	2.0.10.353	06-15-2016	6/15/2016 4:35:00 PM	12:35:00	2.0.10.248	92	Bar50-50.bmp	54	4	?	0r_4g.bmp	0r_4g.bmp	0r_2g.bmp	0r_2g.bmp				0r_2g.bmp	TrialProc	TrialList	0	cvbn	-999999	16	403736	0	n	2154	405890	236	-202	34	-28	26	18	18	9	10	92	0	0	0	0	4	4	2	2	0	2
Hungry_Donkey_bar_English_2	149	1	<?xml version="1.0"?>\n<Clock xmlns:dt="urn:schemas-microsoft-com:datatypes"><Description dt:dt="string">E-Prime Primary Realtime Clock</Description><StartTime><Timestamp dt:dt="int">0</Timestamp><DateUtc dt:dt="string">2016-06-15T16:35:00Z</DateUtc></StartTime><FrequencyChanges><FrequencyChange><Frequency dt:dt="r8">3507675</Frequency><Timestamp dt:dt="r8">1731477551638</Timestamp><Current dt:dt="r8">0</Current><DateUtc dt:dt="string">2016-06-15T16:35:00Z</DateUtc></FrequencyChange></FrequencyChanges></Clock>\n	Hungry_Donkey_bar_English_2-149-1	60.017	30	1.0.0.18	1	606435794	Standard	2.0.10.353	2.0.10.353	06-15-2016	6/15/2016 4:35:00 PM	12:35:00	2.0.10.248	93	Bar50-50.bmp	54	2	?	0r_4g.bmp	0r_4g.bmp	0r_2g.bmp	0r_2g.bmp		0r_4g.bmp			TrialProc	TrialList	0	cvbn	-999999	16	407918	0	v	2596	410514	240	-202	38	-28	30	18	18	8	10	93	0	0	0	0	4	4	2	2	0	4
Hungry_Donkey_bar_English_2	149	1	<?xml version="1.0"?>\n<Clock xmlns:dt="urn:schemas-microsoft-com:datatypes"><Description dt:dt="string">E-Prime Primary Realtime Clock</Description><StartTime><Timestamp dt:dt="int">0</Timestamp><DateUtc dt:dt="string">2016-06-15T16:35:00Z</DateUtc></StartTime><FrequencyChanges><FrequencyChange><Frequency dt:dt="r8">3507675</Frequency><Timestamp dt:dt="r8">1731477551638</Timestamp><Current dt:dt="r8">0</Current><DateUtc dt:dt="string">2016-06-15T16:35:00Z</DateUtc></FrequencyChange></FrequencyChanges></Clock>\n	Hungry_Donkey_bar_English_2-149-1	60.017	30	1.0.0.18	1	606435794	Standard	2.0.10.353	2.0.10.353	06-15-2016	6/15/2016 4:35:00 PM	12:35:00	2.0.10.248	94	Bar50-50.bmp	55	4	?	0r_4g.bmp	0r_4g.bmp	0r_2g.bmp	0r_2g.bmp				0r_2g.bmp	TrialProc	TrialList	0	cvbn	-999999	16	412550	0	n	1692	414242	242	-202	40	-28	30	18	20	10	10	94	0	0	0	0	4	4	2	2	0	2
Hungry_Donkey_bar_English_2	149	1	<?xml version="1.0"?>\n<Clock xmlns:dt="urn:schemas-microsoft-com:datatypes"><Description dt:dt="string">E-Prime Primary Realtime Clock</Description><StartTime><Timestamp dt:dt="int">0</Timestamp><DateUtc dt:dt="string">2016-06-15T16:35:00Z</DateUtc></StartTime><FrequencyChanges><FrequencyChange><Frequency dt:dt="r8">3507675</Frequency><Timestamp dt:dt="r8">1731477551638</Timestamp><Current dt:dt="r8">0</Current><DateUtc dt:dt="string">2016-06-15T16:35:00Z</DateUtc></FrequencyChange></FrequencyChanges></Clock>\n	Hungry_Donkey_bar_English_2-149-1	60.017	30	1.0.0.18	1	606435794	Standard	2.0.10.353	2.0.10.353	06-15-2016	6/15/2016 4:35:00 PM	12:35:00	2.0.10.248	95	Bar50-50.bmp	55	3	?	0r_4g.bmp	0r_4g.bmp	0r_2g.bmp	0r_2g.bmp			0r_2g.bmp		TrialProc	TrialList	0	cvbn	-999999	16	416266	0	b	2456	418722	244	-202	42	-28	30	20	20	7	10	95	0	0	0	0	4	4	2	2	0	2
Hungry_Donkey_bar_English_2	149	1	<?xml version="1.0"?>\n<Clock xmlns:dt="urn:schemas-microsoft-com:datatypes"><Description dt:dt="string">E-Prime Primary Realtime Clock</Description><StartTime><Timestamp dt:dt="int">0</Timestamp><DateUtc dt:dt="string">2016-06-15T16:35:00Z</DateUtc></StartTime><FrequencyChanges><FrequencyChange><Frequency dt:dt="r8">3507675</Frequency><Timestamp dt:dt="r8">1731477551638</Timestamp><Current dt:dt="r8">0</Current><DateUtc dt:dt="string">2016-06-15T16:35:00Z</DateUtc></FrequencyChange></FrequencyChanges></Clock>\n	Hungry_Donkey_bar_English_2-149-1	60.017	30	1.0.0.18	1	606435794	Standard	2.0.10.353	2.0.10.353	06-15-2016	6/15/2016 4:35:00 PM	12:35:00	2.0.10.248	96	Bar50-50.bmp	55	4	?	10r_4g.bmp	0r_4g.bmp	2r_2g.bmp	0r_2g.bmp				0r_2g.bmp	TrialProc	TrialList	0	cvbn	-999999	16	420748	0	n	1269	422017	246	-202	44	-28	30	20	22	3	10	96	-10	0	-2	0	4	4	2	2	0	2
Hungry_Donkey_bar_English_2	149	1	<?xml version="1.0"?>\n<Clock xmlns:dt="urn:schemas-microsoft-com:datatypes"><Description dt:dt="string">E-Prime Primary Realtime Clock</Description><StartTime><Timestamp dt:dt="int">0</Timestamp><DateUtc dt:dt="string">2016-06-15T16:35:00Z</DateUtc></StartTime><FrequencyChanges><FrequencyChange><Frequency dt:dt="r8">3507675</Frequency><Timestamp dt:dt="r8">1731477551638</Timestamp><Current dt:dt="r8">0</Current><DateUtc dt:dt="string">2016-06-15T16:35:00Z</DateUtc></FrequencyChange></FrequencyChanges></Clock>\n	Hungry_Donkey_bar_English_2-149-1	60.017	30	1.0.0.18	1	606435794	Standard	2.0.10.353	2.0.10.353	06-15-2016	6/15/2016 4:35:00 PM	12:35:00	2.0.10.248	97	Bar50-50.bmp	55	3	?	0r_4g.bmp	0r_4g.bmp	0r_2g.bmp	0r_2g.bmp			0r_2g.bmp		TrialProc	TrialList	0	cvbn	-999999	16	424047	0	b	1810	425857	248	-202	46	-28	30	22	22	6	10	97	0	0	0	0	4	4	2	2	0	2
Hungry_Donkey_bar_English_2	149	1	<?xml version="1.0"?>\n<Clock xmlns:dt="urn:schemas-microsoft-com:datatypes"><Description dt:dt="string">E-Prime Primary Realtime Clock</Description><StartTime><Timestamp dt:dt="int">0</Timestamp><DateUtc dt:dt="string">2016-06-15T16:35:00Z</DateUtc></StartTime><FrequencyChanges><FrequencyChange><Frequency dt:dt="r8">3507675</Frequency><Timestamp dt:dt="r8">1731477551638</Timestamp><Current dt:dt="r8">0</Current><DateUtc dt:dt="string">2016-06-15T16:35:00Z</DateUtc></FrequencyChange></FrequencyChanges></Clock>\n	Hungry_Donkey_bar_English_2-149-1	60.017	30	1.0.0.18	1	606435794	Standard	2.0.10.353	2.0.10.353	06-15-2016	6/15/2016 4:35:00 PM	12:35:00	2.0.10.248	98	Bar50-50.bmp	56	2	?	12r_4g.bmp	0r_4g.bmp	3r_2g.bmp	0r_2g.bmp		0r_4g.bmp			TrialProc	TrialList	0	cvbn	-999999	16	427896	0	v	1241	429137	252	-202	50	-28	34	22	22	5	10	98	-12	0	-3	0	4	4	2	2	0	4
Hungry_Donkey_bar_English_2	149	1	<?xml version="1.0"?>\n<Clock xmlns:dt="urn:schemas-microsoft-com:datatypes"><Description dt:dt="string">E-Prime Primary Realtime Clock</Description><StartTime><Timestamp dt:dt="int">0</Timestamp><DateUtc dt:dt="string">2016-06-15T16:35:00Z</DateUtc></StartTime><FrequencyChanges><FrequencyChange><Frequency dt:dt="r8">3507675</Frequency><Timestamp dt:dt="r8">1731477551638</Timestamp><Current dt:dt="r8">0</Current><DateUtc dt:dt="string">2016-06-15T16:35:00Z</DateUtc></FrequencyChange></FrequencyChanges></Clock>\n	Hungry_Donkey_bar_English_2-149-1	60.017	30	1.0.0.18	1	606435794	Standard	2.0.10.353	2.0.10.353	06-15-2016	6/15/2016 4:35:00 PM	12:35:00	2.0.10.248	99	Bar50-50.bmp	55	3	?	10r_4g.bmp	0r_4g.bmp	2r_2g.bmp	0r_2g.bmp			2r_2g.bmp		TrialProc	TrialList	0	cvbn	-999999	16	431161	0	b	1528	432689	254	-204	50	-28	34	22	22	2	10	99	-10	0	-2	0	4	4	2	2	-2	2
Hungry_Donkey_bar_English_2	149	1	<?xml version="1.0"?>\n<Clock xmlns:dt="urn:schemas-microsoft-com:datatypes"><Description dt:dt="string">E-Prime Primary Realtime Clock</Description><StartTime><Timestamp dt:dt="int">0</Timestamp><DateUtc dt:dt="string">2016-06-15T16:35:00Z</DateUtc></StartTime><FrequencyChanges><FrequencyChange><Frequency dt:dt="r8">3507675</Frequency><Timestamp dt:dt="r8">1731477551638</Timestamp><Current dt:dt="r8">0</Current><DateUtc dt:dt="string">2016-06-15T16:35:00Z</DateUtc></FrequencyChange></FrequencyChanges></Clock>\n	Hungry_Donkey_bar_English_2-149-1	60.017	30	1.0.0.18	1	606435794	Standard	2.0.10.353	2.0.10.353	06-15-2016	6/15/2016 4:35:00 PM	12:35:00	2.0.10.248	100	Bar50-50.bmp	56	4	?	10r_4g.bmp	0r_4g.bmp	2r_2g.bmp	0r_2g.bmp				0r_2g.bmp	TrialProc	TrialList	0	cvbn	-999999	16	434727	0	n	1210	435937	256	-204	52	-28	34	22	24	4	10	100	-10	0	-2	0	4	4	2	2	0	2
Hungry_Donkey_bar_English_2	149	1	<?xml version="1.0"?>\n<Clock xmlns:dt="urn:schemas-microsoft-com:datatypes"><Description dt:dt="string">E-Prime Primary Realtime Clock</Description><StartTime><Timestamp dt:dt="int">0</Timestamp><DateUtc dt:dt="string">2016-06-15T16:35:00Z</DateUtc></StartTime><FrequencyChanges><FrequencyChange><Frequency dt:dt="r8">3507675</Frequency><Timestamp dt:dt="r8">1731477551638</Timestamp><Current dt:dt="r8">0</Current><DateUtc dt:dt="string">2016-06-15T16:35:00Z</DateUtc></FrequencyChange></FrequencyChanges></Clock>\n	Hungry_Donkey_bar_English_2-149-1	60.017	30	1.0.0.18	1	606435794	Standard	2.0.10.353	2.0.10.353	06-15-2016	6/15/2016 4:35:00 PM	12:35:00	2.0.10.248	101	Bar50-50.bmp	56	4	?	12r_4g.bmp	0r_4g.bmp	3r_2g.bmp	0r_2g.bmp				0r_2g.bmp	TrialProc	TrialList	0	cvbn	-999999	16	437976	0	n	6488	444464	258	-204	54	-28	34	22	26	5	11	101	-12	0	-3	0	4	4	2	2	0	2
Hungry_Donkey_bar_English_2	149	1	<?xml version="1.0"?>\n<Clock xmlns:dt="urn:schemas-microsoft-com:datatypes"><Description dt:dt="string">E-Prime Primary Realtime Clock</Description><StartTime><Timestamp dt:dt="int">0</Timestamp><DateUtc dt:dt="string">2016-06-15T16:35:00Z</DateUtc></StartTime><FrequencyChanges><FrequencyChange><Frequency dt:dt="r8">3507675</Frequency><Timestamp dt:dt="r8">1731477551638</Timestamp><Current dt:dt="r8">0</Current><DateUtc dt:dt="string">2016-06-15T16:35:00Z</DateUtc></FrequencyChange></FrequencyChanges></Clock>\n	Hungry_Donkey_bar_English_2-149-1	60.017	30	1.0.0.18	1	606435794	Standard	2.0.10.353	2.0.10.353	06-15-2016	6/15/2016 4:35:00 PM	12:35:00	2.0.10.248	102	Bar50-50.bmp	56	2	?	10r_4g.bmp	0r_4g.bmp	2r_2g.bmp	0r_2g.bmp		0r_4g.bmp			TrialProc	TrialList	0	cvbn	-999999	16	446490	0	v	2742	449232	262	-204	58	-28	38	22	26	3	11	102	-10	0	-2	0	4	4	2	2	0	4
Hungry_Donkey_bar_English_2	149	1	<?xml version="1.0"?>\n<Clock xmlns:dt="urn:schemas-microsoft-com:datatypes"><Description dt:dt="string">E-Prime Primary Realtime Clock</Description><StartTime><Timestamp dt:dt="int">0</Timestamp><DateUtc dt:dt="string">2016-06-15T16:35:00Z</DateUtc></StartTime><FrequencyChanges><FrequencyChange><Frequency dt:dt="r8">3507675</Frequency><Timestamp dt:dt="r8">1731477551638</Timestamp><Current dt:dt="r8">0</Current><DateUtc dt:dt="string">2016-06-15T16:35:00Z</DateUtc></FrequencyChange></FrequencyChanges></Clock>\n	Hungry_Donkey_bar_English_2-149-1	60.017	30	1.0.0.18	1	606435794	Standard	2.0.10.353	2.0.10.353	06-15-2016	6/15/2016 4:35:00 PM	12:35:00	2.0.10.248	103	Bar50-50.bmp	56	3	?	0r_4g.bmp	0r_4g.bmp	0r_2g.bmp	0r_2g.bmp			0r_2g.bmp		TrialProc	TrialList	0	cvbn	-999999	16	451272	0	b	2632	453904	264	-204	60	-28	38	24	26	8	11	103	0	0	0	0	4	4	2	2	0	2
Hungry_Donkey_bar_English_2	149	1	<?xml version="1.0"?>\n<Clock xmlns:dt="urn:schemas-microsoft-com:datatypes"><Description dt:dt="string">E-Prime Primary Realtime Clock</Description><StartTime><Timestamp dt:dt="int">0</Timestamp><DateUtc dt:dt="string">2016-06-15T16:35:00Z</DateUtc></StartTime><FrequencyChanges><FrequencyChange><Frequency dt:dt="r8">3507675</Frequency><Timestamp dt:dt="r8">1731477551638</Timestamp><Current dt:dt="r8">0</Current><DateUtc dt:dt="string">2016-06-15T16:35:00Z</DateUtc></FrequencyChange></FrequencyChanges></Clock>\n	Hungry_Donkey_bar_English_2-149-1	60.017	30	1.0.0.18	1	606435794	Standard	2.0.10.353	2.0.10.353	06-15-2016	6/15/2016 4:35:00 PM	12:35:00	2.0.10.248	104	Bar63-37.bmp	57	4	?	10r_4g.bmp	0r_4g.bmp	2r_2g.bmp	0r_2g.bmp				0r_2g.bmp	TrialProc	TrialList	0	cvbn	-999999	16	455938	0	n	2158	458096	266	-204	62	-28	38	24	28	2	11	104	-10	0	-2	0	4	4	2	2	0	2
Hungry_Donkey_bar_English_2	149	1	<?xml version="1.0"?>\n<Clock xmlns:dt="urn:schemas-microsoft-com:datatypes"><Description dt:dt="string">E-Prime Primary Realtime Clock</Description><StartTime><Timestamp dt:dt="int">0</Timestamp><DateUtc dt:dt="string">2016-06-15T16:35:00Z</DateUtc></StartTime><FrequencyChanges><FrequencyChange><Frequency dt:dt="r8">3507675</Frequency><Timestamp dt:dt="r8">1731477551638</Timestamp><Current dt:dt="r8">0</Current><DateUtc dt:dt="string">2016-06-15T16:35:00Z</DateUtc></FrequencyChange></FrequencyChanges></Clock>\n	Hungry_Donkey_bar_English_2-149-1	60.017	30	1.0.0.18	1	606435794	Standard	2.0.10.353	2.0.10.353	06-15-2016	6/15/2016 4:35:00 PM	12:35:00	2.0.10.248	105	Bar63-37.bmp	57	3	?	0r_4g.bmp	0r_4g.bmp	0r_2g.bmp	0r_2g.bmp			0r_2g.bmp		TrialProc	TrialList	0	cvbn	-999999	16	460136	0	b	664	460800	268	-204	64	-28	38	26	28	7	11	105	0	0	0	0	4	4	2	2	0	2
Hungry_Donkey_bar_English_2	149	1	<?xml version="1.0"?>\n<Clock xmlns:dt="urn:schemas-microsoft-com:datatypes"><Description dt:dt="string">E-Prime Primary Realtime Clock</Description><StartTime><Timestamp dt:dt="int">0</Timestamp><DateUtc dt:dt="string">2016-06-15T16:35:00Z</DateUtc></StartTime><FrequencyChanges><FrequencyChange><Frequency dt:dt="r8">3507675</Frequency><Timestamp dt:dt="r8">1731477551638</Timestamp><Current dt:dt="r8">0</Current><DateUtc dt:dt="string">2016-06-15T16:35:00Z</DateUtc></FrequencyChange></FrequencyChanges></Clock>\n	Hungry_Donkey_bar_English_2-149-1	60.017	30	1.0.0.18	1	606435794	Standard	2.0.10.353	2.0.10.353	06-15-2016	6/15/2016 4:35:00 PM	12:35:00	2.0.10.248	106	Bar63-37.bmp	57	2	?	0r_4g.bmp	0r_4g.bmp	0r_2g.bmp	0r_2g.bmp		0r_4g.bmp			TrialProc	TrialList	0	cvbn	-999999	16	462836	0	v	2299	465135	272	-204	68	-28	42	26	28	10	11	106	0	0	0	0	4	4	2	2	0	4
Hungry_Donkey_bar_English_2	149	1	<?xml version="1.0"?>\n<Clock xmlns:dt="urn:schemas-microsoft-com:datatypes"><Description dt:dt="string">E-Prime Primary Realtime Clock</Description><StartTime><Timestamp dt:dt="int">0</Timestamp><DateUtc dt:dt="string">2016-06-15T16:35:00Z</DateUtc></StartTime><FrequencyChanges><FrequencyChange><Frequency dt:dt="r8">3507675</Frequency><Timestamp dt:dt="r8">1731477551638</Timestamp><Current dt:dt="r8">0</Current><DateUtc dt:dt="string">2016-06-15T16:35:00Z</DateUtc></FrequencyChange></FrequencyChanges></Clock>\n	Hungry_Donkey_bar_English_2-149-1	60.017	30	1.0.0.18	1	606435794	Standard	2.0.10.353	2.0.10.353	06-15-2016	6/15/2016 4:35:00 PM	12:35:00	2.0.10.248	107	Bar63-37.bmp	57	3	?	8r_4g.bmp	50r_4g.bmp	1r_2g.bmp	10r_2g.bmp			1r_2g.bmp		TrialProc	TrialList	0	cvbn	-999999	16	467168	0	b	3583	470751	274	-205	69	-28	42	27	28	1	11	107	-8	-50	-1	-10	4	4	2	2	-1	2
Hungry_Donkey_bar_English_2	149	1	<?xml version="1.0"?>\n<Clock xmlns:dt="urn:schemas-microsoft-com:datatypes"><Description dt:dt="string">E-Prime Primary Realtime Clock</Description><StartTime><Timestamp dt:dt="int">0</Timestamp><DateUtc dt:dt="string">2016-06-15T16:35:00Z</DateUtc></StartTime><FrequencyChanges><FrequencyChange><Frequency dt:dt="r8">3507675</Frequency><Timestamp dt:dt="r8">1731477551638</Timestamp><Current dt:dt="r8">0</Current><DateUtc dt:dt="string">2016-06-15T16:35:00Z</DateUtc></FrequencyChange></FrequencyChanges></Clock>\n	Hungry_Donkey_bar_English_2-149-1	60.017	30	1.0.0.18	1	606435794	Standard	2.0.10.353	2.0.10.353	06-15-2016	6/15/2016 4:35:00 PM	12:35:00	2.0.10.248	108	Bar63-37.bmp	57	4	?	0r_4g.bmp	0r_4g.bmp	0r_2g.bmp	0r_2g.bmp				0r_2g.bmp	TrialProc	TrialList	0	cvbn	-999999	16	472783	0	n	1632	474415	276	-205	71	-28	42	27	30	9	11	108	0	0	0	0	4	4	2	2	0	2
Hungry_Donkey_bar_English_2	149	1	<?xml version="1.0"?>\n<Clock xmlns:dt="urn:schemas-microsoft-com:datatypes"><Description dt:dt="string">E-Prime Primary Realtime Clock</Description><StartTime><Timestamp dt:dt="int">0</Timestamp><DateUtc dt:dt="string">2016-06-15T16:35:00Z</DateUtc></StartTime><FrequencyChanges><FrequencyChange><Frequency dt:dt="r8">3507675</Frequency><Timestamp dt:dt="r8">1731477551638</Timestamp><Current dt:dt="r8">0</Current><DateUtc dt:dt="string">2016-06-15T16:35:00Z</DateUtc></FrequencyChange></FrequencyChanges></Clock>\n	Hungry_Donkey_bar_English_2-149-1	60.017	30	1.0.0.18	1	606435794	Standard	2.0.10.353	2.0.10.353	06-15-2016	6/15/2016 4:35:00 PM	12:35:00	2.0.10.248	109	Bar63-37.bmp	58	2	?	10r_4g.bmp	0r_4g.bmp	2r_2g.bmp	0r_2g.bmp		0r_4g.bmp			TrialProc	TrialList	0	cvbn	-999999	16	476448	0	v	2959	479407	280	-205	75	-28	46	27	30	4	11	109	-10	0	-2	0	4	4	2	2	0	4
Hungry_Donkey_bar_English_2	149	1	<?xml version="1.0"?>\n<Clock xmlns:dt="urn:schemas-microsoft-com:datatypes"><Description dt:dt="string">E-Prime Primary Realtime Clock</Description><StartTime><Timestamp dt:dt="int">0</Timestamp><DateUtc dt:dt="string">2016-06-15T16:35:00Z</DateUtc></StartTime><FrequencyChanges><FrequencyChange><Frequency dt:dt="r8">3507675</Frequency><Timestamp dt:dt="r8">1731477551638</Timestamp><Current dt:dt="r8">0</Current><DateUtc dt:dt="string">2016-06-15T16:35:00Z</DateUtc></FrequencyChange></FrequencyChanges></Clock>\n	Hungry_Donkey_bar_English_2-149-1	60.017	30	1.0.0.18	1	606435794	Standard	2.0.10.353	2.0.10.353	06-15-2016	6/15/2016 4:35:00 PM	12:35:00	2.0.10.248	110	Bar63-37.bmp	58	4	?	0r_4g.bmp	0r_4g.bmp	0r_2g.bmp	0r_2g.bmp				0r_2g.bmp	TrialProc	TrialList	0	cvbn	-999999	15	481430	0	n	1720	483150	282	-205	77	-28	46	27	32	6	11	110	0	0	0	0	4	4	2	2	0	2
Hungry_Donkey_bar_English_2	149	1	<?xml version="1.0"?>\n<Clock xmlns:dt="urn:schemas-microsoft-com:datatypes"><Description dt:dt="string">E-Prime Primary Realtime Clock</Description><StartTime><Timestamp dt:dt="int">0</Timestamp><DateUtc dt:dt="string">2016-06-15T16:35:00Z</DateUtc></StartTime><FrequencyChanges><FrequencyChange><Frequency dt:dt="r8">3507675</Frequency><Timestamp dt:dt="r8">1731477551638</Timestamp><Current dt:dt="r8">0</Current><DateUtc dt:dt="string">2016-06-15T16:35:00Z</DateUtc></FrequencyChange></FrequencyChanges></Clock>\n	Hungry_Donkey_bar_English_2-149-1	60.017	30	1.0.0.18	1	606435794	Standard	2.0.10.353	2.0.10.353	06-15-2016	6/15/2016 4:35:00 PM	12:35:00	2.0.10.248	111	Bar63-37.bmp	58	4	?	0r_4g.bmp	0r_4g.bmp	0r_2g.bmp	0r_2g.bmp				0r_2g.bmp	TrialProc	TrialList	0	cvbn	-999999	16	485179	0	n	2595	487774	284	-205	79	-28	46	27	34	6	12	111	0	0	0	0	4	4	2	2	0	2
