ExperimentName	Subject	Session	Clock.Information	DataFile.Basename	Display.RefreshRate	Eindtotaal[Session]	ExperimentVersion	Group	RandomSeed	RuntimeCapabilities	RuntimeVersion	RuntimeVersionExpected	SessionDate	SessionStartDateTimeUtc	SessionTime	StudioVersion	Block	BarImage	BarTotalWinst	DoorChoice	Eindtotaal[Block]	FBDoor1	FBDoor2	FBDoor3	FBDoor4	Image1	Image2	Image3	Image4	Procedure	Running	spel.ACC	spel.CRESP	spel.DurationError	spel.OnsetDelay	spel.OnsetTime	spel.OnsetToOnsetTime	spel.RESP	spel.RT	spel.RTTime	TotalGain	TotalLose	Totalsum	TotalsumD1	TotalsumD2	TotalsumD3	TotalsumD4	TrialList	TrialList.Cycle	TrialList.Sample	varV1	varV2	varV3	varV4	varW1	varW2	varW3	varW4	Verliesbedrag	Winstbedrag
Hungry_Donkey_bar_English_2	129	1	<?xml version="1.0"?>\n<Clock xmlns:dt="urn:schemas-microsoft-com:datatypes"><Description dt:dt="string">E-Prime Primary Realtime Clock</Description><StartTime><Timestamp dt:dt="int">0</Timestamp><DateUtc dt:dt="string">2016-02-18T21:01:34Z</DateUtc></StartTime><FrequencyChanges><FrequencyChange><Frequency dt:dt="r8">3507705</Frequency><Timestamp dt:dt="r8">297572786132</Timestamp><Current dt:dt="r8">0</Current><DateUtc dt:dt="string">2016-02-18T21:01:34Z</DateUtc></FrequencyChange></FrequencyChanges></Clock>\n	Hungry_Donkey_bar_English_2-129-1	60.018	-138	1.0.0.18	1	1220719840	Standard	2.0.10.353	2.0.10.353	02-18-2016	2/18/2016 9:01:34 PM	16:01:34	2.0.10.248	1	Bar37-63.bmp	33	1	?	8r_4g.bmp	50r_4g.bmp	1r_2g.bmp	10r_2g.bmp	8r_4g.bmp				TrialProc	TrialList	0	cvbn	-999999	17	66335	0	c	8623	74958	4	-8	-4	-4	0	0	0	1	1	1	-8	-50	-1	-10	4	4	2	2	-8	4
Hungry_Donkey_bar_English_2	129	1	<?xml version="1.0"?>\n<Clock xmlns:dt="urn:schemas-microsoft-com:datatypes"><Description dt:dt="string">E-Prime Primary Realtime Clock</Description><StartTime><Timestamp dt:dt="int">0</Timestamp><DateUtc dt:dt="string">2016-02-18T21:01:34Z</DateUtc></StartTime><FrequencyChanges><FrequencyChange><Frequency dt:dt="r8">3507705</Frequency><Timestamp dt:dt="r8">297572786132</Timestamp><Current dt:dt="r8">0</Current><DateUtc dt:dt="string">2016-02-18T21:01:34Z</DateUtc></FrequencyChange></FrequencyChanges></Clock>\n	Hungry_Donkey_bar_English_2-129-1	60.018	-138	1.0.0.18	1	1220719840	Standard	2.0.10.353	2.0.10.353	02-18-2016	2/18/2016 9:01:34 PM	16:01:34	2.0.10.248	2	Bar37-63.bmp	43	4	?	10r_4g.bmp	0r_4g.bmp	2r_2g.bmp	0r_2g.bmp				0r_2g.bmp	TrialProc	TrialList	0	cvbn	-999999	16	76998	0	n	2120	79118	6	-8	-2	-4	0	0	2	2	1	2	-10	0	-2	0	4	4	2	2	0	2
Hungry_Donkey_bar_English_2	129	1	<?xml version="1.0"?>\n<Clock xmlns:dt="urn:schemas-microsoft-com:datatypes"><Description dt:dt="string">E-Prime Primary Realtime Clock</Description><StartTime><Timestamp dt:dt="int">0</Timestamp><DateUtc dt:dt="string">2016-02-18T21:01:34Z</DateUtc></StartTime><FrequencyChanges><FrequencyChange><Frequency dt:dt="r8">3507705</Frequency><Timestamp dt:dt="r8">297572786132</Timestamp><Current dt:dt="r8">0</Current><DateUtc dt:dt="string">2016-02-18T21:01:34Z</DateUtc></FrequencyChange></FrequencyChanges></Clock>\n	Hungry_Donkey_bar_English_2-129-1	60.018	-138	1.0.0.18	1	1220719840	Standard	2.0.10.353	2.0.10.353	02-18-2016	2/18/2016 9:01:34 PM	16:01:34	2.0.10.248	3	Bar50-50.bmp	50	3	?	0r_4g.bmp	0r_4g.bmp	0r_2g.bmp	0r_2g.bmp			0r_2g.bmp		TrialProc	TrialList	0	cvbn	-999999	16	81147	0	b	1506	82653	8	-8	0	-4	0	2	2	6	1	3	0	0	0	0	4	4	2	2	0	2
Hungry_Donkey_bar_English_2	129	1	<?xml version="1.0"?>\n<Clock xmlns:dt="urn:schemas-microsoft-com:datatypes"><Description dt:dt="string">E-Prime Primary Realtime Clock</Description><StartTime><Timestamp dt:dt="int">0</Timestamp><DateUtc dt:dt="string">2016-02-18T21:01:34Z</DateUtc></StartTime><FrequencyChanges><FrequencyChange><Frequency dt:dt="r8">3507705</Frequency><Timestamp dt:dt="r8">297572786132</Timestamp><Current dt:dt="r8">0</Current><DateUtc dt:dt="string">2016-02-18T21:01:34Z</DateUtc></FrequencyChange></FrequencyChanges></Clock>\n	Hungry_Donkey_bar_English_2-129-1	60.018	-138	1.0.0.18	1	1220719840	Standard	2.0.10.353	2.0.10.353	02-18-2016	2/18/2016 9:01:34 PM	16:01:34	2.0.10.248	4	Bar50-50.bmp	56	4	?	10r_4g.bmp	0r_4g.bmp	2r_2g.bmp	0r_2g.bmp				0r_2g.bmp	TrialProc	TrialList	0	cvbn	-999999	16	84679	0	n	566	85245	10	-8	2	-4	0	2	4	4	1	4	-10	0	-2	0	4	4	2	2	0	2
Hungry_Donkey_bar_English_2	129	1	<?xml version="1.0"?>\n<Clock xmlns:dt="urn:schemas-microsoft-com:datatypes"><Description dt:dt="string">E-Prime Primary Realtime Clock</Description><StartTime><Timestamp dt:dt="int">0</Timestamp><DateUtc dt:dt="string">2016-02-18T21:01:34Z</DateUtc></StartTime><FrequencyChanges><FrequencyChange><Frequency dt:dt="r8">3507705</Frequency><Timestamp dt:dt="r8">297572786132</Timestamp><Current dt:dt="r8">0</Current><DateUtc dt:dt="string">2016-02-18T21:01:34Z</DateUtc></FrequencyChange></FrequencyChanges></Clock>\n	Hungry_Donkey_bar_English_2-129-1	60.018	-138	1.0.0.18	1	1220719840	Standard	2.0.10.353	2.0.10.353	02-18-2016	2/18/2016 9:01:34 PM	16:01:34	2.0.10.248	5	Bar63-37.bmp	60	3	?	0r_4g.bmp	0r_4g.bmp	0r_2g.bmp	0r_2g.bmp			0r_2g.bmp		TrialProc	TrialList	0	cvbn	-999999	17	87279	0	b	606	87885	12	-8	4	-4	0	4	4	9	1	5	0	0	0	0	4	4	2	2	0	2
Hungry_Donkey_bar_English_2	129	1	<?xml version="1.0"?>\n<Clock xmlns:dt="urn:schemas-microsoft-com:datatypes"><Description dt:dt="string">E-Prime Primary Realtime Clock</Description><StartTime><Timestamp dt:dt="int">0</Timestamp><DateUtc dt:dt="string">2016-02-18T21:01:34Z</DateUtc></StartTime><FrequencyChanges><FrequencyChange><Frequency dt:dt="r8">3507705</Frequency><Timestamp dt:dt="r8">297572786132</Timestamp><Current dt:dt="r8">0</Current><DateUtc dt:dt="string">2016-02-18T21:01:34Z</DateUtc></FrequencyChange></FrequencyChanges></Clock>\n	Hungry_Donkey_bar_English_2-129-1	60.018	-138	1.0.0.18	1	1220719840	Standard	2.0.10.353	2.0.10.353	02-18-2016	2/18/2016 9:01:34 PM	16:01:34	2.0.10.248	6	Bar63-37.bmp	67	2	?	0r_4g.bmp	0r_4g.bmp	0r_2g.bmp	0r_2g.bmp		0r_4g.bmp			TrialProc	TrialList	0	cvbn	-999999	16	89911	0	v	342	90253	16	-8	8	-4	4	4	4	8	1	6	0	0	0	0	4	4	2	2	0	4
Hungry_Donkey_bar_English_2	129	1	<?xml version="1.0"?>\n<Clock xmlns:dt="urn:schemas-microsoft-com:datatypes"><Description dt:dt="string">E-Prime Primary Realtime Clock</Description><StartTime><Timestamp dt:dt="int">0</Timestamp><DateUtc dt:dt="string">2016-02-18T21:01:34Z</DateUtc></StartTime><FrequencyChanges><FrequencyChange><Frequency dt:dt="r8">3507705</Frequency><Timestamp dt:dt="r8">297572786132</Timestamp><Current dt:dt="r8">0</Current><DateUtc dt:dt="string">2016-02-18T21:01:34Z</DateUtc></FrequencyChange></FrequencyChanges></Clock>\n	Hungry_Donkey_bar_English_2-129-1	60.018	-138	1.0.0.18	1	1220719840	Standard	2.0.10.353	2.0.10.353	02-18-2016	2/18/2016 9:01:34 PM	16:01:34	2.0.10.248	7	Bar50-50.bmp	50	1	?	12r_4g.bmp	0r_4g.bmp	3r_2g.bmp	0r_2g.bmp	12r_4g.bmp				TrialProc	TrialList	0	cvbn	-999999	16	92294	0	c	1255	93549	20	-20	0	-12	4	4	4	5	1	7	-12	0	-3	0	4	4	2	2	-12	4
Hungry_Donkey_bar_English_2	129	1	<?xml version="1.0"?>\n<Clock xmlns:dt="urn:schemas-microsoft-com:datatypes"><Description dt:dt="string">E-Prime Primary Realtime Clock</Description><StartTime><Timestamp dt:dt="int">0</Timestamp><DateUtc dt:dt="string">2016-02-18T21:01:34Z</DateUtc></StartTime><FrequencyChanges><FrequencyChange><Frequency dt:dt="r8">3507705</Frequency><Timestamp dt:dt="r8">297572786132</Timestamp><Current dt:dt="r8">0</Current><DateUtc dt:dt="string">2016-02-18T21:01:34Z</DateUtc></FrequencyChange></FrequencyChanges></Clock>\n	Hungry_Donkey_bar_English_2-129-1	60.018	-138	1.0.0.18	1	1220719840	Standard	2.0.10.353	2.0.10.353	02-18-2016	2/18/2016 9:01:34 PM	16:01:34	2.0.10.248	8	Bar50-50.bmp	52	3	?	0r_4g.bmp	0r_4g.bmp	0r_2g.bmp	0r_2g.bmp			0r_2g.bmp		TrialProc	TrialList	0	cvbn	-999999	16	95593	0	b	724	96317	22	-20	2	-12	4	6	4	10	1	8	0	0	0	0	4	4	2	2	0	2
Hungry_Donkey_bar_English_2	129	1	<?xml version="1.0"?>\n<Clock xmlns:dt="urn:schemas-microsoft-com:datatypes"><Description dt:dt="string">E-Prime Primary Realtime Clock</Description><StartTime><Timestamp dt:dt="int">0</Timestamp><DateUtc dt:dt="string">2016-02-18T21:01:34Z</DateUtc></StartTime><FrequencyChanges><FrequencyChange><Frequency dt:dt="r8">3507705</Frequency><Timestamp dt:dt="r8">297572786132</Timestamp><Current dt:dt="r8">0</Current><DateUtc dt:dt="string">2016-02-18T21:01:34Z</DateUtc></FrequencyChange></FrequencyChanges></Clock>\n	Hungry_Donkey_bar_English_2-129-1	60.018	-138	1.0.0.18	1	1220719840	Standard	2.0.10.353	2.0.10.353	02-18-2016	2/18/2016 9:01:34 PM	16:01:34	2.0.10.248	9	Bar63-37.bmp	57	2	?	10r_4g.bmp	0r_4g.bmp	2r_2g.bmp	0r_2g.bmp		0r_4g.bmp			TrialProc	TrialList	0	cvbn	-999999	16	98342	0	v	343	98685	26	-20	6	-12	8	6	4	3	1	9	-10	0	-2	0	4	4	2	2	0	4
Hungry_Donkey_bar_English_2	129	1	<?xml version="1.0"?>\n<Clock xmlns:dt="urn:schemas-microsoft-com:datatypes"><Description dt:dt="string">E-Prime Primary Realtime Clock</Description><StartTime><Timestamp dt:dt="int">0</Timestamp><DateUtc dt:dt="string">2016-02-18T21:01:34Z</DateUtc></StartTime><FrequencyChanges><FrequencyChange><Frequency dt:dt="r8">3507705</Frequency><Timestamp dt:dt="r8">297572786132</Timestamp><Current dt:dt="r8">0</Current><DateUtc dt:dt="string">2016-02-18T21:01:34Z</DateUtc></FrequencyChange></FrequencyChanges></Clock>\n	Hungry_Donkey_bar_English_2-129-1	60.018	-138	1.0.0.18	1	1220719840	Standard	2.0.10.353	2.0.10.353	02-18-2016	2/18/2016 9:01:34 PM	16:01:34	2.0.10.248	10	Bar63-37.bmp	58	4	?	0r_4g.bmp	0r_4g.bmp	0r_2g.bmp	0r_2g.bmp				0r_2g.bmp	TrialProc	TrialList	0	cvbn	-999999	17	100725	0	n	423	101148	28	-20	8	-12	8	6	6	7	1	10	0	0	0	0	4	4	2	2	0	2
Hungry_Donkey_bar_English_2	129	1	<?xml version="1.0"?>\n<Clock xmlns:dt="urn:schemas-microsoft-com:datatypes"><Description dt:dt="string">E-Prime Primary Realtime Clock</Description><StartTime><Timestamp dt:dt="int">0</Timestamp><DateUtc dt:dt="string">2016-02-18T21:01:34Z</DateUtc></StartTime><FrequencyChanges><FrequencyChange><Frequency dt:dt="r8">3507705</Frequency><Timestamp dt:dt="r8">297572786132</Timestamp><Current dt:dt="r8">0</Current><DateUtc dt:dt="string">2016-02-18T21:01:34Z</DateUtc></FrequencyChange></FrequencyChanges></Clock>\n	Hungry_Donkey_bar_English_2-129-1	60.018	-138	1.0.0.18	1	1220719840	Standard	2.0.10.353	2.0.10.353	02-18-2016	2/18/2016 9:01:34 PM	16:01:34	2.0.10.248	11	Bar63-37.bmp	60	3	?	0r_4g.bmp	0r_4g.bmp	0r_2g.bmp	0r_2g.bmp			0r_2g.bmp		TrialProc	TrialList	0	cvbn	-999999	16	103174	0	b	278	103452	30	-20	10	-12	8	8	6	7	2	11	0	0	0	0	4	4	2	2	0	2
Hungry_Donkey_bar_English_2	129	1	<?xml version="1.0"?>\n<Clock xmlns:dt="urn:schemas-microsoft-com:datatypes"><Description dt:dt="string">E-Prime Primary Realtime Clock</Description><StartTime><Timestamp dt:dt="int">0</Timestamp><DateUtc dt:dt="string">2016-02-18T21:01:34Z</DateUtc></StartTime><FrequencyChanges><FrequencyChange><Frequency dt:dt="r8">3507705</Frequency><Timestamp dt:dt="r8">297572786132</Timestamp><Current dt:dt="r8">0</Current><DateUtc dt:dt="string">2016-02-18T21:01:34Z</DateUtc></FrequencyChange></FrequencyChanges></Clock>\n	Hungry_Donkey_bar_English_2-129-1	60.018	-138	1.0.0.18	1	1220719840	Standard	2.0.10.353	2.0.10.353	02-18-2016	2/18/2016 9:01:34 PM	16:01:34	2.0.10.248	12	Bar63-37.bmp	62	3	?	0r_4g.bmp	0r_4g.bmp	0r_2g.bmp	0r_2g.bmp			0r_2g.bmp		TrialProc	TrialList	0	cvbn	-999999	16	105490	0	b	330	105820	32	-20	12	-12	8	10	6	6	2	12	0	0	0	0	4	4	2	2	0	2
Hungry_Donkey_bar_English_2	129	1	<?xml version="1.0"?>\n<Clock xmlns:dt="urn:schemas-microsoft-com:datatypes"><Description dt:dt="string">E-Prime Primary Realtime Clock</Description><StartTime><Timestamp dt:dt="int">0</Timestamp><DateUtc dt:dt="string">2016-02-18T21:01:34Z</DateUtc></StartTime><FrequencyChanges><FrequencyChange><Frequency dt:dt="r8">3507705</Frequency><Timestamp dt:dt="r8">297572786132</Timestamp><Current dt:dt="r8">0</Current><DateUtc dt:dt="string">2016-02-18T21:01:34Z</DateUtc></FrequencyChange></FrequencyChanges></Clock>\n	Hungry_Donkey_bar_English_2-129-1	60.018	-138	1.0.0.18	1	1220719840	Standard	2.0.10.353	2.0.10.353	02-18-2016	2/18/2016 9:01:34 PM	16:01:34	2.0.10.248	13	Bar63-37.bmp	64	2	?	10r_4g.bmp	0r_4g.bmp	2r_2g.bmp	0r_2g.bmp		0r_4g.bmp			TrialProc	TrialList	0	cvbn	-999999	16	107856	0	v	204	108060	36	-20	16	-12	12	10	6	2	2	13	-10	0	-2	0	4	4	2	2	0	4
Hungry_Donkey_bar_English_2	129	1	<?xml version="1.0"?>\n<Clock xmlns:dt="urn:schemas-microsoft-com:datatypes"><Description dt:dt="string">E-Prime Primary Realtime Clock</Description><StartTime><Timestamp dt:dt="int">0</Timestamp><DateUtc dt:dt="string">2016-02-18T21:01:34Z</DateUtc></StartTime><FrequencyChanges><FrequencyChange><Frequency dt:dt="r8">3507705</Frequency><Timestamp dt:dt="r8">297572786132</Timestamp><Current dt:dt="r8">0</Current><DateUtc dt:dt="string">2016-02-18T21:01:34Z</DateUtc></FrequencyChange></FrequencyChanges></Clock>\n	Hungry_Donkey_bar_English_2-129-1	60.018	-138	1.0.0.18	1	1220719840	Standard	2.0.10.353	2.0.10.353	02-18-2016	2/18/2016 9:01:34 PM	16:01:34	2.0.10.248	14	Bar63-37.bmp	66	4	?	0r_4g.bmp	0r_4g.bmp	0r_2g.bmp	0r_2g.bmp				0r_2g.bmp	TrialProc	TrialList	0	cvbn	-999999	16	110088	0	n	100	110188	38	-20	18	-12	12	10	8	10	2	14	0	0	0	0	4	4	2	2	0	2
Hungry_Donkey_bar_English_2	129	1	<?xml version="1.0"?>\n<Clock xmlns:dt="urn:schemas-microsoft-com:datatypes"><Description dt:dt="string">E-Prime Primary Realtime Clock</Description><StartTime><Timestamp dt:dt="int">0</Timestamp><DateUtc dt:dt="string">2016-02-18T21:01:34Z</DateUtc></StartTime><FrequencyChanges><FrequencyChange><Frequency dt:dt="r8">3507705</Frequency><Timestamp dt:dt="r8">297572786132</Timestamp><Current dt:dt="r8">0</Current><DateUtc dt:dt="string">2016-02-18T21:01:34Z</DateUtc></FrequencyChange></FrequencyChanges></Clock>\n	Hungry_Donkey_bar_English_2-129-1	60.018	-138	1.0.0.18	1	1220719840	Standard	2.0.10.353	2.0.10.353	02-18-2016	2/18/2016 9:01:34 PM	16:01:34	2.0.10.248	15	Bar63-37.bmp	63	3	?	12r_4g.bmp	0r_4g.bmp	3r_2g.bmp	0r_2g.bmp			3r_2g.bmp		TrialProc	TrialList	0	cvbn	-999999	16	112221	0	b	255	112476	40	-23	17	-12	12	9	8	5	2	15	-12	0	-3	0	4	4	2	2	-3	2
Hungry_Donkey_bar_English_2	129	1	<?xml version="1.0"?>\n<Clock xmlns:dt="urn:schemas-microsoft-com:datatypes"><Description dt:dt="string">E-Prime Primary Realtime Clock</Description><StartTime><Timestamp dt:dt="int">0</Timestamp><DateUtc dt:dt="string">2016-02-18T21:01:34Z</DateUtc></StartTime><FrequencyChanges><FrequencyChange><Frequency dt:dt="r8">3507705</Frequency><Timestamp dt:dt="r8">297572786132</Timestamp><Current dt:dt="r8">0</Current><DateUtc dt:dt="string">2016-02-18T21:01:34Z</DateUtc></FrequencyChange></FrequencyChanges></Clock>\n	Hungry_Donkey_bar_English_2-129-1	60.018	-138	1.0.0.18	1	1220719840	Standard	2.0.10.353	2.0.10.353	02-18-2016	2/18/2016 9:01:34 PM	16:01:34	2.0.10.248	16	Bar63-37.bmp	66	1	?	0r_4g.bmp	0r_4g.bmp	0r_2g.bmp	0r_2g.bmp	0r_4g.bmp				TrialProc	TrialList	0	cvbn	-999999	16	114504	0	c	516	115020	44	-23	21	-8	12	9	8	9	2	16	0	0	0	0	4	4	2	2	0	4
Hungry_Donkey_bar_English_2	129	1	<?xml version="1.0"?>\n<Clock xmlns:dt="urn:schemas-microsoft-com:datatypes"><Description dt:dt="string">E-Prime Primary Realtime Clock</Description><StartTime><Timestamp dt:dt="int">0</Timestamp><DateUtc dt:dt="string">2016-02-18T21:01:34Z</DateUtc></StartTime><FrequencyChanges><FrequencyChange><Frequency dt:dt="r8">3507705</Frequency><Timestamp dt:dt="r8">297572786132</Timestamp><Current dt:dt="r8">0</Current><DateUtc dt:dt="string">2016-02-18T21:01:34Z</DateUtc></FrequencyChange></FrequencyChanges></Clock>\n	Hungry_Donkey_bar_English_2-129-1	60.018	-138	1.0.0.18	1	1220719840	Standard	2.0.10.353	2.0.10.353	02-18-2016	2/18/2016 9:01:34 PM	16:01:34	2.0.10.248	17	Bar63-37.bmp	68	2	?	0r_4g.bmp	0r_4g.bmp	0r_2g.bmp	0r_2g.bmp		0r_4g.bmp			TrialProc	TrialList	0	cvbn	-999999	16	117053	0	v	431	117484	48	-23	25	-8	16	9	8	8	2	17	0	0	0	0	4	4	2	2	0	4
Hungry_Donkey_bar_English_2	129	1	<?xml version="1.0"?>\n<Clock xmlns:dt="urn:schemas-microsoft-com:datatypes"><Description dt:dt="string">E-Prime Primary Realtime Clock</Description><StartTime><Timestamp dt:dt="int">0</Timestamp><DateUtc dt:dt="string">2016-02-18T21:01:34Z</DateUtc></StartTime><FrequencyChanges><FrequencyChange><Frequency dt:dt="r8">3507705</Frequency><Timestamp dt:dt="r8">297572786132</Timestamp><Current dt:dt="r8">0</Current><DateUtc dt:dt="string">2016-02-18T21:01:34Z</DateUtc></FrequencyChange></FrequencyChanges></Clock>\n	Hungry_Donkey_bar_English_2-129-1	60.018	-138	1.0.0.18	1	1220719840	Standard	2.0.10.353	2.0.10.353	02-18-2016	2/18/2016 9:01:34 PM	16:01:34	2.0.10.248	18	Bar63-37.bmp	68	4	?	10r_4g.bmp	0r_4g.bmp	2r_2g.bmp	0r_2g.bmp				0r_2g.bmp	TrialProc	TrialList	0	cvbn	-999999	16	119519	0	n	556	120075	50	-23	27	-8	16	9	10	3	2	18	-10	0	-2	0	4	4	2	2	0	2
Hungry_Donkey_bar_English_2	129	1	<?xml version="1.0"?>\n<Clock xmlns:dt="urn:schemas-microsoft-com:datatypes"><Description dt:dt="string">E-Prime Primary Realtime Clock</Description><StartTime><Timestamp dt:dt="int">0</Timestamp><DateUtc dt:dt="string">2016-02-18T21:01:34Z</DateUtc></StartTime><FrequencyChanges><FrequencyChange><Frequency dt:dt="r8">3507705</Frequency><Timestamp dt:dt="r8">297572786132</Timestamp><Current dt:dt="r8">0</Current><DateUtc dt:dt="string">2016-02-18T21:01:34Z</DateUtc></FrequencyChange></FrequencyChanges></Clock>\n	Hungry_Donkey_bar_English_2-129-1	60.018	-138	1.0.0.18	1	1220719840	Standard	2.0.10.353	2.0.10.353	02-18-2016	2/18/2016 9:01:34 PM	16:01:34	2.0.10.248	19	Bar63-37.bmp	62	1	?	10r_4g.bmp	0r_4g.bmp	2r_2g.bmp	0r_2g.bmp	10r_4g.bmp				TrialProc	TrialList	0	cvbn	-999999	16	122102	0	c	277	122379	54	-33	21	-14	16	9	10	4	2	19	-10	0	-2	0	4	4	2	2	-10	4
Hungry_Donkey_bar_English_2	129	1	<?xml version="1.0"?>\n<Clock xmlns:dt="urn:schemas-microsoft-com:datatypes"><Description dt:dt="string">E-Prime Primary Realtime Clock</Description><StartTime><Timestamp dt:dt="int">0</Timestamp><DateUtc dt:dt="string">2016-02-18T21:01:34Z</DateUtc></StartTime><FrequencyChanges><FrequencyChange><Frequency dt:dt="r8">3507705</Frequency><Timestamp dt:dt="r8">297572786132</Timestamp><Current dt:dt="r8">0</Current><DateUtc dt:dt="string">2016-02-18T21:01:34Z</DateUtc></FrequencyChange></FrequencyChanges></Clock>\n	Hungry_Donkey_bar_English_2-129-1	60.018	-138	1.0.0.18	1	1220719840	Standard	2.0.10.353	2.0.10.353	02-18-2016	2/18/2016 9:01:34 PM	16:01:34	2.0.10.248	20	Bar37-63.bmp	41	2	?	8r_4g.bmp	50r_4g.bmp	1r_2g.bmp	10r_2g.bmp		50r_4g.bmp			TrialProc	TrialList	0	cvbn	-999999	17	124418	0	v	649	125067	58	-83	-25	-14	-30	9	10	1	2	20	-8	-50	-1	-10	4	4	2	2	-50	4
Hungry_Donkey_bar_English_2	129	1	<?xml version="1.0"?>\n<Clock xmlns:dt="urn:schemas-microsoft-com:datatypes"><Description dt:dt="string">E-Prime Primary Realtime Clock</Description><StartTime><Timestamp dt:dt="int">0</Timestamp><DateUtc dt:dt="string">2016-02-18T21:01:34Z</DateUtc></StartTime><FrequencyChanges><FrequencyChange><Frequency dt:dt="r8">3507705</Frequency><Timestamp dt:dt="r8">297572786132</Timestamp><Current dt:dt="r8">0</Current><DateUtc dt:dt="string">2016-02-18T21:01:34Z</DateUtc></FrequencyChange></FrequencyChanges></Clock>\n	Hungry_Donkey_bar_English_2-129-1	60.018	-138	1.0.0.18	1	1220719840	Standard	2.0.10.353	2.0.10.353	02-18-2016	2/18/2016 9:01:34 PM	16:01:34	2.0.10.248	21	Bar37-63.bmp	42	3	?	0r_4g.bmp	0r_4g.bmp	0r_2g.bmp	0r_2g.bmp			0r_2g.bmp		TrialProc	TrialList	0	cvbn	-999999	16	127100	0	b	303	127403	60	-83	-23	-14	-30	11	10	8	3	21	0	0	0	0	4	4	2	2	0	2
Hungry_Donkey_bar_English_2	129	1	<?xml version="1.0"?>\n<Clock xmlns:dt="urn:schemas-microsoft-com:datatypes"><Description dt:dt="string">E-Prime Primary Realtime Clock</Description><StartTime><Timestamp dt:dt="int">0</Timestamp><DateUtc dt:dt="string">2016-02-18T21:01:34Z</DateUtc></StartTime><FrequencyChanges><FrequencyChange><Frequency dt:dt="r8">3507705</Frequency><Timestamp dt:dt="r8">297572786132</Timestamp><Current dt:dt="r8">0</Current><DateUtc dt:dt="string">2016-02-18T21:01:34Z</DateUtc></FrequencyChange></FrequencyChanges></Clock>\n	Hungry_Donkey_bar_English_2-129-1	60.018	-138	1.0.0.18	1	1220719840	Standard	2.0.10.353	2.0.10.353	02-18-2016	2/18/2016 9:01:34 PM	16:01:34	2.0.10.248	22	Bar37-63.bmp	43	4	?	10r_4g.bmp	0r_4g.bmp	2r_2g.bmp	0r_2g.bmp				0r_2g.bmp	TrialProc	TrialList	0	cvbn	-999999	16	129433	0	n	418	129851	62	-83	-21	-14	-30	11	12	4	3	22	-10	0	-2	0	4	4	2	2	0	2
Hungry_Donkey_bar_English_2	129	1	<?xml version="1.0"?>\n<Clock xmlns:dt="urn:schemas-microsoft-com:datatypes"><Description dt:dt="string">E-Prime Primary Realtime Clock</Description><StartTime><Timestamp dt:dt="int">0</Timestamp><DateUtc dt:dt="string">2016-02-18T21:01:34Z</DateUtc></StartTime><FrequencyChanges><FrequencyChange><Frequency dt:dt="r8">3507705</Frequency><Timestamp dt:dt="r8">297572786132</Timestamp><Current dt:dt="r8">0</Current><DateUtc dt:dt="string">2016-02-18T21:01:34Z</DateUtc></FrequencyChange></FrequencyChanges></Clock>\n	Hungry_Donkey_bar_English_2-129-1	60.018	-138	1.0.0.18	1	1220719840	Standard	2.0.10.353	2.0.10.353	02-18-2016	2/18/2016 9:01:34 PM	16:01:34	2.0.10.248	23	Bar50-50.bmp	44	3	?	0r_4g.bmp	0r_4g.bmp	0r_2g.bmp	0r_2g.bmp			0r_2g.bmp		TrialProc	TrialList	0	cvbn	-999999	16	131882	0	b	257	132139	64	-83	-19	-14	-30	13	12	10	3	23	0	0	0	0	4	4	2	2	0	2
Hungry_Donkey_bar_English_2	129	1	<?xml version="1.0"?>\n<Clock xmlns:dt="urn:schemas-microsoft-com:datatypes"><Description dt:dt="string">E-Prime Primary Realtime Clock</Description><StartTime><Timestamp dt:dt="int">0</Timestamp><DateUtc dt:dt="string">2016-02-18T21:01:34Z</DateUtc></StartTime><FrequencyChanges><FrequencyChange><Frequency dt:dt="r8">3507705</Frequency><Timestamp dt:dt="r8">297572786132</Timestamp><Current dt:dt="r8">0</Current><DateUtc dt:dt="string">2016-02-18T21:01:34Z</DateUtc></FrequencyChange></FrequencyChanges></Clock>\n	Hungry_Donkey_bar_English_2-129-1	60.018	-138	1.0.0.18	1	1220719840	Standard	2.0.10.353	2.0.10.353	02-18-2016	2/18/2016 9:01:34 PM	16:01:34	2.0.10.248	24	Bar50-50.bmp	45	2	?	0r_4g.bmp	0r_4g.bmp	0r_2g.bmp	0r_2g.bmp		0r_4g.bmp			TrialProc	TrialList	0	cvbn	-999999	16	134165	0	v	422	134587	68	-83	-15	-14	-26	13	12	7	3	24	0	0	0	0	4	4	2	2	0	4
Hungry_Donkey_bar_English_2	129	1	<?xml version="1.0"?>\n<Clock xmlns:dt="urn:schemas-microsoft-com:datatypes"><Description dt:dt="string">E-Prime Primary Realtime Clock</Description><StartTime><Timestamp dt:dt="int">0</Timestamp><DateUtc dt:dt="string">2016-02-18T21:01:34Z</DateUtc></StartTime><FrequencyChanges><FrequencyChange><Frequency dt:dt="r8">3507705</Frequency><Timestamp dt:dt="r8">297572786132</Timestamp><Current dt:dt="r8">0</Current><DateUtc dt:dt="string">2016-02-18T21:01:34Z</DateUtc></FrequencyChange></FrequencyChanges></Clock>\n	Hungry_Donkey_bar_English_2-129-1	60.018	-138	1.0.0.18	1	1220719840	Standard	2.0.10.353	2.0.10.353	02-18-2016	2/18/2016 9:01:34 PM	16:01:34	2.0.10.248	25	Bar50-50.bmp	46	1	?	0r_4g.bmp	0r_4g.bmp	0r_2g.bmp	0r_2g.bmp	0r_4g.bmp				TrialProc	TrialList	0	cvbn	-999999	16	136614	0	c	452	137066	72	-83	-11	-10	-26	13	12	9	3	25	0	0	0	0	4	4	2	2	0	4
Hungry_Donkey_bar_English_2	129	1	<?xml version="1.0"?>\n<Clock xmlns:dt="urn:schemas-microsoft-com:datatypes"><Description dt:dt="string">E-Prime Primary Realtime Clock</Description><StartTime><Timestamp dt:dt="int">0</Timestamp><DateUtc dt:dt="string">2016-02-18T21:01:34Z</DateUtc></StartTime><FrequencyChanges><FrequencyChange><Frequency dt:dt="r8">3507705</Frequency><Timestamp dt:dt="r8">297572786132</Timestamp><Current dt:dt="r8">0</Current><DateUtc dt:dt="string">2016-02-18T21:01:34Z</DateUtc></FrequencyChange></FrequencyChanges></Clock>\n	Hungry_Donkey_bar_English_2-129-1	60.018	-138	1.0.0.18	1	1220719840	Standard	2.0.10.353	2.0.10.353	02-18-2016	2/18/2016 9:01:34 PM	16:01:34	2.0.10.248	26	Bar37-63.bmp	36	2	?	8r_4g.bmp	50r_4g.bmp	1r_2g.bmp	10r_2g.bmp		50r_4g.bmp			TrialProc	TrialList	0	cvbn	-999999	16	139097	0	v	289	139386	76	-133	-57	-10	-72	13	12	1	3	26	-8	-50	-1	-10	4	4	2	2	-50	4
Hungry_Donkey_bar_English_2	129	1	<?xml version="1.0"?>\n<Clock xmlns:dt="urn:schemas-microsoft-com:datatypes"><Description dt:dt="string">E-Prime Primary Realtime Clock</Description><StartTime><Timestamp dt:dt="int">0</Timestamp><DateUtc dt:dt="string">2016-02-18T21:01:34Z</DateUtc></StartTime><FrequencyChanges><FrequencyChange><Frequency dt:dt="r8">3507705</Frequency><Timestamp dt:dt="r8">297572786132</Timestamp><Current dt:dt="r8">0</Current><DateUtc dt:dt="string">2016-02-18T21:01:34Z</DateUtc></FrequencyChange></FrequencyChanges></Clock>\n	Hungry_Donkey_bar_English_2-129-1	60.018	-138	1.0.0.18	1	1220719840	Standard	2.0.10.353	2.0.10.353	02-18-2016	2/18/2016 9:01:34 PM	16:01:34	2.0.10.248	27	Bar37-63.bmp	37	3	?	10r_4g.bmp	0r_4g.bmp	2r_2g.bmp	0r_2g.bmp			2r_2g.bmp		TrialProc	TrialList	0	cvbn	-999999	17	141413	0	b	613	142026	78	-135	-57	-10	-72	13	12	2	3	27	-10	0	-2	0	4	4	2	2	-2	2
Hungry_Donkey_bar_English_2	129	1	<?xml version="1.0"?>\n<Clock xmlns:dt="urn:schemas-microsoft-com:datatypes"><Description dt:dt="string">E-Prime Primary Realtime Clock</Description><StartTime><Timestamp dt:dt="int">0</Timestamp><DateUtc dt:dt="string">2016-02-18T21:01:34Z</DateUtc></StartTime><FrequencyChanges><FrequencyChange><Frequency dt:dt="r8">3507705</Frequency><Timestamp dt:dt="r8">297572786132</Timestamp><Current dt:dt="r8">0</Current><DateUtc dt:dt="string">2016-02-18T21:01:34Z</DateUtc></FrequencyChange></FrequencyChanges></Clock>\n	Hungry_Donkey_bar_English_2-129-1	60.018	-138	1.0.0.18	1	1220719840	Standard	2.0.10.353	2.0.10.353	02-18-2016	2/18/2016 9:01:34 PM	16:01:34	2.0.10.248	28	Bar37-63.bmp	37	4	?	10r_4g.bmp	0r_4g.bmp	2r_2g.bmp	0r_2g.bmp				0r_2g.bmp	TrialProc	TrialList	0	cvbn	-999999	16	144062	0	n	316	144378	80	-135	-55	-10	-72	13	14	3	3	28	-10	0	-2	0	4	4	2	2	0	2
Hungry_Donkey_bar_English_2	129	1	<?xml version="1.0"?>\n<Clock xmlns:dt="urn:schemas-microsoft-com:datatypes"><Description dt:dt="string">E-Prime Primary Realtime Clock</Description><StartTime><Timestamp dt:dt="int">0</Timestamp><DateUtc dt:dt="string">2016-02-18T21:01:34Z</DateUtc></StartTime><FrequencyChanges><FrequencyChange><Frequency dt:dt="r8">3507705</Frequency><Timestamp dt:dt="r8">297572786132</Timestamp><Current dt:dt="r8">0</Current><DateUtc dt:dt="string">2016-02-18T21:01:34Z</DateUtc></FrequencyChange></FrequencyChanges></Clock>\n	Hungry_Donkey_bar_English_2-129-1	60.018	-138	1.0.0.18	1	1220719840	Standard	2.0.10.353	2.0.10.353	02-18-2016	2/18/2016 9:01:34 PM	16:01:34	2.0.10.248	29	Bar37-63.bmp	36	1	?	12r_4g.bmp	0r_4g.bmp	3r_2g.bmp	0r_2g.bmp	12r_4g.bmp				TrialProc	TrialList	0	cvbn	-999999	16	146411	0	c	383	146794	84	-147	-63	-18	-72	13	14	5	3	29	-12	0	-3	0	4	4	2	2	-12	4
Hungry_Donkey_bar_English_2	129	1	<?xml version="1.0"?>\n<Clock xmlns:dt="urn:schemas-microsoft-com:datatypes"><Description dt:dt="string">E-Prime Primary Realtime Clock</Description><StartTime><Timestamp dt:dt="int">0</Timestamp><DateUtc dt:dt="string">2016-02-18T21:01:34Z</DateUtc></StartTime><FrequencyChanges><FrequencyChange><Frequency dt:dt="r8">3507705</Frequency><Timestamp dt:dt="r8">297572786132</Timestamp><Current dt:dt="r8">0</Current><DateUtc dt:dt="string">2016-02-18T21:01:34Z</DateUtc></FrequencyChange></FrequencyChanges></Clock>\n	Hungry_Donkey_bar_English_2-129-1	60.018	-138	1.0.0.18	1	1220719840	Standard	2.0.10.353	2.0.10.353	02-18-2016	2/18/2016 9:01:34 PM	16:01:34	2.0.10.248	30	Bar37-63.bmp	37	2	?	0r_4g.bmp	0r_4g.bmp	0r_2g.bmp	0r_2g.bmp		0r_4g.bmp			TrialProc	TrialList	0	cvbn	-999999	16	148827	0	v	255	149082	88	-147	-59	-18	-68	13	14	6	3	30	0	0	0	0	4	4	2	2	0	4
Hungry_Donkey_bar_English_2	129	1	<?xml version="1.0"?>\n<Clock xmlns:dt="urn:schemas-microsoft-com:datatypes"><Description dt:dt="string">E-Prime Primary Realtime Clock</Description><StartTime><Timestamp dt:dt="int">0</Timestamp><DateUtc dt:dt="string">2016-02-18T21:01:34Z</DateUtc></StartTime><FrequencyChanges><FrequencyChange><Frequency dt:dt="r8">3507705</Frequency><Timestamp dt:dt="r8">297572786132</Timestamp><Current dt:dt="r8">0</Current><DateUtc dt:dt="string">2016-02-18T21:01:34Z</DateUtc></FrequencyChange></FrequencyChanges></Clock>\n	Hungry_Donkey_bar_English_2-129-1	60.018	-138	1.0.0.18	1	1220719840	Standard	2.0.10.353	2.0.10.353	02-18-2016	2/18/2016 9:01:34 PM	16:01:34	2.0.10.248	31	Bar37-63.bmp	38	2	?	0r_4g.bmp	0r_4g.bmp	0r_2g.bmp	0r_2g.bmp		0r_4g.bmp			TrialProc	TrialList	0	cvbn	-999999	16	151110	0	v	436	151546	92	-147	-55	-18	-64	13	14	8	4	31	0	0	0	0	4	4	2	2	0	4
Hungry_Donkey_bar_English_2	129	1	<?xml version="1.0"?>\n<Clock xmlns:dt="urn:schemas-microsoft-com:datatypes"><Description dt:dt="string">E-Prime Primary Realtime Clock</Description><StartTime><Timestamp dt:dt="int">0</Timestamp><DateUtc dt:dt="string">2016-02-18T21:01:34Z</DateUtc></StartTime><FrequencyChanges><FrequencyChange><Frequency dt:dt="r8">3507705</Frequency><Timestamp dt:dt="r8">297572786132</Timestamp><Current dt:dt="r8">0</Current><DateUtc dt:dt="string">2016-02-18T21:01:34Z</DateUtc></FrequencyChange></FrequencyChanges></Clock>\n	Hungry_Donkey_bar_English_2-129-1	60.018	-138	1.0.0.18	1	1220719840	Standard	2.0.10.353	2.0.10.353	02-18-2016	2/18/2016 9:01:34 PM	16:01:34	2.0.10.248	32	Bar37-63.bmp	40	2	?	0r_4g.bmp	0r_4g.bmp	0r_2g.bmp	0r_2g.bmp		0r_4g.bmp			TrialProc	TrialList	0	cvbn	-999999	16	153576	0	v	337	153913	96	-147	-51	-18	-60	13	14	6	4	32	0	0	0	0	4	4	2	2	0	4
Hungry_Donkey_bar_English_2	129	1	<?xml version="1.0"?>\n<Clock xmlns:dt="urn:schemas-microsoft-com:datatypes"><Description dt:dt="string">E-Prime Primary Realtime Clock</Description><StartTime><Timestamp dt:dt="int">0</Timestamp><DateUtc dt:dt="string">2016-02-18T21:01:34Z</DateUtc></StartTime><FrequencyChanges><FrequencyChange><Frequency dt:dt="r8">3507705</Frequency><Timestamp dt:dt="r8">297572786132</Timestamp><Current dt:dt="r8">0</Current><DateUtc dt:dt="string">2016-02-18T21:01:34Z</DateUtc></FrequencyChange></FrequencyChanges></Clock>\n	Hungry_Donkey_bar_English_2-129-1	60.018	-138	1.0.0.18	1	1220719840	Standard	2.0.10.353	2.0.10.353	02-18-2016	2/18/2016 9:01:34 PM	16:01:34	2.0.10.248	33	Bar37-63.bmp	40	2	?	0r_4g.bmp	0r_4g.bmp	0r_2g.bmp	0r_2g.bmp		0r_4g.bmp			TrialProc	TrialList	0	cvbn	-999999	16	155942	0	v	307	156249	100	-147	-47	-18	-56	13	14	7	4	33	0	0	0	0	4	4	2	2	0	4
Hungry_Donkey_bar_English_2	129	1	<?xml version="1.0"?>\n<Clock xmlns:dt="urn:schemas-microsoft-com:datatypes"><Description dt:dt="string">E-Prime Primary Realtime Clock</Description><StartTime><Timestamp dt:dt="int">0</Timestamp><DateUtc dt:dt="string">2016-02-18T21:01:34Z</DateUtc></StartTime><FrequencyChanges><FrequencyChange><Frequency dt:dt="r8">3507705</Frequency><Timestamp dt:dt="r8">297572786132</Timestamp><Current dt:dt="r8">0</Current><DateUtc dt:dt="string">2016-02-18T21:01:34Z</DateUtc></FrequencyChange></FrequencyChanges></Clock>\n	Hungry_Donkey_bar_English_2-129-1	60.018	-138	1.0.0.18	1	1220719840	Standard	2.0.10.353	2.0.10.353	02-18-2016	2/18/2016 9:01:34 PM	16:01:34	2.0.10.248	34	Bar37-63.bmp	41	2	?	12r_4g.bmp	0r_4g.bmp	3r_2g.bmp	0r_2g.bmp		0r_4g.bmp			TrialProc	TrialList	0	cvbn	-999999	16	158274	0	v	455	158729	104	-147	-43	-18	-52	13	14	5	4	34	-12	0	-3	0	4	4	2	2	0	4
Hungry_Donkey_bar_English_2	129	1	<?xml version="1.0"?>\n<Clock xmlns:dt="urn:schemas-microsoft-com:datatypes"><Description dt:dt="string">E-Prime Primary Realtime Clock</Description><StartTime><Timestamp dt:dt="int">0</Timestamp><DateUtc dt:dt="string">2016-02-18T21:01:34Z</DateUtc></StartTime><FrequencyChanges><FrequencyChange><Frequency dt:dt="r8">3507705</Frequency><Timestamp dt:dt="r8">297572786132</Timestamp><Current dt:dt="r8">0</Current><DateUtc dt:dt="string">2016-02-18T21:01:34Z</DateUtc></FrequencyChange></FrequencyChanges></Clock>\n	Hungry_Donkey_bar_English_2-129-1	60.018	-138	1.0.0.18	1	1220719840	Standard	2.0.10.353	2.0.10.353	02-18-2016	2/18/2016 9:01:34 PM	16:01:34	2.0.10.248	35	Bar37-63.bmp	42	2	?	10r_4g.bmp	0r_4g.bmp	2r_2g.bmp	0r_2g.bmp		0r_4g.bmp			TrialProc	TrialList	0	cvbn	-999999	16	160757	0	v	292	161049	108	-147	-39	-18	-48	13	14	2	4	35	-10	0	-2	0	4	4	2	2	0	4
Hungry_Donkey_bar_English_2	129	1	<?xml version="1.0"?>\n<Clock xmlns:dt="urn:schemas-microsoft-com:datatypes"><Description dt:dt="string">E-Prime Primary Realtime Clock</Description><StartTime><Timestamp dt:dt="int">0</Timestamp><DateUtc dt:dt="string">2016-02-18T21:01:34Z</DateUtc></StartTime><FrequencyChanges><FrequencyChange><Frequency dt:dt="r8">3507705</Frequency><Timestamp dt:dt="r8">297572786132</Timestamp><Current dt:dt="r8">0</Current><DateUtc dt:dt="string">2016-02-18T21:01:34Z</DateUtc></FrequencyChange></FrequencyChanges></Clock>\n	Hungry_Donkey_bar_English_2-129-1	60.018	-138	1.0.0.18	1	1220719840	Standard	2.0.10.353	2.0.10.353	02-18-2016	2/18/2016 9:01:34 PM	16:01:34	2.0.10.248	36	Bar37-63.bmp	42	3	?	10r_4g.bmp	0r_4g.bmp	2r_2g.bmp	0r_2g.bmp			2r_2g.bmp		TrialProc	TrialList	0	cvbn	-999999	16	163073	0	b	376	163449	110	-149	-39	-18	-48	13	14	3	4	36	-10	0	-2	0	4	4	2	2	-2	2
Hungry_Donkey_bar_English_2	129	1	<?xml version="1.0"?>\n<Clock xmlns:dt="urn:schemas-microsoft-com:datatypes"><Description dt:dt="string">E-Prime Primary Realtime Clock</Description><StartTime><Timestamp dt:dt="int">0</Timestamp><DateUtc dt:dt="string">2016-02-18T21:01:34Z</DateUtc></StartTime><FrequencyChanges><FrequencyChange><Frequency dt:dt="r8">3507705</Frequency><Timestamp dt:dt="r8">297572786132</Timestamp><Current dt:dt="r8">0</Current><DateUtc dt:dt="string">2016-02-18T21:01:34Z</DateUtc></FrequencyChange></FrequencyChanges></Clock>\n	Hungry_Donkey_bar_English_2-129-1	60.018	-138	1.0.0.18	1	1220719840	Standard	2.0.10.353	2.0.10.353	02-18-2016	2/18/2016 9:01:34 PM	16:01:34	2.0.10.248	37	Bar37-63.bmp	43	2	?	0r_4g.bmp	0r_4g.bmp	0r_2g.bmp	0r_2g.bmp		0r_4g.bmp			TrialProc	TrialList	0	cvbn	-999999	16	165489	0	v	312	165801	114	-149	-35	-18	-44	13	14	10	4	37	0	0	0	0	4	4	2	2	0	4
Hungry_Donkey_bar_English_2	129	1	<?xml version="1.0"?>\n<Clock xmlns:dt="urn:schemas-microsoft-com:datatypes"><Description dt:dt="string">E-Prime Primary Realtime Clock</Description><StartTime><Timestamp dt:dt="int">0</Timestamp><DateUtc dt:dt="string">2016-02-18T21:01:34Z</DateUtc></StartTime><FrequencyChanges><FrequencyChange><Frequency dt:dt="r8">3507705</Frequency><Timestamp dt:dt="r8">297572786132</Timestamp><Current dt:dt="r8">0</Current><DateUtc dt:dt="string">2016-02-18T21:01:34Z</DateUtc></FrequencyChange></FrequencyChanges></Clock>\n	Hungry_Donkey_bar_English_2-129-1	60.018	-138	1.0.0.18	1	1220719840	Standard	2.0.10.353	2.0.10.353	02-18-2016	2/18/2016 9:01:34 PM	16:01:34	2.0.10.248	38	Bar37-63.bmp	37	2	?	8r_4g.bmp	50r_4g.bmp	1r_2g.bmp	10r_2g.bmp		50r_4g.bmp			TrialProc	TrialList	0	cvbn	-999999	16	167838	0	v	555	168393	118	-199	-81	-18	-90	13	14	1	4	38	-8	-50	-1	-10	4	4	2	2	-50	4
Hungry_Donkey_bar_English_2	129	1	<?xml version="1.0"?>\n<Clock xmlns:dt="urn:schemas-microsoft-com:datatypes"><Description dt:dt="string">E-Prime Primary Realtime Clock</Description><StartTime><Timestamp dt:dt="int">0</Timestamp><DateUtc dt:dt="string">2016-02-18T21:01:34Z</DateUtc></StartTime><FrequencyChanges><FrequencyChange><Frequency dt:dt="r8">3507705</Frequency><Timestamp dt:dt="r8">297572786132</Timestamp><Current dt:dt="r8">0</Current><DateUtc dt:dt="string">2016-02-18T21:01:34Z</DateUtc></FrequencyChange></FrequencyChanges></Clock>\n	Hungry_Donkey_bar_English_2-129-1	60.018	-138	1.0.0.18	1	1220719840	Standard	2.0.10.353	2.0.10.353	02-18-2016	2/18/2016 9:01:34 PM	16:01:34	2.0.10.248	39	Bar37-63.bmp	38	1	?	0r_4g.bmp	0r_4g.bmp	0r_2g.bmp	0r_2g.bmp	0r_4g.bmp				TrialProc	TrialList	0	cvbn	-999999	16	170421	0	c	723	171144	122	-199	-77	-14	-90	13	14	9	4	39	0	0	0	0	4	4	2	2	0	4
Hungry_Donkey_bar_English_2	129	1	<?xml version="1.0"?>\n<Clock xmlns:dt="urn:schemas-microsoft-com:datatypes"><Description dt:dt="string">E-Prime Primary Realtime Clock</Description><StartTime><Timestamp dt:dt="int">0</Timestamp><DateUtc dt:dt="string">2016-02-18T21:01:34Z</DateUtc></StartTime><FrequencyChanges><FrequencyChange><Frequency dt:dt="r8">3507705</Frequency><Timestamp dt:dt="r8">297572786132</Timestamp><Current dt:dt="r8">0</Current><DateUtc dt:dt="string">2016-02-18T21:01:34Z</DateUtc></FrequencyChange></FrequencyChanges></Clock>\n	Hungry_Donkey_bar_English_2-129-1	60.018	-138	1.0.0.18	1	1220719840	Standard	2.0.10.353	2.0.10.353	02-18-2016	2/18/2016 9:01:34 PM	16:01:34	2.0.10.248	40	Bar37-63.bmp	38	4	?	10r_4g.bmp	0r_4g.bmp	2r_2g.bmp	0r_2g.bmp				0r_2g.bmp	TrialProc	TrialList	0	cvbn	-999999	16	173170	0	n	326	173496	124	-199	-75	-14	-90	13	16	4	4	40	-10	0	-2	0	4	4	2	2	0	2
Hungry_Donkey_bar_English_2	129	1	<?xml version="1.0"?>\n<Clock xmlns:dt="urn:schemas-microsoft-com:datatypes"><Description dt:dt="string">E-Prime Primary Realtime Clock</Description><StartTime><Timestamp dt:dt="int">0</Timestamp><DateUtc dt:dt="string">2016-02-18T21:01:34Z</DateUtc></StartTime><FrequencyChanges><FrequencyChange><Frequency dt:dt="r8">3507705</Frequency><Timestamp dt:dt="r8">297572786132</Timestamp><Current dt:dt="r8">0</Current><DateUtc dt:dt="string">2016-02-18T21:01:34Z</DateUtc></FrequencyChange></FrequencyChanges></Clock>\n	Hungry_Donkey_bar_English_2-129-1	60.018	-138	1.0.0.18	1	1220719840	Standard	2.0.10.353	2.0.10.353	02-18-2016	2/18/2016 9:01:34 PM	16:01:34	2.0.10.248	41	Bar37-63.bmp	39	1	?	0r_4g.bmp	0r_4g.bmp	0r_2g.bmp	0r_2g.bmp	0r_4g.bmp				TrialProc	TrialList	0	cvbn	-999999	15	175519	0	c	57	175576	128	-199	-71	-10	-90	13	16	7	5	41	0	0	0	0	4	4	2	2	0	4
Hungry_Donkey_bar_English_2	129	1	<?xml version="1.0"?>\n<Clock xmlns:dt="urn:schemas-microsoft-com:datatypes"><Description dt:dt="string">E-Prime Primary Realtime Clock</Description><StartTime><Timestamp dt:dt="int">0</Timestamp><DateUtc dt:dt="string">2016-02-18T21:01:34Z</DateUtc></StartTime><FrequencyChanges><FrequencyChange><Frequency dt:dt="r8">3507705</Frequency><Timestamp dt:dt="r8">297572786132</Timestamp><Current dt:dt="r8">0</Current><DateUtc dt:dt="string">2016-02-18T21:01:34Z</DateUtc></FrequencyChange></FrequencyChanges></Clock>\n	Hungry_Donkey_bar_English_2-129-1	60.018	-138	1.0.0.18	1	1220719840	Standard	2.0.10.353	2.0.10.353	02-18-2016	2/18/2016 9:01:34 PM	16:01:34	2.0.10.248	42	Bar37-63.bmp	39	1	?	10r_4g.bmp	0r_4g.bmp	2r_2g.bmp	0r_2g.bmp	10r_4g.bmp				TrialProc	TrialList	0	cvbn	-999999	16	177602	0	c	454	178056	132	-209	-77	-16	-90	13	16	4	5	42	-10	0	-2	0	4	4	2	2	-10	4
Hungry_Donkey_bar_English_2	129	1	<?xml version="1.0"?>\n<Clock xmlns:dt="urn:schemas-microsoft-com:datatypes"><Description dt:dt="string">E-Prime Primary Realtime Clock</Description><StartTime><Timestamp dt:dt="int">0</Timestamp><DateUtc dt:dt="string">2016-02-18T21:01:34Z</DateUtc></StartTime><FrequencyChanges><FrequencyChange><Frequency dt:dt="r8">3507705</Frequency><Timestamp dt:dt="r8">297572786132</Timestamp><Current dt:dt="r8">0</Current><DateUtc dt:dt="string">2016-02-18T21:01:34Z</DateUtc></FrequencyChange></FrequencyChanges></Clock>\n	Hungry_Donkey_bar_English_2-129-1	60.018	-138	1.0.0.18	1	1220719840	Standard	2.0.10.353	2.0.10.353	02-18-2016	2/18/2016 9:01:34 PM	16:01:34	2.0.10.248	43	Bar37-63.bmp	39	3	?	0r_4g.bmp	0r_4g.bmp	0r_2g.bmp	0r_2g.bmp			0r_2g.bmp		TrialProc	TrialList	0	cvbn	-999999	17	180085	0	b	435	180520	134	-209	-75	-16	-90	15	16	8	5	43	0	0	0	0	4	4	2	2	0	2
Hungry_Donkey_bar_English_2	129	1	<?xml version="1.0"?>\n<Clock xmlns:dt="urn:schemas-microsoft-com:datatypes"><Description dt:dt="string">E-Prime Primary Realtime Clock</Description><StartTime><Timestamp dt:dt="int">0</Timestamp><DateUtc dt:dt="string">2016-02-18T21:01:34Z</DateUtc></StartTime><FrequencyChanges><FrequencyChange><Frequency dt:dt="r8">3507705</Frequency><Timestamp dt:dt="r8">297572786132</Timestamp><Current dt:dt="r8">0</Current><DateUtc dt:dt="string">2016-02-18T21:01:34Z</DateUtc></FrequencyChange></FrequencyChanges></Clock>\n	Hungry_Donkey_bar_English_2-129-1	60.018	-138	1.0.0.18	1	1220719840	Standard	2.0.10.353	2.0.10.353	02-18-2016	2/18/2016 9:01:34 PM	16:01:34	2.0.10.248	44	Bar37-63.bmp	40	2	?	10r_4g.bmp	0r_4g.bmp	2r_2g.bmp	0r_2g.bmp		0r_4g.bmp			TrialProc	TrialList	0	cvbn	-999999	16	182550	0	v	322	182872	138	-209	-71	-16	-86	15	16	3	5	44	-10	0	-2	0	4	4	2	2	0	4
Hungry_Donkey_bar_English_2	129	1	<?xml version="1.0"?>\n<Clock xmlns:dt="urn:schemas-microsoft-com:datatypes"><Description dt:dt="string">E-Prime Primary Realtime Clock</Description><StartTime><Timestamp dt:dt="int">0</Timestamp><DateUtc dt:dt="string">2016-02-18T21:01:34Z</DateUtc></StartTime><FrequencyChanges><FrequencyChange><Frequency dt:dt="r8">3507705</Frequency><Timestamp dt:dt="r8">297572786132</Timestamp><Current dt:dt="r8">0</Current><DateUtc dt:dt="string">2016-02-18T21:01:34Z</DateUtc></FrequencyChange></FrequencyChanges></Clock>\n	Hungry_Donkey_bar_English_2-129-1	60.018	-138	1.0.0.18	1	1220719840	Standard	2.0.10.353	2.0.10.353	02-18-2016	2/18/2016 9:01:34 PM	16:01:34	2.0.10.248	45	Bar37-63.bmp	40	3	?	0r_4g.bmp	0r_4g.bmp	0r_2g.bmp	0r_2g.bmp			0r_2g.bmp		TrialProc	TrialList	0	cvbn	-999999	16	184900	0	b	244	185144	140	-209	-69	-16	-86	17	16	9	5	45	0	0	0	0	4	4	2	2	0	2
Hungry_Donkey_bar_English_2	129	1	<?xml version="1.0"?>\n<Clock xmlns:dt="urn:schemas-microsoft-com:datatypes"><Description dt:dt="string">E-Prime Primary Realtime Clock</Description><StartTime><Timestamp dt:dt="int">0</Timestamp><DateUtc dt:dt="string">2016-02-18T21:01:34Z</DateUtc></StartTime><FrequencyChanges><FrequencyChange><Frequency dt:dt="r8">3507705</Frequency><Timestamp dt:dt="r8">297572786132</Timestamp><Current dt:dt="r8">0</Current><DateUtc dt:dt="string">2016-02-18T21:01:34Z</DateUtc></FrequencyChange></FrequencyChanges></Clock>\n	Hungry_Donkey_bar_English_2-129-1	60.018	-138	1.0.0.18	1	1220719840	Standard	2.0.10.353	2.0.10.353	02-18-2016	2/18/2016 9:01:34 PM	16:01:34	2.0.10.248	46	Bar37-63.bmp	41	2	?	0r_4g.bmp	0r_4g.bmp	0r_2g.bmp	0r_2g.bmp		0r_4g.bmp			TrialProc	TrialList	0	cvbn	-999999	16	187182	0	v	122	187304	144	-209	-65	-16	-82	17	16	10	5	46	0	0	0	0	4	4	2	2	0	4
Hungry_Donkey_bar_English_2	129	1	<?xml version="1.0"?>\n<Clock xmlns:dt="urn:schemas-microsoft-com:datatypes"><Description dt:dt="string">E-Prime Primary Realtime Clock</Description><StartTime><Timestamp dt:dt="int">0</Timestamp><DateUtc dt:dt="string">2016-02-18T21:01:34Z</DateUtc></StartTime><FrequencyChanges><FrequencyChange><Frequency dt:dt="r8">3507705</Frequency><Timestamp dt:dt="r8">297572786132</Timestamp><Current dt:dt="r8">0</Current><DateUtc dt:dt="string">2016-02-18T21:01:34Z</DateUtc></FrequencyChange></FrequencyChanges></Clock>\n	Hungry_Donkey_bar_English_2-129-1	60.018	-138	1.0.0.18	1	1220719840	Standard	2.0.10.353	2.0.10.353	02-18-2016	2/18/2016 9:01:34 PM	16:01:34	2.0.10.248	47	Bar37-63.bmp	41	3	?	10r_4g.bmp	0r_4g.bmp	2r_2g.bmp	0r_2g.bmp			2r_2g.bmp		TrialProc	TrialList	0	cvbn	-999999	16	189332	0	b	259	189591	146	-211	-65	-16	-82	17	16	2	5	47	-10	0	-2	0	4	4	2	2	-2	2
Hungry_Donkey_bar_English_2	129	1	<?xml version="1.0"?>\n<Clock xmlns:dt="urn:schemas-microsoft-com:datatypes"><Description dt:dt="string">E-Prime Primary Realtime Clock</Description><StartTime><Timestamp dt:dt="int">0</Timestamp><DateUtc dt:dt="string">2016-02-18T21:01:34Z</DateUtc></StartTime><FrequencyChanges><FrequencyChange><Frequency dt:dt="r8">3507705</Frequency><Timestamp dt:dt="r8">297572786132</Timestamp><Current dt:dt="r8">0</Current><DateUtc dt:dt="string">2016-02-18T21:01:34Z</DateUtc></FrequencyChange></FrequencyChanges></Clock>\n	Hungry_Donkey_bar_English_2-129-1	60.018	-138	1.0.0.18	1	1220719840	Standard	2.0.10.353	2.0.10.353	02-18-2016	2/18/2016 9:01:34 PM	16:01:34	2.0.10.248	48	Bar37-63.bmp	41	4	?	0r_4g.bmp	0r_4g.bmp	0r_2g.bmp	0r_2g.bmp				0r_2g.bmp	TrialProc	TrialList	0	cvbn	-999999	16	191631	0	n	504	192135	148	-211	-63	-16	-82	17	18	6	5	48	0	0	0	0	4	4	2	2	0	2
Hungry_Donkey_bar_English_2	129	1	<?xml version="1.0"?>\n<Clock xmlns:dt="urn:schemas-microsoft-com:datatypes"><Description dt:dt="string">E-Prime Primary Realtime Clock</Description><StartTime><Timestamp dt:dt="int">0</Timestamp><DateUtc dt:dt="string">2016-02-18T21:01:34Z</DateUtc></StartTime><FrequencyChanges><FrequencyChange><Frequency dt:dt="r8">3507705</Frequency><Timestamp dt:dt="r8">297572786132</Timestamp><Current dt:dt="r8">0</Current><DateUtc dt:dt="string">2016-02-18T21:01:34Z</DateUtc></FrequencyChange></FrequencyChanges></Clock>\n	Hungry_Donkey_bar_English_2-129-1	60.018	-138	1.0.0.18	1	1220719840	Standard	2.0.10.353	2.0.10.353	02-18-2016	2/18/2016 9:01:34 PM	16:01:34	2.0.10.248	49	Bar37-63.bmp	41	1	?	8r_4g.bmp	50r_4g.bmp	1r_2g.bmp	10r_2g.bmp	8r_4g.bmp				TrialProc	TrialList	0	cvbn	-999999	16	194164	0	c	595	194759	152	-219	-67	-20	-82	17	18	1	5	49	-8	-50	-1	-10	4	4	2	2	-8	4
Hungry_Donkey_bar_English_2	129	1	<?xml version="1.0"?>\n<Clock xmlns:dt="urn:schemas-microsoft-com:datatypes"><Description dt:dt="string">E-Prime Primary Realtime Clock</Description><StartTime><Timestamp dt:dt="int">0</Timestamp><DateUtc dt:dt="string">2016-02-18T21:01:34Z</DateUtc></StartTime><FrequencyChanges><FrequencyChange><Frequency dt:dt="r8">3507705</Frequency><Timestamp dt:dt="r8">297572786132</Timestamp><Current dt:dt="r8">0</Current><DateUtc dt:dt="string">2016-02-18T21:01:34Z</DateUtc></FrequencyChange></FrequencyChanges></Clock>\n	Hungry_Donkey_bar_English_2-129-1	60.018	-138	1.0.0.18	1	1220719840	Standard	2.0.10.353	2.0.10.353	02-18-2016	2/18/2016 9:01:34 PM	16:01:34	2.0.10.248	50	Bar37-63.bmp	42	2	?	12r_4g.bmp	0r_4g.bmp	3r_2g.bmp	0r_2g.bmp		0r_4g.bmp			TrialProc	TrialList	0	cvbn	-999999	16	196796	0	v	571	197367	156	-219	-63	-20	-78	17	18	5	5	50	-12	0	-3	0	4	4	2	2	0	4
Hungry_Donkey_bar_English_2	129	1	<?xml version="1.0"?>\n<Clock xmlns:dt="urn:schemas-microsoft-com:datatypes"><Description dt:dt="string">E-Prime Primary Realtime Clock</Description><StartTime><Timestamp dt:dt="int">0</Timestamp><DateUtc dt:dt="string">2016-02-18T21:01:34Z</DateUtc></StartTime><FrequencyChanges><FrequencyChange><Frequency dt:dt="r8">3507705</Frequency><Timestamp dt:dt="r8">297572786132</Timestamp><Current dt:dt="r8">0</Current><DateUtc dt:dt="string">2016-02-18T21:01:34Z</DateUtc></FrequencyChange></FrequencyChanges></Clock>\n	Hungry_Donkey_bar_English_2-129-1	60.018	-138	1.0.0.18	1	1220719840	Standard	2.0.10.353	2.0.10.353	02-18-2016	2/18/2016 9:01:34 PM	16:01:34	2.0.10.248	51	Bar37-63.bmp	42	3	?	0r_4g.bmp	0r_4g.bmp	0r_2g.bmp	0r_2g.bmp			0r_2g.bmp		TrialProc	TrialList	0	cvbn	-999999	16	199395	0	b	692	200087	158	-219	-61	-20	-78	19	18	6	6	51	0	0	0	0	4	4	2	2	0	2
Hungry_Donkey_bar_English_2	129	1	<?xml version="1.0"?>\n<Clock xmlns:dt="urn:schemas-microsoft-com:datatypes"><Description dt:dt="string">E-Prime Primary Realtime Clock</Description><StartTime><Timestamp dt:dt="int">0</Timestamp><DateUtc dt:dt="string">2016-02-18T21:01:34Z</DateUtc></StartTime><FrequencyChanges><FrequencyChange><Frequency dt:dt="r8">3507705</Frequency><Timestamp dt:dt="r8">297572786132</Timestamp><Current dt:dt="r8">0</Current><DateUtc dt:dt="string">2016-02-18T21:01:34Z</DateUtc></FrequencyChange></FrequencyChanges></Clock>\n	Hungry_Donkey_bar_English_2-129-1	60.018	-138	1.0.0.18	1	1220719840	Standard	2.0.10.353	2.0.10.353	02-18-2016	2/18/2016 9:01:34 PM	16:01:34	2.0.10.248	52	Bar37-63.bmp	42	4	?	0r_4g.bmp	0r_4g.bmp	0r_2g.bmp	0r_2g.bmp				0r_2g.bmp	TrialProc	TrialList	0	cvbn	-999999	16	202111	0	n	504	202615	160	-219	-59	-20	-78	19	20	8	6	52	0	0	0	0	4	4	2	2	0	2
Hungry_Donkey_bar_English_2	129	1	<?xml version="1.0"?>\n<Clock xmlns:dt="urn:schemas-microsoft-com:datatypes"><Description dt:dt="string">E-Prime Primary Realtime Clock</Description><StartTime><Timestamp dt:dt="int">0</Timestamp><DateUtc dt:dt="string">2016-02-18T21:01:34Z</DateUtc></StartTime><FrequencyChanges><FrequencyChange><Frequency dt:dt="r8">3507705</Frequency><Timestamp dt:dt="r8">297572786132</Timestamp><Current dt:dt="r8">0</Current><DateUtc dt:dt="string">2016-02-18T21:01:34Z</DateUtc></FrequencyChange></FrequencyChanges></Clock>\n	Hungry_Donkey_bar_English_2-129-1	60.018	-138	1.0.0.18	1	1220719840	Standard	2.0.10.353	2.0.10.353	02-18-2016	2/18/2016 9:01:34 PM	16:01:34	2.0.10.248	53	Bar37-63.bmp	43	4	?	10r_4g.bmp	0r_4g.bmp	2r_2g.bmp	0r_2g.bmp				0r_2g.bmp	TrialProc	TrialList	0	cvbn	-999999	16	204644	0	n	723	205367	162	-219	-57	-20	-78	19	22	3	6	53	-10	0	-2	0	4	4	2	2	0	2
Hungry_Donkey_bar_English_2	129	1	<?xml version="1.0"?>\n<Clock xmlns:dt="urn:schemas-microsoft-com:datatypes"><Description dt:dt="string">E-Prime Primary Realtime Clock</Description><StartTime><Timestamp dt:dt="int">0</Timestamp><DateUtc dt:dt="string">2016-02-18T21:01:34Z</DateUtc></StartTime><FrequencyChanges><FrequencyChange><Frequency dt:dt="r8">3507705</Frequency><Timestamp dt:dt="r8">297572786132</Timestamp><Current dt:dt="r8">0</Current><DateUtc dt:dt="string">2016-02-18T21:01:34Z</DateUtc></FrequencyChange></FrequencyChanges></Clock>\n	Hungry_Donkey_bar_English_2-129-1	60.018	-138	1.0.0.18	1	1220719840	Standard	2.0.10.353	2.0.10.353	02-18-2016	2/18/2016 9:01:34 PM	16:01:34	2.0.10.248	54	Bar37-63.bmp	43	4	?	12r_4g.bmp	0r_4g.bmp	3r_2g.bmp	0r_2g.bmp				0r_2g.bmp	TrialProc	TrialList	0	cvbn	-999999	16	207393	0	n	293	207686	164	-219	-55	-20	-78	19	24	5	6	54	-12	0	-3	0	4	4	2	2	0	2
Hungry_Donkey_bar_English_2	129	1	<?xml version="1.0"?>\n<Clock xmlns:dt="urn:schemas-microsoft-com:datatypes"><Description dt:dt="string">E-Prime Primary Realtime Clock</Description><StartTime><Timestamp dt:dt="int">0</Timestamp><DateUtc dt:dt="string">2016-02-18T21:01:34Z</DateUtc></StartTime><FrequencyChanges><FrequencyChange><Frequency dt:dt="r8">3507705</Frequency><Timestamp dt:dt="r8">297572786132</Timestamp><Current dt:dt="r8">0</Current><DateUtc dt:dt="string">2016-02-18T21:01:34Z</DateUtc></FrequencyChange></FrequencyChanges></Clock>\n	Hungry_Donkey_bar_English_2-129-1	60.018	-138	1.0.0.18	1	1220719840	Standard	2.0.10.353	2.0.10.353	02-18-2016	2/18/2016 9:01:34 PM	16:01:34	2.0.10.248	55	Bar37-63.bmp	43	3	?	0r_4g.bmp	0r_4g.bmp	0r_2g.bmp	0r_2g.bmp			0r_2g.bmp		TrialProc	TrialList	0	cvbn	-999999	16	209726	0	b	376	210102	166	-219	-53	-20	-78	21	24	10	6	55	0	0	0	0	4	4	2	2	0	2
Hungry_Donkey_bar_English_2	129	1	<?xml version="1.0"?>\n<Clock xmlns:dt="urn:schemas-microsoft-com:datatypes"><Description dt:dt="string">E-Prime Primary Realtime Clock</Description><StartTime><Timestamp dt:dt="int">0</Timestamp><DateUtc dt:dt="string">2016-02-18T21:01:34Z</DateUtc></StartTime><FrequencyChanges><FrequencyChange><Frequency dt:dt="r8">3507705</Frequency><Timestamp dt:dt="r8">297572786132</Timestamp><Current dt:dt="r8">0</Current><DateUtc dt:dt="string">2016-02-18T21:01:34Z</DateUtc></FrequencyChange></FrequencyChanges></Clock>\n	Hungry_Donkey_bar_English_2-129-1	60.018	-138	1.0.0.18	1	1220719840	Standard	2.0.10.353	2.0.10.353	02-18-2016	2/18/2016 9:01:34 PM	16:01:34	2.0.10.248	56	Bar50-50.bmp	44	2	?	0r_4g.bmp	0r_4g.bmp	0r_2g.bmp	0r_2g.bmp		0r_4g.bmp			TrialProc	TrialList	0	cvbn	-999999	16	212142	0	v	1112	213254	170	-219	-49	-20	-74	21	24	9	6	56	0	0	0	0	4	4	2	2	0	4
Hungry_Donkey_bar_English_2	129	1	<?xml version="1.0"?>\n<Clock xmlns:dt="urn:schemas-microsoft-com:datatypes"><Description dt:dt="string">E-Prime Primary Realtime Clock</Description><StartTime><Timestamp dt:dt="int">0</Timestamp><DateUtc dt:dt="string">2016-02-18T21:01:34Z</DateUtc></StartTime><FrequencyChanges><FrequencyChange><Frequency dt:dt="r8">3507705</Frequency><Timestamp dt:dt="r8">297572786132</Timestamp><Current dt:dt="r8">0</Current><DateUtc dt:dt="string">2016-02-18T21:01:34Z</DateUtc></FrequencyChange></FrequencyChanges></Clock>\n	Hungry_Donkey_bar_English_2-129-1	60.018	-138	1.0.0.18	1	1220719840	Standard	2.0.10.353	2.0.10.353	02-18-2016	2/18/2016 9:01:34 PM	16:01:34	2.0.10.248	57	Bar37-63.bmp	43	1	?	10r_4g.bmp	0r_4g.bmp	2r_2g.bmp	0r_2g.bmp	10r_4g.bmp				TrialProc	TrialList	0	cvbn	-999999	16	215291	0	c	395	215686	174	-229	-55	-26	-74	21	24	4	6	57	-10	0	-2	0	4	4	2	2	-10	4
Hungry_Donkey_bar_English_2	129	1	<?xml version="1.0"?>\n<Clock xmlns:dt="urn:schemas-microsoft-com:datatypes"><Description dt:dt="string">E-Prime Primary Realtime Clock</Description><StartTime><Timestamp dt:dt="int">0</Timestamp><DateUtc dt:dt="string">2016-02-18T21:01:34Z</DateUtc></StartTime><FrequencyChanges><FrequencyChange><Frequency dt:dt="r8">3507705</Frequency><Timestamp dt:dt="r8">297572786132</Timestamp><Current dt:dt="r8">0</Current><DateUtc dt:dt="string">2016-02-18T21:01:34Z</DateUtc></FrequencyChange></FrequencyChanges></Clock>\n	Hungry_Donkey_bar_English_2-129-1	60.018	-138	1.0.0.18	1	1220719840	Standard	2.0.10.353	2.0.10.353	02-18-2016	2/18/2016 9:01:34 PM	16:01:34	2.0.10.248	58	Bar37-63.bmp	39	2	?	8r_4g.bmp	50r_4g.bmp	1r_2g.bmp	10r_2g.bmp		50r_4g.bmp			TrialProc	TrialList	0	cvbn	-999999	16	217723	0	v	299	218022	178	-279	-101	-26	-120	21	24	1	6	58	-8	-50	-1	-10	4	4	2	2	-50	4
Hungry_Donkey_bar_English_2	129	1	<?xml version="1.0"?>\n<Clock xmlns:dt="urn:schemas-microsoft-com:datatypes"><Description dt:dt="string">E-Prime Primary Realtime Clock</Description><StartTime><Timestamp dt:dt="int">0</Timestamp><DateUtc dt:dt="string">2016-02-18T21:01:34Z</DateUtc></StartTime><FrequencyChanges><FrequencyChange><Frequency dt:dt="r8">3507705</Frequency><Timestamp dt:dt="r8">297572786132</Timestamp><Current dt:dt="r8">0</Current><DateUtc dt:dt="string">2016-02-18T21:01:34Z</DateUtc></FrequencyChange></FrequencyChanges></Clock>\n	Hungry_Donkey_bar_English_2-129-1	60.018	-138	1.0.0.18	1	1220719840	Standard	2.0.10.353	2.0.10.353	02-18-2016	2/18/2016 9:01:34 PM	16:01:34	2.0.10.248	59	Bar37-63.bmp	39	3	?	0r_4g.bmp	0r_4g.bmp	0r_2g.bmp	0r_2g.bmp			0r_2g.bmp		TrialProc	TrialList	0	cvbn	-999999	16	220056	0	b	766	220822	180	-279	-99	-26	-120	23	24	7	6	59	0	0	0	0	4	4	2	2	0	2
Hungry_Donkey_bar_English_2	129	1	<?xml version="1.0"?>\n<Clock xmlns:dt="urn:schemas-microsoft-com:datatypes"><Description dt:dt="string">E-Prime Primary Realtime Clock</Description><StartTime><Timestamp dt:dt="int">0</Timestamp><DateUtc dt:dt="string">2016-02-18T21:01:34Z</DateUtc></StartTime><FrequencyChanges><FrequencyChange><Frequency dt:dt="r8">3507705</Frequency><Timestamp dt:dt="r8">297572786132</Timestamp><Current dt:dt="r8">0</Current><DateUtc dt:dt="string">2016-02-18T21:01:34Z</DateUtc></FrequencyChange></FrequencyChanges></Clock>\n	Hungry_Donkey_bar_English_2-129-1	60.018	-138	1.0.0.18	1	1220719840	Standard	2.0.10.353	2.0.10.353	02-18-2016	2/18/2016 9:01:34 PM	16:01:34	2.0.10.248	60	Bar37-63.bmp	39	4	?	10r_4g.bmp	0r_4g.bmp	2r_2g.bmp	0r_2g.bmp				0r_2g.bmp	TrialProc	TrialList	0	cvbn	-999999	16	222855	0	n	462	223317	182	-279	-97	-26	-120	23	26	2	6	60	-10	0	-2	0	4	4	2	2	0	2
Hungry_Donkey_bar_English_2	129	1	<?xml version="1.0"?>\n<Clock xmlns:dt="urn:schemas-microsoft-com:datatypes"><Description dt:dt="string">E-Prime Primary Realtime Clock</Description><StartTime><Timestamp dt:dt="int">0</Timestamp><DateUtc dt:dt="string">2016-02-18T21:01:34Z</DateUtc></StartTime><FrequencyChanges><FrequencyChange><Frequency dt:dt="r8">3507705</Frequency><Timestamp dt:dt="r8">297572786132</Timestamp><Current dt:dt="r8">0</Current><DateUtc dt:dt="string">2016-02-18T21:01:34Z</DateUtc></FrequencyChange></FrequencyChanges></Clock>\n	Hungry_Donkey_bar_English_2-129-1	60.018	-138	1.0.0.18	1	1220719840	Standard	2.0.10.353	2.0.10.353	02-18-2016	2/18/2016 9:01:34 PM	16:01:34	2.0.10.248	61	Bar37-63.bmp	40	4	?	0r_4g.bmp	0r_4g.bmp	0r_2g.bmp	0r_2g.bmp				0r_2g.bmp	TrialProc	TrialList	0	cvbn	-999999	17	225355	0	n	3578	228933	184	-279	-95	-26	-120	23	28	6	7	61	0	0	0	0	4	4	2	2	0	2
Hungry_Donkey_bar_English_2	129	1	<?xml version="1.0"?>\n<Clock xmlns:dt="urn:schemas-microsoft-com:datatypes"><Description dt:dt="string">E-Prime Primary Realtime Clock</Description><StartTime><Timestamp dt:dt="int">0</Timestamp><DateUtc dt:dt="string">2016-02-18T21:01:34Z</DateUtc></StartTime><FrequencyChanges><FrequencyChange><Frequency dt:dt="r8">3507705</Frequency><Timestamp dt:dt="r8">297572786132</Timestamp><Current dt:dt="r8">0</Current><DateUtc dt:dt="string">2016-02-18T21:01:34Z</DateUtc></FrequencyChange></FrequencyChanges></Clock>\n	Hungry_Donkey_bar_English_2-129-1	60.018	-138	1.0.0.18	1	1220719840	Standard	2.0.10.353	2.0.10.353	02-18-2016	2/18/2016 9:01:34 PM	16:01:34	2.0.10.248	62	Bar37-63.bmp	40	3	?	10r_4g.bmp	0r_4g.bmp	2r_2g.bmp	0r_2g.bmp			2r_2g.bmp		TrialProc	TrialList	0	cvbn	-999999	17	230970	0	b	443	231413	186	-281	-95	-26	-120	23	28	3	7	62	-10	0	-2	0	4	4	2	2	-2	2
Hungry_Donkey_bar_English_2	129	1	<?xml version="1.0"?>\n<Clock xmlns:dt="urn:schemas-microsoft-com:datatypes"><Description dt:dt="string">E-Prime Primary Realtime Clock</Description><StartTime><Timestamp dt:dt="int">0</Timestamp><DateUtc dt:dt="string">2016-02-18T21:01:34Z</DateUtc></StartTime><FrequencyChanges><FrequencyChange><Frequency dt:dt="r8">3507705</Frequency><Timestamp dt:dt="r8">297572786132</Timestamp><Current dt:dt="r8">0</Current><DateUtc dt:dt="string">2016-02-18T21:01:34Z</DateUtc></FrequencyChange></FrequencyChanges></Clock>\n	Hungry_Donkey_bar_English_2-129-1	60.018	-138	1.0.0.18	1	1220719840	Standard	2.0.10.353	2.0.10.353	02-18-2016	2/18/2016 9:01:34 PM	16:01:34	2.0.10.248	63	Bar37-63.bmp	40	2	?	0r_4g.bmp	0r_4g.bmp	0r_2g.bmp	0r_2g.bmp		0r_4g.bmp			TrialProc	TrialList	0	cvbn	-999999	15	233435	0	v	346	233781	190	-281	-91	-26	-116	23	28	7	7	63	0	0	0	0	4	4	2	2	0	4
Hungry_Donkey_bar_English_2	129	1	<?xml version="1.0"?>\n<Clock xmlns:dt="urn:schemas-microsoft-com:datatypes"><Description dt:dt="string">E-Prime Primary Realtime Clock</Description><StartTime><Timestamp dt:dt="int">0</Timestamp><DateUtc dt:dt="string">2016-02-18T21:01:34Z</DateUtc></StartTime><FrequencyChanges><FrequencyChange><Frequency dt:dt="r8">3507705</Frequency><Timestamp dt:dt="r8">297572786132</Timestamp><Current dt:dt="r8">0</Current><DateUtc dt:dt="string">2016-02-18T21:01:34Z</DateUtc></FrequencyChange></FrequencyChanges></Clock>\n	Hungry_Donkey_bar_English_2-129-1	60.018	-138	1.0.0.18	1	1220719840	Standard	2.0.10.353	2.0.10.353	02-18-2016	2/18/2016 9:01:34 PM	16:01:34	2.0.10.248	64	Bar37-63.bmp	40	1	?	8r_4g.bmp	50r_4g.bmp	1r_2g.bmp	10r_2g.bmp	8r_4g.bmp				TrialProc	TrialList	0	cvbn	-999999	16	235818	0	c	267	236085	194	-289	-95	-30	-116	23	28	1	7	64	-8	-50	-1	-10	4	4	2	2	-8	4
Hungry_Donkey_bar_English_2	129	1	<?xml version="1.0"?>\n<Clock xmlns:dt="urn:schemas-microsoft-com:datatypes"><Description dt:dt="string">E-Prime Primary Realtime Clock</Description><StartTime><Timestamp dt:dt="int">0</Timestamp><DateUtc dt:dt="string">2016-02-18T21:01:34Z</DateUtc></StartTime><FrequencyChanges><FrequencyChange><Frequency dt:dt="r8">3507705</Frequency><Timestamp dt:dt="r8">297572786132</Timestamp><Current dt:dt="r8">0</Current><DateUtc dt:dt="string">2016-02-18T21:01:34Z</DateUtc></FrequencyChange></FrequencyChanges></Clock>\n	Hungry_Donkey_bar_English_2-129-1	60.018	-138	1.0.0.18	1	1220719840	Standard	2.0.10.353	2.0.10.353	02-18-2016	2/18/2016 9:01:34 PM	16:01:34	2.0.10.248	65	Bar37-63.bmp	41	2	?	10r_4g.bmp	0r_4g.bmp	2r_2g.bmp	0r_2g.bmp		0r_4g.bmp			TrialProc	TrialList	0	cvbn	-999999	16	238117	0	v	48	238165	198	-289	-91	-30	-112	23	28	2	7	65	-10	0	-2	0	4	4	2	2	0	4
Hungry_Donkey_bar_English_2	129	1	<?xml version="1.0"?>\n<Clock xmlns:dt="urn:schemas-microsoft-com:datatypes"><Description dt:dt="string">E-Prime Primary Realtime Clock</Description><StartTime><Timestamp dt:dt="int">0</Timestamp><DateUtc dt:dt="string">2016-02-18T21:01:34Z</DateUtc></StartTime><FrequencyChanges><FrequencyChange><Frequency dt:dt="r8">3507705</Frequency><Timestamp dt:dt="r8">297572786132</Timestamp><Current dt:dt="r8">0</Current><DateUtc dt:dt="string">2016-02-18T21:01:34Z</DateUtc></FrequencyChange></FrequencyChanges></Clock>\n	Hungry_Donkey_bar_English_2-129-1	60.018	-138	1.0.0.18	1	1220719840	Standard	2.0.10.353	2.0.10.353	02-18-2016	2/18/2016 9:01:34 PM	16:01:34	2.0.10.248	66	Bar37-63.bmp	41	3	?	0r_4g.bmp	0r_4g.bmp	0r_2g.bmp	0r_2g.bmp			0r_2g.bmp		TrialProc	TrialList	0	cvbn	-999999	16	240200	0	b	1116	241316	200	-289	-89	-30	-112	25	28	8	7	66	0	0	0	0	4	4	2	2	0	2
Hungry_Donkey_bar_English_2	129	1	<?xml version="1.0"?>\n<Clock xmlns:dt="urn:schemas-microsoft-com:datatypes"><Description dt:dt="string">E-Prime Primary Realtime Clock</Description><StartTime><Timestamp dt:dt="int">0</Timestamp><DateUtc dt:dt="string">2016-02-18T21:01:34Z</DateUtc></StartTime><FrequencyChanges><FrequencyChange><Frequency dt:dt="r8">3507705</Frequency><Timestamp dt:dt="r8">297572786132</Timestamp><Current dt:dt="r8">0</Current><DateUtc dt:dt="string">2016-02-18T21:01:34Z</DateUtc></FrequencyChange></FrequencyChanges></Clock>\n	Hungry_Donkey_bar_English_2-129-1	60.018	-138	1.0.0.18	1	1220719840	Standard	2.0.10.353	2.0.10.353	02-18-2016	2/18/2016 9:01:34 PM	16:01:34	2.0.10.248	67	Bar37-63.bmp	41	4	?	0r_4g.bmp	0r_4g.bmp	0r_2g.bmp	0r_2g.bmp				0r_2g.bmp	TrialProc	TrialList	0	cvbn	-999999	16	243349	0	n	9855	253204	202	-289	-87	-30	-112	25	30	9	7	67	0	0	0	0	4	4	2	2	0	2
Hungry_Donkey_bar_English_2	129	1	<?xml version="1.0"?>\n<Clock xmlns:dt="urn:schemas-microsoft-com:datatypes"><Description dt:dt="string">E-Prime Primary Realtime Clock</Description><StartTime><Timestamp dt:dt="int">0</Timestamp><DateUtc dt:dt="string">2016-02-18T21:01:34Z</DateUtc></StartTime><FrequencyChanges><FrequencyChange><Frequency dt:dt="r8">3507705</Frequency><Timestamp dt:dt="r8">297572786132</Timestamp><Current dt:dt="r8">0</Current><DateUtc dt:dt="string">2016-02-18T21:01:34Z</DateUtc></FrequencyChange></FrequencyChanges></Clock>\n	Hungry_Donkey_bar_English_2-129-1	60.018	-138	1.0.0.18	1	1220719840	Standard	2.0.10.353	2.0.10.353	02-18-2016	2/18/2016 9:01:34 PM	16:01:34	2.0.10.248	68	Bar37-63.bmp	41	4	?	12r_4g.bmp	0r_4g.bmp	3r_2g.bmp	0r_2g.bmp				0r_2g.bmp	TrialProc	TrialList	0	cvbn	-999999	16	255246	0	n	470	255716	204	-289	-85	-30	-112	25	32	5	7	68	-12	0	-3	0	4	4	2	2	0	2
Hungry_Donkey_bar_English_2	129	1	<?xml version="1.0"?>\n<Clock xmlns:dt="urn:schemas-microsoft-com:datatypes"><Description dt:dt="string">E-Prime Primary Realtime Clock</Description><StartTime><Timestamp dt:dt="int">0</Timestamp><DateUtc dt:dt="string">2016-02-18T21:01:34Z</DateUtc></StartTime><FrequencyChanges><FrequencyChange><Frequency dt:dt="r8">3507705</Frequency><Timestamp dt:dt="r8">297572786132</Timestamp><Current dt:dt="r8">0</Current><DateUtc dt:dt="string">2016-02-18T21:01:34Z</DateUtc></FrequencyChange></FrequencyChanges></Clock>\n	Hungry_Donkey_bar_English_2-129-1	60.018	-138	1.0.0.18	1	1220719840	Standard	2.0.10.353	2.0.10.353	02-18-2016	2/18/2016 9:01:34 PM	16:01:34	2.0.10.248	69	Bar37-63.bmp	42	4	?	0r_4g.bmp	0r_4g.bmp	0r_2g.bmp	0r_2g.bmp				0r_2g.bmp	TrialProc	TrialList	0	cvbn	-999999	16	257745	0	n	754	258499	206	-289	-83	-30	-112	25	34	10	7	69	0	0	0	0	4	4	2	2	0	2
Hungry_Donkey_bar_English_2	129	1	<?xml version="1.0"?>\n<Clock xmlns:dt="urn:schemas-microsoft-com:datatypes"><Description dt:dt="string">E-Prime Primary Realtime Clock</Description><StartTime><Timestamp dt:dt="int">0</Timestamp><DateUtc dt:dt="string">2016-02-18T21:01:34Z</DateUtc></StartTime><FrequencyChanges><FrequencyChange><Frequency dt:dt="r8">3507705</Frequency><Timestamp dt:dt="r8">297572786132</Timestamp><Current dt:dt="r8">0</Current><DateUtc dt:dt="string">2016-02-18T21:01:34Z</DateUtc></FrequencyChange></FrequencyChanges></Clock>\n	Hungry_Donkey_bar_English_2-129-1	60.018	-138	1.0.0.18	1	1220719840	Standard	2.0.10.353	2.0.10.353	02-18-2016	2/18/2016 9:01:34 PM	16:01:34	2.0.10.248	70	Bar37-63.bmp	42	3	?	10r_4g.bmp	0r_4g.bmp	2r_2g.bmp	0r_2g.bmp			2r_2g.bmp		TrialProc	TrialList	0	cvbn	-999999	16	260527	0	b	980	261507	208	-291	-83	-30	-112	25	34	4	7	70	-10	0	-2	0	4	4	2	2	-2	2
Hungry_Donkey_bar_English_2	129	1	<?xml version="1.0"?>\n<Clock xmlns:dt="urn:schemas-microsoft-com:datatypes"><Description dt:dt="string">E-Prime Primary Realtime Clock</Description><StartTime><Timestamp dt:dt="int">0</Timestamp><DateUtc dt:dt="string">2016-02-18T21:01:34Z</DateUtc></StartTime><FrequencyChanges><FrequencyChange><Frequency dt:dt="r8">3507705</Frequency><Timestamp dt:dt="r8">297572786132</Timestamp><Current dt:dt="r8">0</Current><DateUtc dt:dt="string">2016-02-18T21:01:34Z</DateUtc></FrequencyChange></FrequencyChanges></Clock>\n	Hungry_Donkey_bar_English_2-129-1	60.018	-138	1.0.0.18	1	1220719840	Standard	2.0.10.353	2.0.10.353	02-18-2016	2/18/2016 9:01:34 PM	16:01:34	2.0.10.248	71	Bar37-63.bmp	42	2	?	12r_4g.bmp	0r_4g.bmp	3r_2g.bmp	0r_2g.bmp		0r_4g.bmp			TrialProc	TrialList	0	cvbn	-999999	16	263543	0	v	1132	264675	212	-291	-79	-30	-108	25	34	5	8	71	-12	0	-3	0	4	4	2	2	0	4
Hungry_Donkey_bar_English_2	129	1	<?xml version="1.0"?>\n<Clock xmlns:dt="urn:schemas-microsoft-com:datatypes"><Description dt:dt="string">E-Prime Primary Realtime Clock</Description><StartTime><Timestamp dt:dt="int">0</Timestamp><DateUtc dt:dt="string">2016-02-18T21:01:34Z</DateUtc></StartTime><FrequencyChanges><FrequencyChange><Frequency dt:dt="r8">3507705</Frequency><Timestamp dt:dt="r8">297572786132</Timestamp><Current dt:dt="r8">0</Current><DateUtc dt:dt="string">2016-02-18T21:01:34Z</DateUtc></FrequencyChange></FrequencyChanges></Clock>\n	Hungry_Donkey_bar_English_2-129-1	60.018	-138	1.0.0.18	1	1220719840	Standard	2.0.10.353	2.0.10.353	02-18-2016	2/18/2016 9:01:34 PM	16:01:34	2.0.10.248	72	Bar37-63.bmp	42	1	?	10r_4g.bmp	0r_4g.bmp	2r_2g.bmp	0r_2g.bmp	10r_4g.bmp				TrialProc	TrialList	0	cvbn	-999999	16	266709	0	c	878	267587	216	-301	-85	-36	-108	25	34	3	8	72	-10	0	-2	0	4	4	2	2	-10	4
Hungry_Donkey_bar_English_2	129	1	<?xml version="1.0"?>\n<Clock xmlns:dt="urn:schemas-microsoft-com:datatypes"><Description dt:dt="string">E-Prime Primary Realtime Clock</Description><StartTime><Timestamp dt:dt="int">0</Timestamp><DateUtc dt:dt="string">2016-02-18T21:01:34Z</DateUtc></StartTime><FrequencyChanges><FrequencyChange><Frequency dt:dt="r8">3507705</Frequency><Timestamp dt:dt="r8">297572786132</Timestamp><Current dt:dt="r8">0</Current><DateUtc dt:dt="string">2016-02-18T21:01:34Z</DateUtc></FrequencyChange></FrequencyChanges></Clock>\n	Hungry_Donkey_bar_English_2-129-1	60.018	-138	1.0.0.18	1	1220719840	Standard	2.0.10.353	2.0.10.353	02-18-2016	2/18/2016 9:01:34 PM	16:01:34	2.0.10.248	73	Bar37-63.bmp	42	2	?	0r_4g.bmp	0r_4g.bmp	0r_2g.bmp	0r_2g.bmp		0r_4g.bmp			TrialProc	TrialList	0	cvbn	-999999	16	269625	0	v	570	270195	220	-301	-81	-36	-104	25	34	8	8	73	0	0	0	0	4	4	2	2	0	4
Hungry_Donkey_bar_English_2	129	1	<?xml version="1.0"?>\n<Clock xmlns:dt="urn:schemas-microsoft-com:datatypes"><Description dt:dt="string">E-Prime Primary Realtime Clock</Description><StartTime><Timestamp dt:dt="int">0</Timestamp><DateUtc dt:dt="string">2016-02-18T21:01:34Z</DateUtc></StartTime><FrequencyChanges><FrequencyChange><Frequency dt:dt="r8">3507705</Frequency><Timestamp dt:dt="r8">297572786132</Timestamp><Current dt:dt="r8">0</Current><DateUtc dt:dt="string">2016-02-18T21:01:34Z</DateUtc></FrequencyChange></FrequencyChanges></Clock>\n	Hungry_Donkey_bar_English_2-129-1	60.018	-138	1.0.0.18	1	1220719840	Standard	2.0.10.353	2.0.10.353	02-18-2016	2/18/2016 9:01:34 PM	16:01:34	2.0.10.248	74	Bar37-63.bmp	42	3	?	0r_4g.bmp	0r_4g.bmp	0r_2g.bmp	0r_2g.bmp			0r_2g.bmp		TrialProc	TrialList	0	cvbn	-999999	16	272224	0	b	1299	273523	222	-301	-79	-36	-104	27	34	10	8	74	0	0	0	0	4	4	2	2	0	2
Hungry_Donkey_bar_English_2	129	1	<?xml version="1.0"?>\n<Clock xmlns:dt="urn:schemas-microsoft-com:datatypes"><Description dt:dt="string">E-Prime Primary Realtime Clock</Description><StartTime><Timestamp dt:dt="int">0</Timestamp><DateUtc dt:dt="string">2016-02-18T21:01:34Z</DateUtc></StartTime><FrequencyChanges><FrequencyChange><Frequency dt:dt="r8">3507705</Frequency><Timestamp dt:dt="r8">297572786132</Timestamp><Current dt:dt="r8">0</Current><DateUtc dt:dt="string">2016-02-18T21:01:34Z</DateUtc></FrequencyChange></FrequencyChanges></Clock>\n	Hungry_Donkey_bar_English_2-129-1	60.018	-138	1.0.0.18	1	1220719840	Standard	2.0.10.353	2.0.10.353	02-18-2016	2/18/2016 9:01:34 PM	16:01:34	2.0.10.248	75	Bar37-63.bmp	43	4	?	0r_4g.bmp	0r_4g.bmp	0r_2g.bmp	0r_2g.bmp				0r_2g.bmp	TrialProc	TrialList	0	cvbn	-999999	16	275556	0	n	415	275971	224	-301	-77	-36	-104	27	36	6	8	75	0	0	0	0	4	4	2	2	0	2
Hungry_Donkey_bar_English_2	129	1	<?xml version="1.0"?>\n<Clock xmlns:dt="urn:schemas-microsoft-com:datatypes"><Description dt:dt="string">E-Prime Primary Realtime Clock</Description><StartTime><Timestamp dt:dt="int">0</Timestamp><DateUtc dt:dt="string">2016-02-18T21:01:34Z</DateUtc></StartTime><FrequencyChanges><FrequencyChange><Frequency dt:dt="r8">3507705</Frequency><Timestamp dt:dt="r8">297572786132</Timestamp><Current dt:dt="r8">0</Current><DateUtc dt:dt="string">2016-02-18T21:01:34Z</DateUtc></FrequencyChange></FrequencyChanges></Clock>\n	Hungry_Donkey_bar_English_2-129-1	60.018	-138	1.0.0.18	1	1220719840	Standard	2.0.10.353	2.0.10.353	02-18-2016	2/18/2016 9:01:34 PM	16:01:34	2.0.10.248	76	Bar37-63.bmp	43	4	?	10r_4g.bmp	0r_4g.bmp	2r_2g.bmp	0r_2g.bmp				0r_2g.bmp	TrialProc	TrialList	0	cvbn	-999999	16	278006	0	n	780	278786	226	-301	-75	-36	-104	27	38	2	8	76	-10	0	-2	0	4	4	2	2	0	2
Hungry_Donkey_bar_English_2	129	1	<?xml version="1.0"?>\n<Clock xmlns:dt="urn:schemas-microsoft-com:datatypes"><Description dt:dt="string">E-Prime Primary Realtime Clock</Description><StartTime><Timestamp dt:dt="int">0</Timestamp><DateUtc dt:dt="string">2016-02-18T21:01:34Z</DateUtc></StartTime><FrequencyChanges><FrequencyChange><Frequency dt:dt="r8">3507705</Frequency><Timestamp dt:dt="r8">297572786132</Timestamp><Current dt:dt="r8">0</Current><DateUtc dt:dt="string">2016-02-18T21:01:34Z</DateUtc></FrequencyChange></FrequencyChanges></Clock>\n	Hungry_Donkey_bar_English_2-129-1	60.018	-138	1.0.0.18	1	1220719840	Standard	2.0.10.353	2.0.10.353	02-18-2016	2/18/2016 9:01:34 PM	16:01:34	2.0.10.248	77	Bar37-63.bmp	43	3	?	8r_4g.bmp	50r_4g.bmp	1r_2g.bmp	10r_2g.bmp			1r_2g.bmp		TrialProc	TrialList	0	cvbn	-999999	17	280822	0	b	524	281346	228	-302	-74	-36	-104	28	38	1	8	77	-8	-50	-1	-10	4	4	2	2	-1	2
Hungry_Donkey_bar_English_2	129	1	<?xml version="1.0"?>\n<Clock xmlns:dt="urn:schemas-microsoft-com:datatypes"><Description dt:dt="string">E-Prime Primary Realtime Clock</Description><StartTime><Timestamp dt:dt="int">0</Timestamp><DateUtc dt:dt="string">2016-02-18T21:01:34Z</DateUtc></StartTime><FrequencyChanges><FrequencyChange><Frequency dt:dt="r8">3507705</Frequency><Timestamp dt:dt="r8">297572786132</Timestamp><Current dt:dt="r8">0</Current><DateUtc dt:dt="string">2016-02-18T21:01:34Z</DateUtc></FrequencyChange></FrequencyChanges></Clock>\n	Hungry_Donkey_bar_English_2-129-1	60.018	-138	1.0.0.18	1	1220719840	Standard	2.0.10.353	2.0.10.353	02-18-2016	2/18/2016 9:01:34 PM	16:01:34	2.0.10.248	78	Bar37-63.bmp	43	1	?	0r_4g.bmp	0r_4g.bmp	0r_2g.bmp	0r_2g.bmp	0r_4g.bmp				TrialProc	TrialList	0	cvbn	-999999	16	283387	0	c	359	283746	232	-302	-70	-32	-104	28	38	7	8	78	0	0	0	0	4	4	2	2	0	4
Hungry_Donkey_bar_English_2	129	1	<?xml version="1.0"?>\n<Clock xmlns:dt="urn:schemas-microsoft-com:datatypes"><Description dt:dt="string">E-Prime Primary Realtime Clock</Description><StartTime><Timestamp dt:dt="int">0</Timestamp><DateUtc dt:dt="string">2016-02-18T21:01:34Z</DateUtc></StartTime><FrequencyChanges><FrequencyChange><Frequency dt:dt="r8">3507705</Frequency><Timestamp dt:dt="r8">297572786132</Timestamp><Current dt:dt="r8">0</Current><DateUtc dt:dt="string">2016-02-18T21:01:34Z</DateUtc></FrequencyChange></FrequencyChanges></Clock>\n	Hungry_Donkey_bar_English_2-129-1	60.018	-138	1.0.0.18	1	1220719840	Standard	2.0.10.353	2.0.10.353	02-18-2016	2/18/2016 9:01:34 PM	16:01:34	2.0.10.248	79	Bar50-50.bmp	44	2	?	0r_4g.bmp	0r_4g.bmp	0r_2g.bmp	0r_2g.bmp		0r_4g.bmp			TrialProc	TrialList	0	cvbn	-999999	16	285770	0	v	328	286098	236	-302	-66	-32	-100	28	38	9	8	79	0	0	0	0	4	4	2	2	0	4
Hungry_Donkey_bar_English_2	129	1	<?xml version="1.0"?>\n<Clock xmlns:dt="urn:schemas-microsoft-com:datatypes"><Description dt:dt="string">E-Prime Primary Realtime Clock</Description><StartTime><Timestamp dt:dt="int">0</Timestamp><DateUtc dt:dt="string">2016-02-18T21:01:34Z</DateUtc></StartTime><FrequencyChanges><FrequencyChange><Frequency dt:dt="r8">3507705</Frequency><Timestamp dt:dt="r8">297572786132</Timestamp><Current dt:dt="r8">0</Current><DateUtc dt:dt="string">2016-02-18T21:01:34Z</DateUtc></FrequencyChange></FrequencyChanges></Clock>\n	Hungry_Donkey_bar_English_2-129-1	60.018	-138	1.0.0.18	1	1220719840	Standard	2.0.10.353	2.0.10.353	02-18-2016	2/18/2016 9:01:34 PM	16:01:34	2.0.10.248	80	Bar50-50.bmp	44	2	?	10r_4g.bmp	0r_4g.bmp	2r_2g.bmp	0r_2g.bmp		0r_4g.bmp			TrialProc	TrialList	0	cvbn	-999999	16	288136	0	v	186	288322	240	-302	-62	-32	-96	28	38	4	8	80	-10	0	-2	0	4	4	2	2	0	4
Hungry_Donkey_bar_English_2	129	1	<?xml version="1.0"?>\n<Clock xmlns:dt="urn:schemas-microsoft-com:datatypes"><Description dt:dt="string">E-Prime Primary Realtime Clock</Description><StartTime><Timestamp dt:dt="int">0</Timestamp><DateUtc dt:dt="string">2016-02-18T21:01:34Z</DateUtc></StartTime><FrequencyChanges><FrequencyChange><Frequency dt:dt="r8">3507705</Frequency><Timestamp dt:dt="r8">297572786132</Timestamp><Current dt:dt="r8">0</Current><DateUtc dt:dt="string">2016-02-18T21:01:34Z</DateUtc></FrequencyChange></FrequencyChanges></Clock>\n	Hungry_Donkey_bar_English_2-129-1	60.018	-138	1.0.0.18	1	1220719840	Standard	2.0.10.353	2.0.10.353	02-18-2016	2/18/2016 9:01:34 PM	16:01:34	2.0.10.248	81	Bar50-50.bmp	44	1	?	12r_4g.bmp	0r_4g.bmp	3r_2g.bmp	0r_2g.bmp	12r_4g.bmp				TrialProc	TrialList	0	cvbn	-999999	16	290352	0	c	114	290466	244	-314	-70	-40	-96	28	38	5	9	81	-12	0	-3	0	4	4	2	2	-12	4
Hungry_Donkey_bar_English_2	129	1	<?xml version="1.0"?>\n<Clock xmlns:dt="urn:schemas-microsoft-com:datatypes"><Description dt:dt="string">E-Prime Primary Realtime Clock</Description><StartTime><Timestamp dt:dt="int">0</Timestamp><DateUtc dt:dt="string">2016-02-18T21:01:34Z</DateUtc></StartTime><FrequencyChanges><FrequencyChange><Frequency dt:dt="r8">3507705</Frequency><Timestamp dt:dt="r8">297572786132</Timestamp><Current dt:dt="r8">0</Current><DateUtc dt:dt="string">2016-02-18T21:01:34Z</DateUtc></FrequencyChange></FrequencyChanges></Clock>\n	Hungry_Donkey_bar_English_2-129-1	60.018	-138	1.0.0.18	1	1220719840	Standard	2.0.10.353	2.0.10.353	02-18-2016	2/18/2016 9:01:34 PM	16:01:34	2.0.10.248	82	Bar50-50.bmp	44	4	?	0r_4g.bmp	0r_4g.bmp	0r_2g.bmp	0r_2g.bmp				0r_2g.bmp	TrialProc	TrialList	0	cvbn	-999999	16	292501	0	n	1500	294001	246	-314	-68	-40	-96	28	40	10	9	82	0	0	0	0	4	4	2	2	0	2
Hungry_Donkey_bar_English_2	129	1	<?xml version="1.0"?>\n<Clock xmlns:dt="urn:schemas-microsoft-com:datatypes"><Description dt:dt="string">E-Prime Primary Realtime Clock</Description><StartTime><Timestamp dt:dt="int">0</Timestamp><DateUtc dt:dt="string">2016-02-18T21:01:34Z</DateUtc></StartTime><FrequencyChanges><FrequencyChange><Frequency dt:dt="r8">3507705</Frequency><Timestamp dt:dt="r8">297572786132</Timestamp><Current dt:dt="r8">0</Current><DateUtc dt:dt="string">2016-02-18T21:01:34Z</DateUtc></FrequencyChange></FrequencyChanges></Clock>\n	Hungry_Donkey_bar_English_2-129-1	60.018	-138	1.0.0.18	1	1220719840	Standard	2.0.10.353	2.0.10.353	02-18-2016	2/18/2016 9:01:34 PM	16:01:34	2.0.10.248	83	Bar50-50.bmp	44	4	?	0r_4g.bmp	0r_4g.bmp	0r_2g.bmp	0r_2g.bmp				0r_2g.bmp	TrialProc	TrialList	0	cvbn	-999999	16	296034	0	n	303	296337	248	-314	-66	-40	-96	28	42	8	9	83	0	0	0	0	4	4	2	2	0	2
Hungry_Donkey_bar_English_2	129	1	<?xml version="1.0"?>\n<Clock xmlns:dt="urn:schemas-microsoft-com:datatypes"><Description dt:dt="string">E-Prime Primary Realtime Clock</Description><StartTime><Timestamp dt:dt="int">0</Timestamp><DateUtc dt:dt="string">2016-02-18T21:01:34Z</DateUtc></StartTime><FrequencyChanges><FrequencyChange><Frequency dt:dt="r8">3507705</Frequency><Timestamp dt:dt="r8">297572786132</Timestamp><Current dt:dt="r8">0</Current><DateUtc dt:dt="string">2016-02-18T21:01:34Z</DateUtc></FrequencyChange></FrequencyChanges></Clock>\n	Hungry_Donkey_bar_English_2-129-1	60.018	-138	1.0.0.18	1	1220719840	Standard	2.0.10.353	2.0.10.353	02-18-2016	2/18/2016 9:01:34 PM	16:01:34	2.0.10.248	84	Bar50-50.bmp	44	4	?	10r_4g.bmp	0r_4g.bmp	2r_2g.bmp	0r_2g.bmp				0r_2g.bmp	TrialProc	TrialList	0	cvbn	-999999	16	298366	0	n	403	298769	250	-314	-64	-40	-96	28	44	3	9	84	-10	0	-2	0	4	4	2	2	0	2
Hungry_Donkey_bar_English_2	129	1	<?xml version="1.0"?>\n<Clock xmlns:dt="urn:schemas-microsoft-com:datatypes"><Description dt:dt="string">E-Prime Primary Realtime Clock</Description><StartTime><Timestamp dt:dt="int">0</Timestamp><DateUtc dt:dt="string">2016-02-18T21:01:34Z</DateUtc></StartTime><FrequencyChanges><FrequencyChange><Frequency dt:dt="r8">3507705</Frequency><Timestamp dt:dt="r8">297572786132</Timestamp><Current dt:dt="r8">0</Current><DateUtc dt:dt="string">2016-02-18T21:01:34Z</DateUtc></FrequencyChange></FrequencyChanges></Clock>\n	Hungry_Donkey_bar_English_2-129-1	60.018	-138	1.0.0.18	1	1220719840	Standard	2.0.10.353	2.0.10.353	02-18-2016	2/18/2016 9:01:34 PM	16:01:34	2.0.10.248	85	Bar50-50.bmp	44	3	?	8r_4g.bmp	50r_4g.bmp	1r_2g.bmp	10r_2g.bmp			1r_2g.bmp		TrialProc	TrialList	0	cvbn	-999999	16	300799	0	b	338	301137	252	-315	-63	-40	-96	29	44	1	9	85	-8	-50	-1	-10	4	4	2	2	-1	2
Hungry_Donkey_bar_English_2	129	1	<?xml version="1.0"?>\n<Clock xmlns:dt="urn:schemas-microsoft-com:datatypes"><Description dt:dt="string">E-Prime Primary Realtime Clock</Description><StartTime><Timestamp dt:dt="int">0</Timestamp><DateUtc dt:dt="string">2016-02-18T21:01:34Z</DateUtc></StartTime><FrequencyChanges><FrequencyChange><Frequency dt:dt="r8">3507705</Frequency><Timestamp dt:dt="r8">297572786132</Timestamp><Current dt:dt="r8">0</Current><DateUtc dt:dt="string">2016-02-18T21:01:34Z</DateUtc></FrequencyChange></FrequencyChanges></Clock>\n	Hungry_Donkey_bar_English_2-129-1	60.018	-138	1.0.0.18	1	1220719840	Standard	2.0.10.353	2.0.10.353	02-18-2016	2/18/2016 9:01:34 PM	16:01:34	2.0.10.248	86	Bar50-50.bmp	45	2	?	10r_4g.bmp	0r_4g.bmp	2r_2g.bmp	0r_2g.bmp		0r_4g.bmp			TrialProc	TrialList	0	cvbn	-999999	16	303165	0	v	468	303633	256	-315	-59	-40	-92	29	44	4	9	86	-10	0	-2	0	4	4	2	2	0	4
Hungry_Donkey_bar_English_2	129	1	<?xml version="1.0"?>\n<Clock xmlns:dt="urn:schemas-microsoft-com:datatypes"><Description dt:dt="string">E-Prime Primary Realtime Clock</Description><StartTime><Timestamp dt:dt="int">0</Timestamp><DateUtc dt:dt="string">2016-02-18T21:01:34Z</DateUtc></StartTime><FrequencyChanges><FrequencyChange><Frequency dt:dt="r8">3507705</Frequency><Timestamp dt:dt="r8">297572786132</Timestamp><Current dt:dt="r8">0</Current><DateUtc dt:dt="string">2016-02-18T21:01:34Z</DateUtc></FrequencyChange></FrequencyChanges></Clock>\n	Hungry_Donkey_bar_English_2-129-1	60.018	-138	1.0.0.18	1	1220719840	Standard	2.0.10.353	2.0.10.353	02-18-2016	2/18/2016 9:01:34 PM	16:01:34	2.0.10.248	87	Bar50-50.bmp	45	2	?	0r_4g.bmp	0r_4g.bmp	0r_2g.bmp	0r_2g.bmp		0r_4g.bmp			TrialProc	TrialList	0	cvbn	-999999	16	305664	0	v	257	305921	260	-315	-55	-40	-88	29	44	6	9	87	0	0	0	0	4	4	2	2	0	4
Hungry_Donkey_bar_English_2	129	1	<?xml version="1.0"?>\n<Clock xmlns:dt="urn:schemas-microsoft-com:datatypes"><Description dt:dt="string">E-Prime Primary Realtime Clock</Description><StartTime><Timestamp dt:dt="int">0</Timestamp><DateUtc dt:dt="string">2016-02-18T21:01:34Z</DateUtc></StartTime><FrequencyChanges><FrequencyChange><Frequency dt:dt="r8">3507705</Frequency><Timestamp dt:dt="r8">297572786132</Timestamp><Current dt:dt="r8">0</Current><DateUtc dt:dt="string">2016-02-18T21:01:34Z</DateUtc></FrequencyChange></FrequencyChanges></Clock>\n	Hungry_Donkey_bar_English_2-129-1	60.018	-138	1.0.0.18	1	1220719840	Standard	2.0.10.353	2.0.10.353	02-18-2016	2/18/2016 9:01:34 PM	16:01:34	2.0.10.248	88	Bar50-50.bmp	46	2	?	10r_4g.bmp	0r_4g.bmp	2r_2g.bmp	0r_2g.bmp		0r_4g.bmp			TrialProc	TrialList	0	cvbn	-999999	16	307947	0	v	278	308225	264	-315	-51	-40	-84	29	44	2	9	88	-10	0	-2	0	4	4	2	2	0	4
Hungry_Donkey_bar_English_2	129	1	<?xml version="1.0"?>\n<Clock xmlns:dt="urn:schemas-microsoft-com:datatypes"><Description dt:dt="string">E-Prime Primary Realtime Clock</Description><StartTime><Timestamp dt:dt="int">0</Timestamp><DateUtc dt:dt="string">2016-02-18T21:01:34Z</DateUtc></StartTime><FrequencyChanges><FrequencyChange><Frequency dt:dt="r8">3507705</Frequency><Timestamp dt:dt="r8">297572786132</Timestamp><Current dt:dt="r8">0</Current><DateUtc dt:dt="string">2016-02-18T21:01:34Z</DateUtc></FrequencyChange></FrequencyChanges></Clock>\n	Hungry_Donkey_bar_English_2-129-1	60.018	-138	1.0.0.18	1	1220719840	Standard	2.0.10.353	2.0.10.353	02-18-2016	2/18/2016 9:01:34 PM	16:01:34	2.0.10.248	89	Bar50-50.bmp	46	1	?	0r_4g.bmp	0r_4g.bmp	0r_2g.bmp	0r_2g.bmp	0r_4g.bmp				TrialProc	TrialList	0	cvbn	-999999	16	310263	0	c	282	310545	268	-315	-47	-36	-84	29	44	9	9	89	0	0	0	0	4	4	2	2	0	4
Hungry_Donkey_bar_English_2	129	1	<?xml version="1.0"?>\n<Clock xmlns:dt="urn:schemas-microsoft-com:datatypes"><Description dt:dt="string">E-Prime Primary Realtime Clock</Description><StartTime><Timestamp dt:dt="int">0</Timestamp><DateUtc dt:dt="string">2016-02-18T21:01:34Z</DateUtc></StartTime><FrequencyChanges><FrequencyChange><Frequency dt:dt="r8">3507705</Frequency><Timestamp dt:dt="r8">297572786132</Timestamp><Current dt:dt="r8">0</Current><DateUtc dt:dt="string">2016-02-18T21:01:34Z</DateUtc></FrequencyChange></FrequencyChanges></Clock>\n	Hungry_Donkey_bar_English_2-129-1	60.018	-138	1.0.0.18	1	1220719840	Standard	2.0.10.353	2.0.10.353	02-18-2016	2/18/2016 9:01:34 PM	16:01:34	2.0.10.248	90	Bar50-50.bmp	46	1	?	0r_4g.bmp	0r_4g.bmp	0r_2g.bmp	0r_2g.bmp	0r_4g.bmp				TrialProc	TrialList	0	cvbn	-999999	16	312579	0	c	221	312800	272	-315	-43	-32	-84	29	44	7	9	90	0	0	0	0	4	4	2	2	0	4
Hungry_Donkey_bar_English_2	129	1	<?xml version="1.0"?>\n<Clock xmlns:dt="urn:schemas-microsoft-com:datatypes"><Description dt:dt="string">E-Prime Primary Realtime Clock</Description><StartTime><Timestamp dt:dt="int">0</Timestamp><DateUtc dt:dt="string">2016-02-18T21:01:34Z</DateUtc></StartTime><FrequencyChanges><FrequencyChange><Frequency dt:dt="r8">3507705</Frequency><Timestamp dt:dt="r8">297572786132</Timestamp><Current dt:dt="r8">0</Current><DateUtc dt:dt="string">2016-02-18T21:01:34Z</DateUtc></FrequencyChange></FrequencyChanges></Clock>\n	Hungry_Donkey_bar_English_2-129-1	60.018	-138	1.0.0.18	1	1220719840	Standard	2.0.10.353	2.0.10.353	02-18-2016	2/18/2016 9:01:34 PM	16:01:34	2.0.10.248	91	Bar50-50.bmp	47	1	?	0r_4g.bmp	0r_4g.bmp	0r_2g.bmp	0r_2g.bmp	0r_4g.bmp				TrialProc	TrialList	0	cvbn	-999999	16	314828	0	c	276	315104	276	-315	-39	-28	-84	29	44	6	10	91	0	0	0	0	4	4	2	2	0	4
Hungry_Donkey_bar_English_2	129	1	<?xml version="1.0"?>\n<Clock xmlns:dt="urn:schemas-microsoft-com:datatypes"><Description dt:dt="string">E-Prime Primary Realtime Clock</Description><StartTime><Timestamp dt:dt="int">0</Timestamp><DateUtc dt:dt="string">2016-02-18T21:01:34Z</DateUtc></StartTime><FrequencyChanges><FrequencyChange><Frequency dt:dt="r8">3507705</Frequency><Timestamp dt:dt="r8">297572786132</Timestamp><Current dt:dt="r8">0</Current><DateUtc dt:dt="string">2016-02-18T21:01:34Z</DateUtc></FrequencyChange></FrequencyChanges></Clock>\n	Hungry_Donkey_bar_English_2-129-1	60.018	-138	1.0.0.18	1	1220719840	Standard	2.0.10.353	2.0.10.353	02-18-2016	2/18/2016 9:01:34 PM	16:01:34	2.0.10.248	92	Bar50-50.bmp	47	4	?	10r_4g.bmp	0r_4g.bmp	2r_2g.bmp	0r_2g.bmp				0r_2g.bmp	TrialProc	TrialList	0	cvbn	-999999	16	317144	0	n	392	317536	278	-315	-37	-28	-84	29	46	2	10	92	-10	0	-2	0	4	4	2	2	0	2
Hungry_Donkey_bar_English_2	129	1	<?xml version="1.0"?>\n<Clock xmlns:dt="urn:schemas-microsoft-com:datatypes"><Description dt:dt="string">E-Prime Primary Realtime Clock</Description><StartTime><Timestamp dt:dt="int">0</Timestamp><DateUtc dt:dt="string">2016-02-18T21:01:34Z</DateUtc></StartTime><FrequencyChanges><FrequencyChange><Frequency dt:dt="r8">3507705</Frequency><Timestamp dt:dt="r8">297572786132</Timestamp><Current dt:dt="r8">0</Current><DateUtc dt:dt="string">2016-02-18T21:01:34Z</DateUtc></FrequencyChange></FrequencyChanges></Clock>\n	Hungry_Donkey_bar_English_2-129-1	60.018	-138	1.0.0.18	1	1220719840	Standard	2.0.10.353	2.0.10.353	02-18-2016	2/18/2016 9:01:34 PM	16:01:34	2.0.10.248	93	Bar50-50.bmp	47	4	?	10r_4g.bmp	0r_4g.bmp	2r_2g.bmp	0r_2g.bmp				0r_2g.bmp	TrialProc	TrialList	0	cvbn	-999999	15	319560	0	n	296	319856	280	-315	-35	-28	-84	29	48	3	10	93	-10	0	-2	0	4	4	2	2	0	2
Hungry_Donkey_bar_English_2	129	1	<?xml version="1.0"?>\n<Clock xmlns:dt="urn:schemas-microsoft-com:datatypes"><Description dt:dt="string">E-Prime Primary Realtime Clock</Description><StartTime><Timestamp dt:dt="int">0</Timestamp><DateUtc dt:dt="string">2016-02-18T21:01:34Z</DateUtc></StartTime><FrequencyChanges><FrequencyChange><Frequency dt:dt="r8">3507705</Frequency><Timestamp dt:dt="r8">297572786132</Timestamp><Current dt:dt="r8">0</Current><DateUtc dt:dt="string">2016-02-18T21:01:34Z</DateUtc></FrequencyChange></FrequencyChanges></Clock>\n	Hungry_Donkey_bar_English_2-129-1	60.018	-138	1.0.0.18	1	1220719840	Standard	2.0.10.353	2.0.10.353	02-18-2016	2/18/2016 9:01:34 PM	16:01:34	2.0.10.248	94	Bar50-50.bmp	47	3	?	10r_4g.bmp	0r_4g.bmp	2r_2g.bmp	0r_2g.bmp			2r_2g.bmp		TrialProc	TrialList	0	cvbn	-999999	16	321893	0	b	1099	322992	282	-317	-35	-28	-84	29	48	4	10	94	-10	0	-2	0	4	4	2	2	-2	2
Hungry_Donkey_bar_English_2	129	1	<?xml version="1.0"?>\n<Clock xmlns:dt="urn:schemas-microsoft-com:datatypes"><Description dt:dt="string">E-Prime Primary Realtime Clock</Description><StartTime><Timestamp dt:dt="int">0</Timestamp><DateUtc dt:dt="string">2016-02-18T21:01:34Z</DateUtc></StartTime><FrequencyChanges><FrequencyChange><Frequency dt:dt="r8">3507705</Frequency><Timestamp dt:dt="r8">297572786132</Timestamp><Current dt:dt="r8">0</Current><DateUtc dt:dt="string">2016-02-18T21:01:34Z</DateUtc></FrequencyChange></FrequencyChanges></Clock>\n	Hungry_Donkey_bar_English_2-129-1	60.018	-138	1.0.0.18	1	1220719840	Standard	2.0.10.353	2.0.10.353	02-18-2016	2/18/2016 9:01:34 PM	16:01:34	2.0.10.248	95	Bar50-50.bmp	47	4	?	0r_4g.bmp	0r_4g.bmp	0r_2g.bmp	0r_2g.bmp				0r_2g.bmp	TrialProc	TrialList	0	cvbn	-999999	16	325025	0	n	511	325536	284	-317	-33	-28	-84	29	50	10	10	95	0	0	0	0	4	4	2	2	0	2
Hungry_Donkey_bar_English_2	129	1	<?xml version="1.0"?>\n<Clock xmlns:dt="urn:schemas-microsoft-com:datatypes"><Description dt:dt="string">E-Prime Primary Realtime Clock</Description><StartTime><Timestamp dt:dt="int">0</Timestamp><DateUtc dt:dt="string">2016-02-18T21:01:34Z</DateUtc></StartTime><FrequencyChanges><FrequencyChange><Frequency dt:dt="r8">3507705</Frequency><Timestamp dt:dt="r8">297572786132</Timestamp><Current dt:dt="r8">0</Current><DateUtc dt:dt="string">2016-02-18T21:01:34Z</DateUtc></FrequencyChange></FrequencyChanges></Clock>\n	Hungry_Donkey_bar_English_2-129-1	60.018	-138	1.0.0.18	1	1220719840	Standard	2.0.10.353	2.0.10.353	02-18-2016	2/18/2016 9:01:34 PM	16:01:34	2.0.10.248	96	Bar50-50.bmp	48	2	?	0r_4g.bmp	0r_4g.bmp	0r_2g.bmp	0r_2g.bmp		0r_4g.bmp			TrialProc	TrialList	0	cvbn	-999999	16	327574	0	v	170	327744	288	-317	-29	-28	-80	29	50	9	10	96	0	0	0	0	4	4	2	2	0	4
Hungry_Donkey_bar_English_2	129	1	<?xml version="1.0"?>\n<Clock xmlns:dt="urn:schemas-microsoft-com:datatypes"><Description dt:dt="string">E-Prime Primary Realtime Clock</Description><StartTime><Timestamp dt:dt="int">0</Timestamp><DateUtc dt:dt="string">2016-02-18T21:01:34Z</DateUtc></StartTime><FrequencyChanges><FrequencyChange><Frequency dt:dt="r8">3507705</Frequency><Timestamp dt:dt="r8">297572786132</Timestamp><Current dt:dt="r8">0</Current><DateUtc dt:dt="string">2016-02-18T21:01:34Z</DateUtc></FrequencyChange></FrequencyChanges></Clock>\n	Hungry_Donkey_bar_English_2-129-1	60.018	-138	1.0.0.18	1	1220719840	Standard	2.0.10.353	2.0.10.353	02-18-2016	2/18/2016 9:01:34 PM	16:01:34	2.0.10.248	97	Bar50-50.bmp	44	2	?	8r_4g.bmp	50r_4g.bmp	1r_2g.bmp	10r_2g.bmp		50r_4g.bmp			TrialProc	TrialList	0	cvbn	-999999	16	329774	0	v	289	330063	292	-367	-75	-28	-126	29	50	1	10	97	-8	-50	-1	-10	4	4	2	2	-50	4
Hungry_Donkey_bar_English_2	129	1	<?xml version="1.0"?>\n<Clock xmlns:dt="urn:schemas-microsoft-com:datatypes"><Description dt:dt="string">E-Prime Primary Realtime Clock</Description><StartTime><Timestamp dt:dt="int">0</Timestamp><DateUtc dt:dt="string">2016-02-18T21:01:34Z</DateUtc></StartTime><FrequencyChanges><FrequencyChange><Frequency dt:dt="r8">3507705</Frequency><Timestamp dt:dt="r8">297572786132</Timestamp><Current dt:dt="r8">0</Current><DateUtc dt:dt="string">2016-02-18T21:01:34Z</DateUtc></FrequencyChange></FrequencyChanges></Clock>\n	Hungry_Donkey_bar_English_2-129-1	60.018	-138	1.0.0.18	1	1220719840	Standard	2.0.10.353	2.0.10.353	02-18-2016	2/18/2016 9:01:34 PM	16:01:34	2.0.10.248	98	Bar50-50.bmp	44	1	?	12r_4g.bmp	0r_4g.bmp	3r_2g.bmp	0r_2g.bmp	12r_4g.bmp				TrialProc	TrialList	0	cvbn	-999999	16	332090	0	c	1493	333583	296	-379	-83	-36	-126	29	50	5	10	98	-12	0	-3	0	4	4	2	2	-12	4
Hungry_Donkey_bar_English_2	129	1	<?xml version="1.0"?>\n<Clock xmlns:dt="urn:schemas-microsoft-com:datatypes"><Description dt:dt="string">E-Prime Primary Realtime Clock</Description><StartTime><Timestamp dt:dt="int">0</Timestamp><DateUtc dt:dt="string">2016-02-18T21:01:34Z</DateUtc></StartTime><FrequencyChanges><FrequencyChange><Frequency dt:dt="r8">3507705</Frequency><Timestamp dt:dt="r8">297572786132</Timestamp><Current dt:dt="r8">0</Current><DateUtc dt:dt="string">2016-02-18T21:01:34Z</DateUtc></FrequencyChange></FrequencyChanges></Clock>\n	Hungry_Donkey_bar_English_2-129-1	60.018	-138	1.0.0.18	1	1220719840	Standard	2.0.10.353	2.0.10.353	02-18-2016	2/18/2016 9:01:34 PM	16:01:34	2.0.10.248	99	Bar50-50.bmp	44	4	?	0r_4g.bmp	0r_4g.bmp	0r_2g.bmp	0r_2g.bmp				0r_2g.bmp	TrialProc	TrialList	0	cvbn	-999999	16	335622	0	n	1305	336927	298	-379	-81	-36	-126	29	52	8	10	99	0	0	0	0	4	4	2	2	0	2
Hungry_Donkey_bar_English_2	129	1	<?xml version="1.0"?>\n<Clock xmlns:dt="urn:schemas-microsoft-com:datatypes"><Description dt:dt="string">E-Prime Primary Realtime Clock</Description><StartTime><Timestamp dt:dt="int">0</Timestamp><DateUtc dt:dt="string">2016-02-18T21:01:34Z</DateUtc></StartTime><FrequencyChanges><FrequencyChange><Frequency dt:dt="r8">3507705</Frequency><Timestamp dt:dt="r8">297572786132</Timestamp><Current dt:dt="r8">0</Current><DateUtc dt:dt="string">2016-02-18T21:01:34Z</DateUtc></FrequencyChange></FrequencyChanges></Clock>\n	Hungry_Donkey_bar_English_2-129-1	60.018	-138	1.0.0.18	1	1220719840	Standard	2.0.10.353	2.0.10.353	02-18-2016	2/18/2016 9:01:34 PM	16:01:34	2.0.10.248	100	Bar50-50.bmp	44	4	?	0r_4g.bmp	0r_4g.bmp	0r_2g.bmp	0r_2g.bmp				0r_2g.bmp	TrialProc	TrialList	0	cvbn	-999999	16	338954	0	n	389	339343	300	-379	-79	-36	-126	29	54	7	10	100	0	0	0	0	4	4	2	2	0	2
Hungry_Donkey_bar_English_2	129	1	<?xml version="1.0"?>\n<Clock xmlns:dt="urn:schemas-microsoft-com:datatypes"><Description dt:dt="string">E-Prime Primary Realtime Clock</Description><StartTime><Timestamp dt:dt="int">0</Timestamp><DateUtc dt:dt="string">2016-02-18T21:01:34Z</DateUtc></StartTime><FrequencyChanges><FrequencyChange><Frequency dt:dt="r8">3507705</Frequency><Timestamp dt:dt="r8">297572786132</Timestamp><Current dt:dt="r8">0</Current><DateUtc dt:dt="string">2016-02-18T21:01:34Z</DateUtc></FrequencyChange></FrequencyChanges></Clock>\n	Hungry_Donkey_bar_English_2-129-1	60.018	-138	1.0.0.18	1	1220719840	Standard	2.0.10.353	2.0.10.353	02-18-2016	2/18/2016 9:01:34 PM	16:01:34	2.0.10.248	101	Bar50-50.bmp	44	3	?	0r_4g.bmp	0r_4g.bmp	0r_2g.bmp	0r_2g.bmp			0r_2g.bmp		TrialProc	TrialList	0	cvbn	-999999	16	341370	0	b	197	341567	302	-379	-77	-36	-126	31	54	7	11	101	0	0	0	0	4	4	2	2	0	2
Hungry_Donkey_bar_English_2	129	1	<?xml version="1.0"?>\n<Clock xmlns:dt="urn:schemas-microsoft-com:datatypes"><Description dt:dt="string">E-Prime Primary Realtime Clock</Description><StartTime><Timestamp dt:dt="int">0</Timestamp><DateUtc dt:dt="string">2016-02-18T21:01:34Z</DateUtc></StartTime><FrequencyChanges><FrequencyChange><Frequency dt:dt="r8">3507705</Frequency><Timestamp dt:dt="r8">297572786132</Timestamp><Current dt:dt="r8">0</Current><DateUtc dt:dt="string">2016-02-18T21:01:34Z</DateUtc></FrequencyChange></FrequencyChanges></Clock>\n	Hungry_Donkey_bar_English_2-129-1	60.018	-138	1.0.0.18	1	1220719840	Standard	2.0.10.353	2.0.10.353	02-18-2016	2/18/2016 9:01:34 PM	16:01:34	2.0.10.248	102	Bar50-50.bmp	45	4	?	0r_4g.bmp	0r_4g.bmp	0r_2g.bmp	0r_2g.bmp				0r_2g.bmp	TrialProc	TrialList	0	cvbn	-999999	16	343603	0	n	1052	344655	304	-379	-75	-36	-126	31	56	9	11	102	0	0	0	0	4	4	2	2	0	2
Hungry_Donkey_bar_English_2	129	1	<?xml version="1.0"?>\n<Clock xmlns:dt="urn:schemas-microsoft-com:datatypes"><Description dt:dt="string">E-Prime Primary Realtime Clock</Description><StartTime><Timestamp dt:dt="int">0</Timestamp><DateUtc dt:dt="string">2016-02-18T21:01:34Z</DateUtc></StartTime><FrequencyChanges><FrequencyChange><Frequency dt:dt="r8">3507705</Frequency><Timestamp dt:dt="r8">297572786132</Timestamp><Current dt:dt="r8">0</Current><DateUtc dt:dt="string">2016-02-18T21:01:34Z</DateUtc></FrequencyChange></FrequencyChanges></Clock>\n	Hungry_Donkey_bar_English_2-129-1	60.018	-138	1.0.0.18	1	1220719840	Standard	2.0.10.353	2.0.10.353	02-18-2016	2/18/2016 9:01:34 PM	16:01:34	2.0.10.248	103	Bar50-50.bmp	44	3	?	12r_4g.bmp	0r_4g.bmp	3r_2g.bmp	0r_2g.bmp			3r_2g.bmp		TrialProc	TrialList	0	cvbn	-999999	16	346685	0	b	497	347182	306	-382	-76	-36	-126	30	56	5	11	103	-12	0	-3	0	4	4	2	2	-3	2
Hungry_Donkey_bar_English_2	129	1	<?xml version="1.0"?>\n<Clock xmlns:dt="urn:schemas-microsoft-com:datatypes"><Description dt:dt="string">E-Prime Primary Realtime Clock</Description><StartTime><Timestamp dt:dt="int">0</Timestamp><DateUtc dt:dt="string">2016-02-18T21:01:34Z</DateUtc></StartTime><FrequencyChanges><FrequencyChange><Frequency dt:dt="r8">3507705</Frequency><Timestamp dt:dt="r8">297572786132</Timestamp><Current dt:dt="r8">0</Current><DateUtc dt:dt="string">2016-02-18T21:01:34Z</DateUtc></FrequencyChange></FrequencyChanges></Clock>\n	Hungry_Donkey_bar_English_2-129-1	60.018	-138	1.0.0.18	1	1220719840	Standard	2.0.10.353	2.0.10.353	02-18-2016	2/18/2016 9:01:34 PM	16:01:34	2.0.10.248	104	Bar50-50.bmp	44	4	?	8r_4g.bmp	50r_4g.bmp	1r_2g.bmp	10r_2g.bmp				10r_2g.bmp	TrialProc	TrialList	0	cvbn	-999999	16	349218	0	n	1468	350686	308	-392	-84	-36	-126	30	48	1	11	104	-8	-50	-1	-10	4	4	2	2	-10	2
Hungry_Donkey_bar_English_2	129	1	<?xml version="1.0"?>\n<Clock xmlns:dt="urn:schemas-microsoft-com:datatypes"><Description dt:dt="string">E-Prime Primary Realtime Clock</Description><StartTime><Timestamp dt:dt="int">0</Timestamp><DateUtc dt:dt="string">2016-02-18T21:01:34Z</DateUtc></StartTime><FrequencyChanges><FrequencyChange><Frequency dt:dt="r8">3507705</Frequency><Timestamp dt:dt="r8">297572786132</Timestamp><Current dt:dt="r8">0</Current><DateUtc dt:dt="string">2016-02-18T21:01:34Z</DateUtc></FrequencyChange></FrequencyChanges></Clock>\n	Hungry_Donkey_bar_English_2-129-1	60.018	-138	1.0.0.18	1	1220719840	Standard	2.0.10.353	2.0.10.353	02-18-2016	2/18/2016 9:01:34 PM	16:01:34	2.0.10.248	105	Bar50-50.bmp	44	3	?	10r_4g.bmp	0r_4g.bmp	2r_2g.bmp	0r_2g.bmp			2r_2g.bmp		TrialProc	TrialList	0	cvbn	-999999	16	352717	0	b	433	353150	310	-394	-84	-36	-126	30	48	2	11	105	-10	0	-2	0	4	4	2	2	-2	2
Hungry_Donkey_bar_English_2	129	1	<?xml version="1.0"?>\n<Clock xmlns:dt="urn:schemas-microsoft-com:datatypes"><Description dt:dt="string">E-Prime Primary Realtime Clock</Description><StartTime><Timestamp dt:dt="int">0</Timestamp><DateUtc dt:dt="string">2016-02-18T21:01:34Z</DateUtc></StartTime><FrequencyChanges><FrequencyChange><Frequency dt:dt="r8">3507705</Frequency><Timestamp dt:dt="r8">297572786132</Timestamp><Current dt:dt="r8">0</Current><DateUtc dt:dt="string">2016-02-18T21:01:34Z</DateUtc></FrequencyChange></FrequencyChanges></Clock>\n	Hungry_Donkey_bar_English_2-129-1	60.018	-138	1.0.0.18	1	1220719840	Standard	2.0.10.353	2.0.10.353	02-18-2016	2/18/2016 9:01:34 PM	16:01:34	2.0.10.248	106	Bar50-50.bmp	44	2	?	0r_4g.bmp	0r_4g.bmp	0r_2g.bmp	0r_2g.bmp		0r_4g.bmp			TrialProc	TrialList	0	cvbn	-999999	16	355183	0	v	223	355406	314	-394	-80	-36	-122	30	48	10	11	106	0	0	0	0	4	4	2	2	0	4
Hungry_Donkey_bar_English_2	129	1	<?xml version="1.0"?>\n<Clock xmlns:dt="urn:schemas-microsoft-com:datatypes"><Description dt:dt="string">E-Prime Primary Realtime Clock</Description><StartTime><Timestamp dt:dt="int">0</Timestamp><DateUtc dt:dt="string">2016-02-18T21:01:34Z</DateUtc></StartTime><FrequencyChanges><FrequencyChange><Frequency dt:dt="r8">3507705</Frequency><Timestamp dt:dt="r8">297572786132</Timestamp><Current dt:dt="r8">0</Current><DateUtc dt:dt="string">2016-02-18T21:01:34Z</DateUtc></FrequencyChange></FrequencyChanges></Clock>\n	Hungry_Donkey_bar_English_2-129-1	60.018	-138	1.0.0.18	1	1220719840	Standard	2.0.10.353	2.0.10.353	02-18-2016	2/18/2016 9:01:34 PM	16:01:34	2.0.10.248	107	Bar50-50.bmp	45	2	?	10r_4g.bmp	0r_4g.bmp	2r_2g.bmp	0r_2g.bmp		0r_4g.bmp			TrialProc	TrialList	0	cvbn	-999999	16	357432	0	v	246	357678	318	-394	-76	-36	-118	30	48	3	11	107	-10	0	-2	0	4	4	2	2	0	4
Hungry_Donkey_bar_English_2	129	1	<?xml version="1.0"?>\n<Clock xmlns:dt="urn:schemas-microsoft-com:datatypes"><Description dt:dt="string">E-Prime Primary Realtime Clock</Description><StartTime><Timestamp dt:dt="int">0</Timestamp><DateUtc dt:dt="string">2016-02-18T21:01:34Z</DateUtc></StartTime><FrequencyChanges><FrequencyChange><Frequency dt:dt="r8">3507705</Frequency><Timestamp dt:dt="r8">297572786132</Timestamp><Current dt:dt="r8">0</Current><DateUtc dt:dt="string">2016-02-18T21:01:34Z</DateUtc></FrequencyChange></FrequencyChanges></Clock>\n	Hungry_Donkey_bar_English_2-129-1	60.018	-138	1.0.0.18	1	1220719840	Standard	2.0.10.353	2.0.10.353	02-18-2016	2/18/2016 9:01:34 PM	16:01:34	2.0.10.248	108	Bar50-50.bmp	45	2	?	10r_4g.bmp	0r_4g.bmp	2r_2g.bmp	0r_2g.bmp		0r_4g.bmp			TrialProc	TrialList	0	cvbn	-999999	16	359715	0	v	363	360078	322	-394	-72	-36	-114	30	48	4	11	108	-10	0	-2	0	4	4	2	2	0	4
Hungry_Donkey_bar_English_2	129	1	<?xml version="1.0"?>\n<Clock xmlns:dt="urn:schemas-microsoft-com:datatypes"><Description dt:dt="string">E-Prime Primary Realtime Clock</Description><StartTime><Timestamp dt:dt="int">0</Timestamp><DateUtc dt:dt="string">2016-02-18T21:01:34Z</DateUtc></StartTime><FrequencyChanges><FrequencyChange><Frequency dt:dt="r8">3507705</Frequency><Timestamp dt:dt="r8">297572786132</Timestamp><Current dt:dt="r8">0</Current><DateUtc dt:dt="string">2016-02-18T21:01:34Z</DateUtc></FrequencyChange></FrequencyChanges></Clock>\n	Hungry_Donkey_bar_English_2-129-1	60.018	-138	1.0.0.18	1	1220719840	Standard	2.0.10.353	2.0.10.353	02-18-2016	2/18/2016 9:01:34 PM	16:01:34	2.0.10.248	109	Bar50-50.bmp	45	1	?	0r_4g.bmp	0r_4g.bmp	0r_2g.bmp	0r_2g.bmp	0r_4g.bmp				TrialProc	TrialList	0	cvbn	-999999	16	362114	0	c	252	362366	326	-394	-68	-32	-114	30	48	8	11	109	0	0	0	0	4	4	2	2	0	4
Hungry_Donkey_bar_English_2	129	1	<?xml version="1.0"?>\n<Clock xmlns:dt="urn:schemas-microsoft-com:datatypes"><Description dt:dt="string">E-Prime Primary Realtime Clock</Description><StartTime><Timestamp dt:dt="int">0</Timestamp><DateUtc dt:dt="string">2016-02-18T21:01:34Z</DateUtc></StartTime><FrequencyChanges><FrequencyChange><Frequency dt:dt="r8">3507705</Frequency><Timestamp dt:dt="r8">297572786132</Timestamp><Current dt:dt="r8">0</Current><DateUtc dt:dt="string">2016-02-18T21:01:34Z</DateUtc></FrequencyChange></FrequencyChanges></Clock>\n	Hungry_Donkey_bar_English_2-129-1	60.018	-138	1.0.0.18	1	1220719840	Standard	2.0.10.353	2.0.10.353	02-18-2016	2/18/2016 9:01:34 PM	16:01:34	2.0.10.248	110	Bar50-50.bmp	46	1	?	0r_4g.bmp	0r_4g.bmp	0r_2g.bmp	0r_2g.bmp	0r_4g.bmp				TrialProc	TrialList	0	cvbn	-999999	16	364397	0	c	224	364621	330	-394	-64	-28	-114	30	48	6	11	110	0	0	0	0	4	4	2	2	0	4
