ExperimentName	Subject	Session	Clock.Information	DataFile.Basename	Display.RefreshRate	Eindtotaal[Session]	ExperimentVersion	Group	RandomSeed	RuntimeCapabilities	RuntimeVersion	RuntimeVersionExpected	SessionDate	SessionStartDateTimeUtc	SessionTime	StudioVersion	Block	BarImage	BarTotalWinst	DoorChoice	Eindtotaal[Block]	FBDoor1	FBDoor2	FBDoor3	FBDoor4	Image1	Image2	Image3	Image4	Procedure	Running	spel.ACC	spel.CRESP	spel.DurationError	spel.OnsetDelay	spel.OnsetTime	spel.OnsetToOnsetTime	spel.RESP	spel.RT	spel.RTTime	TotalGain	TotalLose	Totalsum	TotalsumD1	TotalsumD2	TotalsumD3	TotalsumD4	TrialList	TrialList.Cycle	TrialList.Sample	varV1	varV2	varV3	varV4	varW1	varW2	varW3	varW4	Verliesbedrag	Winstbedrag
Hungry_Donkey_bar_English_2	142	1	<?xml version="1.0"?>\n<Clock xmlns:dt="urn:schemas-microsoft-com:datatypes"><Description dt:dt="string">E-Prime Primary Realtime Clock</Description><StartTime><Timestamp dt:dt="int">0</Timestamp><DateUtc dt:dt="string">2016-04-15T21:00:02Z</DateUtc></StartTime><FrequencyChanges><FrequencyChange><Frequency dt:dt="r8">3507578</Frequency><Timestamp dt:dt="r8">7635076772</Timestamp><Current dt:dt="r8">0</Current><DateUtc dt:dt="string">2016-04-15T21:00:02Z</DateUtc></FrequencyChange></FrequencyChanges></Clock>\n	Hungry_Donkey_bar_English_2-142-1	60.016	-65	1.0.0.18	1	-954152261	Standard	2.0.10.353	2.0.10.353	04-15-2016	4/15/2016 9:00:02 PM	17:00:02	2.0.10.248	1	Bar100-0.bmp	100	2	?	0r_4g.bmp	0r_4g.bmp	0r_2g.bmp	0r_2g.bmp		0r_4g.bmp			TrialProc	TrialList	0	cvbn	-999999	30	95968	0	v	7585	103553	4	0	4	0	4	0	0	8	1	1	0	0	0	0	4	4	2	2	0	4
Hungry_Donkey_bar_English_2	142	1	<?xml version="1.0"?>\n<Clock xmlns:dt="urn:schemas-microsoft-com:datatypes"><Description dt:dt="string">E-Prime Primary Realtime Clock</Description><StartTime><Timestamp dt:dt="int">0</Timestamp><DateUtc dt:dt="string">2016-04-15T21:00:02Z</DateUtc></StartTime><FrequencyChanges><FrequencyChange><Frequency dt:dt="r8">3507578</Frequency><Timestamp dt:dt="r8">7635076772</Timestamp><Current dt:dt="r8">0</Current><DateUtc dt:dt="string">2016-04-15T21:00:02Z</DateUtc></FrequencyChange></FrequencyChanges></Clock>\n	Hungry_Donkey_bar_English_2-142-1	60.016	-65	1.0.0.18	1	-954152261	Standard	2.0.10.353	2.0.10.353	04-15-2016	4/15/2016 9:00:02 PM	17:00:02	2.0.10.248	2	Bar87-13.bmp	86	3	?	8r_4g.bmp	50r_4g.bmp	1r_2g.bmp	10r_2g.bmp			1r_2g.bmp		TrialProc	TrialList	0	cvbn	-999999	16	105599	0	b	2514	108113	6	-1	5	0	4	1	0	1	1	2	-8	-50	-1	-10	4	4	2	2	-1	2
Hungry_Donkey_bar_English_2	142	1	<?xml version="1.0"?>\n<Clock xmlns:dt="urn:schemas-microsoft-com:datatypes"><Description dt:dt="string">E-Prime Primary Realtime Clock</Description><StartTime><Timestamp dt:dt="int">0</Timestamp><DateUtc dt:dt="string">2016-04-15T21:00:02Z</DateUtc></StartTime><FrequencyChanges><FrequencyChange><Frequency dt:dt="r8">3507578</Frequency><Timestamp dt:dt="r8">7635076772</Timestamp><Current dt:dt="r8">0</Current><DateUtc dt:dt="string">2016-04-15T21:00:02Z</DateUtc></FrequencyChange></FrequencyChanges></Clock>\n	Hungry_Donkey_bar_English_2-142-1	60.016	-65	1.0.0.18	1	-954152261	Standard	2.0.10.353	2.0.10.353	04-15-2016	4/15/2016 9:00:02 PM	17:00:02	2.0.10.248	3	Bar75-25.bmp	73	3	?	10r_4g.bmp	0r_4g.bmp	2r_2g.bmp	0r_2g.bmp			2r_2g.bmp		TrialProc	TrialList	0	cvbn	-999999	16	110148	0	b	157	110305	8	-3	5	0	4	1	0	2	1	3	-10	0	-2	0	4	4	2	2	-2	2
Hungry_Donkey_bar_English_2	142	1	<?xml version="1.0"?>\n<Clock xmlns:dt="urn:schemas-microsoft-com:datatypes"><Description dt:dt="string">E-Prime Primary Realtime Clock</Description><StartTime><Timestamp dt:dt="int">0</Timestamp><DateUtc dt:dt="string">2016-04-15T21:00:02Z</DateUtc></StartTime><FrequencyChanges><FrequencyChange><Frequency dt:dt="r8">3507578</Frequency><Timestamp dt:dt="r8">7635076772</Timestamp><Current dt:dt="r8">0</Current><DateUtc dt:dt="string">2016-04-15T21:00:02Z</DateUtc></FrequencyChange></FrequencyChanges></Clock>\n	Hungry_Donkey_bar_English_2-142-1	60.016	-65	1.0.0.18	1	-954152261	Standard	2.0.10.353	2.0.10.353	04-15-2016	4/15/2016 9:00:02 PM	17:00:02	2.0.10.248	4	Bar75-25.bmp	77	3	?	0r_4g.bmp	0r_4g.bmp	0r_2g.bmp	0r_2g.bmp			0r_2g.bmp		TrialProc	TrialList	0	cvbn	-999999	16	112347	0	b	54	112401	10	-3	7	0	4	3	0	9	1	4	0	0	0	0	4	4	2	2	0	2
Hungry_Donkey_bar_English_2	142	1	<?xml version="1.0"?>\n<Clock xmlns:dt="urn:schemas-microsoft-com:datatypes"><Description dt:dt="string">E-Prime Primary Realtime Clock</Description><StartTime><Timestamp dt:dt="int">0</Timestamp><DateUtc dt:dt="string">2016-04-15T21:00:02Z</DateUtc></StartTime><FrequencyChanges><FrequencyChange><Frequency dt:dt="r8">3507578</Frequency><Timestamp dt:dt="r8">7635076772</Timestamp><Current dt:dt="r8">0</Current><DateUtc dt:dt="string">2016-04-15T21:00:02Z</DateUtc></FrequencyChange></FrequencyChanges></Clock>\n	Hungry_Donkey_bar_English_2-142-1	60.016	-65	1.0.0.18	1	-954152261	Standard	2.0.10.353	2.0.10.353	04-15-2016	4/15/2016 9:00:02 PM	17:00:02	2.0.10.248	5	Bar87-13.bmp	82	2	?	0r_4g.bmp	0r_4g.bmp	0r_2g.bmp	0r_2g.bmp		0r_4g.bmp			TrialProc	TrialList	0	cvbn	-999999	16	114430	0	v	1203	115633	14	-3	11	0	8	3	0	10	1	5	0	0	0	0	4	4	2	2	0	4
Hungry_Donkey_bar_English_2	142	1	<?xml version="1.0"?>\n<Clock xmlns:dt="urn:schemas-microsoft-com:datatypes"><Description dt:dt="string">E-Prime Primary Realtime Clock</Description><StartTime><Timestamp dt:dt="int">0</Timestamp><DateUtc dt:dt="string">2016-04-15T21:00:02Z</DateUtc></StartTime><FrequencyChanges><FrequencyChange><Frequency dt:dt="r8">3507578</Frequency><Timestamp dt:dt="r8">7635076772</Timestamp><Current dt:dt="r8">0</Current><DateUtc dt:dt="string">2016-04-15T21:00:02Z</DateUtc></FrequencyChange></FrequencyChanges></Clock>\n	Hungry_Donkey_bar_English_2-142-1	60.016	-65	1.0.0.18	1	-954152261	Standard	2.0.10.353	2.0.10.353	04-15-2016	4/15/2016 9:00:02 PM	17:00:02	2.0.10.248	6	Bar87-13.bmp	84	4	?	0r_4g.bmp	0r_4g.bmp	0r_2g.bmp	0r_2g.bmp				0r_2g.bmp	TrialProc	TrialList	0	cvbn	-999999	16	117663	0	n	1410	119073	16	-3	13	0	8	3	2	7	1	6	0	0	0	0	4	4	2	2	0	2
Hungry_Donkey_bar_English_2	142	1	<?xml version="1.0"?>\n<Clock xmlns:dt="urn:schemas-microsoft-com:datatypes"><Description dt:dt="string">E-Prime Primary Realtime Clock</Description><StartTime><Timestamp dt:dt="int">0</Timestamp><DateUtc dt:dt="string">2016-04-15T21:00:02Z</DateUtc></StartTime><FrequencyChanges><FrequencyChange><Frequency dt:dt="r8">3507578</Frequency><Timestamp dt:dt="r8">7635076772</Timestamp><Current dt:dt="r8">0</Current><DateUtc dt:dt="string">2016-04-15T21:00:02Z</DateUtc></FrequencyChange></FrequencyChanges></Clock>\n	Hungry_Donkey_bar_English_2-142-1	60.016	-65	1.0.0.18	1	-954152261	Standard	2.0.10.353	2.0.10.353	04-15-2016	4/15/2016 9:00:02 PM	17:00:02	2.0.10.248	7	Bar75-25.bmp	75	3	?	12r_4g.bmp	0r_4g.bmp	3r_2g.bmp	0r_2g.bmp			3r_2g.bmp		TrialProc	TrialList	0	cvbn	-999999	16	121112	0	b	1833	122945	18	-6	12	0	8	2	2	5	1	7	-12	0	-3	0	4	4	2	2	-3	2
Hungry_Donkey_bar_English_2	142	1	<?xml version="1.0"?>\n<Clock xmlns:dt="urn:schemas-microsoft-com:datatypes"><Description dt:dt="string">E-Prime Primary Realtime Clock</Description><StartTime><Timestamp dt:dt="int">0</Timestamp><DateUtc dt:dt="string">2016-04-15T21:00:02Z</DateUtc></StartTime><FrequencyChanges><FrequencyChange><Frequency dt:dt="r8">3507578</Frequency><Timestamp dt:dt="r8">7635076772</Timestamp><Current dt:dt="r8">0</Current><DateUtc dt:dt="string">2016-04-15T21:00:02Z</DateUtc></FrequencyChange></FrequencyChanges></Clock>\n	Hungry_Donkey_bar_English_2-142-1	60.016	-65	1.0.0.18	1	-954152261	Standard	2.0.10.353	2.0.10.353	04-15-2016	4/15/2016 9:00:02 PM	17:00:02	2.0.10.248	8	Bar75-25.bmp	77	4	?	10r_4g.bmp	0r_4g.bmp	2r_2g.bmp	0r_2g.bmp				0r_2g.bmp	TrialProc	TrialList	0	cvbn	-999999	17	124978	0	n	255	125233	20	-6	14	0	8	2	4	4	1	8	-10	0	-2	0	4	4	2	2	0	2
Hungry_Donkey_bar_English_2	142	1	<?xml version="1.0"?>\n<Clock xmlns:dt="urn:schemas-microsoft-com:datatypes"><Description dt:dt="string">E-Prime Primary Realtime Clock</Description><StartTime><Timestamp dt:dt="int">0</Timestamp><DateUtc dt:dt="string">2016-04-15T21:00:02Z</DateUtc></StartTime><FrequencyChanges><FrequencyChange><Frequency dt:dt="r8">3507578</Frequency><Timestamp dt:dt="r8">7635076772</Timestamp><Current dt:dt="r8">0</Current><DateUtc dt:dt="string">2016-04-15T21:00:02Z</DateUtc></FrequencyChange></FrequencyChanges></Clock>\n	Hungry_Donkey_bar_English_2-142-1	60.016	-65	1.0.0.18	1	-954152261	Standard	2.0.10.353	2.0.10.353	04-15-2016	4/15/2016 9:00:02 PM	17:00:02	2.0.10.248	9	Bar75-25.bmp	80	2	?	0r_4g.bmp	0r_4g.bmp	0r_2g.bmp	0r_2g.bmp		0r_4g.bmp			TrialProc	TrialList	0	cvbn	-999999	16	127260	0	v	133	127393	24	-6	18	0	12	2	4	6	1	9	0	0	0	0	4	4	2	2	0	4
Hungry_Donkey_bar_English_2	142	1	<?xml version="1.0"?>\n<Clock xmlns:dt="urn:schemas-microsoft-com:datatypes"><Description dt:dt="string">E-Prime Primary Realtime Clock</Description><StartTime><Timestamp dt:dt="int">0</Timestamp><DateUtc dt:dt="string">2016-04-15T21:00:02Z</DateUtc></StartTime><FrequencyChanges><FrequencyChange><Frequency dt:dt="r8">3507578</Frequency><Timestamp dt:dt="r8">7635076772</Timestamp><Current dt:dt="r8">0</Current><DateUtc dt:dt="string">2016-04-15T21:00:02Z</DateUtc></FrequencyChange></FrequencyChanges></Clock>\n	Hungry_Donkey_bar_English_2-142-1	60.016	-65	1.0.0.18	1	-954152261	Standard	2.0.10.353	2.0.10.353	04-15-2016	4/15/2016 9:00:02 PM	17:00:02	2.0.10.248	10	Bar75-25.bmp	81	4	?	10r_4g.bmp	0r_4g.bmp	2r_2g.bmp	0r_2g.bmp				0r_2g.bmp	TrialProc	TrialList	0	cvbn	-999999	16	129426	0	n	239	129665	26	-6	20	0	12	2	6	3	1	10	-10	0	-2	0	4	4	2	2	0	2
Hungry_Donkey_bar_English_2	142	1	<?xml version="1.0"?>\n<Clock xmlns:dt="urn:schemas-microsoft-com:datatypes"><Description dt:dt="string">E-Prime Primary Realtime Clock</Description><StartTime><Timestamp dt:dt="int">0</Timestamp><DateUtc dt:dt="string">2016-04-15T21:00:02Z</DateUtc></StartTime><FrequencyChanges><FrequencyChange><Frequency dt:dt="r8">3507578</Frequency><Timestamp dt:dt="r8">7635076772</Timestamp><Current dt:dt="r8">0</Current><DateUtc dt:dt="string">2016-04-15T21:00:02Z</DateUtc></FrequencyChange></FrequencyChanges></Clock>\n	Hungry_Donkey_bar_English_2-142-1	60.016	-65	1.0.0.18	1	-954152261	Standard	2.0.10.353	2.0.10.353	04-15-2016	4/15/2016 9:00:02 PM	17:00:02	2.0.10.248	11	Bar87-13.bmp	83	1	?	0r_4g.bmp	0r_4g.bmp	0r_2g.bmp	0r_2g.bmp	0r_4g.bmp				TrialProc	TrialList	0	cvbn	-999999	16	131692	0	c	773	132465	30	-6	24	4	12	2	6	7	2	11	0	0	0	0	4	4	2	2	0	4
Hungry_Donkey_bar_English_2	142	1	<?xml version="1.0"?>\n<Clock xmlns:dt="urn:schemas-microsoft-com:datatypes"><Description dt:dt="string">E-Prime Primary Realtime Clock</Description><StartTime><Timestamp dt:dt="int">0</Timestamp><DateUtc dt:dt="string">2016-04-15T21:00:02Z</DateUtc></StartTime><FrequencyChanges><FrequencyChange><Frequency dt:dt="r8">3507578</Frequency><Timestamp dt:dt="r8">7635076772</Timestamp><Current dt:dt="r8">0</Current><DateUtc dt:dt="string">2016-04-15T21:00:02Z</DateUtc></FrequencyChange></FrequencyChanges></Clock>\n	Hungry_Donkey_bar_English_2-142-1	60.016	-65	1.0.0.18	1	-954152261	Standard	2.0.10.353	2.0.10.353	04-15-2016	4/15/2016 9:00:02 PM	17:00:02	2.0.10.248	12	Bar75-25.bmp	71	1	?	8r_4g.bmp	50r_4g.bmp	1r_2g.bmp	10r_2g.bmp	8r_4g.bmp				TrialProc	TrialList	0	cvbn	-999999	16	134492	0	c	357	134849	34	-14	20	0	12	2	6	1	2	12	-8	-50	-1	-10	4	4	2	2	-8	4
Hungry_Donkey_bar_English_2	142	1	<?xml version="1.0"?>\n<Clock xmlns:dt="urn:schemas-microsoft-com:datatypes"><Description dt:dt="string">E-Prime Primary Realtime Clock</Description><StartTime><Timestamp dt:dt="int">0</Timestamp><DateUtc dt:dt="string">2016-04-15T21:00:02Z</DateUtc></StartTime><FrequencyChanges><FrequencyChange><Frequency dt:dt="r8">3507578</Frequency><Timestamp dt:dt="r8">7635076772</Timestamp><Current dt:dt="r8">0</Current><DateUtc dt:dt="string">2016-04-15T21:00:02Z</DateUtc></FrequencyChange></FrequencyChanges></Clock>\n	Hungry_Donkey_bar_English_2-142-1	60.016	-65	1.0.0.18	1	-954152261	Standard	2.0.10.353	2.0.10.353	04-15-2016	4/15/2016 9:00:02 PM	17:00:02	2.0.10.248	13	Bar63-37.bmp	59	1	?	12r_4g.bmp	0r_4g.bmp	3r_2g.bmp	0r_2g.bmp	12r_4g.bmp				TrialProc	TrialList	0	cvbn	-999999	16	136874	0	c	727	137601	38	-26	12	-8	12	2	6	5	2	13	-12	0	-3	0	4	4	2	2	-12	4
Hungry_Donkey_bar_English_2	142	1	<?xml version="1.0"?>\n<Clock xmlns:dt="urn:schemas-microsoft-com:datatypes"><Description dt:dt="string">E-Prime Primary Realtime Clock</Description><StartTime><Timestamp dt:dt="int">0</Timestamp><DateUtc dt:dt="string">2016-04-15T21:00:02Z</DateUtc></StartTime><FrequencyChanges><FrequencyChange><Frequency dt:dt="r8">3507578</Frequency><Timestamp dt:dt="r8">7635076772</Timestamp><Current dt:dt="r8">0</Current><DateUtc dt:dt="string">2016-04-15T21:00:02Z</DateUtc></FrequencyChange></FrequencyChanges></Clock>\n	Hungry_Donkey_bar_English_2-142-1	60.016	-65	1.0.0.18	1	-954152261	Standard	2.0.10.353	2.0.10.353	04-15-2016	4/15/2016 9:00:02 PM	17:00:02	2.0.10.248	14	Bar63-37.bmp	62	1	?	0r_4g.bmp	0r_4g.bmp	0r_2g.bmp	0r_2g.bmp	0r_4g.bmp				TrialProc	TrialList	0	cvbn	-999999	16	139640	0	c	313	139953	42	-26	16	-4	12	2	6	8	2	14	0	0	0	0	4	4	2	2	0	4
Hungry_Donkey_bar_English_2	142	1	<?xml version="1.0"?>\n<Clock xmlns:dt="urn:schemas-microsoft-com:datatypes"><Description dt:dt="string">E-Prime Primary Realtime Clock</Description><StartTime><Timestamp dt:dt="int">0</Timestamp><DateUtc dt:dt="string">2016-04-15T21:00:02Z</DateUtc></StartTime><FrequencyChanges><FrequencyChange><Frequency dt:dt="r8">3507578</Frequency><Timestamp dt:dt="r8">7635076772</Timestamp><Current dt:dt="r8">0</Current><DateUtc dt:dt="string">2016-04-15T21:00:02Z</DateUtc></FrequencyChange></FrequencyChanges></Clock>\n	Hungry_Donkey_bar_English_2-142-1	60.016	-65	1.0.0.18	1	-954152261	Standard	2.0.10.353	2.0.10.353	04-15-2016	4/15/2016 9:00:02 PM	17:00:02	2.0.10.248	15	Bar63-37.bmp	64	2	?	10r_4g.bmp	0r_4g.bmp	2r_2g.bmp	0r_2g.bmp		0r_4g.bmp			TrialProc	TrialList	0	cvbn	-999999	16	141990	0	v	283	142273	46	-26	20	-4	16	2	6	3	2	15	-10	0	-2	0	4	4	2	2	0	4
Hungry_Donkey_bar_English_2	142	1	<?xml version="1.0"?>\n<Clock xmlns:dt="urn:schemas-microsoft-com:datatypes"><Description dt:dt="string">E-Prime Primary Realtime Clock</Description><StartTime><Timestamp dt:dt="int">0</Timestamp><DateUtc dt:dt="string">2016-04-15T21:00:02Z</DateUtc></StartTime><FrequencyChanges><FrequencyChange><Frequency dt:dt="r8">3507578</Frequency><Timestamp dt:dt="r8">7635076772</Timestamp><Current dt:dt="r8">0</Current><DateUtc dt:dt="string">2016-04-15T21:00:02Z</DateUtc></FrequencyChange></FrequencyChanges></Clock>\n	Hungry_Donkey_bar_English_2-142-1	60.016	-65	1.0.0.18	1	-954152261	Standard	2.0.10.353	2.0.10.353	04-15-2016	4/15/2016 9:00:02 PM	17:00:02	2.0.10.248	16	Bar63-37.bmp	63	3	?	10r_4g.bmp	0r_4g.bmp	2r_2g.bmp	0r_2g.bmp			2r_2g.bmp		TrialProc	TrialList	0	cvbn	-999999	16	144306	0	b	111	144417	48	-28	20	-4	16	2	6	4	2	16	-10	0	-2	0	4	4	2	2	-2	2
Hungry_Donkey_bar_English_2	142	1	<?xml version="1.0"?>\n<Clock xmlns:dt="urn:schemas-microsoft-com:datatypes"><Description dt:dt="string">E-Prime Primary Realtime Clock</Description><StartTime><Timestamp dt:dt="int">0</Timestamp><DateUtc dt:dt="string">2016-04-15T21:00:02Z</DateUtc></StartTime><FrequencyChanges><FrequencyChange><Frequency dt:dt="r8">3507578</Frequency><Timestamp dt:dt="r8">7635076772</Timestamp><Current dt:dt="r8">0</Current><DateUtc dt:dt="string">2016-04-15T21:00:02Z</DateUtc></FrequencyChange></FrequencyChanges></Clock>\n	Hungry_Donkey_bar_English_2-142-1	60.016	-65	1.0.0.18	1	-954152261	Standard	2.0.10.353	2.0.10.353	04-15-2016	4/15/2016 9:00:02 PM	17:00:02	2.0.10.248	17	Bar63-37.bmp	64	4	?	0r_4g.bmp	0r_4g.bmp	0r_2g.bmp	0r_2g.bmp				0r_2g.bmp	TrialProc	TrialList	0	cvbn	-999999	16	146455	0	n	218	146673	50	-28	22	-4	16	2	8	6	2	17	0	0	0	0	4	4	2	2	0	2
Hungry_Donkey_bar_English_2	142	1	<?xml version="1.0"?>\n<Clock xmlns:dt="urn:schemas-microsoft-com:datatypes"><Description dt:dt="string">E-Prime Primary Realtime Clock</Description><StartTime><Timestamp dt:dt="int">0</Timestamp><DateUtc dt:dt="string">2016-04-15T21:00:02Z</DateUtc></StartTime><FrequencyChanges><FrequencyChange><Frequency dt:dt="r8">3507578</Frequency><Timestamp dt:dt="r8">7635076772</Timestamp><Current dt:dt="r8">0</Current><DateUtc dt:dt="string">2016-04-15T21:00:02Z</DateUtc></FrequencyChange></FrequencyChanges></Clock>\n	Hungry_Donkey_bar_English_2-142-1	60.016	-65	1.0.0.18	1	-954152261	Standard	2.0.10.353	2.0.10.353	04-15-2016	4/15/2016 9:00:02 PM	17:00:02	2.0.10.248	18	Bar63-37.bmp	65	4	?	0r_4g.bmp	0r_4g.bmp	0r_2g.bmp	0r_2g.bmp				0r_2g.bmp	TrialProc	TrialList	0	cvbn	-999999	16	148705	0	n	351	149056	52	-28	24	-4	16	2	10	9	2	18	0	0	0	0	4	4	2	2	0	2
Hungry_Donkey_bar_English_2	142	1	<?xml version="1.0"?>\n<Clock xmlns:dt="urn:schemas-microsoft-com:datatypes"><Description dt:dt="string">E-Prime Primary Realtime Clock</Description><StartTime><Timestamp dt:dt="int">0</Timestamp><DateUtc dt:dt="string">2016-04-15T21:00:02Z</DateUtc></StartTime><FrequencyChanges><FrequencyChange><Frequency dt:dt="r8">3507578</Frequency><Timestamp dt:dt="r8">7635076772</Timestamp><Current dt:dt="r8">0</Current><DateUtc dt:dt="string">2016-04-15T21:00:02Z</DateUtc></FrequencyChange></FrequencyChanges></Clock>\n	Hungry_Donkey_bar_English_2-142-1	60.016	-65	1.0.0.18	1	-954152261	Standard	2.0.10.353	2.0.10.353	04-15-2016	4/15/2016 9:00:02 PM	17:00:02	2.0.10.248	19	Bar63-37.bmp	67	1	?	0r_4g.bmp	0r_4g.bmp	0r_2g.bmp	0r_2g.bmp	0r_4g.bmp				TrialProc	TrialList	0	cvbn	-999999	16	151087	0	c	465	151552	56	-28	28	0	16	2	10	10	2	19	0	0	0	0	4	4	2	2	0	4
Hungry_Donkey_bar_English_2	142	1	<?xml version="1.0"?>\n<Clock xmlns:dt="urn:schemas-microsoft-com:datatypes"><Description dt:dt="string">E-Prime Primary Realtime Clock</Description><StartTime><Timestamp dt:dt="int">0</Timestamp><DateUtc dt:dt="string">2016-04-15T21:00:02Z</DateUtc></StartTime><FrequencyChanges><FrequencyChange><Frequency dt:dt="r8">3507578</Frequency><Timestamp dt:dt="r8">7635076772</Timestamp><Current dt:dt="r8">0</Current><DateUtc dt:dt="string">2016-04-15T21:00:02Z</DateUtc></FrequencyChange></FrequencyChanges></Clock>\n	Hungry_Donkey_bar_English_2-142-1	60.016	-65	1.0.0.18	1	-954152261	Standard	2.0.10.353	2.0.10.353	04-15-2016	4/15/2016 9:00:02 PM	17:00:02	2.0.10.248	20	Bar63-37.bmp	66	3	?	10r_4g.bmp	0r_4g.bmp	2r_2g.bmp	0r_2g.bmp			2r_2g.bmp		TrialProc	TrialList	0	cvbn	-999999	16	153587	0	b	381	153968	58	-30	28	0	16	2	10	2	2	20	-10	0	-2	0	4	4	2	2	-2	2
Hungry_Donkey_bar_English_2	142	1	<?xml version="1.0"?>\n<Clock xmlns:dt="urn:schemas-microsoft-com:datatypes"><Description dt:dt="string">E-Prime Primary Realtime Clock</Description><StartTime><Timestamp dt:dt="int">0</Timestamp><DateUtc dt:dt="string">2016-04-15T21:00:02Z</DateUtc></StartTime><FrequencyChanges><FrequencyChange><Frequency dt:dt="r8">3507578</Frequency><Timestamp dt:dt="r8">7635076772</Timestamp><Current dt:dt="r8">0</Current><DateUtc dt:dt="string">2016-04-15T21:00:02Z</DateUtc></FrequencyChange></FrequencyChanges></Clock>\n	Hungry_Donkey_bar_English_2-142-1	60.016	-65	1.0.0.18	1	-954152261	Standard	2.0.10.353	2.0.10.353	04-15-2016	4/15/2016 9:00:02 PM	17:00:02	2.0.10.248	21	Bar63-37.bmp	67	4	?	10r_4g.bmp	0r_4g.bmp	2r_2g.bmp	0r_2g.bmp				0r_2g.bmp	TrialProc	TrialList	0	cvbn	-999999	16	156003	0	n	125	156128	60	-30	30	0	16	2	12	2	3	21	-10	0	-2	0	4	4	2	2	0	2
Hungry_Donkey_bar_English_2	142	1	<?xml version="1.0"?>\n<Clock xmlns:dt="urn:schemas-microsoft-com:datatypes"><Description dt:dt="string">E-Prime Primary Realtime Clock</Description><StartTime><Timestamp dt:dt="int">0</Timestamp><DateUtc dt:dt="string">2016-04-15T21:00:02Z</DateUtc></StartTime><FrequencyChanges><FrequencyChange><Frequency dt:dt="r8">3507578</Frequency><Timestamp dt:dt="r8">7635076772</Timestamp><Current dt:dt="r8">0</Current><DateUtc dt:dt="string">2016-04-15T21:00:02Z</DateUtc></FrequencyChange></FrequencyChanges></Clock>\n	Hungry_Donkey_bar_English_2-142-1	60.016	-65	1.0.0.18	1	-954152261	Standard	2.0.10.353	2.0.10.353	04-15-2016	4/15/2016 9:00:02 PM	17:00:02	2.0.10.248	22	Bar63-37.bmp	67	4	?	0r_4g.bmp	0r_4g.bmp	0r_2g.bmp	0r_2g.bmp				0r_2g.bmp	TrialProc	TrialList	0	cvbn	-999999	16	158152	0	n	56	158208	62	-30	32	0	16	2	14	8	3	22	0	0	0	0	4	4	2	2	0	2
Hungry_Donkey_bar_English_2	142	1	<?xml version="1.0"?>\n<Clock xmlns:dt="urn:schemas-microsoft-com:datatypes"><Description dt:dt="string">E-Prime Primary Realtime Clock</Description><StartTime><Timestamp dt:dt="int">0</Timestamp><DateUtc dt:dt="string">2016-04-15T21:00:02Z</DateUtc></StartTime><FrequencyChanges><FrequencyChange><Frequency dt:dt="r8">3507578</Frequency><Timestamp dt:dt="r8">7635076772</Timestamp><Current dt:dt="r8">0</Current><DateUtc dt:dt="string">2016-04-15T21:00:02Z</DateUtc></FrequencyChange></FrequencyChanges></Clock>\n	Hungry_Donkey_bar_English_2-142-1	60.016	-65	1.0.0.18	1	-954152261	Standard	2.0.10.353	2.0.10.353	04-15-2016	4/15/2016 9:00:02 PM	17:00:02	2.0.10.248	23	Bar63-37.bmp	68	4	?	10r_4g.bmp	0r_4g.bmp	2r_2g.bmp	0r_2g.bmp				0r_2g.bmp	TrialProc	TrialList	0	cvbn	-999999	16	160235	0	n	453	160688	64	-30	34	0	16	2	16	4	3	23	-10	0	-2	0	4	4	2	2	0	2
Hungry_Donkey_bar_English_2	142	1	<?xml version="1.0"?>\n<Clock xmlns:dt="urn:schemas-microsoft-com:datatypes"><Description dt:dt="string">E-Prime Primary Realtime Clock</Description><StartTime><Timestamp dt:dt="int">0</Timestamp><DateUtc dt:dt="string">2016-04-15T21:00:02Z</DateUtc></StartTime><FrequencyChanges><FrequencyChange><Frequency dt:dt="r8">3507578</Frequency><Timestamp dt:dt="r8">7635076772</Timestamp><Current dt:dt="r8">0</Current><DateUtc dt:dt="string">2016-04-15T21:00:02Z</DateUtc></FrequencyChange></FrequencyChanges></Clock>\n	Hungry_Donkey_bar_English_2-142-1	60.016	-65	1.0.0.18	1	-954152261	Standard	2.0.10.353	2.0.10.353	04-15-2016	4/15/2016 9:00:02 PM	17:00:02	2.0.10.248	24	Bar63-37.bmp	69	1	?	0r_4g.bmp	0r_4g.bmp	0r_2g.bmp	0r_2g.bmp	0r_4g.bmp				TrialProc	TrialList	0	cvbn	-999999	16	162718	0	c	546	163264	68	-30	38	4	16	2	16	10	3	24	0	0	0	0	4	4	2	2	0	4
Hungry_Donkey_bar_English_2	142	1	<?xml version="1.0"?>\n<Clock xmlns:dt="urn:schemas-microsoft-com:datatypes"><Description dt:dt="string">E-Prime Primary Realtime Clock</Description><StartTime><Timestamp dt:dt="int">0</Timestamp><DateUtc dt:dt="string">2016-04-15T21:00:02Z</DateUtc></StartTime><FrequencyChanges><FrequencyChange><Frequency dt:dt="r8">3507578</Frequency><Timestamp dt:dt="r8">7635076772</Timestamp><Current dt:dt="r8">0</Current><DateUtc dt:dt="string">2016-04-15T21:00:02Z</DateUtc></FrequencyChange></FrequencyChanges></Clock>\n	Hungry_Donkey_bar_English_2-142-1	60.016	-65	1.0.0.18	1	-954152261	Standard	2.0.10.353	2.0.10.353	04-15-2016	4/15/2016 9:00:02 PM	17:00:02	2.0.10.248	25	Bar75-25.bmp	71	1	?	0r_4g.bmp	0r_4g.bmp	0r_2g.bmp	0r_2g.bmp	0r_4g.bmp				TrialProc	TrialList	0	cvbn	-999999	16	165300	0	c	668	165968	72	-30	42	8	16	2	16	9	3	25	0	0	0	0	4	4	2	2	0	4
Hungry_Donkey_bar_English_2	142	1	<?xml version="1.0"?>\n<Clock xmlns:dt="urn:schemas-microsoft-com:datatypes"><Description dt:dt="string">E-Prime Primary Realtime Clock</Description><StartTime><Timestamp dt:dt="int">0</Timestamp><DateUtc dt:dt="string">2016-04-15T21:00:02Z</DateUtc></StartTime><FrequencyChanges><FrequencyChange><Frequency dt:dt="r8">3507578</Frequency><Timestamp dt:dt="r8">7635076772</Timestamp><Current dt:dt="r8">0</Current><DateUtc dt:dt="string">2016-04-15T21:00:02Z</DateUtc></FrequencyChange></FrequencyChanges></Clock>\n	Hungry_Donkey_bar_English_2-142-1	60.016	-65	1.0.0.18	1	-954152261	Standard	2.0.10.353	2.0.10.353	04-15-2016	4/15/2016 9:00:02 PM	17:00:02	2.0.10.248	26	Bar75-25.bmp	72	2	?	10r_4g.bmp	0r_4g.bmp	2r_2g.bmp	0r_2g.bmp		0r_4g.bmp			TrialProc	TrialList	0	cvbn	-999999	16	168000	0	v	288	168288	76	-30	46	8	20	2	16	3	3	26	-10	0	-2	0	4	4	2	2	0	4
Hungry_Donkey_bar_English_2	142	1	<?xml version="1.0"?>\n<Clock xmlns:dt="urn:schemas-microsoft-com:datatypes"><Description dt:dt="string">E-Prime Primary Realtime Clock</Description><StartTime><Timestamp dt:dt="int">0</Timestamp><DateUtc dt:dt="string">2016-04-15T21:00:02Z</DateUtc></StartTime><FrequencyChanges><FrequencyChange><Frequency dt:dt="r8">3507578</Frequency><Timestamp dt:dt="r8">7635076772</Timestamp><Current dt:dt="r8">0</Current><DateUtc dt:dt="string">2016-04-15T21:00:02Z</DateUtc></FrequencyChange></FrequencyChanges></Clock>\n	Hungry_Donkey_bar_English_2-142-1	60.016	-65	1.0.0.18	1	-954152261	Standard	2.0.10.353	2.0.10.353	04-15-2016	4/15/2016 9:00:02 PM	17:00:02	2.0.10.248	27	Bar75-25.bmp	70	3	?	12r_4g.bmp	0r_4g.bmp	3r_2g.bmp	0r_2g.bmp			3r_2g.bmp		TrialProc	TrialList	0	cvbn	-999999	16	170316	0	b	564	170880	78	-33	45	8	20	1	16	5	3	27	-12	0	-3	0	4	4	2	2	-3	2
Hungry_Donkey_bar_English_2	142	1	<?xml version="1.0"?>\n<Clock xmlns:dt="urn:schemas-microsoft-com:datatypes"><Description dt:dt="string">E-Prime Primary Realtime Clock</Description><StartTime><Timestamp dt:dt="int">0</Timestamp><DateUtc dt:dt="string">2016-04-15T21:00:02Z</DateUtc></StartTime><FrequencyChanges><FrequencyChange><Frequency dt:dt="r8">3507578</Frequency><Timestamp dt:dt="r8">7635076772</Timestamp><Current dt:dt="r8">0</Current><DateUtc dt:dt="string">2016-04-15T21:00:02Z</DateUtc></FrequencyChange></FrequencyChanges></Clock>\n	Hungry_Donkey_bar_English_2-142-1	60.016	-65	1.0.0.18	1	-954152261	Standard	2.0.10.353	2.0.10.353	04-15-2016	4/15/2016 9:00:02 PM	17:00:02	2.0.10.248	28	Bar75-25.bmp	70	3	?	8r_4g.bmp	50r_4g.bmp	1r_2g.bmp	10r_2g.bmp			1r_2g.bmp		TrialProc	TrialList	0	cvbn	-999999	16	172915	0	b	45	172960	80	-34	46	8	20	2	16	1	3	28	-8	-50	-1	-10	4	4	2	2	-1	2
Hungry_Donkey_bar_English_2	142	1	<?xml version="1.0"?>\n<Clock xmlns:dt="urn:schemas-microsoft-com:datatypes"><Description dt:dt="string">E-Prime Primary Realtime Clock</Description><StartTime><Timestamp dt:dt="int">0</Timestamp><DateUtc dt:dt="string">2016-04-15T21:00:02Z</DateUtc></StartTime><FrequencyChanges><FrequencyChange><Frequency dt:dt="r8">3507578</Frequency><Timestamp dt:dt="r8">7635076772</Timestamp><Current dt:dt="r8">0</Current><DateUtc dt:dt="string">2016-04-15T21:00:02Z</DateUtc></FrequencyChange></FrequencyChanges></Clock>\n	Hungry_Donkey_bar_English_2-142-1	60.016	-65	1.0.0.18	1	-954152261	Standard	2.0.10.353	2.0.10.353	04-15-2016	4/15/2016 9:00:02 PM	17:00:02	2.0.10.248	29	Bar75-25.bmp	71	3	?	0r_4g.bmp	0r_4g.bmp	0r_2g.bmp	0r_2g.bmp			0r_2g.bmp		TrialProc	TrialList	0	cvbn	-999999	16	174998	0	b	154	175152	82	-34	48	8	20	4	16	6	3	29	0	0	0	0	4	4	2	2	0	2
Hungry_Donkey_bar_English_2	142	1	<?xml version="1.0"?>\n<Clock xmlns:dt="urn:schemas-microsoft-com:datatypes"><Description dt:dt="string">E-Prime Primary Realtime Clock</Description><StartTime><Timestamp dt:dt="int">0</Timestamp><DateUtc dt:dt="string">2016-04-15T21:00:02Z</DateUtc></StartTime><FrequencyChanges><FrequencyChange><Frequency dt:dt="r8">3507578</Frequency><Timestamp dt:dt="r8">7635076772</Timestamp><Current dt:dt="r8">0</Current><DateUtc dt:dt="string">2016-04-15T21:00:02Z</DateUtc></FrequencyChange></FrequencyChanges></Clock>\n	Hungry_Donkey_bar_English_2-142-1	60.016	-65	1.0.0.18	1	-954152261	Standard	2.0.10.353	2.0.10.353	04-15-2016	4/15/2016 9:00:02 PM	17:00:02	2.0.10.248	30	Bar75-25.bmp	71	3	?	0r_4g.bmp	0r_4g.bmp	0r_2g.bmp	0r_2g.bmp			0r_2g.bmp		TrialProc	TrialList	0	cvbn	-999999	16	177181	0	b	211	177392	84	-34	50	8	20	6	16	7	3	30	0	0	0	0	4	4	2	2	0	2
Hungry_Donkey_bar_English_2	142	1	<?xml version="1.0"?>\n<Clock xmlns:dt="urn:schemas-microsoft-com:datatypes"><Description dt:dt="string">E-Prime Primary Realtime Clock</Description><StartTime><Timestamp dt:dt="int">0</Timestamp><DateUtc dt:dt="string">2016-04-15T21:00:02Z</DateUtc></StartTime><FrequencyChanges><FrequencyChange><Frequency dt:dt="r8">3507578</Frequency><Timestamp dt:dt="r8">7635076772</Timestamp><Current dt:dt="r8">0</Current><DateUtc dt:dt="string">2016-04-15T21:00:02Z</DateUtc></FrequencyChange></FrequencyChanges></Clock>\n	Hungry_Donkey_bar_English_2-142-1	60.016	-65	1.0.0.18	1	-954152261	Standard	2.0.10.353	2.0.10.353	04-15-2016	4/15/2016 9:00:02 PM	17:00:02	2.0.10.248	31	Bar75-25.bmp	72	4	?	0r_4g.bmp	0r_4g.bmp	0r_2g.bmp	0r_2g.bmp				0r_2g.bmp	TrialProc	TrialList	0	cvbn	-999999	16	179430	0	n	362	179792	86	-34	52	8	20	6	18	8	4	31	0	0	0	0	4	4	2	2	0	2
Hungry_Donkey_bar_English_2	142	1	<?xml version="1.0"?>\n<Clock xmlns:dt="urn:schemas-microsoft-com:datatypes"><Description dt:dt="string">E-Prime Primary Realtime Clock</Description><StartTime><Timestamp dt:dt="int">0</Timestamp><DateUtc dt:dt="string">2016-04-15T21:00:02Z</DateUtc></StartTime><FrequencyChanges><FrequencyChange><Frequency dt:dt="r8">3507578</Frequency><Timestamp dt:dt="r8">7635076772</Timestamp><Current dt:dt="r8">0</Current><DateUtc dt:dt="string">2016-04-15T21:00:02Z</DateUtc></FrequencyChange></FrequencyChanges></Clock>\n	Hungry_Donkey_bar_English_2-142-1	60.016	-65	1.0.0.18	1	-954152261	Standard	2.0.10.353	2.0.10.353	04-15-2016	4/15/2016 9:00:02 PM	17:00:02	2.0.10.248	32	Bar63-37.bmp	67	1	?	10r_4g.bmp	0r_4g.bmp	2r_2g.bmp	0r_2g.bmp	10r_4g.bmp				TrialProc	TrialList	0	cvbn	-999999	16	181829	0	c	651	182480	90	-44	46	2	20	6	18	4	4	32	-10	0	-2	0	4	4	2	2	-10	4
Hungry_Donkey_bar_English_2	142	1	<?xml version="1.0"?>\n<Clock xmlns:dt="urn:schemas-microsoft-com:datatypes"><Description dt:dt="string">E-Prime Primary Realtime Clock</Description><StartTime><Timestamp dt:dt="int">0</Timestamp><DateUtc dt:dt="string">2016-04-15T21:00:02Z</DateUtc></StartTime><FrequencyChanges><FrequencyChange><Frequency dt:dt="r8">3507578</Frequency><Timestamp dt:dt="r8">7635076772</Timestamp><Current dt:dt="r8">0</Current><DateUtc dt:dt="string">2016-04-15T21:00:02Z</DateUtc></FrequencyChange></FrequencyChanges></Clock>\n	Hungry_Donkey_bar_English_2-142-1	60.016	-65	1.0.0.18	1	-954152261	Standard	2.0.10.353	2.0.10.353	04-15-2016	4/15/2016 9:00:02 PM	17:00:02	2.0.10.248	33	Bar63-37.bmp	68	2	?	12r_4g.bmp	0r_4g.bmp	3r_2g.bmp	0r_2g.bmp		0r_4g.bmp			TrialProc	TrialList	0	cvbn	-999999	16	184512	0	v	368	184880	94	-44	50	2	24	6	18	5	4	33	-12	0	-3	0	4	4	2	2	0	4
Hungry_Donkey_bar_English_2	142	1	<?xml version="1.0"?>\n<Clock xmlns:dt="urn:schemas-microsoft-com:datatypes"><Description dt:dt="string">E-Prime Primary Realtime Clock</Description><StartTime><Timestamp dt:dt="int">0</Timestamp><DateUtc dt:dt="string">2016-04-15T21:00:02Z</DateUtc></StartTime><FrequencyChanges><FrequencyChange><Frequency dt:dt="r8">3507578</Frequency><Timestamp dt:dt="r8">7635076772</Timestamp><Current dt:dt="r8">0</Current><DateUtc dt:dt="string">2016-04-15T21:00:02Z</DateUtc></FrequencyChange></FrequencyChanges></Clock>\n	Hungry_Donkey_bar_English_2-142-1	60.016	-65	1.0.0.18	1	-954152261	Standard	2.0.10.353	2.0.10.353	04-15-2016	4/15/2016 9:00:02 PM	17:00:02	2.0.10.248	34	Bar63-37.bmp	69	2	?	0r_4g.bmp	0r_4g.bmp	0r_2g.bmp	0r_2g.bmp		0r_4g.bmp			TrialProc	TrialList	0	cvbn	-999999	17	186912	0	v	0	186912	98	-44	54	2	28	6	18	9	4	34	0	0	0	0	4	4	2	2	0	4
Hungry_Donkey_bar_English_2	142	1	<?xml version="1.0"?>\n<Clock xmlns:dt="urn:schemas-microsoft-com:datatypes"><Description dt:dt="string">E-Prime Primary Realtime Clock</Description><StartTime><Timestamp dt:dt="int">0</Timestamp><DateUtc dt:dt="string">2016-04-15T21:00:02Z</DateUtc></StartTime><FrequencyChanges><FrequencyChange><Frequency dt:dt="r8">3507578</Frequency><Timestamp dt:dt="r8">7635076772</Timestamp><Current dt:dt="r8">0</Current><DateUtc dt:dt="string">2016-04-15T21:00:02Z</DateUtc></FrequencyChange></FrequencyChanges></Clock>\n	Hungry_Donkey_bar_English_2-142-1	60.016	-65	1.0.0.18	1	-954152261	Standard	2.0.10.353	2.0.10.353	04-15-2016	4/15/2016 9:00:02 PM	17:00:02	2.0.10.248	35	Bar63-37.bmp	69	3	?	0r_4g.bmp	0r_4g.bmp	0r_2g.bmp	0r_2g.bmp			0r_2g.bmp		TrialProc	TrialList	0	cvbn	-999999	16	188944	0	b	400	189344	100	-44	56	2	28	8	18	6	4	35	0	0	0	0	4	4	2	2	0	2
Hungry_Donkey_bar_English_2	142	1	<?xml version="1.0"?>\n<Clock xmlns:dt="urn:schemas-microsoft-com:datatypes"><Description dt:dt="string">E-Prime Primary Realtime Clock</Description><StartTime><Timestamp dt:dt="int">0</Timestamp><DateUtc dt:dt="string">2016-04-15T21:00:02Z</DateUtc></StartTime><FrequencyChanges><FrequencyChange><Frequency dt:dt="r8">3507578</Frequency><Timestamp dt:dt="r8">7635076772</Timestamp><Current dt:dt="r8">0</Current><DateUtc dt:dt="string">2016-04-15T21:00:02Z</DateUtc></FrequencyChange></FrequencyChanges></Clock>\n	Hungry_Donkey_bar_English_2-142-1	60.016	-65	1.0.0.18	1	-954152261	Standard	2.0.10.353	2.0.10.353	04-15-2016	4/15/2016 9:00:02 PM	17:00:02	2.0.10.248	36	Bar63-37.bmp	69	3	?	10r_4g.bmp	0r_4g.bmp	2r_2g.bmp	0r_2g.bmp			2r_2g.bmp		TrialProc	TrialList	0	cvbn	-999999	16	191377	0	b	15	191392	102	-46	56	2	28	8	18	2	4	36	-10	0	-2	0	4	4	2	2	-2	2
Hungry_Donkey_bar_English_2	142	1	<?xml version="1.0"?>\n<Clock xmlns:dt="urn:schemas-microsoft-com:datatypes"><Description dt:dt="string">E-Prime Primary Realtime Clock</Description><StartTime><Timestamp dt:dt="int">0</Timestamp><DateUtc dt:dt="string">2016-04-15T21:00:02Z</DateUtc></StartTime><FrequencyChanges><FrequencyChange><Frequency dt:dt="r8">3507578</Frequency><Timestamp dt:dt="r8">7635076772</Timestamp><Current dt:dt="r8">0</Current><DateUtc dt:dt="string">2016-04-15T21:00:02Z</DateUtc></FrequencyChange></FrequencyChanges></Clock>\n	Hungry_Donkey_bar_English_2-142-1	60.016	-65	1.0.0.18	1	-954152261	Standard	2.0.10.353	2.0.10.353	04-15-2016	4/15/2016 9:00:02 PM	17:00:02	2.0.10.248	37	Bar63-37.bmp	69	4	?	0r_4g.bmp	0r_4g.bmp	0r_2g.bmp	0r_2g.bmp				0r_2g.bmp	TrialProc	TrialList	0	cvbn	-999999	17	193427	0	n	381	193808	104	-46	58	2	28	8	20	7	4	37	0	0	0	0	4	4	2	2	0	2
Hungry_Donkey_bar_English_2	142	1	<?xml version="1.0"?>\n<Clock xmlns:dt="urn:schemas-microsoft-com:datatypes"><Description dt:dt="string">E-Prime Primary Realtime Clock</Description><StartTime><Timestamp dt:dt="int">0</Timestamp><DateUtc dt:dt="string">2016-04-15T21:00:02Z</DateUtc></StartTime><FrequencyChanges><FrequencyChange><Frequency dt:dt="r8">3507578</Frequency><Timestamp dt:dt="r8">7635076772</Timestamp><Current dt:dt="r8">0</Current><DateUtc dt:dt="string">2016-04-15T21:00:02Z</DateUtc></FrequencyChange></FrequencyChanges></Clock>\n	Hungry_Donkey_bar_English_2-142-1	60.016	-65	1.0.0.18	1	-954152261	Standard	2.0.10.353	2.0.10.353	04-15-2016	4/15/2016 9:00:02 PM	17:00:02	2.0.10.248	38	Bar63-37.bmp	67	1	?	8r_4g.bmp	50r_4g.bmp	1r_2g.bmp	10r_2g.bmp	8r_4g.bmp				TrialProc	TrialList	0	cvbn	-999999	17	195843	0	c	477	196320	108	-54	54	-2	28	8	20	1	4	38	-8	-50	-1	-10	4	4	2	2	-8	4
Hungry_Donkey_bar_English_2	142	1	<?xml version="1.0"?>\n<Clock xmlns:dt="urn:schemas-microsoft-com:datatypes"><Description dt:dt="string">E-Prime Primary Realtime Clock</Description><StartTime><Timestamp dt:dt="int">0</Timestamp><DateUtc dt:dt="string">2016-04-15T21:00:02Z</DateUtc></StartTime><FrequencyChanges><FrequencyChange><Frequency dt:dt="r8">3507578</Frequency><Timestamp dt:dt="r8">7635076772</Timestamp><Current dt:dt="r8">0</Current><DateUtc dt:dt="string">2016-04-15T21:00:02Z</DateUtc></FrequencyChange></FrequencyChanges></Clock>\n	Hungry_Donkey_bar_English_2-142-1	60.016	-65	1.0.0.18	1	-954152261	Standard	2.0.10.353	2.0.10.353	04-15-2016	4/15/2016 9:00:02 PM	17:00:02	2.0.10.248	39	Bar63-37.bmp	67	2	?	0r_4g.bmp	0r_4g.bmp	0r_2g.bmp	0r_2g.bmp		0r_4g.bmp			TrialProc	TrialList	0	cvbn	-999999	17	198359	0	v	424	198783	112	-54	58	-2	32	8	20	10	4	39	0	0	0	0	4	4	2	2	0	4
Hungry_Donkey_bar_English_2	142	1	<?xml version="1.0"?>\n<Clock xmlns:dt="urn:schemas-microsoft-com:datatypes"><Description dt:dt="string">E-Prime Primary Realtime Clock</Description><StartTime><Timestamp dt:dt="int">0</Timestamp><DateUtc dt:dt="string">2016-04-15T21:00:02Z</DateUtc></StartTime><FrequencyChanges><FrequencyChange><Frequency dt:dt="r8">3507578</Frequency><Timestamp dt:dt="r8">7635076772</Timestamp><Current dt:dt="r8">0</Current><DateUtc dt:dt="string">2016-04-15T21:00:02Z</DateUtc></FrequencyChange></FrequencyChanges></Clock>\n	Hungry_Donkey_bar_English_2-142-1	60.016	-65	1.0.0.18	1	-954152261	Standard	2.0.10.353	2.0.10.353	04-15-2016	4/15/2016 9:00:02 PM	17:00:02	2.0.10.248	40	Bar63-37.bmp	68	2	?	10r_4g.bmp	0r_4g.bmp	2r_2g.bmp	0r_2g.bmp		0r_4g.bmp			TrialProc	TrialList	0	cvbn	-999999	16	200808	0	v	311	201119	116	-54	62	-2	36	8	20	3	4	40	-10	0	-2	0	4	4	2	2	0	4
Hungry_Donkey_bar_English_2	142	1	<?xml version="1.0"?>\n<Clock xmlns:dt="urn:schemas-microsoft-com:datatypes"><Description dt:dt="string">E-Prime Primary Realtime Clock</Description><StartTime><Timestamp dt:dt="int">0</Timestamp><DateUtc dt:dt="string">2016-04-15T21:00:02Z</DateUtc></StartTime><FrequencyChanges><FrequencyChange><Frequency dt:dt="r8">3507578</Frequency><Timestamp dt:dt="r8">7635076772</Timestamp><Current dt:dt="r8">0</Current><DateUtc dt:dt="string">2016-04-15T21:00:02Z</DateUtc></FrequencyChange></FrequencyChanges></Clock>\n	Hungry_Donkey_bar_English_2-142-1	60.016	-65	1.0.0.18	1	-954152261	Standard	2.0.10.353	2.0.10.353	04-15-2016	4/15/2016 9:00:02 PM	17:00:02	2.0.10.248	41	Bar63-37.bmp	65	1	?	10r_4g.bmp	0r_4g.bmp	2r_2g.bmp	0r_2g.bmp	10r_4g.bmp				TrialProc	TrialList	0	cvbn	-999999	16	203157	0	c	426	203583	120	-64	56	-8	36	8	20	3	5	41	-10	0	-2	0	4	4	2	2	-10	4
Hungry_Donkey_bar_English_2	142	1	<?xml version="1.0"?>\n<Clock xmlns:dt="urn:schemas-microsoft-com:datatypes"><Description dt:dt="string">E-Prime Primary Realtime Clock</Description><StartTime><Timestamp dt:dt="int">0</Timestamp><DateUtc dt:dt="string">2016-04-15T21:00:02Z</DateUtc></StartTime><FrequencyChanges><FrequencyChange><Frequency dt:dt="r8">3507578</Frequency><Timestamp dt:dt="r8">7635076772</Timestamp><Current dt:dt="r8">0</Current><DateUtc dt:dt="string">2016-04-15T21:00:02Z</DateUtc></FrequencyChange></FrequencyChanges></Clock>\n	Hungry_Donkey_bar_English_2-142-1	60.016	-65	1.0.0.18	1	-954152261	Standard	2.0.10.353	2.0.10.353	04-15-2016	4/15/2016 9:00:02 PM	17:00:02	2.0.10.248	42	Bar63-37.bmp	66	1	?	0r_4g.bmp	0r_4g.bmp	0r_2g.bmp	0r_2g.bmp	0r_4g.bmp				TrialProc	TrialList	0	cvbn	-999999	16	205607	0	c	1528	207135	124	-64	60	-4	36	8	20	9	5	42	0	0	0	0	4	4	2	2	0	4
Hungry_Donkey_bar_English_2	142	1	<?xml version="1.0"?>\n<Clock xmlns:dt="urn:schemas-microsoft-com:datatypes"><Description dt:dt="string">E-Prime Primary Realtime Clock</Description><StartTime><Timestamp dt:dt="int">0</Timestamp><DateUtc dt:dt="string">2016-04-15T21:00:02Z</DateUtc></StartTime><FrequencyChanges><FrequencyChange><Frequency dt:dt="r8">3507578</Frequency><Timestamp dt:dt="r8">7635076772</Timestamp><Current dt:dt="r8">0</Current><DateUtc dt:dt="string">2016-04-15T21:00:02Z</DateUtc></FrequencyChange></FrequencyChanges></Clock>\n	Hungry_Donkey_bar_English_2-142-1	60.016	-65	1.0.0.18	1	-954152261	Standard	2.0.10.353	2.0.10.353	04-15-2016	4/15/2016 9:00:02 PM	17:00:02	2.0.10.248	43	Bar63-37.bmp	66	3	?	0r_4g.bmp	0r_4g.bmp	0r_2g.bmp	0r_2g.bmp			0r_2g.bmp		TrialProc	TrialList	0	cvbn	-999999	16	209172	0	b	1499	210671	126	-64	62	-4	36	10	20	10	5	43	0	0	0	0	4	4	2	2	0	2
Hungry_Donkey_bar_English_2	142	1	<?xml version="1.0"?>\n<Clock xmlns:dt="urn:schemas-microsoft-com:datatypes"><Description dt:dt="string">E-Prime Primary Realtime Clock</Description><StartTime><Timestamp dt:dt="int">0</Timestamp><DateUtc dt:dt="string">2016-04-15T21:00:02Z</DateUtc></StartTime><FrequencyChanges><FrequencyChange><Frequency dt:dt="r8">3507578</Frequency><Timestamp dt:dt="r8">7635076772</Timestamp><Current dt:dt="r8">0</Current><DateUtc dt:dt="string">2016-04-15T21:00:02Z</DateUtc></FrequencyChange></FrequencyChanges></Clock>\n	Hungry_Donkey_bar_English_2-142-1	60.016	-65	1.0.0.18	1	-954152261	Standard	2.0.10.353	2.0.10.353	04-15-2016	4/15/2016 9:00:02 PM	17:00:02	2.0.10.248	44	Bar63-37.bmp	64	1	?	10r_4g.bmp	0r_4g.bmp	2r_2g.bmp	0r_2g.bmp	10r_4g.bmp				TrialProc	TrialList	0	cvbn	-999999	16	212705	0	c	574	213279	130	-74	56	-10	36	10	20	4	5	44	-10	0	-2	0	4	4	2	2	-10	4
Hungry_Donkey_bar_English_2	142	1	<?xml version="1.0"?>\n<Clock xmlns:dt="urn:schemas-microsoft-com:datatypes"><Description dt:dt="string">E-Prime Primary Realtime Clock</Description><StartTime><Timestamp dt:dt="int">0</Timestamp><DateUtc dt:dt="string">2016-04-15T21:00:02Z</DateUtc></StartTime><FrequencyChanges><FrequencyChange><Frequency dt:dt="r8">3507578</Frequency><Timestamp dt:dt="r8">7635076772</Timestamp><Current dt:dt="r8">0</Current><DateUtc dt:dt="string">2016-04-15T21:00:02Z</DateUtc></FrequencyChange></FrequencyChanges></Clock>\n	Hungry_Donkey_bar_English_2-142-1	60.016	-65	1.0.0.18	1	-954152261	Standard	2.0.10.353	2.0.10.353	04-15-2016	4/15/2016 9:00:02 PM	17:00:02	2.0.10.248	45	Bar63-37.bmp	64	2	?	12r_4g.bmp	0r_4g.bmp	3r_2g.bmp	0r_2g.bmp		0r_4g.bmp			TrialProc	TrialList	0	cvbn	-999999	16	215304	0	v	615	215919	134	-74	60	-10	40	10	20	5	5	45	-12	0	-3	0	4	4	2	2	0	4
Hungry_Donkey_bar_English_2	142	1	<?xml version="1.0"?>\n<Clock xmlns:dt="urn:schemas-microsoft-com:datatypes"><Description dt:dt="string">E-Prime Primary Realtime Clock</Description><StartTime><Timestamp dt:dt="int">0</Timestamp><DateUtc dt:dt="string">2016-04-15T21:00:02Z</DateUtc></StartTime><FrequencyChanges><FrequencyChange><Frequency dt:dt="r8">3507578</Frequency><Timestamp dt:dt="r8">7635076772</Timestamp><Current dt:dt="r8">0</Current><DateUtc dt:dt="string">2016-04-15T21:00:02Z</DateUtc></FrequencyChange></FrequencyChanges></Clock>\n	Hungry_Donkey_bar_English_2-142-1	60.016	-65	1.0.0.18	1	-954152261	Standard	2.0.10.353	2.0.10.353	04-15-2016	4/15/2016 9:00:02 PM	17:00:02	2.0.10.248	46	Bar63-37.bmp	65	3	?	0r_4g.bmp	0r_4g.bmp	0r_2g.bmp	0r_2g.bmp			0r_2g.bmp		TrialProc	TrialList	0	cvbn	-999999	17	217954	0	b	605	218559	136	-74	62	-10	40	12	20	7	5	46	0	0	0	0	4	4	2	2	0	2
Hungry_Donkey_bar_English_2	142	1	<?xml version="1.0"?>\n<Clock xmlns:dt="urn:schemas-microsoft-com:datatypes"><Description dt:dt="string">E-Prime Primary Realtime Clock</Description><StartTime><Timestamp dt:dt="int">0</Timestamp><DateUtc dt:dt="string">2016-04-15T21:00:02Z</DateUtc></StartTime><FrequencyChanges><FrequencyChange><Frequency dt:dt="r8">3507578</Frequency><Timestamp dt:dt="r8">7635076772</Timestamp><Current dt:dt="r8">0</Current><DateUtc dt:dt="string">2016-04-15T21:00:02Z</DateUtc></FrequencyChange></FrequencyChanges></Clock>\n	Hungry_Donkey_bar_English_2-142-1	60.016	-65	1.0.0.18	1	-954152261	Standard	2.0.10.353	2.0.10.353	04-15-2016	4/15/2016 9:00:02 PM	17:00:02	2.0.10.248	47	Bar63-37.bmp	65	4	?	10r_4g.bmp	0r_4g.bmp	2r_2g.bmp	0r_2g.bmp				0r_2g.bmp	TrialProc	TrialList	0	cvbn	-999999	16	220586	0	n	517	221103	138	-74	64	-10	40	12	22	2	5	47	-10	0	-2	0	4	4	2	2	0	2
Hungry_Donkey_bar_English_2	142	1	<?xml version="1.0"?>\n<Clock xmlns:dt="urn:schemas-microsoft-com:datatypes"><Description dt:dt="string">E-Prime Primary Realtime Clock</Description><StartTime><Timestamp dt:dt="int">0</Timestamp><DateUtc dt:dt="string">2016-04-15T21:00:02Z</DateUtc></StartTime><FrequencyChanges><FrequencyChange><Frequency dt:dt="r8">3507578</Frequency><Timestamp dt:dt="r8">7635076772</Timestamp><Current dt:dt="r8">0</Current><DateUtc dt:dt="string">2016-04-15T21:00:02Z</DateUtc></FrequencyChange></FrequencyChanges></Clock>\n	Hungry_Donkey_bar_English_2-142-1	60.016	-65	1.0.0.18	1	-954152261	Standard	2.0.10.353	2.0.10.353	04-15-2016	4/15/2016 9:00:02 PM	17:00:02	2.0.10.248	48	Bar63-37.bmp	65	3	?	8r_4g.bmp	50r_4g.bmp	1r_2g.bmp	10r_2g.bmp			1r_2g.bmp		TrialProc	TrialList	0	cvbn	-999999	16	223135	0	b	480	223615	140	-75	65	-10	40	13	22	1	5	48	-8	-50	-1	-10	4	4	2	2	-1	2
Hungry_Donkey_bar_English_2	142	1	<?xml version="1.0"?>\n<Clock xmlns:dt="urn:schemas-microsoft-com:datatypes"><Description dt:dt="string">E-Prime Primary Realtime Clock</Description><StartTime><Timestamp dt:dt="int">0</Timestamp><DateUtc dt:dt="string">2016-04-15T21:00:02Z</DateUtc></StartTime><FrequencyChanges><FrequencyChange><Frequency dt:dt="r8">3507578</Frequency><Timestamp dt:dt="r8">7635076772</Timestamp><Current dt:dt="r8">0</Current><DateUtc dt:dt="string">2016-04-15T21:00:02Z</DateUtc></FrequencyChange></FrequencyChanges></Clock>\n	Hungry_Donkey_bar_English_2-142-1	60.016	-65	1.0.0.18	1	-954152261	Standard	2.0.10.353	2.0.10.353	04-15-2016	4/15/2016 9:00:02 PM	17:00:02	2.0.10.248	49	Bar63-37.bmp	66	1	?	0r_4g.bmp	0r_4g.bmp	0r_2g.bmp	0r_2g.bmp	0r_4g.bmp				TrialProc	TrialList	0	cvbn	-999999	17	225652	0	c	651	226303	144	-75	69	-6	40	13	22	8	5	49	0	0	0	0	4	4	2	2	0	4
Hungry_Donkey_bar_English_2	142	1	<?xml version="1.0"?>\n<Clock xmlns:dt="urn:schemas-microsoft-com:datatypes"><Description dt:dt="string">E-Prime Primary Realtime Clock</Description><StartTime><Timestamp dt:dt="int">0</Timestamp><DateUtc dt:dt="string">2016-04-15T21:00:02Z</DateUtc></StartTime><FrequencyChanges><FrequencyChange><Frequency dt:dt="r8">3507578</Frequency><Timestamp dt:dt="r8">7635076772</Timestamp><Current dt:dt="r8">0</Current><DateUtc dt:dt="string">2016-04-15T21:00:02Z</DateUtc></FrequencyChange></FrequencyChanges></Clock>\n	Hungry_Donkey_bar_English_2-142-1	60.016	-65	1.0.0.18	1	-954152261	Standard	2.0.10.353	2.0.10.353	04-15-2016	4/15/2016 9:00:02 PM	17:00:02	2.0.10.248	50	Bar63-37.bmp	66	3	?	0r_4g.bmp	0r_4g.bmp	0r_2g.bmp	0r_2g.bmp			0r_2g.bmp		TrialProc	TrialList	0	cvbn	-999999	16	228334	0	b	737	229071	146	-75	71	-6	40	15	22	6	5	50	0	0	0	0	4	4	2	2	0	2
Hungry_Donkey_bar_English_2	142	1	<?xml version="1.0"?>\n<Clock xmlns:dt="urn:schemas-microsoft-com:datatypes"><Description dt:dt="string">E-Prime Primary Realtime Clock</Description><StartTime><Timestamp dt:dt="int">0</Timestamp><DateUtc dt:dt="string">2016-04-15T21:00:02Z</DateUtc></StartTime><FrequencyChanges><FrequencyChange><Frequency dt:dt="r8">3507578</Frequency><Timestamp dt:dt="r8">7635076772</Timestamp><Current dt:dt="r8">0</Current><DateUtc dt:dt="string">2016-04-15T21:00:02Z</DateUtc></FrequencyChange></FrequencyChanges></Clock>\n	Hungry_Donkey_bar_English_2-142-1	60.016	-65	1.0.0.18	1	-954152261	Standard	2.0.10.353	2.0.10.353	04-15-2016	4/15/2016 9:00:02 PM	17:00:02	2.0.10.248	51	Bar63-37.bmp	66	4	?	0r_4g.bmp	0r_4g.bmp	0r_2g.bmp	0r_2g.bmp				0r_2g.bmp	TrialProc	TrialList	0	cvbn	-999999	16	231100	0	n	771	231871	148	-75	73	-6	40	15	24	9	6	51	0	0	0	0	4	4	2	2	0	2
Hungry_Donkey_bar_English_2	142	1	<?xml version="1.0"?>\n<Clock xmlns:dt="urn:schemas-microsoft-com:datatypes"><Description dt:dt="string">E-Prime Primary Realtime Clock</Description><StartTime><Timestamp dt:dt="int">0</Timestamp><DateUtc dt:dt="string">2016-04-15T21:00:02Z</DateUtc></StartTime><FrequencyChanges><FrequencyChange><Frequency dt:dt="r8">3507578</Frequency><Timestamp dt:dt="r8">7635076772</Timestamp><Current dt:dt="r8">0</Current><DateUtc dt:dt="string">2016-04-15T21:00:02Z</DateUtc></FrequencyChange></FrequencyChanges></Clock>\n	Hungry_Donkey_bar_English_2-142-1	60.016	-65	1.0.0.18	1	-954152261	Standard	2.0.10.353	2.0.10.353	04-15-2016	4/15/2016 9:00:02 PM	17:00:02	2.0.10.248	52	Bar63-37.bmp	67	4	?	0r_4g.bmp	0r_4g.bmp	0r_2g.bmp	0r_2g.bmp				0r_2g.bmp	TrialProc	TrialList	0	cvbn	-999999	16	233899	0	n	36	233935	150	-75	75	-6	40	15	26	6	6	52	0	0	0	0	4	4	2	2	0	2
Hungry_Donkey_bar_English_2	142	1	<?xml version="1.0"?>\n<Clock xmlns:dt="urn:schemas-microsoft-com:datatypes"><Description dt:dt="string">E-Prime Primary Realtime Clock</Description><StartTime><Timestamp dt:dt="int">0</Timestamp><DateUtc dt:dt="string">2016-04-15T21:00:02Z</DateUtc></StartTime><FrequencyChanges><FrequencyChange><Frequency dt:dt="r8">3507578</Frequency><Timestamp dt:dt="r8">7635076772</Timestamp><Current dt:dt="r8">0</Current><DateUtc dt:dt="string">2016-04-15T21:00:02Z</DateUtc></FrequencyChange></FrequencyChanges></Clock>\n	Hungry_Donkey_bar_English_2-142-1	60.016	-65	1.0.0.18	1	-954152261	Standard	2.0.10.353	2.0.10.353	04-15-2016	4/15/2016 9:00:02 PM	17:00:02	2.0.10.248	53	Bar63-37.bmp	67	4	?	10r_4g.bmp	0r_4g.bmp	2r_2g.bmp	0r_2g.bmp				0r_2g.bmp	TrialProc	TrialList	0	cvbn	-999999	17	235966	0	n	577	236543	152	-75	77	-6	40	15	28	3	6	53	-10	0	-2	0	4	4	2	2	0	2
Hungry_Donkey_bar_English_2	142	1	<?xml version="1.0"?>\n<Clock xmlns:dt="urn:schemas-microsoft-com:datatypes"><Description dt:dt="string">E-Prime Primary Realtime Clock</Description><StartTime><Timestamp dt:dt="int">0</Timestamp><DateUtc dt:dt="string">2016-04-15T21:00:02Z</DateUtc></StartTime><FrequencyChanges><FrequencyChange><Frequency dt:dt="r8">3507578</Frequency><Timestamp dt:dt="r8">7635076772</Timestamp><Current dt:dt="r8">0</Current><DateUtc dt:dt="string">2016-04-15T21:00:02Z</DateUtc></FrequencyChange></FrequencyChanges></Clock>\n	Hungry_Donkey_bar_English_2-142-1	60.016	-65	1.0.0.18	1	-954152261	Standard	2.0.10.353	2.0.10.353	04-15-2016	4/15/2016 9:00:02 PM	17:00:02	2.0.10.248	54	Bar63-37.bmp	67	4	?	0r_4g.bmp	0r_4g.bmp	0r_2g.bmp	0r_2g.bmp				0r_2g.bmp	TrialProc	TrialList	0	cvbn	-999999	17	238582	0	n	633	239215	154	-75	79	-6	40	15	30	8	6	54	0	0	0	0	4	4	2	2	0	2
Hungry_Donkey_bar_English_2	142	1	<?xml version="1.0"?>\n<Clock xmlns:dt="urn:schemas-microsoft-com:datatypes"><Description dt:dt="string">E-Prime Primary Realtime Clock</Description><StartTime><Timestamp dt:dt="int">0</Timestamp><DateUtc dt:dt="string">2016-04-15T21:00:02Z</DateUtc></StartTime><FrequencyChanges><FrequencyChange><Frequency dt:dt="r8">3507578</Frequency><Timestamp dt:dt="r8">7635076772</Timestamp><Current dt:dt="r8">0</Current><DateUtc dt:dt="string">2016-04-15T21:00:02Z</DateUtc></FrequencyChange></FrequencyChanges></Clock>\n	Hungry_Donkey_bar_English_2-142-1	60.016	-65	1.0.0.18	1	-954152261	Standard	2.0.10.353	2.0.10.353	04-15-2016	4/15/2016 9:00:02 PM	17:00:02	2.0.10.248	55	Bar63-37.bmp	67	3	?	10r_4g.bmp	0r_4g.bmp	2r_2g.bmp	0r_2g.bmp			2r_2g.bmp		TrialProc	TrialList	0	cvbn	-999999	16	241247	0	b	704	241951	156	-77	79	-6	40	15	30	2	6	55	-10	0	-2	0	4	4	2	2	-2	2
Hungry_Donkey_bar_English_2	142	1	<?xml version="1.0"?>\n<Clock xmlns:dt="urn:schemas-microsoft-com:datatypes"><Description dt:dt="string">E-Prime Primary Realtime Clock</Description><StartTime><Timestamp dt:dt="int">0</Timestamp><DateUtc dt:dt="string">2016-04-15T21:00:02Z</DateUtc></StartTime><FrequencyChanges><FrequencyChange><Frequency dt:dt="r8">3507578</Frequency><Timestamp dt:dt="r8">7635076772</Timestamp><Current dt:dt="r8">0</Current><DateUtc dt:dt="string">2016-04-15T21:00:02Z</DateUtc></FrequencyChange></FrequencyChanges></Clock>\n	Hungry_Donkey_bar_English_2-142-1	60.016	-65	1.0.0.18	1	-954152261	Standard	2.0.10.353	2.0.10.353	04-15-2016	4/15/2016 9:00:02 PM	17:00:02	2.0.10.248	56	Bar50-50.bmp	56	2	?	8r_4g.bmp	50r_4g.bmp	1r_2g.bmp	10r_2g.bmp		50r_4g.bmp			TrialProc	TrialList	0	cvbn	-999999	16	243980	0	v	691	244671	160	-127	33	-6	-6	15	30	1	6	56	-8	-50	-1	-10	4	4	2	2	-50	4
Hungry_Donkey_bar_English_2	142	1	<?xml version="1.0"?>\n<Clock xmlns:dt="urn:schemas-microsoft-com:datatypes"><Description dt:dt="string">E-Prime Primary Realtime Clock</Description><StartTime><Timestamp dt:dt="int">0</Timestamp><DateUtc dt:dt="string">2016-04-15T21:00:02Z</DateUtc></StartTime><FrequencyChanges><FrequencyChange><Frequency dt:dt="r8">3507578</Frequency><Timestamp dt:dt="r8">7635076772</Timestamp><Current dt:dt="r8">0</Current><DateUtc dt:dt="string">2016-04-15T21:00:02Z</DateUtc></FrequencyChange></FrequencyChanges></Clock>\n	Hungry_Donkey_bar_English_2-142-1	60.016	-65	1.0.0.18	1	-954152261	Standard	2.0.10.353	2.0.10.353	04-15-2016	4/15/2016 9:00:02 PM	17:00:02	2.0.10.248	57	Bar50-50.bmp	55	3	?	12r_4g.bmp	0r_4g.bmp	3r_2g.bmp	0r_2g.bmp			3r_2g.bmp		TrialProc	TrialList	0	cvbn	-999999	16	246713	0	b	2597	249310	162	-130	32	-6	-6	14	30	5	6	57	-12	0	-3	0	4	4	2	2	-3	2
Hungry_Donkey_bar_English_2	142	1	<?xml version="1.0"?>\n<Clock xmlns:dt="urn:schemas-microsoft-com:datatypes"><Description dt:dt="string">E-Prime Primary Realtime Clock</Description><StartTime><Timestamp dt:dt="int">0</Timestamp><DateUtc dt:dt="string">2016-04-15T21:00:02Z</DateUtc></StartTime><FrequencyChanges><FrequencyChange><Frequency dt:dt="r8">3507578</Frequency><Timestamp dt:dt="r8">7635076772</Timestamp><Current dt:dt="r8">0</Current><DateUtc dt:dt="string">2016-04-15T21:00:02Z</DateUtc></FrequencyChange></FrequencyChanges></Clock>\n	Hungry_Donkey_bar_English_2-142-1	60.016	-65	1.0.0.18	1	-954152261	Standard	2.0.10.353	2.0.10.353	04-15-2016	4/15/2016 9:00:02 PM	17:00:02	2.0.10.248	58	Bar50-50.bmp	54	1	?	10r_4g.bmp	0r_4g.bmp	2r_2g.bmp	0r_2g.bmp	10r_4g.bmp				TrialProc	TrialList	0	cvbn	-999999	16	251345	0	c	109	251454	166	-140	26	-12	-6	14	30	4	6	58	-10	0	-2	0	4	4	2	2	-10	4
Hungry_Donkey_bar_English_2	142	1	<?xml version="1.0"?>\n<Clock xmlns:dt="urn:schemas-microsoft-com:datatypes"><Description dt:dt="string">E-Prime Primary Realtime Clock</Description><StartTime><Timestamp dt:dt="int">0</Timestamp><DateUtc dt:dt="string">2016-04-15T21:00:02Z</DateUtc></StartTime><FrequencyChanges><FrequencyChange><Frequency dt:dt="r8">3507578</Frequency><Timestamp dt:dt="r8">7635076772</Timestamp><Current dt:dt="r8">0</Current><DateUtc dt:dt="string">2016-04-15T21:00:02Z</DateUtc></FrequencyChange></FrequencyChanges></Clock>\n	Hungry_Donkey_bar_English_2-142-1	60.016	-65	1.0.0.18	1	-954152261	Standard	2.0.10.353	2.0.10.353	04-15-2016	4/15/2016 9:00:02 PM	17:00:02	2.0.10.248	59	Bar50-50.bmp	55	2	?	0r_4g.bmp	0r_4g.bmp	0r_2g.bmp	0r_2g.bmp		0r_4g.bmp			TrialProc	TrialList	0	cvbn	-999999	16	253478	0	v	200	253678	170	-140	30	-12	-2	14	30	10	6	59	0	0	0	0	4	4	2	2	0	4
Hungry_Donkey_bar_English_2	142	1	<?xml version="1.0"?>\n<Clock xmlns:dt="urn:schemas-microsoft-com:datatypes"><Description dt:dt="string">E-Prime Primary Realtime Clock</Description><StartTime><Timestamp dt:dt="int">0</Timestamp><DateUtc dt:dt="string">2016-04-15T21:00:02Z</DateUtc></StartTime><FrequencyChanges><FrequencyChange><Frequency dt:dt="r8">3507578</Frequency><Timestamp dt:dt="r8">7635076772</Timestamp><Current dt:dt="r8">0</Current><DateUtc dt:dt="string">2016-04-15T21:00:02Z</DateUtc></FrequencyChange></FrequencyChanges></Clock>\n	Hungry_Donkey_bar_English_2-142-1	60.016	-65	1.0.0.18	1	-954152261	Standard	2.0.10.353	2.0.10.353	04-15-2016	4/15/2016 9:00:02 PM	17:00:02	2.0.10.248	60	Bar50-50.bmp	55	4	?	0r_4g.bmp	0r_4g.bmp	0r_2g.bmp	0r_2g.bmp				0r_2g.bmp	TrialProc	TrialList	0	cvbn	-999999	16	255710	0	n	144	255854	172	-140	32	-12	-2	14	32	7	6	60	0	0	0	0	4	4	2	2	0	2
Hungry_Donkey_bar_English_2	142	1	<?xml version="1.0"?>\n<Clock xmlns:dt="urn:schemas-microsoft-com:datatypes"><Description dt:dt="string">E-Prime Primary Realtime Clock</Description><StartTime><Timestamp dt:dt="int">0</Timestamp><DateUtc dt:dt="string">2016-04-15T21:00:02Z</DateUtc></StartTime><FrequencyChanges><FrequencyChange><Frequency dt:dt="r8">3507578</Frequency><Timestamp dt:dt="r8">7635076772</Timestamp><Current dt:dt="r8">0</Current><DateUtc dt:dt="string">2016-04-15T21:00:02Z</DateUtc></FrequencyChange></FrequencyChanges></Clock>\n	Hungry_Donkey_bar_English_2-142-1	60.016	-65	1.0.0.18	1	-954152261	Standard	2.0.10.353	2.0.10.353	04-15-2016	4/15/2016 9:00:02 PM	17:00:02	2.0.10.248	61	Bar50-50.bmp	54	1	?	10r_4g.bmp	0r_4g.bmp	2r_2g.bmp	0r_2g.bmp	10r_4g.bmp				TrialProc	TrialList	0	cvbn	-999999	16	257893	0	c	153	258046	176	-150	26	-18	-2	14	32	2	7	61	-10	0	-2	0	4	4	2	2	-10	4
Hungry_Donkey_bar_English_2	142	1	<?xml version="1.0"?>\n<Clock xmlns:dt="urn:schemas-microsoft-com:datatypes"><Description dt:dt="string">E-Prime Primary Realtime Clock</Description><StartTime><Timestamp dt:dt="int">0</Timestamp><DateUtc dt:dt="string">2016-04-15T21:00:02Z</DateUtc></StartTime><FrequencyChanges><FrequencyChange><Frequency dt:dt="r8">3507578</Frequency><Timestamp dt:dt="r8">7635076772</Timestamp><Current dt:dt="r8">0</Current><DateUtc dt:dt="string">2016-04-15T21:00:02Z</DateUtc></FrequencyChange></FrequencyChanges></Clock>\n	Hungry_Donkey_bar_English_2-142-1	60.016	-65	1.0.0.18	1	-954152261	Standard	2.0.10.353	2.0.10.353	04-15-2016	4/15/2016 9:00:02 PM	17:00:02	2.0.10.248	62	Bar50-50.bmp	54	4	?	0r_4g.bmp	0r_4g.bmp	0r_2g.bmp	0r_2g.bmp				0r_2g.bmp	TrialProc	TrialList	0	cvbn	-999999	16	260076	0	n	562	260638	178	-150	28	-18	-2	14	34	6	7	62	0	0	0	0	4	4	2	2	0	2
Hungry_Donkey_bar_English_2	142	1	<?xml version="1.0"?>\n<Clock xmlns:dt="urn:schemas-microsoft-com:datatypes"><Description dt:dt="string">E-Prime Primary Realtime Clock</Description><StartTime><Timestamp dt:dt="int">0</Timestamp><DateUtc dt:dt="string">2016-04-15T21:00:02Z</DateUtc></StartTime><FrequencyChanges><FrequencyChange><Frequency dt:dt="r8">3507578</Frequency><Timestamp dt:dt="r8">7635076772</Timestamp><Current dt:dt="r8">0</Current><DateUtc dt:dt="string">2016-04-15T21:00:02Z</DateUtc></FrequencyChange></FrequencyChanges></Clock>\n	Hungry_Donkey_bar_English_2-142-1	60.016	-65	1.0.0.18	1	-954152261	Standard	2.0.10.353	2.0.10.353	04-15-2016	4/15/2016 9:00:02 PM	17:00:02	2.0.10.248	63	Bar50-50.bmp	53	1	?	10r_4g.bmp	0r_4g.bmp	2r_2g.bmp	0r_2g.bmp	10r_4g.bmp				TrialProc	TrialList	0	cvbn	-999999	16	262675	0	c	171	262846	182	-160	22	-24	-2	14	34	4	7	63	-10	0	-2	0	4	4	2	2	-10	4
Hungry_Donkey_bar_English_2	142	1	<?xml version="1.0"?>\n<Clock xmlns:dt="urn:schemas-microsoft-com:datatypes"><Description dt:dt="string">E-Prime Primary Realtime Clock</Description><StartTime><Timestamp dt:dt="int">0</Timestamp><DateUtc dt:dt="string">2016-04-15T21:00:02Z</DateUtc></StartTime><FrequencyChanges><FrequencyChange><Frequency dt:dt="r8">3507578</Frequency><Timestamp dt:dt="r8">7635076772</Timestamp><Current dt:dt="r8">0</Current><DateUtc dt:dt="string">2016-04-15T21:00:02Z</DateUtc></FrequencyChange></FrequencyChanges></Clock>\n	Hungry_Donkey_bar_English_2-142-1	60.016	-65	1.0.0.18	1	-954152261	Standard	2.0.10.353	2.0.10.353	04-15-2016	4/15/2016 9:00:02 PM	17:00:02	2.0.10.248	64	Bar50-50.bmp	54	2	?	10r_4g.bmp	0r_4g.bmp	2r_2g.bmp	0r_2g.bmp		0r_4g.bmp			TrialProc	TrialList	0	cvbn	-999999	16	264875	0	v	3	264878	186	-160	26	-24	2	14	34	3	7	64	-10	0	-2	0	4	4	2	2	0	4
Hungry_Donkey_bar_English_2	142	1	<?xml version="1.0"?>\n<Clock xmlns:dt="urn:schemas-microsoft-com:datatypes"><Description dt:dt="string">E-Prime Primary Realtime Clock</Description><StartTime><Timestamp dt:dt="int">0</Timestamp><DateUtc dt:dt="string">2016-04-15T21:00:02Z</DateUtc></StartTime><FrequencyChanges><FrequencyChange><Frequency dt:dt="r8">3507578</Frequency><Timestamp dt:dt="r8">7635076772</Timestamp><Current dt:dt="r8">0</Current><DateUtc dt:dt="string">2016-04-15T21:00:02Z</DateUtc></FrequencyChange></FrequencyChanges></Clock>\n	Hungry_Donkey_bar_English_2-142-1	60.016	-65	1.0.0.18	1	-954152261	Standard	2.0.10.353	2.0.10.353	04-15-2016	4/15/2016 9:00:02 PM	17:00:02	2.0.10.248	65	Bar50-50.bmp	52	1	?	12r_4g.bmp	0r_4g.bmp	3r_2g.bmp	0r_2g.bmp	12r_4g.bmp				TrialProc	TrialList	0	cvbn	-999999	17	266908	0	c	370	267278	190	-172	18	-32	2	14	34	5	7	65	-12	0	-3	0	4	4	2	2	-12	4
Hungry_Donkey_bar_English_2	142	1	<?xml version="1.0"?>\n<Clock xmlns:dt="urn:schemas-microsoft-com:datatypes"><Description dt:dt="string">E-Prime Primary Realtime Clock</Description><StartTime><Timestamp dt:dt="int">0</Timestamp><DateUtc dt:dt="string">2016-04-15T21:00:02Z</DateUtc></StartTime><FrequencyChanges><FrequencyChange><Frequency dt:dt="r8">3507578</Frequency><Timestamp dt:dt="r8">7635076772</Timestamp><Current dt:dt="r8">0</Current><DateUtc dt:dt="string">2016-04-15T21:00:02Z</DateUtc></FrequencyChange></FrequencyChanges></Clock>\n	Hungry_Donkey_bar_English_2-142-1	60.016	-65	1.0.0.18	1	-954152261	Standard	2.0.10.353	2.0.10.353	04-15-2016	4/15/2016 9:00:02 PM	17:00:02	2.0.10.248	66	Bar50-50.bmp	47	2	?	8r_4g.bmp	50r_4g.bmp	1r_2g.bmp	10r_2g.bmp		50r_4g.bmp			TrialProc	TrialList	0	cvbn	-999999	16	269307	0	v	259	269566	194	-222	-28	-32	-44	14	34	1	7	66	-8	-50	-1	-10	4	4	2	2	-50	4
Hungry_Donkey_bar_English_2	142	1	<?xml version="1.0"?>\n<Clock xmlns:dt="urn:schemas-microsoft-com:datatypes"><Description dt:dt="string">E-Prime Primary Realtime Clock</Description><StartTime><Timestamp dt:dt="int">0</Timestamp><DateUtc dt:dt="string">2016-04-15T21:00:02Z</DateUtc></StartTime><FrequencyChanges><FrequencyChange><Frequency dt:dt="r8">3507578</Frequency><Timestamp dt:dt="r8">7635076772</Timestamp><Current dt:dt="r8">0</Current><DateUtc dt:dt="string">2016-04-15T21:00:02Z</DateUtc></FrequencyChange></FrequencyChanges></Clock>\n	Hungry_Donkey_bar_English_2-142-1	60.016	-65	1.0.0.18	1	-954152261	Standard	2.0.10.353	2.0.10.353	04-15-2016	4/15/2016 9:00:02 PM	17:00:02	2.0.10.248	67	Bar50-50.bmp	47	2	?	0r_4g.bmp	0r_4g.bmp	0r_2g.bmp	0r_2g.bmp		0r_4g.bmp			TrialProc	TrialList	0	cvbn	-999999	16	271590	0	v	760	272350	198	-222	-24	-32	-40	14	34	10	7	67	0	0	0	0	4	4	2	2	0	4
Hungry_Donkey_bar_English_2	142	1	<?xml version="1.0"?>\n<Clock xmlns:dt="urn:schemas-microsoft-com:datatypes"><Description dt:dt="string">E-Prime Primary Realtime Clock</Description><StartTime><Timestamp dt:dt="int">0</Timestamp><DateUtc dt:dt="string">2016-04-15T21:00:02Z</DateUtc></StartTime><FrequencyChanges><FrequencyChange><Frequency dt:dt="r8">3507578</Frequency><Timestamp dt:dt="r8">7635076772</Timestamp><Current dt:dt="r8">0</Current><DateUtc dt:dt="string">2016-04-15T21:00:02Z</DateUtc></FrequencyChange></FrequencyChanges></Clock>\n	Hungry_Donkey_bar_English_2-142-1	60.016	-65	1.0.0.18	1	-954152261	Standard	2.0.10.353	2.0.10.353	04-15-2016	4/15/2016 9:00:02 PM	17:00:02	2.0.10.248	68	Bar50-50.bmp	47	3	?	0r_4g.bmp	0r_4g.bmp	0r_2g.bmp	0r_2g.bmp			0r_2g.bmp		TrialProc	TrialList	0	cvbn	-999999	16	274389	0	b	777	275166	200	-222	-22	-32	-40	16	34	7	7	68	0	0	0	0	4	4	2	2	0	2
Hungry_Donkey_bar_English_2	142	1	<?xml version="1.0"?>\n<Clock xmlns:dt="urn:schemas-microsoft-com:datatypes"><Description dt:dt="string">E-Prime Primary Realtime Clock</Description><StartTime><Timestamp dt:dt="int">0</Timestamp><DateUtc dt:dt="string">2016-04-15T21:00:02Z</DateUtc></StartTime><FrequencyChanges><FrequencyChange><Frequency dt:dt="r8">3507578</Frequency><Timestamp dt:dt="r8">7635076772</Timestamp><Current dt:dt="r8">0</Current><DateUtc dt:dt="string">2016-04-15T21:00:02Z</DateUtc></FrequencyChange></FrequencyChanges></Clock>\n	Hungry_Donkey_bar_English_2-142-1	60.016	-65	1.0.0.18	1	-954152261	Standard	2.0.10.353	2.0.10.353	04-15-2016	4/15/2016 9:00:02 PM	17:00:02	2.0.10.248	69	Bar50-50.bmp	48	4	?	0r_4g.bmp	0r_4g.bmp	0r_2g.bmp	0r_2g.bmp				0r_2g.bmp	TrialProc	TrialList	0	cvbn	-999999	16	277205	0	n	505	277710	202	-222	-20	-32	-40	16	36	8	7	69	0	0	0	0	4	4	2	2	0	2
Hungry_Donkey_bar_English_2	142	1	<?xml version="1.0"?>\n<Clock xmlns:dt="urn:schemas-microsoft-com:datatypes"><Description dt:dt="string">E-Prime Primary Realtime Clock</Description><StartTime><Timestamp dt:dt="int">0</Timestamp><DateUtc dt:dt="string">2016-04-15T21:00:02Z</DateUtc></StartTime><FrequencyChanges><FrequencyChange><Frequency dt:dt="r8">3507578</Frequency><Timestamp dt:dt="r8">7635076772</Timestamp><Current dt:dt="r8">0</Current><DateUtc dt:dt="string">2016-04-15T21:00:02Z</DateUtc></FrequencyChange></FrequencyChanges></Clock>\n	Hungry_Donkey_bar_English_2-142-1	60.016	-65	1.0.0.18	1	-954152261	Standard	2.0.10.353	2.0.10.353	04-15-2016	4/15/2016 9:00:02 PM	17:00:02	2.0.10.248	70	Bar50-50.bmp	48	1	?	0r_4g.bmp	0r_4g.bmp	0r_2g.bmp	0r_2g.bmp	0r_4g.bmp				TrialProc	TrialList	0	cvbn	-999999	17	279738	0	c	660	280398	206	-222	-16	-28	-40	16	36	9	7	70	0	0	0	0	4	4	2	2	0	4
Hungry_Donkey_bar_English_2	142	1	<?xml version="1.0"?>\n<Clock xmlns:dt="urn:schemas-microsoft-com:datatypes"><Description dt:dt="string">E-Prime Primary Realtime Clock</Description><StartTime><Timestamp dt:dt="int">0</Timestamp><DateUtc dt:dt="string">2016-04-15T21:00:02Z</DateUtc></StartTime><FrequencyChanges><FrequencyChange><Frequency dt:dt="r8">3507578</Frequency><Timestamp dt:dt="r8">7635076772</Timestamp><Current dt:dt="r8">0</Current><DateUtc dt:dt="string">2016-04-15T21:00:02Z</DateUtc></FrequencyChange></FrequencyChanges></Clock>\n	Hungry_Donkey_bar_English_2-142-1	60.016	-65	1.0.0.18	1	-954152261	Standard	2.0.10.353	2.0.10.353	04-15-2016	4/15/2016 9:00:02 PM	17:00:02	2.0.10.248	71	Bar50-50.bmp	48	4	?	0r_4g.bmp	0r_4g.bmp	0r_2g.bmp	0r_2g.bmp				0r_2g.bmp	TrialProc	TrialList	0	cvbn	-999999	16	282437	0	n	665	283102	208	-222	-14	-28	-40	16	38	10	8	71	0	0	0	0	4	4	2	2	0	2
Hungry_Donkey_bar_English_2	142	1	<?xml version="1.0"?>\n<Clock xmlns:dt="urn:schemas-microsoft-com:datatypes"><Description dt:dt="string">E-Prime Primary Realtime Clock</Description><StartTime><Timestamp dt:dt="int">0</Timestamp><DateUtc dt:dt="string">2016-04-15T21:00:02Z</DateUtc></StartTime><FrequencyChanges><FrequencyChange><Frequency dt:dt="r8">3507578</Frequency><Timestamp dt:dt="r8">7635076772</Timestamp><Current dt:dt="r8">0</Current><DateUtc dt:dt="string">2016-04-15T21:00:02Z</DateUtc></FrequencyChange></FrequencyChanges></Clock>\n	Hungry_Donkey_bar_English_2-142-1	60.016	-65	1.0.0.18	1	-954152261	Standard	2.0.10.353	2.0.10.353	04-15-2016	4/15/2016 9:00:02 PM	17:00:02	2.0.10.248	72	Bar50-50.bmp	49	3	?	0r_4g.bmp	0r_4g.bmp	0r_2g.bmp	0r_2g.bmp			0r_2g.bmp		TrialProc	TrialList	0	cvbn	-999999	16	285136	0	b	110	285246	210	-222	-12	-28	-40	18	38	6	8	72	0	0	0	0	4	4	2	2	0	2
Hungry_Donkey_bar_English_2	142	1	<?xml version="1.0"?>\n<Clock xmlns:dt="urn:schemas-microsoft-com:datatypes"><Description dt:dt="string">E-Prime Primary Realtime Clock</Description><StartTime><Timestamp dt:dt="int">0</Timestamp><DateUtc dt:dt="string">2016-04-15T21:00:02Z</DateUtc></StartTime><FrequencyChanges><FrequencyChange><Frequency dt:dt="r8">3507578</Frequency><Timestamp dt:dt="r8">7635076772</Timestamp><Current dt:dt="r8">0</Current><DateUtc dt:dt="string">2016-04-15T21:00:02Z</DateUtc></FrequencyChange></FrequencyChanges></Clock>\n	Hungry_Donkey_bar_English_2-142-1	60.016	-65	1.0.0.18	1	-954152261	Standard	2.0.10.353	2.0.10.353	04-15-2016	4/15/2016 9:00:02 PM	17:00:02	2.0.10.248	73	Bar50-50.bmp	48	1	?	8r_4g.bmp	50r_4g.bmp	1r_2g.bmp	10r_2g.bmp	8r_4g.bmp				TrialProc	TrialList	0	cvbn	-999999	16	287269	0	c	825	288094	214	-230	-16	-32	-40	18	38	1	8	73	-8	-50	-1	-10	4	4	2	2	-8	4
Hungry_Donkey_bar_English_2	142	1	<?xml version="1.0"?>\n<Clock xmlns:dt="urn:schemas-microsoft-com:datatypes"><Description dt:dt="string">E-Prime Primary Realtime Clock</Description><StartTime><Timestamp dt:dt="int">0</Timestamp><DateUtc dt:dt="string">2016-04-15T21:00:02Z</DateUtc></StartTime><FrequencyChanges><FrequencyChange><Frequency dt:dt="r8">3507578</Frequency><Timestamp dt:dt="r8">7635076772</Timestamp><Current dt:dt="r8">0</Current><DateUtc dt:dt="string">2016-04-15T21:00:02Z</DateUtc></FrequencyChange></FrequencyChanges></Clock>\n	Hungry_Donkey_bar_English_2-142-1	60.016	-65	1.0.0.18	1	-954152261	Standard	2.0.10.353	2.0.10.353	04-15-2016	4/15/2016 9:00:02 PM	17:00:02	2.0.10.248	74	Bar50-50.bmp	49	2	?	0r_4g.bmp	0r_4g.bmp	0r_2g.bmp	0r_2g.bmp		0r_4g.bmp			TrialProc	TrialList	0	cvbn	-999999	16	290118	0	v	808	290926	218	-230	-12	-32	-36	18	38	8	8	74	0	0	0	0	4	4	2	2	0	4
Hungry_Donkey_bar_English_2	142	1	<?xml version="1.0"?>\n<Clock xmlns:dt="urn:schemas-microsoft-com:datatypes"><Description dt:dt="string">E-Prime Primary Realtime Clock</Description><StartTime><Timestamp dt:dt="int">0</Timestamp><DateUtc dt:dt="string">2016-04-15T21:00:02Z</DateUtc></StartTime><FrequencyChanges><FrequencyChange><Frequency dt:dt="r8">3507578</Frequency><Timestamp dt:dt="r8">7635076772</Timestamp><Current dt:dt="r8">0</Current><DateUtc dt:dt="string">2016-04-15T21:00:02Z</DateUtc></FrequencyChange></FrequencyChanges></Clock>\n	Hungry_Donkey_bar_English_2-142-1	60.016	-65	1.0.0.18	1	-954152261	Standard	2.0.10.353	2.0.10.353	04-15-2016	4/15/2016 9:00:02 PM	17:00:02	2.0.10.248	75	Bar50-50.bmp	49	3	?	12r_4g.bmp	0r_4g.bmp	3r_2g.bmp	0r_2g.bmp			3r_2g.bmp		TrialProc	TrialList	0	cvbn	-999999	16	292951	0	b	1047	293998	220	-233	-13	-32	-36	17	38	5	8	75	-12	0	-3	0	4	4	2	2	-3	2
Hungry_Donkey_bar_English_2	142	1	<?xml version="1.0"?>\n<Clock xmlns:dt="urn:schemas-microsoft-com:datatypes"><Description dt:dt="string">E-Prime Primary Realtime Clock</Description><StartTime><Timestamp dt:dt="int">0</Timestamp><DateUtc dt:dt="string">2016-04-15T21:00:02Z</DateUtc></StartTime><FrequencyChanges><FrequencyChange><Frequency dt:dt="r8">3507578</Frequency><Timestamp dt:dt="r8">7635076772</Timestamp><Current dt:dt="r8">0</Current><DateUtc dt:dt="string">2016-04-15T21:00:02Z</DateUtc></FrequencyChange></FrequencyChanges></Clock>\n	Hungry_Donkey_bar_English_2-142-1	60.016	-65	1.0.0.18	1	-954152261	Standard	2.0.10.353	2.0.10.353	04-15-2016	4/15/2016 9:00:02 PM	17:00:02	2.0.10.248	76	Bar50-50.bmp	49	4	?	10r_4g.bmp	0r_4g.bmp	2r_2g.bmp	0r_2g.bmp				0r_2g.bmp	TrialProc	TrialList	0	cvbn	-999999	16	296033	0	n	1500	297533	222	-233	-11	-32	-36	17	40	2	8	76	-10	0	-2	0	4	4	2	2	0	2
Hungry_Donkey_bar_English_2	142	1	<?xml version="1.0"?>\n<Clock xmlns:dt="urn:schemas-microsoft-com:datatypes"><Description dt:dt="string">E-Prime Primary Realtime Clock</Description><StartTime><Timestamp dt:dt="int">0</Timestamp><DateUtc dt:dt="string">2016-04-15T21:00:02Z</DateUtc></StartTime><FrequencyChanges><FrequencyChange><Frequency dt:dt="r8">3507578</Frequency><Timestamp dt:dt="r8">7635076772</Timestamp><Current dt:dt="r8">0</Current><DateUtc dt:dt="string">2016-04-15T21:00:02Z</DateUtc></FrequencyChange></FrequencyChanges></Clock>\n	Hungry_Donkey_bar_English_2-142-1	60.016	-65	1.0.0.18	1	-954152261	Standard	2.0.10.353	2.0.10.353	04-15-2016	4/15/2016 9:00:02 PM	17:00:02	2.0.10.248	77	Bar50-50.bmp	48	1	?	10r_4g.bmp	0r_4g.bmp	2r_2g.bmp	0r_2g.bmp	10r_4g.bmp				TrialProc	TrialList	0	cvbn	-999999	16	299566	0	c	847	300413	226	-243	-17	-38	-36	17	40	4	8	77	-10	0	-2	0	4	4	2	2	-10	4
Hungry_Donkey_bar_English_2	142	1	<?xml version="1.0"?>\n<Clock xmlns:dt="urn:schemas-microsoft-com:datatypes"><Description dt:dt="string">E-Prime Primary Realtime Clock</Description><StartTime><Timestamp dt:dt="int">0</Timestamp><DateUtc dt:dt="string">2016-04-15T21:00:02Z</DateUtc></StartTime><FrequencyChanges><FrequencyChange><Frequency dt:dt="r8">3507578</Frequency><Timestamp dt:dt="r8">7635076772</Timestamp><Current dt:dt="r8">0</Current><DateUtc dt:dt="string">2016-04-15T21:00:02Z</DateUtc></FrequencyChange></FrequencyChanges></Clock>\n	Hungry_Donkey_bar_English_2-142-1	60.016	-65	1.0.0.18	1	-954152261	Standard	2.0.10.353	2.0.10.353	04-15-2016	4/15/2016 9:00:02 PM	17:00:02	2.0.10.248	78	Bar50-50.bmp	48	3	?	0r_4g.bmp	0r_4g.bmp	0r_2g.bmp	0r_2g.bmp			0r_2g.bmp		TrialProc	TrialList	0	cvbn	-999999	16	302448	0	b	477	302925	228	-243	-15	-38	-36	19	40	9	8	78	0	0	0	0	4	4	2	2	0	2
Hungry_Donkey_bar_English_2	142	1	<?xml version="1.0"?>\n<Clock xmlns:dt="urn:schemas-microsoft-com:datatypes"><Description dt:dt="string">E-Prime Primary Realtime Clock</Description><StartTime><Timestamp dt:dt="int">0</Timestamp><DateUtc dt:dt="string">2016-04-15T21:00:02Z</DateUtc></StartTime><FrequencyChanges><FrequencyChange><Frequency dt:dt="r8">3507578</Frequency><Timestamp dt:dt="r8">7635076772</Timestamp><Current dt:dt="r8">0</Current><DateUtc dt:dt="string">2016-04-15T21:00:02Z</DateUtc></FrequencyChange></FrequencyChanges></Clock>\n	Hungry_Donkey_bar_English_2-142-1	60.016	-65	1.0.0.18	1	-954152261	Standard	2.0.10.353	2.0.10.353	04-15-2016	4/15/2016 9:00:02 PM	17:00:02	2.0.10.248	79	Bar50-50.bmp	49	2	?	0r_4g.bmp	0r_4g.bmp	0r_2g.bmp	0r_2g.bmp		0r_4g.bmp			TrialProc	TrialList	0	cvbn	-999999	16	304964	0	v	377	305341	232	-243	-11	-38	-32	19	40	7	8	79	0	0	0	0	4	4	2	2	0	4
Hungry_Donkey_bar_English_2	142	1	<?xml version="1.0"?>\n<Clock xmlns:dt="urn:schemas-microsoft-com:datatypes"><Description dt:dt="string">E-Prime Primary Realtime Clock</Description><StartTime><Timestamp dt:dt="int">0</Timestamp><DateUtc dt:dt="string">2016-04-15T21:00:02Z</DateUtc></StartTime><FrequencyChanges><FrequencyChange><Frequency dt:dt="r8">3507578</Frequency><Timestamp dt:dt="r8">7635076772</Timestamp><Current dt:dt="r8">0</Current><DateUtc dt:dt="string">2016-04-15T21:00:02Z</DateUtc></FrequencyChange></FrequencyChanges></Clock>\n	Hungry_Donkey_bar_English_2-142-1	60.016	-65	1.0.0.18	1	-954152261	Standard	2.0.10.353	2.0.10.353	04-15-2016	4/15/2016 9:00:02 PM	17:00:02	2.0.10.248	80	Bar50-50.bmp	49	3	?	10r_4g.bmp	0r_4g.bmp	2r_2g.bmp	0r_2g.bmp			2r_2g.bmp		TrialProc	TrialList	0	cvbn	-999999	16	307380	0	b	825	308205	234	-245	-11	-38	-32	19	40	3	8	80	-10	0	-2	0	4	4	2	2	-2	2
Hungry_Donkey_bar_English_2	142	1	<?xml version="1.0"?>\n<Clock xmlns:dt="urn:schemas-microsoft-com:datatypes"><Description dt:dt="string">E-Prime Primary Realtime Clock</Description><StartTime><Timestamp dt:dt="int">0</Timestamp><DateUtc dt:dt="string">2016-04-15T21:00:02Z</DateUtc></StartTime><FrequencyChanges><FrequencyChange><Frequency dt:dt="r8">3507578</Frequency><Timestamp dt:dt="r8">7635076772</Timestamp><Current dt:dt="r8">0</Current><DateUtc dt:dt="string">2016-04-15T21:00:02Z</DateUtc></FrequencyChange></FrequencyChanges></Clock>\n	Hungry_Donkey_bar_English_2-142-1	60.016	-65	1.0.0.18	1	-954152261	Standard	2.0.10.353	2.0.10.353	04-15-2016	4/15/2016 9:00:02 PM	17:00:02	2.0.10.248	81	Bar50-50.bmp	49	4	?	0r_4g.bmp	0r_4g.bmp	0r_2g.bmp	0r_2g.bmp				0r_2g.bmp	TrialProc	TrialList	0	cvbn	-999999	16	310230	0	n	567	310797	236	-245	-9	-38	-32	19	42	6	9	81	0	0	0	0	4	4	2	2	0	2
Hungry_Donkey_bar_English_2	142	1	<?xml version="1.0"?>\n<Clock xmlns:dt="urn:schemas-microsoft-com:datatypes"><Description dt:dt="string">E-Prime Primary Realtime Clock</Description><StartTime><Timestamp dt:dt="int">0</Timestamp><DateUtc dt:dt="string">2016-04-15T21:00:02Z</DateUtc></StartTime><FrequencyChanges><FrequencyChange><Frequency dt:dt="r8">3507578</Frequency><Timestamp dt:dt="r8">7635076772</Timestamp><Current dt:dt="r8">0</Current><DateUtc dt:dt="string">2016-04-15T21:00:02Z</DateUtc></FrequencyChange></FrequencyChanges></Clock>\n	Hungry_Donkey_bar_English_2-142-1	60.016	-65	1.0.0.18	1	-954152261	Standard	2.0.10.353	2.0.10.353	04-15-2016	4/15/2016 9:00:02 PM	17:00:02	2.0.10.248	82	Bar50-50.bmp	49	3	?	10r_4g.bmp	0r_4g.bmp	2r_2g.bmp	0r_2g.bmp			2r_2g.bmp		TrialProc	TrialList	0	cvbn	-999999	16	312829	0	b	1024	313853	238	-247	-9	-38	-32	19	42	4	9	82	-10	0	-2	0	4	4	2	2	-2	2
Hungry_Donkey_bar_English_2	142	1	<?xml version="1.0"?>\n<Clock xmlns:dt="urn:schemas-microsoft-com:datatypes"><Description dt:dt="string">E-Prime Primary Realtime Clock</Description><StartTime><Timestamp dt:dt="int">0</Timestamp><DateUtc dt:dt="string">2016-04-15T21:00:02Z</DateUtc></StartTime><FrequencyChanges><FrequencyChange><Frequency dt:dt="r8">3507578</Frequency><Timestamp dt:dt="r8">7635076772</Timestamp><Current dt:dt="r8">0</Current><DateUtc dt:dt="string">2016-04-15T21:00:02Z</DateUtc></FrequencyChange></FrequencyChanges></Clock>\n	Hungry_Donkey_bar_English_2-142-1	60.016	-65	1.0.0.18	1	-954152261	Standard	2.0.10.353	2.0.10.353	04-15-2016	4/15/2016 9:00:02 PM	17:00:02	2.0.10.248	83	Bar50-50.bmp	49	2	?	10r_4g.bmp	0r_4g.bmp	2r_2g.bmp	0r_2g.bmp		0r_4g.bmp			TrialProc	TrialList	0	cvbn	-999999	16	315878	0	v	503	316381	242	-247	-5	-38	-28	19	42	3	9	83	-10	0	-2	0	4	4	2	2	0	4
Hungry_Donkey_bar_English_2	142	1	<?xml version="1.0"?>\n<Clock xmlns:dt="urn:schemas-microsoft-com:datatypes"><Description dt:dt="string">E-Prime Primary Realtime Clock</Description><StartTime><Timestamp dt:dt="int">0</Timestamp><DateUtc dt:dt="string">2016-04-15T21:00:02Z</DateUtc></StartTime><FrequencyChanges><FrequencyChange><Frequency dt:dt="r8">3507578</Frequency><Timestamp dt:dt="r8">7635076772</Timestamp><Current dt:dt="r8">0</Current><DateUtc dt:dt="string">2016-04-15T21:00:02Z</DateUtc></FrequencyChange></FrequencyChanges></Clock>\n	Hungry_Donkey_bar_English_2-142-1	60.016	-65	1.0.0.18	1	-954152261	Standard	2.0.10.353	2.0.10.353	04-15-2016	4/15/2016 9:00:02 PM	17:00:02	2.0.10.248	84	Bar50-50.bmp	50	1	?	0r_4g.bmp	0r_4g.bmp	0r_2g.bmp	0r_2g.bmp	0r_4g.bmp				TrialProc	TrialList	0	cvbn	-999999	16	318411	0	c	546	318957	246	-247	-1	-34	-28	19	42	7	9	84	0	0	0	0	4	4	2	2	0	4
Hungry_Donkey_bar_English_2	142	1	<?xml version="1.0"?>\n<Clock xmlns:dt="urn:schemas-microsoft-com:datatypes"><Description dt:dt="string">E-Prime Primary Realtime Clock</Description><StartTime><Timestamp dt:dt="int">0</Timestamp><DateUtc dt:dt="string">2016-04-15T21:00:02Z</DateUtc></StartTime><FrequencyChanges><FrequencyChange><Frequency dt:dt="r8">3507578</Frequency><Timestamp dt:dt="r8">7635076772</Timestamp><Current dt:dt="r8">0</Current><DateUtc dt:dt="string">2016-04-15T21:00:02Z</DateUtc></FrequencyChange></FrequencyChanges></Clock>\n	Hungry_Donkey_bar_English_2-142-1	60.016	-65	1.0.0.18	1	-954152261	Standard	2.0.10.353	2.0.10.353	04-15-2016	4/15/2016 9:00:02 PM	17:00:02	2.0.10.248	85	Bar50-50.bmp	49	1	?	12r_4g.bmp	0r_4g.bmp	3r_2g.bmp	0r_2g.bmp	12r_4g.bmp				TrialProc	TrialList	0	cvbn	-999999	17	320994	0	c	555	321549	250	-259	-9	-42	-28	19	42	5	9	85	-12	0	-3	0	4	4	2	2	-12	4
Hungry_Donkey_bar_English_2	142	1	<?xml version="1.0"?>\n<Clock xmlns:dt="urn:schemas-microsoft-com:datatypes"><Description dt:dt="string">E-Prime Primary Realtime Clock</Description><StartTime><Timestamp dt:dt="int">0</Timestamp><DateUtc dt:dt="string">2016-04-15T21:00:02Z</DateUtc></StartTime><FrequencyChanges><FrequencyChange><Frequency dt:dt="r8">3507578</Frequency><Timestamp dt:dt="r8">7635076772</Timestamp><Current dt:dt="r8">0</Current><DateUtc dt:dt="string">2016-04-15T21:00:02Z</DateUtc></FrequencyChange></FrequencyChanges></Clock>\n	Hungry_Donkey_bar_English_2-142-1	60.016	-65	1.0.0.18	1	-954152261	Standard	2.0.10.353	2.0.10.353	04-15-2016	4/15/2016 9:00:02 PM	17:00:02	2.0.10.248	86	Bar50-50.bmp	49	1	?	8r_4g.bmp	50r_4g.bmp	1r_2g.bmp	10r_2g.bmp	8r_4g.bmp				TrialProc	TrialList	0	cvbn	-999999	16	323576	0	c	933	324509	254	-267	-13	-46	-28	19	42	1	9	86	-8	-50	-1	-10	4	4	2	2	-8	4
Hungry_Donkey_bar_English_2	142	1	<?xml version="1.0"?>\n<Clock xmlns:dt="urn:schemas-microsoft-com:datatypes"><Description dt:dt="string">E-Prime Primary Realtime Clock</Description><StartTime><Timestamp dt:dt="int">0</Timestamp><DateUtc dt:dt="string">2016-04-15T21:00:02Z</DateUtc></StartTime><FrequencyChanges><FrequencyChange><Frequency dt:dt="r8">3507578</Frequency><Timestamp dt:dt="r8">7635076772</Timestamp><Current dt:dt="r8">0</Current><DateUtc dt:dt="string">2016-04-15T21:00:02Z</DateUtc></FrequencyChange></FrequencyChanges></Clock>\n	Hungry_Donkey_bar_English_2-142-1	60.016	-65	1.0.0.18	1	-954152261	Standard	2.0.10.353	2.0.10.353	04-15-2016	4/15/2016 9:00:02 PM	17:00:02	2.0.10.248	87	Bar50-50.bmp	49	1	?	0r_4g.bmp	0r_4g.bmp	0r_2g.bmp	0r_2g.bmp	0r_4g.bmp				TrialProc	TrialList	0	cvbn	-999999	16	326542	0	c	239	326781	258	-267	-9	-42	-28	19	42	8	9	87	0	0	0	0	4	4	2	2	0	4
Hungry_Donkey_bar_English_2	142	1	<?xml version="1.0"?>\n<Clock xmlns:dt="urn:schemas-microsoft-com:datatypes"><Description dt:dt="string">E-Prime Primary Realtime Clock</Description><StartTime><Timestamp dt:dt="int">0</Timestamp><DateUtc dt:dt="string">2016-04-15T21:00:02Z</DateUtc></StartTime><FrequencyChanges><FrequencyChange><Frequency dt:dt="r8">3507578</Frequency><Timestamp dt:dt="r8">7635076772</Timestamp><Current dt:dt="r8">0</Current><DateUtc dt:dt="string">2016-04-15T21:00:02Z</DateUtc></FrequencyChange></FrequencyChanges></Clock>\n	Hungry_Donkey_bar_English_2-142-1	60.016	-65	1.0.0.18	1	-954152261	Standard	2.0.10.353	2.0.10.353	04-15-2016	4/15/2016 9:00:02 PM	17:00:02	2.0.10.248	88	Bar50-50.bmp	49	1	?	10r_4g.bmp	0r_4g.bmp	2r_2g.bmp	0r_2g.bmp	10r_4g.bmp				TrialProc	TrialList	0	cvbn	-999999	16	328808	0	c	229	329037	262	-277	-15	-48	-28	19	42	2	9	88	-10	0	-2	0	4	4	2	2	-10	4
Hungry_Donkey_bar_English_2	142	1	<?xml version="1.0"?>\n<Clock xmlns:dt="urn:schemas-microsoft-com:datatypes"><Description dt:dt="string">E-Prime Primary Realtime Clock</Description><StartTime><Timestamp dt:dt="int">0</Timestamp><DateUtc dt:dt="string">2016-04-15T21:00:02Z</DateUtc></StartTime><FrequencyChanges><FrequencyChange><Frequency dt:dt="r8">3507578</Frequency><Timestamp dt:dt="r8">7635076772</Timestamp><Current dt:dt="r8">0</Current><DateUtc dt:dt="string">2016-04-15T21:00:02Z</DateUtc></FrequencyChange></FrequencyChanges></Clock>\n	Hungry_Donkey_bar_English_2-142-1	60.016	-65	1.0.0.18	1	-954152261	Standard	2.0.10.353	2.0.10.353	04-15-2016	4/15/2016 9:00:02 PM	17:00:02	2.0.10.248	89	Bar50-50.bmp	49	1	?	0r_4g.bmp	0r_4g.bmp	0r_2g.bmp	0r_2g.bmp	0r_4g.bmp				TrialProc	TrialList	0	cvbn	-999999	16	331074	0	c	91	331165	266	-277	-11	-44	-28	19	42	9	9	89	0	0	0	0	4	4	2	2	0	4
Hungry_Donkey_bar_English_2	142	1	<?xml version="1.0"?>\n<Clock xmlns:dt="urn:schemas-microsoft-com:datatypes"><Description dt:dt="string">E-Prime Primary Realtime Clock</Description><StartTime><Timestamp dt:dt="int">0</Timestamp><DateUtc dt:dt="string">2016-04-15T21:00:02Z</DateUtc></StartTime><FrequencyChanges><FrequencyChange><Frequency dt:dt="r8">3507578</Frequency><Timestamp dt:dt="r8">7635076772</Timestamp><Current dt:dt="r8">0</Current><DateUtc dt:dt="string">2016-04-15T21:00:02Z</DateUtc></FrequencyChange></FrequencyChanges></Clock>\n	Hungry_Donkey_bar_English_2-142-1	60.016	-65	1.0.0.18	1	-954152261	Standard	2.0.10.353	2.0.10.353	04-15-2016	4/15/2016 9:00:02 PM	17:00:02	2.0.10.248	90	Bar50-50.bmp	49	1	?	0r_4g.bmp	0r_4g.bmp	0r_2g.bmp	0r_2g.bmp	0r_4g.bmp				TrialProc	TrialList	0	cvbn	-999999	16	333190	0	c	311	333501	270	-277	-7	-40	-28	19	42	10	9	90	0	0	0	0	4	4	2	2	0	4
Hungry_Donkey_bar_English_2	142	1	<?xml version="1.0"?>\n<Clock xmlns:dt="urn:schemas-microsoft-com:datatypes"><Description dt:dt="string">E-Prime Primary Realtime Clock</Description><StartTime><Timestamp dt:dt="int">0</Timestamp><DateUtc dt:dt="string">2016-04-15T21:00:02Z</DateUtc></StartTime><FrequencyChanges><FrequencyChange><Frequency dt:dt="r8">3507578</Frequency><Timestamp dt:dt="r8">7635076772</Timestamp><Current dt:dt="r8">0</Current><DateUtc dt:dt="string">2016-04-15T21:00:02Z</DateUtc></FrequencyChange></FrequencyChanges></Clock>\n	Hungry_Donkey_bar_English_2-142-1	60.016	-65	1.0.0.18	1	-954152261	Standard	2.0.10.353	2.0.10.353	04-15-2016	4/15/2016 9:00:02 PM	17:00:02	2.0.10.248	91	Bar50-50.bmp	50	1	?	0r_4g.bmp	0r_4g.bmp	0r_2g.bmp	0r_2g.bmp	0r_4g.bmp				TrialProc	TrialList	0	cvbn	-999999	16	335540	0	c	553	336093	274	-277	-3	-36	-28	19	42	8	10	91	0	0	0	0	4	4	2	2	0	4
Hungry_Donkey_bar_English_2	142	1	<?xml version="1.0"?>\n<Clock xmlns:dt="urn:schemas-microsoft-com:datatypes"><Description dt:dt="string">E-Prime Primary Realtime Clock</Description><StartTime><Timestamp dt:dt="int">0</Timestamp><DateUtc dt:dt="string">2016-04-15T21:00:02Z</DateUtc></StartTime><FrequencyChanges><FrequencyChange><Frequency dt:dt="r8">3507578</Frequency><Timestamp dt:dt="r8">7635076772</Timestamp><Current dt:dt="r8">0</Current><DateUtc dt:dt="string">2016-04-15T21:00:02Z</DateUtc></FrequencyChange></FrequencyChanges></Clock>\n	Hungry_Donkey_bar_English_2-142-1	60.016	-65	1.0.0.18	1	-954152261	Standard	2.0.10.353	2.0.10.353	04-15-2016	4/15/2016 9:00:02 PM	17:00:02	2.0.10.248	92	Bar50-50.bmp	49	1	?	10r_4g.bmp	0r_4g.bmp	2r_2g.bmp	0r_2g.bmp	10r_4g.bmp				TrialProc	TrialList	0	cvbn	-999999	16	338122	0	c	51	338173	278	-287	-9	-42	-28	19	42	2	10	92	-10	0	-2	0	4	4	2	2	-10	4
Hungry_Donkey_bar_English_2	142	1	<?xml version="1.0"?>\n<Clock xmlns:dt="urn:schemas-microsoft-com:datatypes"><Description dt:dt="string">E-Prime Primary Realtime Clock</Description><StartTime><Timestamp dt:dt="int">0</Timestamp><DateUtc dt:dt="string">2016-04-15T21:00:02Z</DateUtc></StartTime><FrequencyChanges><FrequencyChange><Frequency dt:dt="r8">3507578</Frequency><Timestamp dt:dt="r8">7635076772</Timestamp><Current dt:dt="r8">0</Current><DateUtc dt:dt="string">2016-04-15T21:00:02Z</DateUtc></FrequencyChange></FrequencyChanges></Clock>\n	Hungry_Donkey_bar_English_2-142-1	60.016	-65	1.0.0.18	1	-954152261	Standard	2.0.10.353	2.0.10.353	04-15-2016	4/15/2016 9:00:02 PM	17:00:02	2.0.10.248	93	Bar50-50.bmp	49	1	?	12r_4g.bmp	0r_4g.bmp	3r_2g.bmp	0r_2g.bmp	12r_4g.bmp				TrialProc	TrialList	0	cvbn	-999999	16	340205	0	c	416	340621	282	-299	-17	-50	-28	19	42	5	10	93	-12	0	-3	0	4	4	2	2	-12	4
Hungry_Donkey_bar_English_2	142	1	<?xml version="1.0"?>\n<Clock xmlns:dt="urn:schemas-microsoft-com:datatypes"><Description dt:dt="string">E-Prime Primary Realtime Clock</Description><StartTime><Timestamp dt:dt="int">0</Timestamp><DateUtc dt:dt="string">2016-04-15T21:00:02Z</DateUtc></StartTime><FrequencyChanges><FrequencyChange><Frequency dt:dt="r8">3507578</Frequency><Timestamp dt:dt="r8">7635076772</Timestamp><Current dt:dt="r8">0</Current><DateUtc dt:dt="string">2016-04-15T21:00:02Z</DateUtc></FrequencyChange></FrequencyChanges></Clock>\n	Hungry_Donkey_bar_English_2-142-1	60.016	-65	1.0.0.18	1	-954152261	Standard	2.0.10.353	2.0.10.353	04-15-2016	4/15/2016 9:00:02 PM	17:00:02	2.0.10.248	94	Bar50-50.bmp	49	1	?	0r_4g.bmp	0r_4g.bmp	0r_2g.bmp	0r_2g.bmp	0r_4g.bmp				TrialProc	TrialList	0	cvbn	-999999	17	342655	0	c	62	342717	286	-299	-13	-46	-28	19	42	7	10	94	0	0	0	0	4	4	2	2	0	4
Hungry_Donkey_bar_English_2	142	1	<?xml version="1.0"?>\n<Clock xmlns:dt="urn:schemas-microsoft-com:datatypes"><Description dt:dt="string">E-Prime Primary Realtime Clock</Description><StartTime><Timestamp dt:dt="int">0</Timestamp><DateUtc dt:dt="string">2016-04-15T21:00:02Z</DateUtc></StartTime><FrequencyChanges><FrequencyChange><Frequency dt:dt="r8">3507578</Frequency><Timestamp dt:dt="r8">7635076772</Timestamp><Current dt:dt="r8">0</Current><DateUtc dt:dt="string">2016-04-15T21:00:02Z</DateUtc></FrequencyChange></FrequencyChanges></Clock>\n	Hungry_Donkey_bar_English_2-142-1	60.016	-65	1.0.0.18	1	-954152261	Standard	2.0.10.353	2.0.10.353	04-15-2016	4/15/2016 9:00:02 PM	17:00:02	2.0.10.248	95	Bar50-50.bmp	49	1	?	0r_4g.bmp	0r_4g.bmp	0r_2g.bmp	0r_2g.bmp	0r_4g.bmp				TrialProc	TrialList	0	cvbn	-999999	16	344754	0	c	90	344844	290	-299	-9	-42	-28	19	42	10	10	95	0	0	0	0	4	4	2	2	0	4
Hungry_Donkey_bar_English_2	142	1	<?xml version="1.0"?>\n<Clock xmlns:dt="urn:schemas-microsoft-com:datatypes"><Description dt:dt="string">E-Prime Primary Realtime Clock</Description><StartTime><Timestamp dt:dt="int">0</Timestamp><DateUtc dt:dt="string">2016-04-15T21:00:02Z</DateUtc></StartTime><FrequencyChanges><FrequencyChange><Frequency dt:dt="r8">3507578</Frequency><Timestamp dt:dt="r8">7635076772</Timestamp><Current dt:dt="r8">0</Current><DateUtc dt:dt="string">2016-04-15T21:00:02Z</DateUtc></FrequencyChange></FrequencyChanges></Clock>\n	Hungry_Donkey_bar_English_2-142-1	60.016	-65	1.0.0.18	1	-954152261	Standard	2.0.10.353	2.0.10.353	04-15-2016	4/15/2016 9:00:02 PM	17:00:02	2.0.10.248	96	Bar50-50.bmp	49	1	?	10r_4g.bmp	0r_4g.bmp	2r_2g.bmp	0r_2g.bmp	10r_4g.bmp				TrialProc	TrialList	0	cvbn	-999999	16	346870	0	c	118	346988	294	-309	-15	-48	-28	19	42	4	10	96	-10	0	-2	0	4	4	2	2	-10	4
Hungry_Donkey_bar_English_2	142	1	<?xml version="1.0"?>\n<Clock xmlns:dt="urn:schemas-microsoft-com:datatypes"><Description dt:dt="string">E-Prime Primary Realtime Clock</Description><StartTime><Timestamp dt:dt="int">0</Timestamp><DateUtc dt:dt="string">2016-04-15T21:00:02Z</DateUtc></StartTime><FrequencyChanges><FrequencyChange><Frequency dt:dt="r8">3507578</Frequency><Timestamp dt:dt="r8">7635076772</Timestamp><Current dt:dt="r8">0</Current><DateUtc dt:dt="string">2016-04-15T21:00:02Z</DateUtc></FrequencyChange></FrequencyChanges></Clock>\n	Hungry_Donkey_bar_English_2-142-1	60.016	-65	1.0.0.18	1	-954152261	Standard	2.0.10.353	2.0.10.353	04-15-2016	4/15/2016 9:00:02 PM	17:00:02	2.0.10.248	97	Bar50-50.bmp	49	1	?	0r_4g.bmp	0r_4g.bmp	0r_2g.bmp	0r_2g.bmp	0r_4g.bmp				TrialProc	TrialList	0	cvbn	-999999	16	349020	0	c	816	349836	298	-309	-11	-44	-28	19	42	6	10	97	0	0	0	0	4	4	2	2	0	4
Hungry_Donkey_bar_English_2	142	1	<?xml version="1.0"?>\n<Clock xmlns:dt="urn:schemas-microsoft-com:datatypes"><Description dt:dt="string">E-Prime Primary Realtime Clock</Description><StartTime><Timestamp dt:dt="int">0</Timestamp><DateUtc dt:dt="string">2016-04-15T21:00:02Z</DateUtc></StartTime><FrequencyChanges><FrequencyChange><Frequency dt:dt="r8">3507578</Frequency><Timestamp dt:dt="r8">7635076772</Timestamp><Current dt:dt="r8">0</Current><DateUtc dt:dt="string">2016-04-15T21:00:02Z</DateUtc></FrequencyChange></FrequencyChanges></Clock>\n	Hungry_Donkey_bar_English_2-142-1	60.016	-65	1.0.0.18	1	-954152261	Standard	2.0.10.353	2.0.10.353	04-15-2016	4/15/2016 9:00:02 PM	17:00:02	2.0.10.248	98	Bar50-50.bmp	49	1	?	10r_4g.bmp	0r_4g.bmp	2r_2g.bmp	0r_2g.bmp	10r_4g.bmp				TrialProc	TrialList	0	cvbn	-999999	16	351869	0	c	415	352284	302	-319	-17	-50	-28	19	42	3	10	98	-10	0	-2	0	4	4	2	2	-10	4
Hungry_Donkey_bar_English_2	142	1	<?xml version="1.0"?>\n<Clock xmlns:dt="urn:schemas-microsoft-com:datatypes"><Description dt:dt="string">E-Prime Primary Realtime Clock</Description><StartTime><Timestamp dt:dt="int">0</Timestamp><DateUtc dt:dt="string">2016-04-15T21:00:02Z</DateUtc></StartTime><FrequencyChanges><FrequencyChange><Frequency dt:dt="r8">3507578</Frequency><Timestamp dt:dt="r8">7635076772</Timestamp><Current dt:dt="r8">0</Current><DateUtc dt:dt="string">2016-04-15T21:00:02Z</DateUtc></FrequencyChange></FrequencyChanges></Clock>\n	Hungry_Donkey_bar_English_2-142-1	60.016	-65	1.0.0.18	1	-954152261	Standard	2.0.10.353	2.0.10.353	04-15-2016	4/15/2016 9:00:02 PM	17:00:02	2.0.10.248	99	Bar50-50.bmp	48	1	?	8r_4g.bmp	50r_4g.bmp	1r_2g.bmp	10r_2g.bmp	8r_4g.bmp				TrialProc	TrialList	0	cvbn	-999999	16	354318	0	c	190	354508	306	-327	-21	-54	-28	19	42	1	10	99	-8	-50	-1	-10	4	4	2	2	-8	4
Hungry_Donkey_bar_English_2	142	1	<?xml version="1.0"?>\n<Clock xmlns:dt="urn:schemas-microsoft-com:datatypes"><Description dt:dt="string">E-Prime Primary Realtime Clock</Description><StartTime><Timestamp dt:dt="int">0</Timestamp><DateUtc dt:dt="string">2016-04-15T21:00:02Z</DateUtc></StartTime><FrequencyChanges><FrequencyChange><Frequency dt:dt="r8">3507578</Frequency><Timestamp dt:dt="r8">7635076772</Timestamp><Current dt:dt="r8">0</Current><DateUtc dt:dt="string">2016-04-15T21:00:02Z</DateUtc></FrequencyChange></FrequencyChanges></Clock>\n	Hungry_Donkey_bar_English_2-142-1	60.016	-65	1.0.0.18	1	-954152261	Standard	2.0.10.353	2.0.10.353	04-15-2016	4/15/2016 9:00:02 PM	17:00:02	2.0.10.248	100	Bar50-50.bmp	49	1	?	0r_4g.bmp	0r_4g.bmp	0r_2g.bmp	0r_2g.bmp	0r_4g.bmp				TrialProc	TrialList	0	cvbn	-999999	16	356534	0	c	102	356636	310	-327	-17	-50	-28	19	42	9	10	100	0	0	0	0	4	4	2	2	0	4
Hungry_Donkey_bar_English_2	142	1	<?xml version="1.0"?>\n<Clock xmlns:dt="urn:schemas-microsoft-com:datatypes"><Description dt:dt="string">E-Prime Primary Realtime Clock</Description><StartTime><Timestamp dt:dt="int">0</Timestamp><DateUtc dt:dt="string">2016-04-15T21:00:02Z</DateUtc></StartTime><FrequencyChanges><FrequencyChange><Frequency dt:dt="r8">3507578</Frequency><Timestamp dt:dt="r8">7635076772</Timestamp><Current dt:dt="r8">0</Current><DateUtc dt:dt="string">2016-04-15T21:00:02Z</DateUtc></FrequencyChange></FrequencyChanges></Clock>\n	Hungry_Donkey_bar_English_2-142-1	60.016	-65	1.0.0.18	1	-954152261	Standard	2.0.10.353	2.0.10.353	04-15-2016	4/15/2016 9:00:02 PM	17:00:02	2.0.10.248	101	Bar50-50.bmp	48	1	?	12r_4g.bmp	0r_4g.bmp	3r_2g.bmp	0r_2g.bmp	12r_4g.bmp				TrialProc	TrialList	0	cvbn	-999999	16	358667	0	c	513	359180	314	-339	-25	-58	-28	19	42	5	11	101	-12	0	-3	0	4	4	2	2	-12	4
Hungry_Donkey_bar_English_2	142	1	<?xml version="1.0"?>\n<Clock xmlns:dt="urn:schemas-microsoft-com:datatypes"><Description dt:dt="string">E-Prime Primary Realtime Clock</Description><StartTime><Timestamp dt:dt="int">0</Timestamp><DateUtc dt:dt="string">2016-04-15T21:00:02Z</DateUtc></StartTime><FrequencyChanges><FrequencyChange><Frequency dt:dt="r8">3507578</Frequency><Timestamp dt:dt="r8">7635076772</Timestamp><Current dt:dt="r8">0</Current><DateUtc dt:dt="string">2016-04-15T21:00:02Z</DateUtc></FrequencyChange></FrequencyChanges></Clock>\n	Hungry_Donkey_bar_English_2-142-1	60.016	-65	1.0.0.18	1	-954152261	Standard	2.0.10.353	2.0.10.353	04-15-2016	4/15/2016 9:00:02 PM	17:00:02	2.0.10.248	102	Bar50-50.bmp	48	1	?	0r_4g.bmp	0r_4g.bmp	0r_2g.bmp	0r_2g.bmp	0r_4g.bmp				TrialProc	TrialList	0	cvbn	-999999	16	361216	0	c	412	361628	318	-339	-21	-54	-28	19	42	7	11	102	0	0	0	0	4	4	2	2	0	4
Hungry_Donkey_bar_English_2	142	1	<?xml version="1.0"?>\n<Clock xmlns:dt="urn:schemas-microsoft-com:datatypes"><Description dt:dt="string">E-Prime Primary Realtime Clock</Description><StartTime><Timestamp dt:dt="int">0</Timestamp><DateUtc dt:dt="string">2016-04-15T21:00:02Z</DateUtc></StartTime><FrequencyChanges><FrequencyChange><Frequency dt:dt="r8">3507578</Frequency><Timestamp dt:dt="r8">7635076772</Timestamp><Current dt:dt="r8">0</Current><DateUtc dt:dt="string">2016-04-15T21:00:02Z</DateUtc></FrequencyChange></FrequencyChanges></Clock>\n	Hungry_Donkey_bar_English_2-142-1	60.016	-65	1.0.0.18	1	-954152261	Standard	2.0.10.353	2.0.10.353	04-15-2016	4/15/2016 9:00:02 PM	17:00:02	2.0.10.248	103	Bar50-50.bmp	48	1	?	10r_4g.bmp	0r_4g.bmp	2r_2g.bmp	0r_2g.bmp	10r_4g.bmp				TrialProc	TrialList	0	cvbn	-999999	16	363666	0	c	90	363756	322	-349	-27	-60	-28	19	42	3	11	103	-10	0	-2	0	4	4	2	2	-10	4
Hungry_Donkey_bar_English_2	142	1	<?xml version="1.0"?>\n<Clock xmlns:dt="urn:schemas-microsoft-com:datatypes"><Description dt:dt="string">E-Prime Primary Realtime Clock</Description><StartTime><Timestamp dt:dt="int">0</Timestamp><DateUtc dt:dt="string">2016-04-15T21:00:02Z</DateUtc></StartTime><FrequencyChanges><FrequencyChange><Frequency dt:dt="r8">3507578</Frequency><Timestamp dt:dt="r8">7635076772</Timestamp><Current dt:dt="r8">0</Current><DateUtc dt:dt="string">2016-04-15T21:00:02Z</DateUtc></FrequencyChange></FrequencyChanges></Clock>\n	Hungry_Donkey_bar_English_2-142-1	60.016	-65	1.0.0.18	1	-954152261	Standard	2.0.10.353	2.0.10.353	04-15-2016	4/15/2016 9:00:02 PM	17:00:02	2.0.10.248	104	Bar50-50.bmp	48	1	?	0r_4g.bmp	0r_4g.bmp	0r_2g.bmp	0r_2g.bmp	0r_4g.bmp				TrialProc	TrialList	0	cvbn	-999999	16	365799	0	c	21	365820	326	-349	-23	-56	-28	19	42	9	11	104	0	0	0	0	4	4	2	2	0	4
Hungry_Donkey_bar_English_2	142	1	<?xml version="1.0"?>\n<Clock xmlns:dt="urn:schemas-microsoft-com:datatypes"><Description dt:dt="string">E-Prime Primary Realtime Clock</Description><StartTime><Timestamp dt:dt="int">0</Timestamp><DateUtc dt:dt="string">2016-04-15T21:00:02Z</DateUtc></StartTime><FrequencyChanges><FrequencyChange><Frequency dt:dt="r8">3507578</Frequency><Timestamp dt:dt="r8">7635076772</Timestamp><Current dt:dt="r8">0</Current><DateUtc dt:dt="string">2016-04-15T21:00:02Z</DateUtc></FrequencyChange></FrequencyChanges></Clock>\n	Hungry_Donkey_bar_English_2-142-1	60.016	-65	1.0.0.18	1	-954152261	Standard	2.0.10.353	2.0.10.353	04-15-2016	4/15/2016 9:00:02 PM	17:00:02	2.0.10.248	105	Bar50-50.bmp	49	1	?	0r_4g.bmp	0r_4g.bmp	0r_2g.bmp	0r_2g.bmp	0r_4g.bmp				TrialProc	TrialList	0	cvbn	-999999	16	367848	0	c	564	368412	330	-349	-19	-52	-28	19	42	10	11	105	0	0	0	0	4	4	2	2	0	4
Hungry_Donkey_bar_English_2	142	1	<?xml version="1.0"?>\n<Clock xmlns:dt="urn:schemas-microsoft-com:datatypes"><Description dt:dt="string">E-Prime Primary Realtime Clock</Description><StartTime><Timestamp dt:dt="int">0</Timestamp><DateUtc dt:dt="string">2016-04-15T21:00:02Z</DateUtc></StartTime><FrequencyChanges><FrequencyChange><Frequency dt:dt="r8">3507578</Frequency><Timestamp dt:dt="r8">7635076772</Timestamp><Current dt:dt="r8">0</Current><DateUtc dt:dt="string">2016-04-15T21:00:02Z</DateUtc></FrequencyChange></FrequencyChanges></Clock>\n	Hungry_Donkey_bar_English_2-142-1	60.016	-65	1.0.0.18	1	-954152261	Standard	2.0.10.353	2.0.10.353	04-15-2016	4/15/2016 9:00:02 PM	17:00:02	2.0.10.248	106	Bar50-50.bmp	48	1	?	10r_4g.bmp	0r_4g.bmp	2r_2g.bmp	0r_2g.bmp	10r_4g.bmp				TrialProc	TrialList	0	cvbn	-999999	16	370447	0	c	237	370684	334	-359	-25	-58	-28	19	42	2	11	106	-10	0	-2	0	4	4	2	2	-10	4
Hungry_Donkey_bar_English_2	142	1	<?xml version="1.0"?>\n<Clock xmlns:dt="urn:schemas-microsoft-com:datatypes"><Description dt:dt="string">E-Prime Primary Realtime Clock</Description><StartTime><Timestamp dt:dt="int">0</Timestamp><DateUtc dt:dt="string">2016-04-15T21:00:02Z</DateUtc></StartTime><FrequencyChanges><FrequencyChange><Frequency dt:dt="r8">3507578</Frequency><Timestamp dt:dt="r8">7635076772</Timestamp><Current dt:dt="r8">0</Current><DateUtc dt:dt="string">2016-04-15T21:00:02Z</DateUtc></FrequencyChange></FrequencyChanges></Clock>\n	Hungry_Donkey_bar_English_2-142-1	60.016	-65	1.0.0.18	1	-954152261	Standard	2.0.10.353	2.0.10.353	04-15-2016	4/15/2016 9:00:02 PM	17:00:02	2.0.10.248	107	Bar50-50.bmp	48	1	?	8r_4g.bmp	50r_4g.bmp	1r_2g.bmp	10r_2g.bmp	8r_4g.bmp				TrialProc	TrialList	0	cvbn	-999999	17	372714	0	c	194	372908	338	-367	-29	-62	-28	19	42	1	11	107	-8	-50	-1	-10	4	4	2	2	-8	4
Hungry_Donkey_bar_English_2	142	1	<?xml version="1.0"?>\n<Clock xmlns:dt="urn:schemas-microsoft-com:datatypes"><Description dt:dt="string">E-Prime Primary Realtime Clock</Description><StartTime><Timestamp dt:dt="int">0</Timestamp><DateUtc dt:dt="string">2016-04-15T21:00:02Z</DateUtc></StartTime><FrequencyChanges><FrequencyChange><Frequency dt:dt="r8">3507578</Frequency><Timestamp dt:dt="r8">7635076772</Timestamp><Current dt:dt="r8">0</Current><DateUtc dt:dt="string">2016-04-15T21:00:02Z</DateUtc></FrequencyChange></FrequencyChanges></Clock>\n	Hungry_Donkey_bar_English_2-142-1	60.016	-65	1.0.0.18	1	-954152261	Standard	2.0.10.353	2.0.10.353	04-15-2016	4/15/2016 9:00:02 PM	17:00:02	2.0.10.248	108	Bar50-50.bmp	48	1	?	10r_4g.bmp	0r_4g.bmp	2r_2g.bmp	0r_2g.bmp	10r_4g.bmp				TrialProc	TrialList	0	cvbn	-999999	16	374946	0	c	314	375260	342	-377	-35	-68	-28	19	42	4	11	108	-10	0	-2	0	4	4	2	2	-10	4
Hungry_Donkey_bar_English_2	142	1	<?xml version="1.0"?>\n<Clock xmlns:dt="urn:schemas-microsoft-com:datatypes"><Description dt:dt="string">E-Prime Primary Realtime Clock</Description><StartTime><Timestamp dt:dt="int">0</Timestamp><DateUtc dt:dt="string">2016-04-15T21:00:02Z</DateUtc></StartTime><FrequencyChanges><FrequencyChange><Frequency dt:dt="r8">3507578</Frequency><Timestamp dt:dt="r8">7635076772</Timestamp><Current dt:dt="r8">0</Current><DateUtc dt:dt="string">2016-04-15T21:00:02Z</DateUtc></FrequencyChange></FrequencyChanges></Clock>\n	Hungry_Donkey_bar_English_2-142-1	60.016	-65	1.0.0.18	1	-954152261	Standard	2.0.10.353	2.0.10.353	04-15-2016	4/15/2016 9:00:02 PM	17:00:02	2.0.10.248	109	Bar50-50.bmp	48	1	?	0r_4g.bmp	0r_4g.bmp	0r_2g.bmp	0r_2g.bmp	0r_4g.bmp				TrialProc	TrialList	0	cvbn	-999999	16	377296	0	c	140	377436	346	-377	-31	-64	-28	19	42	6	11	109	0	0	0	0	4	4	2	2	0	4
Hungry_Donkey_bar_English_2	142	1	<?xml version="1.0"?>\n<Clock xmlns:dt="urn:schemas-microsoft-com:datatypes"><Description dt:dt="string">E-Prime Primary Realtime Clock</Description><StartTime><Timestamp dt:dt="int">0</Timestamp><DateUtc dt:dt="string">2016-04-15T21:00:02Z</DateUtc></StartTime><FrequencyChanges><FrequencyChange><Frequency dt:dt="r8">3507578</Frequency><Timestamp dt:dt="r8">7635076772</Timestamp><Current dt:dt="r8">0</Current><DateUtc dt:dt="string">2016-04-15T21:00:02Z</DateUtc></FrequencyChange></FrequencyChanges></Clock>\n	Hungry_Donkey_bar_English_2-142-1	60.016	-65	1.0.0.18	1	-954152261	Standard	2.0.10.353	2.0.10.353	04-15-2016	4/15/2016 9:00:02 PM	17:00:02	2.0.10.248	110	Bar50-50.bmp	48	1	?	0r_4g.bmp	0r_4g.bmp	0r_2g.bmp	0r_2g.bmp	0r_4g.bmp				TrialProc	TrialList	0	cvbn	-999999	16	379462	0	c	38	379500	350	-377	-27	-60	-28	19	42	8	11	110	0	0	0	0	4	4	2	2	0	4
Hungry_Donkey_bar_English_2	142	1	<?xml version="1.0"?>\n<Clock xmlns:dt="urn:schemas-microsoft-com:datatypes"><Description dt:dt="string">E-Prime Primary Realtime Clock</Description><StartTime><Timestamp dt:dt="int">0</Timestamp><DateUtc dt:dt="string">2016-04-15T21:00:02Z</DateUtc></StartTime><FrequencyChanges><FrequencyChange><Frequency dt:dt="r8">3507578</Frequency><Timestamp dt:dt="r8">7635076772</Timestamp><Current dt:dt="r8">0</Current><DateUtc dt:dt="string">2016-04-15T21:00:02Z</DateUtc></FrequencyChange></FrequencyChanges></Clock>\n	Hungry_Donkey_bar_English_2-142-1	60.016	-65	1.0.0.18	1	-954152261	Standard	2.0.10.353	2.0.10.353	04-15-2016	4/15/2016 9:00:02 PM	17:00:02	2.0.10.248	111	Bar50-50.bmp	48	1	?	10r_4g.bmp	0r_4g.bmp	2r_2g.bmp	0r_2g.bmp	10r_4g.bmp				TrialProc	TrialList	0	cvbn	-999999	16	381528	0	c	68	381596	354	-387	-33	-66	-28	19	42	4	12	111	-10	0	-2	0	4	4	2	2	-10	4
