ExperimentName	Subject	Session	Clock.Information	DataFile.Basename	Display.RefreshRate	Eindtotaal[Session]	ExperimentVersion	Group	RandomSeed	RuntimeCapabilities	RuntimeVersion	RuntimeVersionExpected	SessionDate	SessionStartDateTimeUtc	SessionTime	StudioVersion	Block	BarImage	BarTotalWinst	DoorChoice	Eindtotaal[Block]	FBDoor1	FBDoor2	FBDoor3	FBDoor4	Image1	Image2	Image3	Image4	Procedure	Running	spel.ACC	spel.CRESP	spel.DurationError	spel.OnsetDelay	spel.OnsetTime	spel.OnsetToOnsetTime	spel.RESP	spel.RT	spel.RTTime	TotalGain	TotalLose	Totalsum	TotalsumD1	TotalsumD2	TotalsumD3	TotalsumD4	TrialList	TrialList.Cycle	TrialList.Sample	varV1	varV2	varV3	varV4	varW1	varW2	varW3	varW4	Verliesbedrag	Winstbedrag
Hungry_Donkey_bar_English_2	136	1	<?xml version="1.0"?>\n<Clock xmlns:dt="urn:schemas-microsoft-com:datatypes"><Description dt:dt="string">E-Prime Primary Realtime Clock</Description><StartTime><Timestamp dt:dt="int">0</Timestamp><DateUtc dt:dt="string">2016-04-05T22:28:32Z</DateUtc></StartTime><FrequencyChanges><FrequencyChange><Frequency dt:dt="r8">3507705</Frequency><Timestamp dt:dt="r8">22447006195</Timestamp><Current dt:dt="r8">0</Current><DateUtc dt:dt="string">2016-04-05T22:28:32Z</DateUtc></FrequencyChange></FrequencyChanges></Clock>\n	Hungry_Donkey_bar_English_2-136-1	60.018	125	1.0.0.18	1	972868701	Standard	2.0.10.353	2.0.10.353	04-05-2016		18:28:32	2.0.10.248	1	Bar100-0.bmp	100	3	?	0r_4g.bmp	0r_4g.bmp	0r_2g.bmp	0r_2g.bmp			0r_2g.bmp		TrialProc	TrialList	0	cvbn	-999999	23	80309	0	b	1305	81614	2	0	2	0	0	2	0	9	1	1	0	0	0	0	4	4	2	2	0	2
Hungry_Donkey_bar_English_2	136	1	<?xml version="1.0"?>\n<Clock xmlns:dt="urn:schemas-microsoft-com:datatypes"><Description dt:dt="string">E-Prime Primary Realtime Clock</Description><StartTime><Timestamp dt:dt="int">0</Timestamp><DateUtc dt:dt="string">2016-04-05T22:28:32Z</DateUtc></StartTime><FrequencyChanges><FrequencyChange><Frequency dt:dt="r8">3507705</Frequency><Timestamp dt:dt="r8">22447006195</Timestamp><Current dt:dt="r8">0</Current><DateUtc dt:dt="string">2016-04-05T22:28:32Z</DateUtc></FrequencyChange></FrequencyChanges></Clock>\n	Hungry_Donkey_bar_English_2-136-1	60.018	125	1.0.0.18	1	972868701	Standard	2.0.10.353	2.0.10.353	04-05-2016		18:28:32	2.0.10.248	2	Bar25-75.bmp	29	4	?	8r_4g.bmp	50r_4g.bmp	1r_2g.bmp	10r_2g.bmp				10r_2g.bmp	TrialProc	TrialList	0	cvbn	-999999	16	83641	0	n	3797	87438	4	-10	-6	0	0	2	-8	1	1	2	-8	-50	-1	-10	4	4	2	2	-10	2
Hungry_Donkey_bar_English_2	136	1	<?xml version="1.0"?>\n<Clock xmlns:dt="urn:schemas-microsoft-com:datatypes"><Description dt:dt="string">E-Prime Primary Realtime Clock</Description><StartTime><Timestamp dt:dt="int">0</Timestamp><DateUtc dt:dt="string">2016-04-05T22:28:32Z</DateUtc></StartTime><FrequencyChanges><FrequencyChange><Frequency dt:dt="r8">3507705</Frequency><Timestamp dt:dt="r8">22447006195</Timestamp><Current dt:dt="r8">0</Current><DateUtc dt:dt="string">2016-04-05T22:28:32Z</DateUtc></FrequencyChange></FrequencyChanges></Clock>\n	Hungry_Donkey_bar_English_2-136-1	60.018	125	1.0.0.18	1	972868701	Standard	2.0.10.353	2.0.10.353	04-05-2016		18:28:32	2.0.10.248	3	Bar50-50.bmp	44	2	?	0r_4g.bmp	0r_4g.bmp	0r_2g.bmp	0r_2g.bmp		0r_4g.bmp			TrialProc	TrialList	0	cvbn	-999999	16	89473	0	v	1341	90814	8	-10	-2	0	4	2	-8	6	1	3	0	0	0	0	4	4	2	2	0	4
Hungry_Donkey_bar_English_2	136	1	<?xml version="1.0"?>\n<Clock xmlns:dt="urn:schemas-microsoft-com:datatypes"><Description dt:dt="string">E-Prime Primary Realtime Clock</Description><StartTime><Timestamp dt:dt="int">0</Timestamp><DateUtc dt:dt="string">2016-04-05T22:28:32Z</DateUtc></StartTime><FrequencyChanges><FrequencyChange><Frequency dt:dt="r8">3507705</Frequency><Timestamp dt:dt="r8">22447006195</Timestamp><Current dt:dt="r8">0</Current><DateUtc dt:dt="string">2016-04-05T22:28:32Z</DateUtc></FrequencyChange></FrequencyChanges></Clock>\n	Hungry_Donkey_bar_English_2-136-1	60.018	125	1.0.0.18	1	972868701	Standard	2.0.10.353	2.0.10.353	04-05-2016		18:28:32	2.0.10.248	4	Bar50-50.bmp	55	1	?	0r_4g.bmp	0r_4g.bmp	0r_2g.bmp	0r_2g.bmp	0r_4g.bmp				TrialProc	TrialList	0	cvbn	-999999	16	92839	0	c	1143	93982	12	-10	2	4	4	2	-8	7	1	4	0	0	0	0	4	4	2	2	0	4
Hungry_Donkey_bar_English_2	136	1	<?xml version="1.0"?>\n<Clock xmlns:dt="urn:schemas-microsoft-com:datatypes"><Description dt:dt="string">E-Prime Primary Realtime Clock</Description><StartTime><Timestamp dt:dt="int">0</Timestamp><DateUtc dt:dt="string">2016-04-05T22:28:32Z</DateUtc></StartTime><FrequencyChanges><FrequencyChange><Frequency dt:dt="r8">3507705</Frequency><Timestamp dt:dt="r8">22447006195</Timestamp><Current dt:dt="r8">0</Current><DateUtc dt:dt="string">2016-04-05T22:28:32Z</DateUtc></FrequencyChange></FrequencyChanges></Clock>\n	Hungry_Donkey_bar_English_2-136-1	60.018	125	1.0.0.18	1	972868701	Standard	2.0.10.353	2.0.10.353	04-05-2016		18:28:32	2.0.10.248	5	Bar63-37.bmp	58	3	?	0r_4g.bmp	0r_4g.bmp	0r_2g.bmp	0r_2g.bmp			0r_2g.bmp		TrialProc	TrialList	0	cvbn	-999999	16	96021	0	b	409	96430	14	-10	4	4	4	4	-8	10	1	5	0	0	0	0	4	4	2	2	0	2
Hungry_Donkey_bar_English_2	136	1	<?xml version="1.0"?>\n<Clock xmlns:dt="urn:schemas-microsoft-com:datatypes"><Description dt:dt="string">E-Prime Primary Realtime Clock</Description><StartTime><Timestamp dt:dt="int">0</Timestamp><DateUtc dt:dt="string">2016-04-05T22:28:32Z</DateUtc></StartTime><FrequencyChanges><FrequencyChange><Frequency dt:dt="r8">3507705</Frequency><Timestamp dt:dt="r8">22447006195</Timestamp><Current dt:dt="r8">0</Current><DateUtc dt:dt="string">2016-04-05T22:28:32Z</DateUtc></FrequencyChange></FrequencyChanges></Clock>\n	Hungry_Donkey_bar_English_2-136-1	60.018	125	1.0.0.18	1	972868701	Standard	2.0.10.353	2.0.10.353	04-05-2016		18:28:32	2.0.10.248	6	Bar63-37.bmp	64	2	?	12r_4g.bmp	0r_4g.bmp	3r_2g.bmp	0r_2g.bmp		0r_4g.bmp			TrialProc	TrialList	0	cvbn	-999999	16	98470	0	v	519	98989	18	-10	8	4	8	4	-8	5	1	6	-12	0	-3	0	4	4	2	2	0	4
Hungry_Donkey_bar_English_2	136	1	<?xml version="1.0"?>\n<Clock xmlns:dt="urn:schemas-microsoft-com:datatypes"><Description dt:dt="string">E-Prime Primary Realtime Clock</Description><StartTime><Timestamp dt:dt="int">0</Timestamp><DateUtc dt:dt="string">2016-04-05T22:28:32Z</DateUtc></StartTime><FrequencyChanges><FrequencyChange><Frequency dt:dt="r8">3507705</Frequency><Timestamp dt:dt="r8">22447006195</Timestamp><Current dt:dt="r8">0</Current><DateUtc dt:dt="string">2016-04-05T22:28:32Z</DateUtc></FrequencyChange></FrequencyChanges></Clock>\n	Hungry_Donkey_bar_English_2-136-1	60.018	125	1.0.0.18	1	972868701	Standard	2.0.10.353	2.0.10.353	04-05-2016		18:28:32	2.0.10.248	7	Bar50-50.bmp	52	1	?	10r_4g.bmp	0r_4g.bmp	2r_2g.bmp	0r_2g.bmp	10r_4g.bmp				TrialProc	TrialList	0	cvbn	-999999	16	101020	0	c	353	101373	22	-20	2	-2	8	4	-8	2	1	7	-10	0	-2	0	4	4	2	2	-10	4
Hungry_Donkey_bar_English_2	136	1	<?xml version="1.0"?>\n<Clock xmlns:dt="urn:schemas-microsoft-com:datatypes"><Description dt:dt="string">E-Prime Primary Realtime Clock</Description><StartTime><Timestamp dt:dt="int">0</Timestamp><DateUtc dt:dt="string">2016-04-05T22:28:32Z</DateUtc></StartTime><FrequencyChanges><FrequencyChange><Frequency dt:dt="r8">3507705</Frequency><Timestamp dt:dt="r8">22447006195</Timestamp><Current dt:dt="r8">0</Current><DateUtc dt:dt="string">2016-04-05T22:28:32Z</DateUtc></FrequencyChange></FrequencyChanges></Clock>\n	Hungry_Donkey_bar_English_2-136-1	60.018	125	1.0.0.18	1	972868701	Standard	2.0.10.353	2.0.10.353	04-05-2016		18:28:32	2.0.10.248	8	Bar50-50.bmp	55	4	?	0r_4g.bmp	0r_4g.bmp	0r_2g.bmp	0r_2g.bmp				0r_2g.bmp	TrialProc	TrialList	0	cvbn	-999999	16	103402	0	n	963	104365	24	-20	4	-2	8	4	-6	8	1	8	0	0	0	0	4	4	2	2	0	2
Hungry_Donkey_bar_English_2	136	1	<?xml version="1.0"?>\n<Clock xmlns:dt="urn:schemas-microsoft-com:datatypes"><Description dt:dt="string">E-Prime Primary Realtime Clock</Description><StartTime><Timestamp dt:dt="int">0</Timestamp><DateUtc dt:dt="string">2016-04-05T22:28:32Z</DateUtc></StartTime><FrequencyChanges><FrequencyChange><Frequency dt:dt="r8">3507705</Frequency><Timestamp dt:dt="r8">22447006195</Timestamp><Current dt:dt="r8">0</Current><DateUtc dt:dt="string">2016-04-05T22:28:32Z</DateUtc></FrequencyChange></FrequencyChanges></Clock>\n	Hungry_Donkey_bar_English_2-136-1	60.018	125	1.0.0.18	1	972868701	Standard	2.0.10.353	2.0.10.353	04-05-2016		18:28:32	2.0.10.248	9	Bar50-50.bmp	54	3	?	10r_4g.bmp	0r_4g.bmp	2r_2g.bmp	0r_2g.bmp			2r_2g.bmp		TrialProc	TrialList	0	cvbn	-999999	16	106401	0	b	396	106797	26	-22	4	-2	8	4	-6	4	1	9	-10	0	-2	0	4	4	2	2	-2	2
Hungry_Donkey_bar_English_2	136	1	<?xml version="1.0"?>\n<Clock xmlns:dt="urn:schemas-microsoft-com:datatypes"><Description dt:dt="string">E-Prime Primary Realtime Clock</Description><StartTime><Timestamp dt:dt="int">0</Timestamp><DateUtc dt:dt="string">2016-04-05T22:28:32Z</DateUtc></StartTime><FrequencyChanges><FrequencyChange><Frequency dt:dt="r8">3507705</Frequency><Timestamp dt:dt="r8">22447006195</Timestamp><Current dt:dt="r8">0</Current><DateUtc dt:dt="string">2016-04-05T22:28:32Z</DateUtc></FrequencyChange></FrequencyChanges></Clock>\n	Hungry_Donkey_bar_English_2-136-1	60.018	125	1.0.0.18	1	972868701	Standard	2.0.10.353	2.0.10.353	04-05-2016		18:28:32	2.0.10.248	10	Bar50-50.bmp	48	1	?	10r_4g.bmp	0r_4g.bmp	2r_2g.bmp	0r_2g.bmp	10r_4g.bmp				TrialProc	TrialList	0	cvbn	-999999	16	108834	0	c	795	109629	30	-32	-2	-8	8	4	-6	3	1	10	-10	0	-2	0	4	4	2	2	-10	4
Hungry_Donkey_bar_English_2	136	1	<?xml version="1.0"?>\n<Clock xmlns:dt="urn:schemas-microsoft-com:datatypes"><Description dt:dt="string">E-Prime Primary Realtime Clock</Description><StartTime><Timestamp dt:dt="int">0</Timestamp><DateUtc dt:dt="string">2016-04-05T22:28:32Z</DateUtc></StartTime><FrequencyChanges><FrequencyChange><Frequency dt:dt="r8">3507705</Frequency><Timestamp dt:dt="r8">22447006195</Timestamp><Current dt:dt="r8">0</Current><DateUtc dt:dt="string">2016-04-05T22:28:32Z</DateUtc></FrequencyChange></FrequencyChanges></Clock>\n	Hungry_Donkey_bar_English_2-136-1	60.018	125	1.0.0.18	1	972868701	Standard	2.0.10.353	2.0.10.353	04-05-2016		18:28:32	2.0.10.248	11	Bar50-50.bmp	52	2	?	0r_4g.bmp	0r_4g.bmp	0r_2g.bmp	0r_2g.bmp		0r_4g.bmp			TrialProc	TrialList	0	cvbn	-999999	16	111666	0	v	219	111885	34	-32	2	-8	12	4	-6	7	2	11	0	0	0	0	4	4	2	2	0	4
Hungry_Donkey_bar_English_2	136	1	<?xml version="1.0"?>\n<Clock xmlns:dt="urn:schemas-microsoft-com:datatypes"><Description dt:dt="string">E-Prime Primary Realtime Clock</Description><StartTime><Timestamp dt:dt="int">0</Timestamp><DateUtc dt:dt="string">2016-04-05T22:28:32Z</DateUtc></StartTime><FrequencyChanges><FrequencyChange><Frequency dt:dt="r8">3507705</Frequency><Timestamp dt:dt="r8">22447006195</Timestamp><Current dt:dt="r8">0</Current><DateUtc dt:dt="string">2016-04-05T22:28:32Z</DateUtc></FrequencyChange></FrequencyChanges></Clock>\n	Hungry_Donkey_bar_English_2-136-1	60.018	125	1.0.0.18	1	972868701	Standard	2.0.10.353	2.0.10.353	04-05-2016		18:28:32	2.0.10.248	12	Bar50-50.bmp	54	2	?	0r_4g.bmp	0r_4g.bmp	0r_2g.bmp	0r_2g.bmp		0r_4g.bmp			TrialProc	TrialList	0	cvbn	-999999	16	113916	0	v	352	114268	38	-32	6	-8	16	4	-6	8	2	12	0	0	0	0	4	4	2	2	0	4
Hungry_Donkey_bar_English_2	136	1	<?xml version="1.0"?>\n<Clock xmlns:dt="urn:schemas-microsoft-com:datatypes"><Description dt:dt="string">E-Prime Primary Realtime Clock</Description><StartTime><Timestamp dt:dt="int">0</Timestamp><DateUtc dt:dt="string">2016-04-05T22:28:32Z</DateUtc></StartTime><FrequencyChanges><FrequencyChange><Frequency dt:dt="r8">3507705</Frequency><Timestamp dt:dt="r8">22447006195</Timestamp><Current dt:dt="r8">0</Current><DateUtc dt:dt="string">2016-04-05T22:28:32Z</DateUtc></FrequencyChange></FrequencyChanges></Clock>\n	Hungry_Donkey_bar_English_2-136-1	60.018	125	1.0.0.18	1	972868701	Standard	2.0.10.353	2.0.10.353	04-05-2016		18:28:32	2.0.10.248	13	Bar50-50.bmp	54	3	?	10r_4g.bmp	0r_4g.bmp	2r_2g.bmp	0r_2g.bmp			2r_2g.bmp		TrialProc	TrialList	0	cvbn	-999999	16	116298	0	b	898	117196	40	-34	6	-8	16	4	-6	3	2	13	-10	0	-2	0	4	4	2	2	-2	2
Hungry_Donkey_bar_English_2	136	1	<?xml version="1.0"?>\n<Clock xmlns:dt="urn:schemas-microsoft-com:datatypes"><Description dt:dt="string">E-Prime Primary Realtime Clock</Description><StartTime><Timestamp dt:dt="int">0</Timestamp><DateUtc dt:dt="string">2016-04-05T22:28:32Z</DateUtc></StartTime><FrequencyChanges><FrequencyChange><Frequency dt:dt="r8">3507705</Frequency><Timestamp dt:dt="r8">22447006195</Timestamp><Current dt:dt="r8">0</Current><DateUtc dt:dt="string">2016-04-05T22:28:32Z</DateUtc></FrequencyChange></FrequencyChanges></Clock>\n	Hungry_Donkey_bar_English_2-136-1	60.018	125	1.0.0.18	1	972868701	Standard	2.0.10.353	2.0.10.353	04-05-2016		18:28:32	2.0.10.248	14	Bar50-50.bmp	56	2	?	10r_4g.bmp	0r_4g.bmp	2r_2g.bmp	0r_2g.bmp		0r_4g.bmp			TrialProc	TrialList	0	cvbn	-999999	16	119231	0	v	1309	120540	44	-34	10	-8	20	4	-6	4	2	14	-10	0	-2	0	4	4	2	2	0	4
Hungry_Donkey_bar_English_2	136	1	<?xml version="1.0"?>\n<Clock xmlns:dt="urn:schemas-microsoft-com:datatypes"><Description dt:dt="string">E-Prime Primary Realtime Clock</Description><StartTime><Timestamp dt:dt="int">0</Timestamp><DateUtc dt:dt="string">2016-04-05T22:28:32Z</DateUtc></StartTime><FrequencyChanges><FrequencyChange><Frequency dt:dt="r8">3507705</Frequency><Timestamp dt:dt="r8">22447006195</Timestamp><Current dt:dt="r8">0</Current><DateUtc dt:dt="string">2016-04-05T22:28:32Z</DateUtc></FrequencyChange></FrequencyChanges></Clock>\n	Hungry_Donkey_bar_English_2-136-1	60.018	125	1.0.0.18	1	972868701	Standard	2.0.10.353	2.0.10.353	04-05-2016		18:28:32	2.0.10.248	15	Bar63-37.bmp	59	2	?	0r_4g.bmp	0r_4g.bmp	0r_2g.bmp	0r_2g.bmp		0r_4g.bmp			TrialProc	TrialList	0	cvbn	-999999	16	122580	0	v	424	123004	48	-34	14	-8	24	4	-6	6	2	15	0	0	0	0	4	4	2	2	0	4
Hungry_Donkey_bar_English_2	136	1	<?xml version="1.0"?>\n<Clock xmlns:dt="urn:schemas-microsoft-com:datatypes"><Description dt:dt="string">E-Prime Primary Realtime Clock</Description><StartTime><Timestamp dt:dt="int">0</Timestamp><DateUtc dt:dt="string">2016-04-05T22:28:32Z</DateUtc></StartTime><FrequencyChanges><FrequencyChange><Frequency dt:dt="r8">3507705</Frequency><Timestamp dt:dt="r8">22447006195</Timestamp><Current dt:dt="r8">0</Current><DateUtc dt:dt="string">2016-04-05T22:28:32Z</DateUtc></FrequencyChange></FrequencyChanges></Clock>\n	Hungry_Donkey_bar_English_2-136-1	60.018	125	1.0.0.18	1	972868701	Standard	2.0.10.353	2.0.10.353	04-05-2016		18:28:32	2.0.10.248	16	Bar63-37.bmp	60	2	?	0r_4g.bmp	0r_4g.bmp	0r_2g.bmp	0r_2g.bmp		0r_4g.bmp			TrialProc	TrialList	0	cvbn	-999999	16	125029	0	v	375	125404	52	-34	18	-8	28	4	-6	9	2	16	0	0	0	0	4	4	2	2	0	4
Hungry_Donkey_bar_English_2	136	1	<?xml version="1.0"?>\n<Clock xmlns:dt="urn:schemas-microsoft-com:datatypes"><Description dt:dt="string">E-Prime Primary Realtime Clock</Description><StartTime><Timestamp dt:dt="int">0</Timestamp><DateUtc dt:dt="string">2016-04-05T22:28:32Z</DateUtc></StartTime><FrequencyChanges><FrequencyChange><Frequency dt:dt="r8">3507705</Frequency><Timestamp dt:dt="r8">22447006195</Timestamp><Current dt:dt="r8">0</Current><DateUtc dt:dt="string">2016-04-05T22:28:32Z</DateUtc></FrequencyChange></FrequencyChanges></Clock>\n	Hungry_Donkey_bar_English_2-136-1	60.018	125	1.0.0.18	1	972868701	Standard	2.0.10.353	2.0.10.353	04-05-2016		18:28:32	2.0.10.248	17	Bar63-37.bmp	62	2	?	0r_4g.bmp	0r_4g.bmp	0r_2g.bmp	0r_2g.bmp		0r_4g.bmp			TrialProc	TrialList	0	cvbn	-999999	16	127445	0	v	375	127820	56	-34	22	-8	32	4	-6	10	2	17	0	0	0	0	4	4	2	2	0	4
Hungry_Donkey_bar_English_2	136	1	<?xml version="1.0"?>\n<Clock xmlns:dt="urn:schemas-microsoft-com:datatypes"><Description dt:dt="string">E-Prime Primary Realtime Clock</Description><StartTime><Timestamp dt:dt="int">0</Timestamp><DateUtc dt:dt="string">2016-04-05T22:28:32Z</DateUtc></StartTime><FrequencyChanges><FrequencyChange><Frequency dt:dt="r8">3507705</Frequency><Timestamp dt:dt="r8">22447006195</Timestamp><Current dt:dt="r8">0</Current><DateUtc dt:dt="string">2016-04-05T22:28:32Z</DateUtc></FrequencyChange></FrequencyChanges></Clock>\n	Hungry_Donkey_bar_English_2-136-1	60.018	125	1.0.0.18	1	972868701	Standard	2.0.10.353	2.0.10.353	04-05-2016		18:28:32	2.0.10.248	18	Bar37-63.bmp	42	2	?	8r_4g.bmp	50r_4g.bmp	1r_2g.bmp	10r_2g.bmp		50r_4g.bmp			TrialProc	TrialList	0	cvbn	-999999	16	129861	0	v	423	130284	60	-84	-24	-8	-14	4	-6	1	2	18	-8	-50	-1	-10	4	4	2	2	-50	4
Hungry_Donkey_bar_English_2	136	1	<?xml version="1.0"?>\n<Clock xmlns:dt="urn:schemas-microsoft-com:datatypes"><Description dt:dt="string">E-Prime Primary Realtime Clock</Description><StartTime><Timestamp dt:dt="int">0</Timestamp><DateUtc dt:dt="string">2016-04-05T22:28:32Z</DateUtc></StartTime><FrequencyChanges><FrequencyChange><Frequency dt:dt="r8">3507705</Frequency><Timestamp dt:dt="r8">22447006195</Timestamp><Current dt:dt="r8">0</Current><DateUtc dt:dt="string">2016-04-05T22:28:32Z</DateUtc></FrequencyChange></FrequencyChanges></Clock>\n	Hungry_Donkey_bar_English_2-136-1	60.018	125	1.0.0.18	1	972868701	Standard	2.0.10.353	2.0.10.353	04-05-2016		18:28:32	2.0.10.248	19	Bar37-63.bmp	42	3	?	10r_4g.bmp	0r_4g.bmp	2r_2g.bmp	0r_2g.bmp			2r_2g.bmp		TrialProc	TrialList	0	cvbn	-999999	16	132310	0	b	1285	133595	62	-86	-24	-8	-14	4	-6	2	2	19	-10	0	-2	0	4	4	2	2	-2	2
Hungry_Donkey_bar_English_2	136	1	<?xml version="1.0"?>\n<Clock xmlns:dt="urn:schemas-microsoft-com:datatypes"><Description dt:dt="string">E-Prime Primary Realtime Clock</Description><StartTime><Timestamp dt:dt="int">0</Timestamp><DateUtc dt:dt="string">2016-04-05T22:28:32Z</DateUtc></StartTime><FrequencyChanges><FrequencyChange><Frequency dt:dt="r8">3507705</Frequency><Timestamp dt:dt="r8">22447006195</Timestamp><Current dt:dt="r8">0</Current><DateUtc dt:dt="string">2016-04-05T22:28:32Z</DateUtc></FrequencyChange></FrequencyChanges></Clock>\n	Hungry_Donkey_bar_English_2-136-1	60.018	125	1.0.0.18	1	972868701	Standard	2.0.10.353	2.0.10.353	04-05-2016		18:28:32	2.0.10.248	20	Bar37-63.bmp	43	4	?	12r_4g.bmp	0r_4g.bmp	3r_2g.bmp	0r_2g.bmp				0r_2g.bmp	TrialProc	TrialList	0	cvbn	-999999	16	135626	0	n	193	135819	64	-86	-22	-8	-14	4	-4	5	2	20	-12	0	-3	0	4	4	2	2	0	2
Hungry_Donkey_bar_English_2	136	1	<?xml version="1.0"?>\n<Clock xmlns:dt="urn:schemas-microsoft-com:datatypes"><Description dt:dt="string">E-Prime Primary Realtime Clock</Description><StartTime><Timestamp dt:dt="int">0</Timestamp><DateUtc dt:dt="string">2016-04-05T22:28:32Z</DateUtc></StartTime><FrequencyChanges><FrequencyChange><Frequency dt:dt="r8">3507705</Frequency><Timestamp dt:dt="r8">22447006195</Timestamp><Current dt:dt="r8">0</Current><DateUtc dt:dt="string">2016-04-05T22:28:32Z</DateUtc></FrequencyChange></FrequencyChanges></Clock>\n	Hungry_Donkey_bar_English_2-136-1	60.018	125	1.0.0.18	1	972868701	Standard	2.0.10.353	2.0.10.353	04-05-2016		18:28:32	2.0.10.248	21	Bar37-63.bmp	43	4	?	10r_4g.bmp	0r_4g.bmp	2r_2g.bmp	0r_2g.bmp				0r_2g.bmp	TrialProc	TrialList	0	cvbn	-999999	16	137859	0	n	1416	139275	66	-86	-20	-8	-14	4	-2	4	3	21	-10	0	-2	0	4	4	2	2	0	2
Hungry_Donkey_bar_English_2	136	1	<?xml version="1.0"?>\n<Clock xmlns:dt="urn:schemas-microsoft-com:datatypes"><Description dt:dt="string">E-Prime Primary Realtime Clock</Description><StartTime><Timestamp dt:dt="int">0</Timestamp><DateUtc dt:dt="string">2016-04-05T22:28:32Z</DateUtc></StartTime><FrequencyChanges><FrequencyChange><Frequency dt:dt="r8">3507705</Frequency><Timestamp dt:dt="r8">22447006195</Timestamp><Current dt:dt="r8">0</Current><DateUtc dt:dt="string">2016-04-05T22:28:32Z</DateUtc></FrequencyChange></FrequencyChanges></Clock>\n	Hungry_Donkey_bar_English_2-136-1	60.018	125	1.0.0.18	1	972868701	Standard	2.0.10.353	2.0.10.353	04-05-2016		18:28:32	2.0.10.248	22	Bar50-50.bmp	44	4	?	0r_4g.bmp	0r_4g.bmp	0r_2g.bmp	0r_2g.bmp				0r_2g.bmp	TrialProc	TrialList	0	cvbn	-999999	16	141308	0	n	207	141515	68	-86	-18	-8	-14	4	0	7	3	22	0	0	0	0	4	4	2	2	0	2
Hungry_Donkey_bar_English_2	136	1	<?xml version="1.0"?>\n<Clock xmlns:dt="urn:schemas-microsoft-com:datatypes"><Description dt:dt="string">E-Prime Primary Realtime Clock</Description><StartTime><Timestamp dt:dt="int">0</Timestamp><DateUtc dt:dt="string">2016-04-05T22:28:32Z</DateUtc></StartTime><FrequencyChanges><FrequencyChange><Frequency dt:dt="r8">3507705</Frequency><Timestamp dt:dt="r8">22447006195</Timestamp><Current dt:dt="r8">0</Current><DateUtc dt:dt="string">2016-04-05T22:28:32Z</DateUtc></FrequencyChange></FrequencyChanges></Clock>\n	Hungry_Donkey_bar_English_2-136-1	60.018	125	1.0.0.18	1	972868701	Standard	2.0.10.353	2.0.10.353	04-05-2016		18:28:32	2.0.10.248	23	Bar50-50.bmp	45	4	?	10r_4g.bmp	0r_4g.bmp	2r_2g.bmp	0r_2g.bmp				0r_2g.bmp	TrialProc	TrialList	0	cvbn	-999999	16	143540	0	n	311	143851	70	-86	-16	-8	-14	4	2	2	3	23	-10	0	-2	0	4	4	2	2	0	2
Hungry_Donkey_bar_English_2	136	1	<?xml version="1.0"?>\n<Clock xmlns:dt="urn:schemas-microsoft-com:datatypes"><Description dt:dt="string">E-Prime Primary Realtime Clock</Description><StartTime><Timestamp dt:dt="int">0</Timestamp><DateUtc dt:dt="string">2016-04-05T22:28:32Z</DateUtc></StartTime><FrequencyChanges><FrequencyChange><Frequency dt:dt="r8">3507705</Frequency><Timestamp dt:dt="r8">22447006195</Timestamp><Current dt:dt="r8">0</Current><DateUtc dt:dt="string">2016-04-05T22:28:32Z</DateUtc></FrequencyChange></FrequencyChanges></Clock>\n	Hungry_Donkey_bar_English_2-136-1	60.018	125	1.0.0.18	1	972868701	Standard	2.0.10.353	2.0.10.353	04-05-2016		18:28:32	2.0.10.248	24	Bar50-50.bmp	46	4	?	0r_4g.bmp	0r_4g.bmp	0r_2g.bmp	0r_2g.bmp				0r_2g.bmp	TrialProc	TrialList	0	cvbn	-999999	16	145890	0	n	201	146091	72	-86	-14	-8	-14	4	4	10	3	24	0	0	0	0	4	4	2	2	0	2
Hungry_Donkey_bar_English_2	136	1	<?xml version="1.0"?>\n<Clock xmlns:dt="urn:schemas-microsoft-com:datatypes"><Description dt:dt="string">E-Prime Primary Realtime Clock</Description><StartTime><Timestamp dt:dt="int">0</Timestamp><DateUtc dt:dt="string">2016-04-05T22:28:32Z</DateUtc></StartTime><FrequencyChanges><FrequencyChange><Frequency dt:dt="r8">3507705</Frequency><Timestamp dt:dt="r8">22447006195</Timestamp><Current dt:dt="r8">0</Current><DateUtc dt:dt="string">2016-04-05T22:28:32Z</DateUtc></FrequencyChange></FrequencyChanges></Clock>\n	Hungry_Donkey_bar_English_2-136-1	60.018	125	1.0.0.18	1	972868701	Standard	2.0.10.353	2.0.10.353	04-05-2016		18:28:32	2.0.10.248	25	Bar50-50.bmp	46	4	?	10r_4g.bmp	0r_4g.bmp	2r_2g.bmp	0r_2g.bmp				0r_2g.bmp	TrialProc	TrialList	0	cvbn	-999999	16	148122	0	n	209	148331	74	-86	-12	-8	-14	4	6	3	3	25	-10	0	-2	0	4	4	2	2	0	2
Hungry_Donkey_bar_English_2	136	1	<?xml version="1.0"?>\n<Clock xmlns:dt="urn:schemas-microsoft-com:datatypes"><Description dt:dt="string">E-Prime Primary Realtime Clock</Description><StartTime><Timestamp dt:dt="int">0</Timestamp><DateUtc dt:dt="string">2016-04-05T22:28:32Z</DateUtc></StartTime><FrequencyChanges><FrequencyChange><Frequency dt:dt="r8">3507705</Frequency><Timestamp dt:dt="r8">22447006195</Timestamp><Current dt:dt="r8">0</Current><DateUtc dt:dt="string">2016-04-05T22:28:32Z</DateUtc></FrequencyChange></FrequencyChanges></Clock>\n	Hungry_Donkey_bar_English_2-136-1	60.018	125	1.0.0.18	1	972868701	Standard	2.0.10.353	2.0.10.353	04-05-2016		18:28:32	2.0.10.248	26	Bar50-50.bmp	47	4	?	0r_4g.bmp	0r_4g.bmp	0r_2g.bmp	0r_2g.bmp				0r_2g.bmp	TrialProc	TrialList	0	cvbn	-999999	16	150355	0	n	39	150394	76	-86	-10	-8	-14	4	8	9	3	26	0	0	0	0	4	4	2	2	0	2
Hungry_Donkey_bar_English_2	136	1	<?xml version="1.0"?>\n<Clock xmlns:dt="urn:schemas-microsoft-com:datatypes"><Description dt:dt="string">E-Prime Primary Realtime Clock</Description><StartTime><Timestamp dt:dt="int">0</Timestamp><DateUtc dt:dt="string">2016-04-05T22:28:32Z</DateUtc></StartTime><FrequencyChanges><FrequencyChange><Frequency dt:dt="r8">3507705</Frequency><Timestamp dt:dt="r8">22447006195</Timestamp><Current dt:dt="r8">0</Current><DateUtc dt:dt="string">2016-04-05T22:28:32Z</DateUtc></FrequencyChange></FrequencyChanges></Clock>\n	Hungry_Donkey_bar_English_2-136-1	60.018	125	1.0.0.18	1	972868701	Standard	2.0.10.353	2.0.10.353	04-05-2016		18:28:32	2.0.10.248	27	Bar50-50.bmp	48	4	?	0r_4g.bmp	0r_4g.bmp	0r_2g.bmp	0r_2g.bmp				0r_2g.bmp	TrialProc	TrialList	0	cvbn	-999999	16	152421	0	n	117	152538	78	-86	-8	-8	-14	4	10	6	3	27	0	0	0	0	4	4	2	2	0	2
Hungry_Donkey_bar_English_2	136	1	<?xml version="1.0"?>\n<Clock xmlns:dt="urn:schemas-microsoft-com:datatypes"><Description dt:dt="string">E-Prime Primary Realtime Clock</Description><StartTime><Timestamp dt:dt="int">0</Timestamp><DateUtc dt:dt="string">2016-04-05T22:28:32Z</DateUtc></StartTime><FrequencyChanges><FrequencyChange><Frequency dt:dt="r8">3507705</Frequency><Timestamp dt:dt="r8">22447006195</Timestamp><Current dt:dt="r8">0</Current><DateUtc dt:dt="string">2016-04-05T22:28:32Z</DateUtc></FrequencyChange></FrequencyChanges></Clock>\n	Hungry_Donkey_bar_English_2-136-1	60.018	125	1.0.0.18	1	972868701	Standard	2.0.10.353	2.0.10.353	04-05-2016		18:28:32	2.0.10.248	28	Bar50-50.bmp	48	4	?	12r_4g.bmp	0r_4g.bmp	3r_2g.bmp	0r_2g.bmp				0r_2g.bmp	TrialProc	TrialList	0	cvbn	-999999	17	154571	0	n	367	154938	80	-86	-6	-8	-14	4	12	5	3	28	-12	0	-3	0	4	4	2	2	0	2
Hungry_Donkey_bar_English_2	136	1	<?xml version="1.0"?>\n<Clock xmlns:dt="urn:schemas-microsoft-com:datatypes"><Description dt:dt="string">E-Prime Primary Realtime Clock</Description><StartTime><Timestamp dt:dt="int">0</Timestamp><DateUtc dt:dt="string">2016-04-05T22:28:32Z</DateUtc></StartTime><FrequencyChanges><FrequencyChange><Frequency dt:dt="r8">3507705</Frequency><Timestamp dt:dt="r8">22447006195</Timestamp><Current dt:dt="r8">0</Current><DateUtc dt:dt="string">2016-04-05T22:28:32Z</DateUtc></FrequencyChange></FrequencyChanges></Clock>\n	Hungry_Donkey_bar_English_2-136-1	60.018	125	1.0.0.18	1	972868701	Standard	2.0.10.353	2.0.10.353	04-05-2016		18:28:32	2.0.10.248	29	Bar50-50.bmp	46	4	?	8r_4g.bmp	50r_4g.bmp	1r_2g.bmp	10r_2g.bmp				10r_2g.bmp	TrialProc	TrialList	0	cvbn	-999999	16	156970	0	n	32	157002	82	-96	-14	-8	-14	4	4	1	3	29	-8	-50	-1	-10	4	4	2	2	-10	2
Hungry_Donkey_bar_English_2	136	1	<?xml version="1.0"?>\n<Clock xmlns:dt="urn:schemas-microsoft-com:datatypes"><Description dt:dt="string">E-Prime Primary Realtime Clock</Description><StartTime><Timestamp dt:dt="int">0</Timestamp><DateUtc dt:dt="string">2016-04-05T22:28:32Z</DateUtc></StartTime><FrequencyChanges><FrequencyChange><Frequency dt:dt="r8">3507705</Frequency><Timestamp dt:dt="r8">22447006195</Timestamp><Current dt:dt="r8">0</Current><DateUtc dt:dt="string">2016-04-05T22:28:32Z</DateUtc></FrequencyChange></FrequencyChanges></Clock>\n	Hungry_Donkey_bar_English_2-136-1	60.018	125	1.0.0.18	1	972868701	Standard	2.0.10.353	2.0.10.353	04-05-2016		18:28:32	2.0.10.248	30	Bar50-50.bmp	47	2	?	0r_4g.bmp	0r_4g.bmp	0r_2g.bmp	0r_2g.bmp		0r_4g.bmp			TrialProc	TrialList	0	cvbn	-999999	16	159036	0	v	1854	160890	86	-96	-10	-8	-10	4	4	8	3	30	0	0	0	0	4	4	2	2	0	4
Hungry_Donkey_bar_English_2	136	1	<?xml version="1.0"?>\n<Clock xmlns:dt="urn:schemas-microsoft-com:datatypes"><Description dt:dt="string">E-Prime Primary Realtime Clock</Description><StartTime><Timestamp dt:dt="int">0</Timestamp><DateUtc dt:dt="string">2016-04-05T22:28:32Z</DateUtc></StartTime><FrequencyChanges><FrequencyChange><Frequency dt:dt="r8">3507705</Frequency><Timestamp dt:dt="r8">22447006195</Timestamp><Current dt:dt="r8">0</Current><DateUtc dt:dt="string">2016-04-05T22:28:32Z</DateUtc></FrequencyChange></FrequencyChanges></Clock>\n	Hungry_Donkey_bar_English_2-136-1	60.018	125	1.0.0.18	1	972868701	Standard	2.0.10.353	2.0.10.353	04-05-2016		18:28:32	2.0.10.248	31	Bar50-50.bmp	48	3	?	0r_4g.bmp	0r_4g.bmp	0r_2g.bmp	0r_2g.bmp			0r_2g.bmp		TrialProc	TrialList	0	cvbn	-999999	16	162918	0	b	852	163770	88	-96	-8	-8	-10	6	4	6	4	31	0	0	0	0	4	4	2	2	0	2
Hungry_Donkey_bar_English_2	136	1	<?xml version="1.0"?>\n<Clock xmlns:dt="urn:schemas-microsoft-com:datatypes"><Description dt:dt="string">E-Prime Primary Realtime Clock</Description><StartTime><Timestamp dt:dt="int">0</Timestamp><DateUtc dt:dt="string">2016-04-05T22:28:32Z</DateUtc></StartTime><FrequencyChanges><FrequencyChange><Frequency dt:dt="r8">3507705</Frequency><Timestamp dt:dt="r8">22447006195</Timestamp><Current dt:dt="r8">0</Current><DateUtc dt:dt="string">2016-04-05T22:28:32Z</DateUtc></FrequencyChange></FrequencyChanges></Clock>\n	Hungry_Donkey_bar_English_2-136-1	60.018	125	1.0.0.18	1	972868701	Standard	2.0.10.353	2.0.10.353	04-05-2016		18:28:32	2.0.10.248	32	Bar50-50.bmp	49	1	?	0r_4g.bmp	0r_4g.bmp	0r_2g.bmp	0r_2g.bmp	0r_4g.bmp				TrialProc	TrialList	0	cvbn	-999999	17	165801	0	c	832	166633	92	-96	-4	-4	-10	6	4	8	4	32	0	0	0	0	4	4	2	2	0	4
Hungry_Donkey_bar_English_2	136	1	<?xml version="1.0"?>\n<Clock xmlns:dt="urn:schemas-microsoft-com:datatypes"><Description dt:dt="string">E-Prime Primary Realtime Clock</Description><StartTime><Timestamp dt:dt="int">0</Timestamp><DateUtc dt:dt="string">2016-04-05T22:28:32Z</DateUtc></StartTime><FrequencyChanges><FrequencyChange><Frequency dt:dt="r8">3507705</Frequency><Timestamp dt:dt="r8">22447006195</Timestamp><Current dt:dt="r8">0</Current><DateUtc dt:dt="string">2016-04-05T22:28:32Z</DateUtc></FrequencyChange></FrequencyChanges></Clock>\n	Hungry_Donkey_bar_English_2-136-1	60.018	125	1.0.0.18	1	972868701	Standard	2.0.10.353	2.0.10.353	04-05-2016		18:28:32	2.0.10.248	33	Bar50-50.bmp	49	3	?	10r_4g.bmp	0r_4g.bmp	2r_2g.bmp	0r_2g.bmp			2r_2g.bmp		TrialProc	TrialList	0	cvbn	-999999	16	168666	0	b	463	169129	94	-98	-4	-4	-10	6	4	3	4	33	-10	0	-2	0	4	4	2	2	-2	2
Hungry_Donkey_bar_English_2	136	1	<?xml version="1.0"?>\n<Clock xmlns:dt="urn:schemas-microsoft-com:datatypes"><Description dt:dt="string">E-Prime Primary Realtime Clock</Description><StartTime><Timestamp dt:dt="int">0</Timestamp><DateUtc dt:dt="string">2016-04-05T22:28:32Z</DateUtc></StartTime><FrequencyChanges><FrequencyChange><Frequency dt:dt="r8">3507705</Frequency><Timestamp dt:dt="r8">22447006195</Timestamp><Current dt:dt="r8">0</Current><DateUtc dt:dt="string">2016-04-05T22:28:32Z</DateUtc></FrequencyChange></FrequencyChanges></Clock>\n	Hungry_Donkey_bar_English_2-136-1	60.018	125	1.0.0.18	1	972868701	Standard	2.0.10.353	2.0.10.353	04-05-2016		18:28:32	2.0.10.248	34	Bar50-50.bmp	50	2	?	10r_4g.bmp	0r_4g.bmp	2r_2g.bmp	0r_2g.bmp		0r_4g.bmp			TrialProc	TrialList	0	cvbn	-999999	16	171166	0	v	683	171849	98	-98	0	-4	-6	6	4	4	4	34	-10	0	-2	0	4	4	2	2	0	4
Hungry_Donkey_bar_English_2	136	1	<?xml version="1.0"?>\n<Clock xmlns:dt="urn:schemas-microsoft-com:datatypes"><Description dt:dt="string">E-Prime Primary Realtime Clock</Description><StartTime><Timestamp dt:dt="int">0</Timestamp><DateUtc dt:dt="string">2016-04-05T22:28:32Z</DateUtc></StartTime><FrequencyChanges><FrequencyChange><Frequency dt:dt="r8">3507705</Frequency><Timestamp dt:dt="r8">22447006195</Timestamp><Current dt:dt="r8">0</Current><DateUtc dt:dt="string">2016-04-05T22:28:32Z</DateUtc></FrequencyChange></FrequencyChanges></Clock>\n	Hungry_Donkey_bar_English_2-136-1	60.018	125	1.0.0.18	1	972868701	Standard	2.0.10.353	2.0.10.353	04-05-2016		18:28:32	2.0.10.248	35	Bar50-50.bmp	51	4	?	10r_4g.bmp	0r_4g.bmp	2r_2g.bmp	0r_2g.bmp				0r_2g.bmp	TrialProc	TrialList	0	cvbn	-999999	17	173882	0	n	1167	175049	100	-98	2	-4	-6	6	6	2	4	35	-10	0	-2	0	4	4	2	2	0	2
Hungry_Donkey_bar_English_2	136	1	<?xml version="1.0"?>\n<Clock xmlns:dt="urn:schemas-microsoft-com:datatypes"><Description dt:dt="string">E-Prime Primary Realtime Clock</Description><StartTime><Timestamp dt:dt="int">0</Timestamp><DateUtc dt:dt="string">2016-04-05T22:28:32Z</DateUtc></StartTime><FrequencyChanges><FrequencyChange><Frequency dt:dt="r8">3507705</Frequency><Timestamp dt:dt="r8">22447006195</Timestamp><Current dt:dt="r8">0</Current><DateUtc dt:dt="string">2016-04-05T22:28:32Z</DateUtc></FrequencyChange></FrequencyChanges></Clock>\n	Hungry_Donkey_bar_English_2-136-1	60.018	125	1.0.0.18	1	972868701	Standard	2.0.10.353	2.0.10.353	04-05-2016		18:28:32	2.0.10.248	36	Bar50-50.bmp	51	4	?	12r_4g.bmp	0r_4g.bmp	3r_2g.bmp	0r_2g.bmp				0r_2g.bmp	TrialProc	TrialList	0	cvbn	-999999	17	177081	0	n	368	177449	102	-98	4	-4	-6	6	8	5	4	36	-12	0	-3	0	4	4	2	2	0	2
Hungry_Donkey_bar_English_2	136	1	<?xml version="1.0"?>\n<Clock xmlns:dt="urn:schemas-microsoft-com:datatypes"><Description dt:dt="string">E-Prime Primary Realtime Clock</Description><StartTime><Timestamp dt:dt="int">0</Timestamp><DateUtc dt:dt="string">2016-04-05T22:28:32Z</DateUtc></StartTime><FrequencyChanges><FrequencyChange><Frequency dt:dt="r8">3507705</Frequency><Timestamp dt:dt="r8">22447006195</Timestamp><Current dt:dt="r8">0</Current><DateUtc dt:dt="string">2016-04-05T22:28:32Z</DateUtc></FrequencyChange></FrequencyChanges></Clock>\n	Hungry_Donkey_bar_English_2-136-1	60.018	125	1.0.0.18	1	972868701	Standard	2.0.10.353	2.0.10.353	04-05-2016		18:28:32	2.0.10.248	37	Bar50-50.bmp	51	4	?	0r_4g.bmp	0r_4g.bmp	0r_2g.bmp	0r_2g.bmp				0r_2g.bmp	TrialProc	TrialList	0	cvbn	-999999	16	179480	0	n	593	180073	104	-98	6	-4	-6	6	10	9	4	37	0	0	0	0	4	4	2	2	0	2
Hungry_Donkey_bar_English_2	136	1	<?xml version="1.0"?>\n<Clock xmlns:dt="urn:schemas-microsoft-com:datatypes"><Description dt:dt="string">E-Prime Primary Realtime Clock</Description><StartTime><Timestamp dt:dt="int">0</Timestamp><DateUtc dt:dt="string">2016-04-05T22:28:32Z</DateUtc></StartTime><FrequencyChanges><FrequencyChange><Frequency dt:dt="r8">3507705</Frequency><Timestamp dt:dt="r8">22447006195</Timestamp><Current dt:dt="r8">0</Current><DateUtc dt:dt="string">2016-04-05T22:28:32Z</DateUtc></FrequencyChange></FrequencyChanges></Clock>\n	Hungry_Donkey_bar_English_2-136-1	60.018	125	1.0.0.18	1	972868701	Standard	2.0.10.353	2.0.10.353	04-05-2016		18:28:32	2.0.10.248	38	Bar50-50.bmp	50	4	?	8r_4g.bmp	50r_4g.bmp	1r_2g.bmp	10r_2g.bmp				10r_2g.bmp	TrialProc	TrialList	0	cvbn	-999999	16	182112	0	n	345	182457	106	-108	-2	-4	-6	6	2	1	4	38	-8	-50	-1	-10	4	4	2	2	-10	2
Hungry_Donkey_bar_English_2	136	1	<?xml version="1.0"?>\n<Clock xmlns:dt="urn:schemas-microsoft-com:datatypes"><Description dt:dt="string">E-Prime Primary Realtime Clock</Description><StartTime><Timestamp dt:dt="int">0</Timestamp><DateUtc dt:dt="string">2016-04-05T22:28:32Z</DateUtc></StartTime><FrequencyChanges><FrequencyChange><Frequency dt:dt="r8">3507705</Frequency><Timestamp dt:dt="r8">22447006195</Timestamp><Current dt:dt="r8">0</Current><DateUtc dt:dt="string">2016-04-05T22:28:32Z</DateUtc></FrequencyChange></FrequencyChanges></Clock>\n	Hungry_Donkey_bar_English_2-136-1	60.018	125	1.0.0.18	1	972868701	Standard	2.0.10.353	2.0.10.353	04-05-2016		18:28:32	2.0.10.248	39	Bar50-50.bmp	50	2	?	0r_4g.bmp	0r_4g.bmp	0r_2g.bmp	0r_2g.bmp		0r_4g.bmp			TrialProc	TrialList	0	cvbn	-999999	16	184495	0	v	1449	185944	110	-108	2	-4	-2	6	2	7	4	39	0	0	0	0	4	4	2	2	0	4
Hungry_Donkey_bar_English_2	136	1	<?xml version="1.0"?>\n<Clock xmlns:dt="urn:schemas-microsoft-com:datatypes"><Description dt:dt="string">E-Prime Primary Realtime Clock</Description><StartTime><Timestamp dt:dt="int">0</Timestamp><DateUtc dt:dt="string">2016-04-05T22:28:32Z</DateUtc></StartTime><FrequencyChanges><FrequencyChange><Frequency dt:dt="r8">3507705</Frequency><Timestamp dt:dt="r8">22447006195</Timestamp><Current dt:dt="r8">0</Current><DateUtc dt:dt="string">2016-04-05T22:28:32Z</DateUtc></FrequencyChange></FrequencyChanges></Clock>\n	Hungry_Donkey_bar_English_2-136-1	60.018	125	1.0.0.18	1	972868701	Standard	2.0.10.353	2.0.10.353	04-05-2016		18:28:32	2.0.10.248	40	Bar50-50.bmp	51	2	?	0r_4g.bmp	0r_4g.bmp	0r_2g.bmp	0r_2g.bmp		0r_4g.bmp			TrialProc	TrialList	0	cvbn	-999999	16	187977	0	v	351	188328	114	-108	6	-4	2	6	2	10	4	40	0	0	0	0	4	4	2	2	0	4
Hungry_Donkey_bar_English_2	136	1	<?xml version="1.0"?>\n<Clock xmlns:dt="urn:schemas-microsoft-com:datatypes"><Description dt:dt="string">E-Prime Primary Realtime Clock</Description><StartTime><Timestamp dt:dt="int">0</Timestamp><DateUtc dt:dt="string">2016-04-05T22:28:32Z</DateUtc></StartTime><FrequencyChanges><FrequencyChange><Frequency dt:dt="r8">3507705</Frequency><Timestamp dt:dt="r8">22447006195</Timestamp><Current dt:dt="r8">0</Current><DateUtc dt:dt="string">2016-04-05T22:28:32Z</DateUtc></FrequencyChange></FrequencyChanges></Clock>\n	Hungry_Donkey_bar_English_2-136-1	60.018	125	1.0.0.18	1	972868701	Standard	2.0.10.353	2.0.10.353	04-05-2016		18:28:32	2.0.10.248	41	Bar50-50.bmp	52	3	?	0r_4g.bmp	0r_4g.bmp	0r_2g.bmp	0r_2g.bmp			0r_2g.bmp		TrialProc	TrialList	0	cvbn	-999999	16	190360	0	b	448	190808	116	-108	8	-4	2	8	2	8	5	41	0	0	0	0	4	4	2	2	0	2
Hungry_Donkey_bar_English_2	136	1	<?xml version="1.0"?>\n<Clock xmlns:dt="urn:schemas-microsoft-com:datatypes"><Description dt:dt="string">E-Prime Primary Realtime Clock</Description><StartTime><Timestamp dt:dt="int">0</Timestamp><DateUtc dt:dt="string">2016-04-05T22:28:32Z</DateUtc></StartTime><FrequencyChanges><FrequencyChange><Frequency dt:dt="r8">3507705</Frequency><Timestamp dt:dt="r8">22447006195</Timestamp><Current dt:dt="r8">0</Current><DateUtc dt:dt="string">2016-04-05T22:28:32Z</DateUtc></FrequencyChange></FrequencyChanges></Clock>\n	Hungry_Donkey_bar_English_2-136-1	60.018	125	1.0.0.18	1	972868701	Standard	2.0.10.353	2.0.10.353	04-05-2016		18:28:32	2.0.10.248	42	Bar50-50.bmp	53	2	?	10r_4g.bmp	0r_4g.bmp	2r_2g.bmp	0r_2g.bmp		0r_4g.bmp			TrialProc	TrialList	0	cvbn	-999999	16	192843	0	v	397	193240	120	-108	12	-4	6	8	2	4	5	42	-10	0	-2	0	4	4	2	2	0	4
Hungry_Donkey_bar_English_2	136	1	<?xml version="1.0"?>\n<Clock xmlns:dt="urn:schemas-microsoft-com:datatypes"><Description dt:dt="string">E-Prime Primary Realtime Clock</Description><StartTime><Timestamp dt:dt="int">0</Timestamp><DateUtc dt:dt="string">2016-04-05T22:28:32Z</DateUtc></StartTime><FrequencyChanges><FrequencyChange><Frequency dt:dt="r8">3507705</Frequency><Timestamp dt:dt="r8">22447006195</Timestamp><Current dt:dt="r8">0</Current><DateUtc dt:dt="string">2016-04-05T22:28:32Z</DateUtc></FrequencyChange></FrequencyChanges></Clock>\n	Hungry_Donkey_bar_English_2-136-1	60.018	125	1.0.0.18	1	972868701	Standard	2.0.10.353	2.0.10.353	04-05-2016		18:28:32	2.0.10.248	43	Bar50-50.bmp	53	3	?	0r_4g.bmp	0r_4g.bmp	0r_2g.bmp	0r_2g.bmp			0r_2g.bmp		TrialProc	TrialList	0	cvbn	-999999	16	195275	0	b	141	195416	122	-108	14	-4	6	10	2	9	5	43	0	0	0	0	4	4	2	2	0	2
Hungry_Donkey_bar_English_2	136	1	<?xml version="1.0"?>\n<Clock xmlns:dt="urn:schemas-microsoft-com:datatypes"><Description dt:dt="string">E-Prime Primary Realtime Clock</Description><StartTime><Timestamp dt:dt="int">0</Timestamp><DateUtc dt:dt="string">2016-04-05T22:28:32Z</DateUtc></StartTime><FrequencyChanges><FrequencyChange><Frequency dt:dt="r8">3507705</Frequency><Timestamp dt:dt="r8">22447006195</Timestamp><Current dt:dt="r8">0</Current><DateUtc dt:dt="string">2016-04-05T22:28:32Z</DateUtc></FrequencyChange></FrequencyChanges></Clock>\n	Hungry_Donkey_bar_English_2-136-1	60.018	125	1.0.0.18	1	972868701	Standard	2.0.10.353	2.0.10.353	04-05-2016		18:28:32	2.0.10.248	44	Bar50-50.bmp	54	2	?	10r_4g.bmp	0r_4g.bmp	2r_2g.bmp	0r_2g.bmp		0r_4g.bmp			TrialProc	TrialList	0	cvbn	-999999	15	197441	0	v	247	197688	126	-108	18	-4	10	10	2	2	5	44	-10	0	-2	0	4	4	2	2	0	4
Hungry_Donkey_bar_English_2	136	1	<?xml version="1.0"?>\n<Clock xmlns:dt="urn:schemas-microsoft-com:datatypes"><Description dt:dt="string">E-Prime Primary Realtime Clock</Description><StartTime><Timestamp dt:dt="int">0</Timestamp><DateUtc dt:dt="string">2016-04-05T22:28:32Z</DateUtc></StartTime><FrequencyChanges><FrequencyChange><Frequency dt:dt="r8">3507705</Frequency><Timestamp dt:dt="r8">22447006195</Timestamp><Current dt:dt="r8">0</Current><DateUtc dt:dt="string">2016-04-05T22:28:32Z</DateUtc></FrequencyChange></FrequencyChanges></Clock>\n	Hungry_Donkey_bar_English_2-136-1	60.018	125	1.0.0.18	1	972868701	Standard	2.0.10.353	2.0.10.353	04-05-2016		18:28:32	2.0.10.248	45	Bar50-50.bmp	54	3	?	0r_4g.bmp	0r_4g.bmp	0r_2g.bmp	0r_2g.bmp			0r_2g.bmp		TrialProc	TrialList	0	cvbn	-999999	16	199724	0	b	236	199960	128	-108	20	-4	10	12	2	7	5	45	0	0	0	0	4	4	2	2	0	2
Hungry_Donkey_bar_English_2	136	1	<?xml version="1.0"?>\n<Clock xmlns:dt="urn:schemas-microsoft-com:datatypes"><Description dt:dt="string">E-Prime Primary Realtime Clock</Description><StartTime><Timestamp dt:dt="int">0</Timestamp><DateUtc dt:dt="string">2016-04-05T22:28:32Z</DateUtc></StartTime><FrequencyChanges><FrequencyChange><Frequency dt:dt="r8">3507705</Frequency><Timestamp dt:dt="r8">22447006195</Timestamp><Current dt:dt="r8">0</Current><DateUtc dt:dt="string">2016-04-05T22:28:32Z</DateUtc></FrequencyChange></FrequencyChanges></Clock>\n	Hungry_Donkey_bar_English_2-136-1	60.018	125	1.0.0.18	1	972868701	Standard	2.0.10.353	2.0.10.353	04-05-2016		18:28:32	2.0.10.248	46	Bar50-50.bmp	54	3	?	8r_4g.bmp	50r_4g.bmp	1r_2g.bmp	10r_2g.bmp			1r_2g.bmp		TrialProc	TrialList	0	cvbn	-999999	16	201990	0	b	481	202471	130	-109	21	-4	10	13	2	1	5	46	-8	-50	-1	-10	4	4	2	2	-1	2
Hungry_Donkey_bar_English_2	136	1	<?xml version="1.0"?>\n<Clock xmlns:dt="urn:schemas-microsoft-com:datatypes"><Description dt:dt="string">E-Prime Primary Realtime Clock</Description><StartTime><Timestamp dt:dt="int">0</Timestamp><DateUtc dt:dt="string">2016-04-05T22:28:32Z</DateUtc></StartTime><FrequencyChanges><FrequencyChange><Frequency dt:dt="r8">3507705</Frequency><Timestamp dt:dt="r8">22447006195</Timestamp><Current dt:dt="r8">0</Current><DateUtc dt:dt="string">2016-04-05T22:28:32Z</DateUtc></FrequencyChange></FrequencyChanges></Clock>\n	Hungry_Donkey_bar_English_2-136-1	60.018	125	1.0.0.18	1	972868701	Standard	2.0.10.353	2.0.10.353	04-05-2016		18:28:32	2.0.10.248	47	Bar50-50.bmp	55	1	?	0r_4g.bmp	0r_4g.bmp	0r_2g.bmp	0r_2g.bmp	0r_4g.bmp				TrialProc	TrialList	0	cvbn	-999999	16	204506	0	c	1373	205879	134	-109	25	0	10	13	2	10	5	47	0	0	0	0	4	4	2	2	0	4
Hungry_Donkey_bar_English_2	136	1	<?xml version="1.0"?>\n<Clock xmlns:dt="urn:schemas-microsoft-com:datatypes"><Description dt:dt="string">E-Prime Primary Realtime Clock</Description><StartTime><Timestamp dt:dt="int">0</Timestamp><DateUtc dt:dt="string">2016-04-05T22:28:32Z</DateUtc></StartTime><FrequencyChanges><FrequencyChange><Frequency dt:dt="r8">3507705</Frequency><Timestamp dt:dt="r8">22447006195</Timestamp><Current dt:dt="r8">0</Current><DateUtc dt:dt="string">2016-04-05T22:28:32Z</DateUtc></FrequencyChange></FrequencyChanges></Clock>\n	Hungry_Donkey_bar_English_2-136-1	60.018	125	1.0.0.18	1	972868701	Standard	2.0.10.353	2.0.10.353	04-05-2016		18:28:32	2.0.10.248	48	Bar50-50.bmp	53	1	?	12r_4g.bmp	0r_4g.bmp	3r_2g.bmp	0r_2g.bmp	12r_4g.bmp				TrialProc	TrialList	0	cvbn	-999999	16	207905	0	c	438	208343	138	-121	17	-8	10	13	2	5	5	48	-12	0	-3	0	4	4	2	2	-12	4
Hungry_Donkey_bar_English_2	136	1	<?xml version="1.0"?>\n<Clock xmlns:dt="urn:schemas-microsoft-com:datatypes"><Description dt:dt="string">E-Prime Primary Realtime Clock</Description><StartTime><Timestamp dt:dt="int">0</Timestamp><DateUtc dt:dt="string">2016-04-05T22:28:32Z</DateUtc></StartTime><FrequencyChanges><FrequencyChange><Frequency dt:dt="r8">3507705</Frequency><Timestamp dt:dt="r8">22447006195</Timestamp><Current dt:dt="r8">0</Current><DateUtc dt:dt="string">2016-04-05T22:28:32Z</DateUtc></FrequencyChange></FrequencyChanges></Clock>\n	Hungry_Donkey_bar_English_2-136-1	60.018	125	1.0.0.18	1	972868701	Standard	2.0.10.353	2.0.10.353	04-05-2016		18:28:32	2.0.10.248	49	Bar50-50.bmp	54	2	?	10r_4g.bmp	0r_4g.bmp	2r_2g.bmp	0r_2g.bmp		0r_4g.bmp			TrialProc	TrialList	0	cvbn	-999999	16	210387	0	v	884	211271	142	-121	21	-8	14	13	2	3	5	49	-10	0	-2	0	4	4	2	2	0	4
Hungry_Donkey_bar_English_2	136	1	<?xml version="1.0"?>\n<Clock xmlns:dt="urn:schemas-microsoft-com:datatypes"><Description dt:dt="string">E-Prime Primary Realtime Clock</Description><StartTime><Timestamp dt:dt="int">0</Timestamp><DateUtc dt:dt="string">2016-04-05T22:28:32Z</DateUtc></StartTime><FrequencyChanges><FrequencyChange><Frequency dt:dt="r8">3507705</Frequency><Timestamp dt:dt="r8">22447006195</Timestamp><Current dt:dt="r8">0</Current><DateUtc dt:dt="string">2016-04-05T22:28:32Z</DateUtc></FrequencyChange></FrequencyChanges></Clock>\n	Hungry_Donkey_bar_English_2-136-1	60.018	125	1.0.0.18	1	972868701	Standard	2.0.10.353	2.0.10.353	04-05-2016		18:28:32	2.0.10.248	50	Bar50-50.bmp	55	2	?	0r_4g.bmp	0r_4g.bmp	0r_2g.bmp	0r_2g.bmp		0r_4g.bmp			TrialProc	TrialList	0	cvbn	-999999	16	213303	0	v	576	213879	146	-121	25	-8	18	13	2	6	5	50	0	0	0	0	4	4	2	2	0	4
Hungry_Donkey_bar_English_2	136	1	<?xml version="1.0"?>\n<Clock xmlns:dt="urn:schemas-microsoft-com:datatypes"><Description dt:dt="string">E-Prime Primary Realtime Clock</Description><StartTime><Timestamp dt:dt="int">0</Timestamp><DateUtc dt:dt="string">2016-04-05T22:28:32Z</DateUtc></StartTime><FrequencyChanges><FrequencyChange><Frequency dt:dt="r8">3507705</Frequency><Timestamp dt:dt="r8">22447006195</Timestamp><Current dt:dt="r8">0</Current><DateUtc dt:dt="string">2016-04-05T22:28:32Z</DateUtc></FrequencyChange></FrequencyChanges></Clock>\n	Hungry_Donkey_bar_English_2-136-1	60.018	125	1.0.0.18	1	972868701	Standard	2.0.10.353	2.0.10.353	04-05-2016		18:28:32	2.0.10.248	51	Bar50-50.bmp	55	3	?	0r_4g.bmp	0r_4g.bmp	0r_2g.bmp	0r_2g.bmp			0r_2g.bmp		TrialProc	TrialList	0	cvbn	-999999	16	215919	0	b	440	216359	148	-121	27	-8	18	15	2	8	6	51	0	0	0	0	4	4	2	2	0	2
Hungry_Donkey_bar_English_2	136	1	<?xml version="1.0"?>\n<Clock xmlns:dt="urn:schemas-microsoft-com:datatypes"><Description dt:dt="string">E-Prime Primary Realtime Clock</Description><StartTime><Timestamp dt:dt="int">0</Timestamp><DateUtc dt:dt="string">2016-04-05T22:28:32Z</DateUtc></StartTime><FrequencyChanges><FrequencyChange><Frequency dt:dt="r8">3507705</Frequency><Timestamp dt:dt="r8">22447006195</Timestamp><Current dt:dt="r8">0</Current><DateUtc dt:dt="string">2016-04-05T22:28:32Z</DateUtc></FrequencyChange></FrequencyChanges></Clock>\n	Hungry_Donkey_bar_English_2-136-1	60.018	125	1.0.0.18	1	972868701	Standard	2.0.10.353	2.0.10.353	04-05-2016		18:28:32	2.0.10.248	52	Bar50-50.bmp	55	3	?	0r_4g.bmp	0r_4g.bmp	0r_2g.bmp	0r_2g.bmp			0r_2g.bmp		TrialProc	TrialList	0	cvbn	-999999	16	218385	0	b	486	218871	150	-121	29	-8	18	17	2	10	6	52	0	0	0	0	4	4	2	2	0	2
Hungry_Donkey_bar_English_2	136	1	<?xml version="1.0"?>\n<Clock xmlns:dt="urn:schemas-microsoft-com:datatypes"><Description dt:dt="string">E-Prime Primary Realtime Clock</Description><StartTime><Timestamp dt:dt="int">0</Timestamp><DateUtc dt:dt="string">2016-04-05T22:28:32Z</DateUtc></StartTime><FrequencyChanges><FrequencyChange><Frequency dt:dt="r8">3507705</Frequency><Timestamp dt:dt="r8">22447006195</Timestamp><Current dt:dt="r8">0</Current><DateUtc dt:dt="string">2016-04-05T22:28:32Z</DateUtc></FrequencyChange></FrequencyChanges></Clock>\n	Hungry_Donkey_bar_English_2-136-1	60.018	125	1.0.0.18	1	972868701	Standard	2.0.10.353	2.0.10.353	04-05-2016		18:28:32	2.0.10.248	53	Bar50-50.bmp	55	3	?	10r_4g.bmp	0r_4g.bmp	2r_2g.bmp	0r_2g.bmp			2r_2g.bmp		TrialProc	TrialList	0	cvbn	-999999	16	220901	0	b	353	221254	152	-123	29	-8	18	17	2	2	6	53	-10	0	-2	0	4	4	2	2	-2	2
Hungry_Donkey_bar_English_2	136	1	<?xml version="1.0"?>\n<Clock xmlns:dt="urn:schemas-microsoft-com:datatypes"><Description dt:dt="string">E-Prime Primary Realtime Clock</Description><StartTime><Timestamp dt:dt="int">0</Timestamp><DateUtc dt:dt="string">2016-04-05T22:28:32Z</DateUtc></StartTime><FrequencyChanges><FrequencyChange><Frequency dt:dt="r8">3507705</Frequency><Timestamp dt:dt="r8">22447006195</Timestamp><Current dt:dt="r8">0</Current><DateUtc dt:dt="string">2016-04-05T22:28:32Z</DateUtc></FrequencyChange></FrequencyChanges></Clock>\n	Hungry_Donkey_bar_English_2-136-1	60.018	125	1.0.0.18	1	972868701	Standard	2.0.10.353	2.0.10.353	04-05-2016		18:28:32	2.0.10.248	54	Bar50-50.bmp	56	4	?	10r_4g.bmp	0r_4g.bmp	2r_2g.bmp	0r_2g.bmp				0r_2g.bmp	TrialProc	TrialList	0	cvbn	-999999	16	223284	0	n	962	224246	154	-123	31	-8	18	17	4	3	6	54	-10	0	-2	0	4	4	2	2	0	2
Hungry_Donkey_bar_English_2	136	1	<?xml version="1.0"?>\n<Clock xmlns:dt="urn:schemas-microsoft-com:datatypes"><Description dt:dt="string">E-Prime Primary Realtime Clock</Description><StartTime><Timestamp dt:dt="int">0</Timestamp><DateUtc dt:dt="string">2016-04-05T22:28:32Z</DateUtc></StartTime><FrequencyChanges><FrequencyChange><Frequency dt:dt="r8">3507705</Frequency><Timestamp dt:dt="r8">22447006195</Timestamp><Current dt:dt="r8">0</Current><DateUtc dt:dt="string">2016-04-05T22:28:32Z</DateUtc></FrequencyChange></FrequencyChanges></Clock>\n	Hungry_Donkey_bar_English_2-136-1	60.018	125	1.0.0.18	1	972868701	Standard	2.0.10.353	2.0.10.353	04-05-2016		18:28:32	2.0.10.248	55	Bar50-50.bmp	56	4	?	12r_4g.bmp	0r_4g.bmp	3r_2g.bmp	0r_2g.bmp				0r_2g.bmp	TrialProc	TrialList	0	cvbn	-999999	16	226283	0	n	331	226614	156	-123	33	-8	18	17	6	5	6	55	-12	0	-3	0	4	4	2	2	0	2
Hungry_Donkey_bar_English_2	136	1	<?xml version="1.0"?>\n<Clock xmlns:dt="urn:schemas-microsoft-com:datatypes"><Description dt:dt="string">E-Prime Primary Realtime Clock</Description><StartTime><Timestamp dt:dt="int">0</Timestamp><DateUtc dt:dt="string">2016-04-05T22:28:32Z</DateUtc></StartTime><FrequencyChanges><FrequencyChange><Frequency dt:dt="r8">3507705</Frequency><Timestamp dt:dt="r8">22447006195</Timestamp><Current dt:dt="r8">0</Current><DateUtc dt:dt="string">2016-04-05T22:28:32Z</DateUtc></FrequencyChange></FrequencyChanges></Clock>\n	Hungry_Donkey_bar_English_2-136-1	60.018	125	1.0.0.18	1	972868701	Standard	2.0.10.353	2.0.10.353	04-05-2016		18:28:32	2.0.10.248	56	Bar50-50.bmp	54	4	?	8r_4g.bmp	50r_4g.bmp	1r_2g.bmp	10r_2g.bmp				10r_2g.bmp	TrialProc	TrialList	0	cvbn	-999999	16	228649	0	n	365	229014	158	-133	25	-8	18	17	-2	1	6	56	-8	-50	-1	-10	4	4	2	2	-10	2
Hungry_Donkey_bar_English_2	136	1	<?xml version="1.0"?>\n<Clock xmlns:dt="urn:schemas-microsoft-com:datatypes"><Description dt:dt="string">E-Prime Primary Realtime Clock</Description><StartTime><Timestamp dt:dt="int">0</Timestamp><DateUtc dt:dt="string">2016-04-05T22:28:32Z</DateUtc></StartTime><FrequencyChanges><FrequencyChange><Frequency dt:dt="r8">3507705</Frequency><Timestamp dt:dt="r8">22447006195</Timestamp><Current dt:dt="r8">0</Current><DateUtc dt:dt="string">2016-04-05T22:28:32Z</DateUtc></FrequencyChange></FrequencyChanges></Clock>\n	Hungry_Donkey_bar_English_2-136-1	60.018	125	1.0.0.18	1	972868701	Standard	2.0.10.353	2.0.10.353	04-05-2016		18:28:32	2.0.10.248	57	Bar50-50.bmp	55	1	?	0r_4g.bmp	0r_4g.bmp	0r_2g.bmp	0r_2g.bmp	0r_4g.bmp				TrialProc	TrialList	0	cvbn	-999999	16	231048	0	c	1102	232150	162	-133	29	-4	18	17	-2	7	6	57	0	0	0	0	4	4	2	2	0	4
Hungry_Donkey_bar_English_2	136	1	<?xml version="1.0"?>\n<Clock xmlns:dt="urn:schemas-microsoft-com:datatypes"><Description dt:dt="string">E-Prime Primary Realtime Clock</Description><StartTime><Timestamp dt:dt="int">0</Timestamp><DateUtc dt:dt="string">2016-04-05T22:28:32Z</DateUtc></StartTime><FrequencyChanges><FrequencyChange><Frequency dt:dt="r8">3507705</Frequency><Timestamp dt:dt="r8">22447006195</Timestamp><Current dt:dt="r8">0</Current><DateUtc dt:dt="string">2016-04-05T22:28:32Z</DateUtc></FrequencyChange></FrequencyChanges></Clock>\n	Hungry_Donkey_bar_English_2-136-1	60.018	125	1.0.0.18	1	972868701	Standard	2.0.10.353	2.0.10.353	04-05-2016		18:28:32	2.0.10.248	58	Bar50-50.bmp	56	2	?	0r_4g.bmp	0r_4g.bmp	0r_2g.bmp	0r_2g.bmp		0r_4g.bmp			TrialProc	TrialList	0	cvbn	-999999	16	234180	0	v	1074	235254	166	-133	33	-4	22	17	-2	6	6	58	0	0	0	0	4	4	2	2	0	4
Hungry_Donkey_bar_English_2	136	1	<?xml version="1.0"?>\n<Clock xmlns:dt="urn:schemas-microsoft-com:datatypes"><Description dt:dt="string">E-Prime Primary Realtime Clock</Description><StartTime><Timestamp dt:dt="int">0</Timestamp><DateUtc dt:dt="string">2016-04-05T22:28:32Z</DateUtc></StartTime><FrequencyChanges><FrequencyChange><Frequency dt:dt="r8">3507705</Frequency><Timestamp dt:dt="r8">22447006195</Timestamp><Current dt:dt="r8">0</Current><DateUtc dt:dt="string">2016-04-05T22:28:32Z</DateUtc></FrequencyChange></FrequencyChanges></Clock>\n	Hungry_Donkey_bar_English_2-136-1	60.018	125	1.0.0.18	1	972868701	Standard	2.0.10.353	2.0.10.353	04-05-2016		18:28:32	2.0.10.248	59	Bar50-50.bmp	56	3	?	0r_4g.bmp	0r_4g.bmp	0r_2g.bmp	0r_2g.bmp			0r_2g.bmp		TrialProc	TrialList	0	cvbn	-999999	16	237279	0	b	390	237669	168	-133	35	-4	22	19	-2	9	6	59	0	0	0	0	4	4	2	2	0	2
Hungry_Donkey_bar_English_2	136	1	<?xml version="1.0"?>\n<Clock xmlns:dt="urn:schemas-microsoft-com:datatypes"><Description dt:dt="string">E-Prime Primary Realtime Clock</Description><StartTime><Timestamp dt:dt="int">0</Timestamp><DateUtc dt:dt="string">2016-04-05T22:28:32Z</DateUtc></StartTime><FrequencyChanges><FrequencyChange><Frequency dt:dt="r8">3507705</Frequency><Timestamp dt:dt="r8">22447006195</Timestamp><Current dt:dt="r8">0</Current><DateUtc dt:dt="string">2016-04-05T22:28:32Z</DateUtc></FrequencyChange></FrequencyChanges></Clock>\n	Hungry_Donkey_bar_English_2-136-1	60.018	125	1.0.0.18	1	972868701	Standard	2.0.10.353	2.0.10.353	04-05-2016		18:28:32	2.0.10.248	60	Bar50-50.bmp	56	4	?	10r_4g.bmp	0r_4g.bmp	2r_2g.bmp	0r_2g.bmp				0r_2g.bmp	TrialProc	TrialList	0	cvbn	-999999	15	239695	0	n	86	239781	170	-133	37	-4	22	19	0	4	6	60	-10	0	-2	0	4	4	2	2	0	2
Hungry_Donkey_bar_English_2	136	1	<?xml version="1.0"?>\n<Clock xmlns:dt="urn:schemas-microsoft-com:datatypes"><Description dt:dt="string">E-Prime Primary Realtime Clock</Description><StartTime><Timestamp dt:dt="int">0</Timestamp><DateUtc dt:dt="string">2016-04-05T22:28:32Z</DateUtc></StartTime><FrequencyChanges><FrequencyChange><Frequency dt:dt="r8">3507705</Frequency><Timestamp dt:dt="r8">22447006195</Timestamp><Current dt:dt="r8">0</Current><DateUtc dt:dt="string">2016-04-05T22:28:32Z</DateUtc></FrequencyChange></FrequencyChanges></Clock>\n	Hungry_Donkey_bar_English_2-136-1	60.018	125	1.0.0.18	1	972868701	Standard	2.0.10.353	2.0.10.353	04-05-2016		18:28:32	2.0.10.248	61	Bar50-50.bmp	56	4	?	10r_4g.bmp	0r_4g.bmp	2r_2g.bmp	0r_2g.bmp				0r_2g.bmp	TrialProc	TrialList	0	cvbn	-999999	16	241811	0	n	2	241813	172	-133	39	-4	22	19	2	4	7	61	-10	0	-2	0	4	4	2	2	0	2
Hungry_Donkey_bar_English_2	136	1	<?xml version="1.0"?>\n<Clock xmlns:dt="urn:schemas-microsoft-com:datatypes"><Description dt:dt="string">E-Prime Primary Realtime Clock</Description><StartTime><Timestamp dt:dt="int">0</Timestamp><DateUtc dt:dt="string">2016-04-05T22:28:32Z</DateUtc></StartTime><FrequencyChanges><FrequencyChange><Frequency dt:dt="r8">3507705</Frequency><Timestamp dt:dt="r8">22447006195</Timestamp><Current dt:dt="r8">0</Current><DateUtc dt:dt="string">2016-04-05T22:28:32Z</DateUtc></FrequencyChange></FrequencyChanges></Clock>\n	Hungry_Donkey_bar_English_2-136-1	60.018	125	1.0.0.18	1	972868701	Standard	2.0.10.353	2.0.10.353	04-05-2016		18:28:32	2.0.10.248	62	Bar50-50.bmp	56	3	?	8r_4g.bmp	50r_4g.bmp	1r_2g.bmp	10r_2g.bmp			1r_2g.bmp		TrialProc	TrialList	0	cvbn	-999999	16	243844	0	b	1121	244965	174	-134	40	-4	22	20	2	1	7	62	-8	-50	-1	-10	4	4	2	2	-1	2
Hungry_Donkey_bar_English_2	136	1	<?xml version="1.0"?>\n<Clock xmlns:dt="urn:schemas-microsoft-com:datatypes"><Description dt:dt="string">E-Prime Primary Realtime Clock</Description><StartTime><Timestamp dt:dt="int">0</Timestamp><DateUtc dt:dt="string">2016-04-05T22:28:32Z</DateUtc></StartTime><FrequencyChanges><FrequencyChange><Frequency dt:dt="r8">3507705</Frequency><Timestamp dt:dt="r8">22447006195</Timestamp><Current dt:dt="r8">0</Current><DateUtc dt:dt="string">2016-04-05T22:28:32Z</DateUtc></FrequencyChange></FrequencyChanges></Clock>\n	Hungry_Donkey_bar_English_2-136-1	60.018	125	1.0.0.18	1	972868701	Standard	2.0.10.353	2.0.10.353	04-05-2016		18:28:32	2.0.10.248	63	Bar63-37.bmp	57	2	?	12r_4g.bmp	0r_4g.bmp	3r_2g.bmp	0r_2g.bmp		0r_4g.bmp			TrialProc	TrialList	0	cvbn	-999999	16	246993	0	v	708	247701	178	-134	44	-4	26	20	2	5	7	63	-12	0	-3	0	4	4	2	2	0	4
Hungry_Donkey_bar_English_2	136	1	<?xml version="1.0"?>\n<Clock xmlns:dt="urn:schemas-microsoft-com:datatypes"><Description dt:dt="string">E-Prime Primary Realtime Clock</Description><StartTime><Timestamp dt:dt="int">0</Timestamp><DateUtc dt:dt="string">2016-04-05T22:28:32Z</DateUtc></StartTime><FrequencyChanges><FrequencyChange><Frequency dt:dt="r8">3507705</Frequency><Timestamp dt:dt="r8">22447006195</Timestamp><Current dt:dt="r8">0</Current><DateUtc dt:dt="string">2016-04-05T22:28:32Z</DateUtc></FrequencyChange></FrequencyChanges></Clock>\n	Hungry_Donkey_bar_English_2-136-1	60.018	125	1.0.0.18	1	972868701	Standard	2.0.10.353	2.0.10.353	04-05-2016		18:28:32	2.0.10.248	64	Bar50-50.bmp	56	1	?	10r_4g.bmp	0r_4g.bmp	2r_2g.bmp	0r_2g.bmp	10r_4g.bmp				TrialProc	TrialList	0	cvbn	-999999	16	249726	0	c	871	250597	182	-144	38	-10	26	20	2	3	7	64	-10	0	-2	0	4	4	2	2	-10	4
Hungry_Donkey_bar_English_2	136	1	<?xml version="1.0"?>\n<Clock xmlns:dt="urn:schemas-microsoft-com:datatypes"><Description dt:dt="string">E-Prime Primary Realtime Clock</Description><StartTime><Timestamp dt:dt="int">0</Timestamp><DateUtc dt:dt="string">2016-04-05T22:28:32Z</DateUtc></StartTime><FrequencyChanges><FrequencyChange><Frequency dt:dt="r8">3507705</Frequency><Timestamp dt:dt="r8">22447006195</Timestamp><Current dt:dt="r8">0</Current><DateUtc dt:dt="string">2016-04-05T22:28:32Z</DateUtc></FrequencyChange></FrequencyChanges></Clock>\n	Hungry_Donkey_bar_English_2-136-1	60.018	125	1.0.0.18	1	972868701	Standard	2.0.10.353	2.0.10.353	04-05-2016		18:28:32	2.0.10.248	65	Bar50-50.bmp	56	2	?	0r_4g.bmp	0r_4g.bmp	0r_2g.bmp	0r_2g.bmp		0r_4g.bmp			TrialProc	TrialList	0	cvbn	-999999	16	252625	0	v	1364	253989	186	-144	42	-10	30	20	2	9	7	65	0	0	0	0	4	4	2	2	0	4
Hungry_Donkey_bar_English_2	136	1	<?xml version="1.0"?>\n<Clock xmlns:dt="urn:schemas-microsoft-com:datatypes"><Description dt:dt="string">E-Prime Primary Realtime Clock</Description><StartTime><Timestamp dt:dt="int">0</Timestamp><DateUtc dt:dt="string">2016-04-05T22:28:32Z</DateUtc></StartTime><FrequencyChanges><FrequencyChange><Frequency dt:dt="r8">3507705</Frequency><Timestamp dt:dt="r8">22447006195</Timestamp><Current dt:dt="r8">0</Current><DateUtc dt:dt="string">2016-04-05T22:28:32Z</DateUtc></FrequencyChange></FrequencyChanges></Clock>\n	Hungry_Donkey_bar_English_2-136-1	60.018	125	1.0.0.18	1	972868701	Standard	2.0.10.353	2.0.10.353	04-05-2016		18:28:32	2.0.10.248	66	Bar63-37.bmp	57	3	?	0r_4g.bmp	0r_4g.bmp	0r_2g.bmp	0r_2g.bmp			0r_2g.bmp		TrialProc	TrialList	0	cvbn	-999999	16	256024	0	b	12	256036	188	-144	44	-10	30	22	2	6	7	66	0	0	0	0	4	4	2	2	0	2
Hungry_Donkey_bar_English_2	136	1	<?xml version="1.0"?>\n<Clock xmlns:dt="urn:schemas-microsoft-com:datatypes"><Description dt:dt="string">E-Prime Primary Realtime Clock</Description><StartTime><Timestamp dt:dt="int">0</Timestamp><DateUtc dt:dt="string">2016-04-05T22:28:32Z</DateUtc></StartTime><FrequencyChanges><FrequencyChange><Frequency dt:dt="r8">3507705</Frequency><Timestamp dt:dt="r8">22447006195</Timestamp><Current dt:dt="r8">0</Current><DateUtc dt:dt="string">2016-04-05T22:28:32Z</DateUtc></FrequencyChange></FrequencyChanges></Clock>\n	Hungry_Donkey_bar_English_2-136-1	60.018	125	1.0.0.18	1	972868701	Standard	2.0.10.353	2.0.10.353	04-05-2016		18:28:32	2.0.10.248	67	Bar63-37.bmp	57	4	?	10r_4g.bmp	0r_4g.bmp	2r_2g.bmp	0r_2g.bmp				0r_2g.bmp	TrialProc	TrialList	0	cvbn	-999999	16	258073	0	n	347	258420	190	-144	46	-10	30	22	4	2	7	67	-10	0	-2	0	4	4	2	2	0	2
Hungry_Donkey_bar_English_2	136	1	<?xml version="1.0"?>\n<Clock xmlns:dt="urn:schemas-microsoft-com:datatypes"><Description dt:dt="string">E-Prime Primary Realtime Clock</Description><StartTime><Timestamp dt:dt="int">0</Timestamp><DateUtc dt:dt="string">2016-04-05T22:28:32Z</DateUtc></StartTime><FrequencyChanges><FrequencyChange><Frequency dt:dt="r8">3507705</Frequency><Timestamp dt:dt="r8">22447006195</Timestamp><Current dt:dt="r8">0</Current><DateUtc dt:dt="string">2016-04-05T22:28:32Z</DateUtc></FrequencyChange></FrequencyChanges></Clock>\n	Hungry_Donkey_bar_English_2-136-1	60.018	125	1.0.0.18	1	972868701	Standard	2.0.10.353	2.0.10.353	04-05-2016		18:28:32	2.0.10.248	68	Bar63-37.bmp	57	1	?	0r_4g.bmp	0r_4g.bmp	0r_2g.bmp	0r_2g.bmp	0r_4g.bmp				TrialProc	TrialList	0	cvbn	-999999	16	260456	0	c	252	260708	194	-144	50	-6	30	22	4	10	7	68	0	0	0	0	4	4	2	2	0	4
Hungry_Donkey_bar_English_2	136	1	<?xml version="1.0"?>\n<Clock xmlns:dt="urn:schemas-microsoft-com:datatypes"><Description dt:dt="string">E-Prime Primary Realtime Clock</Description><StartTime><Timestamp dt:dt="int">0</Timestamp><DateUtc dt:dt="string">2016-04-05T22:28:32Z</DateUtc></StartTime><FrequencyChanges><FrequencyChange><Frequency dt:dt="r8">3507705</Frequency><Timestamp dt:dt="r8">22447006195</Timestamp><Current dt:dt="r8">0</Current><DateUtc dt:dt="string">2016-04-05T22:28:32Z</DateUtc></FrequencyChange></FrequencyChanges></Clock>\n	Hungry_Donkey_bar_English_2-136-1	60.018	125	1.0.0.18	1	972868701	Standard	2.0.10.353	2.0.10.353	04-05-2016		18:28:32	2.0.10.248	69	Bar63-37.bmp	58	2	?	0r_4g.bmp	0r_4g.bmp	0r_2g.bmp	0r_2g.bmp		0r_4g.bmp			TrialProc	TrialList	0	cvbn	-999999	16	262739	0	v	593	263332	198	-144	54	-6	34	22	4	8	7	69	0	0	0	0	4	4	2	2	0	4
Hungry_Donkey_bar_English_2	136	1	<?xml version="1.0"?>\n<Clock xmlns:dt="urn:schemas-microsoft-com:datatypes"><Description dt:dt="string">E-Prime Primary Realtime Clock</Description><StartTime><Timestamp dt:dt="int">0</Timestamp><DateUtc dt:dt="string">2016-04-05T22:28:32Z</DateUtc></StartTime><FrequencyChanges><FrequencyChange><Frequency dt:dt="r8">3507705</Frequency><Timestamp dt:dt="r8">22447006195</Timestamp><Current dt:dt="r8">0</Current><DateUtc dt:dt="string">2016-04-05T22:28:32Z</DateUtc></FrequencyChange></FrequencyChanges></Clock>\n	Hungry_Donkey_bar_English_2-136-1	60.018	125	1.0.0.18	1	972868701	Standard	2.0.10.353	2.0.10.353	04-05-2016		18:28:32	2.0.10.248	70	Bar63-37.bmp	58	3	?	0r_4g.bmp	0r_4g.bmp	0r_2g.bmp	0r_2g.bmp			0r_2g.bmp		TrialProc	TrialList	0	cvbn	-999999	16	265371	0	b	969	266340	200	-144	56	-6	34	24	4	7	7	70	0	0	0	0	4	4	2	2	0	2
Hungry_Donkey_bar_English_2	136	1	<?xml version="1.0"?>\n<Clock xmlns:dt="urn:schemas-microsoft-com:datatypes"><Description dt:dt="string">E-Prime Primary Realtime Clock</Description><StartTime><Timestamp dt:dt="int">0</Timestamp><DateUtc dt:dt="string">2016-04-05T22:28:32Z</DateUtc></StartTime><FrequencyChanges><FrequencyChange><Frequency dt:dt="r8">3507705</Frequency><Timestamp dt:dt="r8">22447006195</Timestamp><Current dt:dt="r8">0</Current><DateUtc dt:dt="string">2016-04-05T22:28:32Z</DateUtc></FrequencyChange></FrequencyChanges></Clock>\n	Hungry_Donkey_bar_English_2-136-1	60.018	125	1.0.0.18	1	972868701	Standard	2.0.10.353	2.0.10.353	04-05-2016		18:28:32	2.0.10.248	71	Bar63-37.bmp	58	4	?	0r_4g.bmp	0r_4g.bmp	0r_2g.bmp	0r_2g.bmp				0r_2g.bmp	TrialProc	TrialList	0	cvbn	-999999	16	268370	0	n	402	268772	202	-144	58	-6	34	24	6	8	8	71	0	0	0	0	4	4	2	2	0	2
Hungry_Donkey_bar_English_2	136	1	<?xml version="1.0"?>\n<Clock xmlns:dt="urn:schemas-microsoft-com:datatypes"><Description dt:dt="string">E-Prime Primary Realtime Clock</Description><StartTime><Timestamp dt:dt="int">0</Timestamp><DateUtc dt:dt="string">2016-04-05T22:28:32Z</DateUtc></StartTime><FrequencyChanges><FrequencyChange><Frequency dt:dt="r8">3507705</Frequency><Timestamp dt:dt="r8">22447006195</Timestamp><Current dt:dt="r8">0</Current><DateUtc dt:dt="string">2016-04-05T22:28:32Z</DateUtc></FrequencyChange></FrequencyChanges></Clock>\n	Hungry_Donkey_bar_English_2-136-1	60.018	125	1.0.0.18	1	972868701	Standard	2.0.10.353	2.0.10.353	04-05-2016		18:28:32	2.0.10.248	72	Bar63-37.bmp	59	4	?	0r_4g.bmp	0r_4g.bmp	0r_2g.bmp	0r_2g.bmp				0r_2g.bmp	TrialProc	TrialList	0	cvbn	-999999	16	270803	0	n	577	271380	204	-144	60	-6	34	24	8	7	8	72	0	0	0	0	4	4	2	2	0	2
Hungry_Donkey_bar_English_2	136	1	<?xml version="1.0"?>\n<Clock xmlns:dt="urn:schemas-microsoft-com:datatypes"><Description dt:dt="string">E-Prime Primary Realtime Clock</Description><StartTime><Timestamp dt:dt="int">0</Timestamp><DateUtc dt:dt="string">2016-04-05T22:28:32Z</DateUtc></StartTime><FrequencyChanges><FrequencyChange><Frequency dt:dt="r8">3507705</Frequency><Timestamp dt:dt="r8">22447006195</Timestamp><Current dt:dt="r8">0</Current><DateUtc dt:dt="string">2016-04-05T22:28:32Z</DateUtc></FrequencyChange></FrequencyChanges></Clock>\n	Hungry_Donkey_bar_English_2-136-1	60.018	125	1.0.0.18	1	972868701	Standard	2.0.10.353	2.0.10.353	04-05-2016		18:28:32	2.0.10.248	73	Bar63-37.bmp	59	3	?	0r_4g.bmp	0r_4g.bmp	0r_2g.bmp	0r_2g.bmp			0r_2g.bmp		TrialProc	TrialList	0	cvbn	-999999	16	273419	0	b	392	273811	206	-144	62	-6	34	26	8	10	8	73	0	0	0	0	4	4	2	2	0	2
Hungry_Donkey_bar_English_2	136	1	<?xml version="1.0"?>\n<Clock xmlns:dt="urn:schemas-microsoft-com:datatypes"><Description dt:dt="string">E-Prime Primary Realtime Clock</Description><StartTime><Timestamp dt:dt="int">0</Timestamp><DateUtc dt:dt="string">2016-04-05T22:28:32Z</DateUtc></StartTime><FrequencyChanges><FrequencyChange><Frequency dt:dt="r8">3507705</Frequency><Timestamp dt:dt="r8">22447006195</Timestamp><Current dt:dt="r8">0</Current><DateUtc dt:dt="string">2016-04-05T22:28:32Z</DateUtc></FrequencyChange></FrequencyChanges></Clock>\n	Hungry_Donkey_bar_English_2-136-1	60.018	125	1.0.0.18	1	972868701	Standard	2.0.10.353	2.0.10.353	04-05-2016		18:28:32	2.0.10.248	74	Bar50-50.bmp	52	2	?	8r_4g.bmp	50r_4g.bmp	1r_2g.bmp	10r_2g.bmp		50r_4g.bmp			TrialProc	TrialList	0	cvbn	-999999	16	275851	0	v	312	276163	210	-194	16	-6	-12	26	8	1	8	74	-8	-50	-1	-10	4	4	2	2	-50	4
Hungry_Donkey_bar_English_2	136	1	<?xml version="1.0"?>\n<Clock xmlns:dt="urn:schemas-microsoft-com:datatypes"><Description dt:dt="string">E-Prime Primary Realtime Clock</Description><StartTime><Timestamp dt:dt="int">0</Timestamp><DateUtc dt:dt="string">2016-04-05T22:28:32Z</DateUtc></StartTime><FrequencyChanges><FrequencyChange><Frequency dt:dt="r8">3507705</Frequency><Timestamp dt:dt="r8">22447006195</Timestamp><Current dt:dt="r8">0</Current><DateUtc dt:dt="string">2016-04-05T22:28:32Z</DateUtc></FrequencyChange></FrequencyChanges></Clock>\n	Hungry_Donkey_bar_English_2-136-1	60.018	125	1.0.0.18	1	972868701	Standard	2.0.10.353	2.0.10.353	04-05-2016		18:28:32	2.0.10.248	75	Bar50-50.bmp	51	1	?	10r_4g.bmp	0r_4g.bmp	2r_2g.bmp	0r_2g.bmp	10r_4g.bmp				TrialProc	TrialList	0	cvbn	-999999	16	278201	0	c	1178	279379	214	-204	10	-12	-12	26	8	3	8	75	-10	0	-2	0	4	4	2	2	-10	4
Hungry_Donkey_bar_English_2	136	1	<?xml version="1.0"?>\n<Clock xmlns:dt="urn:schemas-microsoft-com:datatypes"><Description dt:dt="string">E-Prime Primary Realtime Clock</Description><StartTime><Timestamp dt:dt="int">0</Timestamp><DateUtc dt:dt="string">2016-04-05T22:28:32Z</DateUtc></StartTime><FrequencyChanges><FrequencyChange><Frequency dt:dt="r8">3507705</Frequency><Timestamp dt:dt="r8">22447006195</Timestamp><Current dt:dt="r8">0</Current><DateUtc dt:dt="string">2016-04-05T22:28:32Z</DateUtc></FrequencyChange></FrequencyChanges></Clock>\n	Hungry_Donkey_bar_English_2-136-1	60.018	125	1.0.0.18	1	972868701	Standard	2.0.10.353	2.0.10.353	04-05-2016		18:28:32	2.0.10.248	76	Bar50-50.bmp	52	2	?	12r_4g.bmp	0r_4g.bmp	3r_2g.bmp	0r_2g.bmp		0r_4g.bmp			TrialProc	TrialList	0	cvbn	-999999	17	281417	0	v	458	281875	218	-204	14	-12	-8	26	8	5	8	76	-12	0	-3	0	4	4	2	2	0	4
Hungry_Donkey_bar_English_2	136	1	<?xml version="1.0"?>\n<Clock xmlns:dt="urn:schemas-microsoft-com:datatypes"><Description dt:dt="string">E-Prime Primary Realtime Clock</Description><StartTime><Timestamp dt:dt="int">0</Timestamp><DateUtc dt:dt="string">2016-04-05T22:28:32Z</DateUtc></StartTime><FrequencyChanges><FrequencyChange><Frequency dt:dt="r8">3507705</Frequency><Timestamp dt:dt="r8">22447006195</Timestamp><Current dt:dt="r8">0</Current><DateUtc dt:dt="string">2016-04-05T22:28:32Z</DateUtc></FrequencyChange></FrequencyChanges></Clock>\n	Hungry_Donkey_bar_English_2-136-1	60.018	125	1.0.0.18	1	972868701	Standard	2.0.10.353	2.0.10.353	04-05-2016		18:28:32	2.0.10.248	77	Bar50-50.bmp	52	2	?	0r_4g.bmp	0r_4g.bmp	0r_2g.bmp	0r_2g.bmp		0r_4g.bmp			TrialProc	TrialList	0	cvbn	-999999	16	283899	0	v	312	284211	222	-204	18	-12	-4	26	8	9	8	77	0	0	0	0	4	4	2	2	0	4
Hungry_Donkey_bar_English_2	136	1	<?xml version="1.0"?>\n<Clock xmlns:dt="urn:schemas-microsoft-com:datatypes"><Description dt:dt="string">E-Prime Primary Realtime Clock</Description><StartTime><Timestamp dt:dt="int">0</Timestamp><DateUtc dt:dt="string">2016-04-05T22:28:32Z</DateUtc></StartTime><FrequencyChanges><FrequencyChange><Frequency dt:dt="r8">3507705</Frequency><Timestamp dt:dt="r8">22447006195</Timestamp><Current dt:dt="r8">0</Current><DateUtc dt:dt="string">2016-04-05T22:28:32Z</DateUtc></FrequencyChange></FrequencyChanges></Clock>\n	Hungry_Donkey_bar_English_2-136-1	60.018	125	1.0.0.18	1	972868701	Standard	2.0.10.353	2.0.10.353	04-05-2016		18:28:32	2.0.10.248	78	Bar50-50.bmp	53	2	?	0r_4g.bmp	0r_4g.bmp	0r_2g.bmp	0r_2g.bmp		0r_4g.bmp			TrialProc	TrialList	0	cvbn	-999999	16	286248	0	v	347	286595	226	-204	22	-12	0	26	8	6	8	78	0	0	0	0	4	4	2	2	0	4
Hungry_Donkey_bar_English_2	136	1	<?xml version="1.0"?>\n<Clock xmlns:dt="urn:schemas-microsoft-com:datatypes"><Description dt:dt="string">E-Prime Primary Realtime Clock</Description><StartTime><Timestamp dt:dt="int">0</Timestamp><DateUtc dt:dt="string">2016-04-05T22:28:32Z</DateUtc></StartTime><FrequencyChanges><FrequencyChange><Frequency dt:dt="r8">3507705</Frequency><Timestamp dt:dt="r8">22447006195</Timestamp><Current dt:dt="r8">0</Current><DateUtc dt:dt="string">2016-04-05T22:28:32Z</DateUtc></FrequencyChange></FrequencyChanges></Clock>\n	Hungry_Donkey_bar_English_2-136-1	60.018	125	1.0.0.18	1	972868701	Standard	2.0.10.353	2.0.10.353	04-05-2016		18:28:32	2.0.10.248	79	Bar50-50.bmp	53	2	?	10r_4g.bmp	0r_4g.bmp	2r_2g.bmp	0r_2g.bmp		0r_4g.bmp			TrialProc	TrialList	0	cvbn	-999999	16	288631	0	v	348	288979	230	-204	26	-12	4	26	8	4	8	79	-10	0	-2	0	4	4	2	2	0	4
Hungry_Donkey_bar_English_2	136	1	<?xml version="1.0"?>\n<Clock xmlns:dt="urn:schemas-microsoft-com:datatypes"><Description dt:dt="string">E-Prime Primary Realtime Clock</Description><StartTime><Timestamp dt:dt="int">0</Timestamp><DateUtc dt:dt="string">2016-04-05T22:28:32Z</DateUtc></StartTime><FrequencyChanges><FrequencyChange><Frequency dt:dt="r8">3507705</Frequency><Timestamp dt:dt="r8">22447006195</Timestamp><Current dt:dt="r8">0</Current><DateUtc dt:dt="string">2016-04-05T22:28:32Z</DateUtc></FrequencyChange></FrequencyChanges></Clock>\n	Hungry_Donkey_bar_English_2-136-1	60.018	125	1.0.0.18	1	972868701	Standard	2.0.10.353	2.0.10.353	04-05-2016		18:28:32	2.0.10.248	80	Bar50-50.bmp	53	2	?	10r_4g.bmp	0r_4g.bmp	2r_2g.bmp	0r_2g.bmp		0r_4g.bmp			TrialProc	TrialList	0	cvbn	-999999	16	291014	0	v	332	291346	234	-204	30	-12	8	26	8	2	8	80	-10	0	-2	0	4	4	2	2	0	4
Hungry_Donkey_bar_English_2	136	1	<?xml version="1.0"?>\n<Clock xmlns:dt="urn:schemas-microsoft-com:datatypes"><Description dt:dt="string">E-Prime Primary Realtime Clock</Description><StartTime><Timestamp dt:dt="int">0</Timestamp><DateUtc dt:dt="string">2016-04-05T22:28:32Z</DateUtc></StartTime><FrequencyChanges><FrequencyChange><Frequency dt:dt="r8">3507705</Frequency><Timestamp dt:dt="r8">22447006195</Timestamp><Current dt:dt="r8">0</Current><DateUtc dt:dt="string">2016-04-05T22:28:32Z</DateUtc></FrequencyChange></FrequencyChanges></Clock>\n	Hungry_Donkey_bar_English_2-136-1	60.018	125	1.0.0.18	1	972868701	Standard	2.0.10.353	2.0.10.353	04-05-2016		18:28:32	2.0.10.248	81	Bar50-50.bmp	54	2	?	0r_4g.bmp	0r_4g.bmp	0r_2g.bmp	0r_2g.bmp		0r_4g.bmp			TrialProc	TrialList	0	cvbn	-999999	16	293380	0	v	382	293762	238	-204	34	-12	12	26	8	6	9	81	0	0	0	0	4	4	2	2	0	4
Hungry_Donkey_bar_English_2	136	1	<?xml version="1.0"?>\n<Clock xmlns:dt="urn:schemas-microsoft-com:datatypes"><Description dt:dt="string">E-Prime Primary Realtime Clock</Description><StartTime><Timestamp dt:dt="int">0</Timestamp><DateUtc dt:dt="string">2016-04-05T22:28:32Z</DateUtc></StartTime><FrequencyChanges><FrequencyChange><Frequency dt:dt="r8">3507705</Frequency><Timestamp dt:dt="r8">22447006195</Timestamp><Current dt:dt="r8">0</Current><DateUtc dt:dt="string">2016-04-05T22:28:32Z</DateUtc></FrequencyChange></FrequencyChanges></Clock>\n	Hungry_Donkey_bar_English_2-136-1	60.018	125	1.0.0.18	1	972868701	Standard	2.0.10.353	2.0.10.353	04-05-2016		18:28:32	2.0.10.248	82	Bar50-50.bmp	54	2	?	10r_4g.bmp	0r_4g.bmp	2r_2g.bmp	0r_2g.bmp		0r_4g.bmp			TrialProc	TrialList	0	cvbn	-999999	16	295796	0	v	270	296066	242	-204	38	-12	16	26	8	2	9	82	-10	0	-2	0	4	4	2	2	0	4
Hungry_Donkey_bar_English_2	136	1	<?xml version="1.0"?>\n<Clock xmlns:dt="urn:schemas-microsoft-com:datatypes"><Description dt:dt="string">E-Prime Primary Realtime Clock</Description><StartTime><Timestamp dt:dt="int">0</Timestamp><DateUtc dt:dt="string">2016-04-05T22:28:32Z</DateUtc></StartTime><FrequencyChanges><FrequencyChange><Frequency dt:dt="r8">3507705</Frequency><Timestamp dt:dt="r8">22447006195</Timestamp><Current dt:dt="r8">0</Current><DateUtc dt:dt="string">2016-04-05T22:28:32Z</DateUtc></FrequencyChange></FrequencyChanges></Clock>\n	Hungry_Donkey_bar_English_2-136-1	60.018	125	1.0.0.18	1	972868701	Standard	2.0.10.353	2.0.10.353	04-05-2016		18:28:32	2.0.10.248	83	Bar50-50.bmp	55	2	?	10r_4g.bmp	0r_4g.bmp	2r_2g.bmp	0r_2g.bmp		0r_4g.bmp			TrialProc	TrialList	0	cvbn	-999999	16	298095	0	v	323	298418	246	-204	42	-12	20	26	8	4	9	83	-10	0	-2	0	4	4	2	2	0	4
Hungry_Donkey_bar_English_2	136	1	<?xml version="1.0"?>\n<Clock xmlns:dt="urn:schemas-microsoft-com:datatypes"><Description dt:dt="string">E-Prime Primary Realtime Clock</Description><StartTime><Timestamp dt:dt="int">0</Timestamp><DateUtc dt:dt="string">2016-04-05T22:28:32Z</DateUtc></StartTime><FrequencyChanges><FrequencyChange><Frequency dt:dt="r8">3507705</Frequency><Timestamp dt:dt="r8">22447006195</Timestamp><Current dt:dt="r8">0</Current><DateUtc dt:dt="string">2016-04-05T22:28:32Z</DateUtc></FrequencyChange></FrequencyChanges></Clock>\n	Hungry_Donkey_bar_English_2-136-1	60.018	125	1.0.0.18	1	972868701	Standard	2.0.10.353	2.0.10.353	04-05-2016		18:28:32	2.0.10.248	84	Bar50-50.bmp	55	2	?	0r_4g.bmp	0r_4g.bmp	0r_2g.bmp	0r_2g.bmp		0r_4g.bmp			TrialProc	TrialList	0	cvbn	-999999	16	300444	0	v	198	300642	250	-204	46	-12	24	26	8	10	9	84	0	0	0	0	4	4	2	2	0	4
Hungry_Donkey_bar_English_2	136	1	<?xml version="1.0"?>\n<Clock xmlns:dt="urn:schemas-microsoft-com:datatypes"><Description dt:dt="string">E-Prime Primary Realtime Clock</Description><StartTime><Timestamp dt:dt="int">0</Timestamp><DateUtc dt:dt="string">2016-04-05T22:28:32Z</DateUtc></StartTime><FrequencyChanges><FrequencyChange><Frequency dt:dt="r8">3507705</Frequency><Timestamp dt:dt="r8">22447006195</Timestamp><Current dt:dt="r8">0</Current><DateUtc dt:dt="string">2016-04-05T22:28:32Z</DateUtc></FrequencyChange></FrequencyChanges></Clock>\n	Hungry_Donkey_bar_English_2-136-1	60.018	125	1.0.0.18	1	972868701	Standard	2.0.10.353	2.0.10.353	04-05-2016		18:28:32	2.0.10.248	85	Bar50-50.bmp	50	2	?	8r_4g.bmp	50r_4g.bmp	1r_2g.bmp	10r_2g.bmp		50r_4g.bmp			TrialProc	TrialList	0	cvbn	-999999	16	302677	0	v	621	303298	254	-254	0	-12	-22	26	8	1	9	85	-8	-50	-1	-10	4	4	2	2	-50	4
Hungry_Donkey_bar_English_2	136	1	<?xml version="1.0"?>\n<Clock xmlns:dt="urn:schemas-microsoft-com:datatypes"><Description dt:dt="string">E-Prime Primary Realtime Clock</Description><StartTime><Timestamp dt:dt="int">0</Timestamp><DateUtc dt:dt="string">2016-04-05T22:28:32Z</DateUtc></StartTime><FrequencyChanges><FrequencyChange><Frequency dt:dt="r8">3507705</Frequency><Timestamp dt:dt="r8">22447006195</Timestamp><Current dt:dt="r8">0</Current><DateUtc dt:dt="string">2016-04-05T22:28:32Z</DateUtc></FrequencyChange></FrequencyChanges></Clock>\n	Hungry_Donkey_bar_English_2-136-1	60.018	125	1.0.0.18	1	972868701	Standard	2.0.10.353	2.0.10.353	04-05-2016		18:28:32	2.0.10.248	86	Bar50-50.bmp	50	3	?	12r_4g.bmp	0r_4g.bmp	3r_2g.bmp	0r_2g.bmp			3r_2g.bmp		TrialProc	TrialList	0	cvbn	-999999	16	305326	0	b	1252	306578	256	-257	-1	-12	-22	25	8	5	9	86	-12	0	-3	0	4	4	2	2	-3	2
Hungry_Donkey_bar_English_2	136	1	<?xml version="1.0"?>\n<Clock xmlns:dt="urn:schemas-microsoft-com:datatypes"><Description dt:dt="string">E-Prime Primary Realtime Clock</Description><StartTime><Timestamp dt:dt="int">0</Timestamp><DateUtc dt:dt="string">2016-04-05T22:28:32Z</DateUtc></StartTime><FrequencyChanges><FrequencyChange><Frequency dt:dt="r8">3507705</Frequency><Timestamp dt:dt="r8">22447006195</Timestamp><Current dt:dt="r8">0</Current><DateUtc dt:dt="string">2016-04-05T22:28:32Z</DateUtc></FrequencyChange></FrequencyChanges></Clock>\n	Hungry_Donkey_bar_English_2-136-1	60.018	125	1.0.0.18	1	972868701	Standard	2.0.10.353	2.0.10.353	04-05-2016		18:28:32	2.0.10.248	87	Bar50-50.bmp	50	3	?	0r_4g.bmp	0r_4g.bmp	0r_2g.bmp	0r_2g.bmp			0r_2g.bmp		TrialProc	TrialList	0	cvbn	-999999	16	308608	0	b	3201	311809	258	-257	1	-12	-22	27	8	7	9	87	0	0	0	0	4	4	2	2	0	2
Hungry_Donkey_bar_English_2	136	1	<?xml version="1.0"?>\n<Clock xmlns:dt="urn:schemas-microsoft-com:datatypes"><Description dt:dt="string">E-Prime Primary Realtime Clock</Description><StartTime><Timestamp dt:dt="int">0</Timestamp><DateUtc dt:dt="string">2016-04-05T22:28:32Z</DateUtc></StartTime><FrequencyChanges><FrequencyChange><Frequency dt:dt="r8">3507705</Frequency><Timestamp dt:dt="r8">22447006195</Timestamp><Current dt:dt="r8">0</Current><DateUtc dt:dt="string">2016-04-05T22:28:32Z</DateUtc></FrequencyChange></FrequencyChanges></Clock>\n	Hungry_Donkey_bar_English_2-136-1	60.018	125	1.0.0.18	1	972868701	Standard	2.0.10.353	2.0.10.353	04-05-2016		18:28:32	2.0.10.248	88	Bar50-50.bmp	50	3	?	10r_4g.bmp	0r_4g.bmp	2r_2g.bmp	0r_2g.bmp			2r_2g.bmp		TrialProc	TrialList	0	cvbn	-999999	16	313840	0	b	289	314129	260	-259	1	-12	-22	27	8	3	9	88	-10	0	-2	0	4	4	2	2	-2	2
Hungry_Donkey_bar_English_2	136	1	<?xml version="1.0"?>\n<Clock xmlns:dt="urn:schemas-microsoft-com:datatypes"><Description dt:dt="string">E-Prime Primary Realtime Clock</Description><StartTime><Timestamp dt:dt="int">0</Timestamp><DateUtc dt:dt="string">2016-04-05T22:28:32Z</DateUtc></StartTime><FrequencyChanges><FrequencyChange><Frequency dt:dt="r8">3507705</Frequency><Timestamp dt:dt="r8">22447006195</Timestamp><Current dt:dt="r8">0</Current><DateUtc dt:dt="string">2016-04-05T22:28:32Z</DateUtc></FrequencyChange></FrequencyChanges></Clock>\n	Hungry_Donkey_bar_English_2-136-1	60.018	125	1.0.0.18	1	972868701	Standard	2.0.10.353	2.0.10.353	04-05-2016		18:28:32	2.0.10.248	89	Bar50-50.bmp	50	4	?	0r_4g.bmp	0r_4g.bmp	0r_2g.bmp	0r_2g.bmp				0r_2g.bmp	TrialProc	TrialList	0	cvbn	-999999	16	316156	0	n	5	316161	262	-259	3	-12	-22	27	10	8	9	89	0	0	0	0	4	4	2	2	0	2
Hungry_Donkey_bar_English_2	136	1	<?xml version="1.0"?>\n<Clock xmlns:dt="urn:schemas-microsoft-com:datatypes"><Description dt:dt="string">E-Prime Primary Realtime Clock</Description><StartTime><Timestamp dt:dt="int">0</Timestamp><DateUtc dt:dt="string">2016-04-05T22:28:32Z</DateUtc></StartTime><FrequencyChanges><FrequencyChange><Frequency dt:dt="r8">3507705</Frequency><Timestamp dt:dt="r8">22447006195</Timestamp><Current dt:dt="r8">0</Current><DateUtc dt:dt="string">2016-04-05T22:28:32Z</DateUtc></FrequencyChange></FrequencyChanges></Clock>\n	Hungry_Donkey_bar_English_2-136-1	60.018	125	1.0.0.18	1	972868701	Standard	2.0.10.353	2.0.10.353	04-05-2016		18:28:32	2.0.10.248	90	Bar50-50.bmp	50	4	?	0r_4g.bmp	0r_4g.bmp	0r_2g.bmp	0r_2g.bmp				0r_2g.bmp	TrialProc	TrialList	0	cvbn	-999999	16	318189	0	n	452	318641	264	-259	5	-12	-22	27	12	9	9	90	0	0	0	0	4	4	2	2	0	2
Hungry_Donkey_bar_English_2	136	1	<?xml version="1.0"?>\n<Clock xmlns:dt="urn:schemas-microsoft-com:datatypes"><Description dt:dt="string">E-Prime Primary Realtime Clock</Description><StartTime><Timestamp dt:dt="int">0</Timestamp><DateUtc dt:dt="string">2016-04-05T22:28:32Z</DateUtc></StartTime><FrequencyChanges><FrequencyChange><Frequency dt:dt="r8">3507705</Frequency><Timestamp dt:dt="r8">22447006195</Timestamp><Current dt:dt="r8">0</Current><DateUtc dt:dt="string">2016-04-05T22:28:32Z</DateUtc></FrequencyChange></FrequencyChanges></Clock>\n	Hungry_Donkey_bar_English_2-136-1	60.018	125	1.0.0.18	1	972868701	Standard	2.0.10.353	2.0.10.353	04-05-2016		18:28:32	2.0.10.248	91	Bar50-50.bmp	50	4	?	8r_4g.bmp	50r_4g.bmp	1r_2g.bmp	10r_2g.bmp				10r_2g.bmp	TrialProc	TrialList	0	cvbn	-999999	16	320672	0	n	353	321025	266	-269	-3	-12	-22	27	4	1	10	91	-8	-50	-1	-10	4	4	2	2	-10	2
Hungry_Donkey_bar_English_2	136	1	<?xml version="1.0"?>\n<Clock xmlns:dt="urn:schemas-microsoft-com:datatypes"><Description dt:dt="string">E-Prime Primary Realtime Clock</Description><StartTime><Timestamp dt:dt="int">0</Timestamp><DateUtc dt:dt="string">2016-04-05T22:28:32Z</DateUtc></StartTime><FrequencyChanges><FrequencyChange><Frequency dt:dt="r8">3507705</Frequency><Timestamp dt:dt="r8">22447006195</Timestamp><Current dt:dt="r8">0</Current><DateUtc dt:dt="string">2016-04-05T22:28:32Z</DateUtc></FrequencyChange></FrequencyChanges></Clock>\n	Hungry_Donkey_bar_English_2-136-1	60.018	125	1.0.0.18	1	972868701	Standard	2.0.10.353	2.0.10.353	04-05-2016		18:28:32	2.0.10.248	92	Bar50-50.bmp	50	3	?	0r_4g.bmp	0r_4g.bmp	0r_2g.bmp	0r_2g.bmp			0r_2g.bmp		TrialProc	TrialList	0	cvbn	-999999	16	323054	0	b	867	323921	268	-269	-1	-12	-22	29	4	6	10	92	0	0	0	0	4	4	2	2	0	2
Hungry_Donkey_bar_English_2	136	1	<?xml version="1.0"?>\n<Clock xmlns:dt="urn:schemas-microsoft-com:datatypes"><Description dt:dt="string">E-Prime Primary Realtime Clock</Description><StartTime><Timestamp dt:dt="int">0</Timestamp><DateUtc dt:dt="string">2016-04-05T22:28:32Z</DateUtc></StartTime><FrequencyChanges><FrequencyChange><Frequency dt:dt="r8">3507705</Frequency><Timestamp dt:dt="r8">22447006195</Timestamp><Current dt:dt="r8">0</Current><DateUtc dt:dt="string">2016-04-05T22:28:32Z</DateUtc></FrequencyChange></FrequencyChanges></Clock>\n	Hungry_Donkey_bar_English_2-136-1	60.018	125	1.0.0.18	1	972868701	Standard	2.0.10.353	2.0.10.353	04-05-2016		18:28:32	2.0.10.248	93	Bar50-50.bmp	50	2	?	10r_4g.bmp	0r_4g.bmp	2r_2g.bmp	0r_2g.bmp		0r_4g.bmp			TrialProc	TrialList	0	cvbn	-999999	16	325953	0	v	207	326160	272	-269	3	-12	-18	29	4	2	10	93	-10	0	-2	0	4	4	2	2	0	4
Hungry_Donkey_bar_English_2	136	1	<?xml version="1.0"?>\n<Clock xmlns:dt="urn:schemas-microsoft-com:datatypes"><Description dt:dt="string">E-Prime Primary Realtime Clock</Description><StartTime><Timestamp dt:dt="int">0</Timestamp><DateUtc dt:dt="string">2016-04-05T22:28:32Z</DateUtc></StartTime><FrequencyChanges><FrequencyChange><Frequency dt:dt="r8">3507705</Frequency><Timestamp dt:dt="r8">22447006195</Timestamp><Current dt:dt="r8">0</Current><DateUtc dt:dt="string">2016-04-05T22:28:32Z</DateUtc></FrequencyChange></FrequencyChanges></Clock>\n	Hungry_Donkey_bar_English_2-136-1	60.018	125	1.0.0.18	1	972868701	Standard	2.0.10.353	2.0.10.353	04-05-2016		18:28:32	2.0.10.248	94	Bar50-50.bmp	51	2	?	10r_4g.bmp	0r_4g.bmp	2r_2g.bmp	0r_2g.bmp		0r_4g.bmp			TrialProc	TrialList	0	cvbn	-999999	16	328203	0	v	5	328208	276	-269	7	-12	-14	29	4	4	10	94	-10	0	-2	0	4	4	2	2	0	4
Hungry_Donkey_bar_English_2	136	1	<?xml version="1.0"?>\n<Clock xmlns:dt="urn:schemas-microsoft-com:datatypes"><Description dt:dt="string">E-Prime Primary Realtime Clock</Description><StartTime><Timestamp dt:dt="int">0</Timestamp><DateUtc dt:dt="string">2016-04-05T22:28:32Z</DateUtc></StartTime><FrequencyChanges><FrequencyChange><Frequency dt:dt="r8">3507705</Frequency><Timestamp dt:dt="r8">22447006195</Timestamp><Current dt:dt="r8">0</Current><DateUtc dt:dt="string">2016-04-05T22:28:32Z</DateUtc></FrequencyChange></FrequencyChanges></Clock>\n	Hungry_Donkey_bar_English_2-136-1	60.018	125	1.0.0.18	1	972868701	Standard	2.0.10.353	2.0.10.353	04-05-2016		18:28:32	2.0.10.248	95	Bar50-50.bmp	51	2	?	0r_4g.bmp	0r_4g.bmp	0r_2g.bmp	0r_2g.bmp		0r_4g.bmp			TrialProc	TrialList	0	cvbn	-999999	16	330235	0	v	501	330736	280	-269	11	-12	-10	29	4	8	10	95	0	0	0	0	4	4	2	2	0	4
Hungry_Donkey_bar_English_2	136	1	<?xml version="1.0"?>\n<Clock xmlns:dt="urn:schemas-microsoft-com:datatypes"><Description dt:dt="string">E-Prime Primary Realtime Clock</Description><StartTime><Timestamp dt:dt="int">0</Timestamp><DateUtc dt:dt="string">2016-04-05T22:28:32Z</DateUtc></StartTime><FrequencyChanges><FrequencyChange><Frequency dt:dt="r8">3507705</Frequency><Timestamp dt:dt="r8">22447006195</Timestamp><Current dt:dt="r8">0</Current><DateUtc dt:dt="string">2016-04-05T22:28:32Z</DateUtc></FrequencyChange></FrequencyChanges></Clock>\n	Hungry_Donkey_bar_English_2-136-1	60.018	125	1.0.0.18	1	972868701	Standard	2.0.10.353	2.0.10.353	04-05-2016		18:28:32	2.0.10.248	96	Bar50-50.bmp	51	2	?	0r_4g.bmp	0r_4g.bmp	0r_2g.bmp	0r_2g.bmp		0r_4g.bmp			TrialProc	TrialList	0	cvbn	-999999	16	332768	0	v	528	333296	284	-269	15	-12	-6	29	4	9	10	96	0	0	0	0	4	4	2	2	0	4
Hungry_Donkey_bar_English_2	136	1	<?xml version="1.0"?>\n<Clock xmlns:dt="urn:schemas-microsoft-com:datatypes"><Description dt:dt="string">E-Prime Primary Realtime Clock</Description><StartTime><Timestamp dt:dt="int">0</Timestamp><DateUtc dt:dt="string">2016-04-05T22:28:32Z</DateUtc></StartTime><FrequencyChanges><FrequencyChange><Frequency dt:dt="r8">3507705</Frequency><Timestamp dt:dt="r8">22447006195</Timestamp><Current dt:dt="r8">0</Current><DateUtc dt:dt="string">2016-04-05T22:28:32Z</DateUtc></FrequencyChange></FrequencyChanges></Clock>\n	Hungry_Donkey_bar_English_2-136-1	60.018	125	1.0.0.18	1	972868701	Standard	2.0.10.353	2.0.10.353	04-05-2016		18:28:32	2.0.10.248	97	Bar50-50.bmp	52	2	?	12r_4g.bmp	0r_4g.bmp	3r_2g.bmp	0r_2g.bmp		0r_4g.bmp			TrialProc	TrialList	0	cvbn	-999999	16	335334	0	v	346	335680	288	-269	19	-12	-2	29	4	5	10	97	-12	0	-3	0	4	4	2	2	0	4
Hungry_Donkey_bar_English_2	136	1	<?xml version="1.0"?>\n<Clock xmlns:dt="urn:schemas-microsoft-com:datatypes"><Description dt:dt="string">E-Prime Primary Realtime Clock</Description><StartTime><Timestamp dt:dt="int">0</Timestamp><DateUtc dt:dt="string">2016-04-05T22:28:32Z</DateUtc></StartTime><FrequencyChanges><FrequencyChange><Frequency dt:dt="r8">3507705</Frequency><Timestamp dt:dt="r8">22447006195</Timestamp><Current dt:dt="r8">0</Current><DateUtc dt:dt="string">2016-04-05T22:28:32Z</DateUtc></FrequencyChange></FrequencyChanges></Clock>\n	Hungry_Donkey_bar_English_2-136-1	60.018	125	1.0.0.18	1	972868701	Standard	2.0.10.353	2.0.10.353	04-05-2016		18:28:32	2.0.10.248	98	Bar50-50.bmp	52	2	?	10r_4g.bmp	0r_4g.bmp	2r_2g.bmp	0r_2g.bmp		0r_4g.bmp			TrialProc	TrialList	0	cvbn	-999999	16	337717	0	v	427	338144	292	-269	23	-12	2	29	4	3	10	98	-10	0	-2	0	4	4	2	2	0	4
Hungry_Donkey_bar_English_2	136	1	<?xml version="1.0"?>\n<Clock xmlns:dt="urn:schemas-microsoft-com:datatypes"><Description dt:dt="string">E-Prime Primary Realtime Clock</Description><StartTime><Timestamp dt:dt="int">0</Timestamp><DateUtc dt:dt="string">2016-04-05T22:28:32Z</DateUtc></StartTime><FrequencyChanges><FrequencyChange><Frequency dt:dt="r8">3507705</Frequency><Timestamp dt:dt="r8">22447006195</Timestamp><Current dt:dt="r8">0</Current><DateUtc dt:dt="string">2016-04-05T22:28:32Z</DateUtc></FrequencyChange></FrequencyChanges></Clock>\n	Hungry_Donkey_bar_English_2-136-1	60.018	125	1.0.0.18	1	972868701	Standard	2.0.10.353	2.0.10.353	04-05-2016		18:28:32	2.0.10.248	99	Bar50-50.bmp	52	2	?	0r_4g.bmp	0r_4g.bmp	0r_2g.bmp	0r_2g.bmp		0r_4g.bmp			TrialProc	TrialList	0	cvbn	-999999	17	340183	0	v	1113	341296	296	-269	27	-12	6	29	4	7	10	99	0	0	0	0	4	4	2	2	0	4
Hungry_Donkey_bar_English_2	136	1	<?xml version="1.0"?>\n<Clock xmlns:dt="urn:schemas-microsoft-com:datatypes"><Description dt:dt="string">E-Prime Primary Realtime Clock</Description><StartTime><Timestamp dt:dt="int">0</Timestamp><DateUtc dt:dt="string">2016-04-05T22:28:32Z</DateUtc></StartTime><FrequencyChanges><FrequencyChange><Frequency dt:dt="r8">3507705</Frequency><Timestamp dt:dt="r8">22447006195</Timestamp><Current dt:dt="r8">0</Current><DateUtc dt:dt="string">2016-04-05T22:28:32Z</DateUtc></FrequencyChange></FrequencyChanges></Clock>\n	Hungry_Donkey_bar_English_2-136-1	60.018	125	1.0.0.18	1	972868701	Standard	2.0.10.353	2.0.10.353	04-05-2016		18:28:32	2.0.10.248	100	Bar50-50.bmp	53	2	?	0r_4g.bmp	0r_4g.bmp	0r_2g.bmp	0r_2g.bmp		0r_4g.bmp			TrialProc	TrialList	0	cvbn	-999999	16	343332	0	v	267	343599	300	-269	31	-12	10	29	4	10	10	100	0	0	0	0	4	4	2	2	0	4
Hungry_Donkey_bar_English_2	136	1	<?xml version="1.0"?>\n<Clock xmlns:dt="urn:schemas-microsoft-com:datatypes"><Description dt:dt="string">E-Prime Primary Realtime Clock</Description><StartTime><Timestamp dt:dt="int">0</Timestamp><DateUtc dt:dt="string">2016-04-05T22:28:32Z</DateUtc></StartTime><FrequencyChanges><FrequencyChange><Frequency dt:dt="r8">3507705</Frequency><Timestamp dt:dt="r8">22447006195</Timestamp><Current dt:dt="r8">0</Current><DateUtc dt:dt="string">2016-04-05T22:28:32Z</DateUtc></FrequencyChange></FrequencyChanges></Clock>\n	Hungry_Donkey_bar_English_2-136-1	60.018	125	1.0.0.18	1	972868701	Standard	2.0.10.353	2.0.10.353	04-05-2016		18:28:32	2.0.10.248	101	Bar50-50.bmp	53	2	?	0r_4g.bmp	0r_4g.bmp	0r_2g.bmp	0r_2g.bmp		0r_4g.bmp			TrialProc	TrialList	0	cvbn	-999999	16	345631	0	v	16	345647	304	-269	35	-12	14	29	4	8	11	101	0	0	0	0	4	4	2	2	0	4
Hungry_Donkey_bar_English_2	136	1	<?xml version="1.0"?>\n<Clock xmlns:dt="urn:schemas-microsoft-com:datatypes"><Description dt:dt="string">E-Prime Primary Realtime Clock</Description><StartTime><Timestamp dt:dt="int">0</Timestamp><DateUtc dt:dt="string">2016-04-05T22:28:32Z</DateUtc></StartTime><FrequencyChanges><FrequencyChange><Frequency dt:dt="r8">3507705</Frequency><Timestamp dt:dt="r8">22447006195</Timestamp><Current dt:dt="r8">0</Current><DateUtc dt:dt="string">2016-04-05T22:28:32Z</DateUtc></FrequencyChange></FrequencyChanges></Clock>\n	Hungry_Donkey_bar_English_2-136-1	60.018	125	1.0.0.18	1	972868701	Standard	2.0.10.353	2.0.10.353	04-05-2016		18:28:32	2.0.10.248	102	Bar50-50.bmp	53	2	?	12r_4g.bmp	0r_4g.bmp	3r_2g.bmp	0r_2g.bmp		0r_4g.bmp			TrialProc	TrialList	0	cvbn	-999999	16	347680	0	v	15	347695	308	-269	39	-12	18	29	4	5	11	102	-12	0	-3	0	4	4	2	2	0	4
Hungry_Donkey_bar_English_2	136	1	<?xml version="1.0"?>\n<Clock xmlns:dt="urn:schemas-microsoft-com:datatypes"><Description dt:dt="string">E-Prime Primary Realtime Clock</Description><StartTime><Timestamp dt:dt="int">0</Timestamp><DateUtc dt:dt="string">2016-04-05T22:28:32Z</DateUtc></StartTime><FrequencyChanges><FrequencyChange><Frequency dt:dt="r8">3507705</Frequency><Timestamp dt:dt="r8">22447006195</Timestamp><Current dt:dt="r8">0</Current><DateUtc dt:dt="string">2016-04-05T22:28:32Z</DateUtc></FrequencyChange></FrequencyChanges></Clock>\n	Hungry_Donkey_bar_English_2-136-1	60.018	125	1.0.0.18	1	972868701	Standard	2.0.10.353	2.0.10.353	04-05-2016		18:28:32	2.0.10.248	103	Bar50-50.bmp	54	2	?	0r_4g.bmp	0r_4g.bmp	0r_2g.bmp	0r_2g.bmp		0r_4g.bmp			TrialProc	TrialList	0	cvbn	-999999	16	349730	0	v	109	349839	312	-269	43	-12	22	29	4	6	11	103	0	0	0	0	4	4	2	2	0	4
Hungry_Donkey_bar_English_2	136	1	<?xml version="1.0"?>\n<Clock xmlns:dt="urn:schemas-microsoft-com:datatypes"><Description dt:dt="string">E-Prime Primary Realtime Clock</Description><StartTime><Timestamp dt:dt="int">0</Timestamp><DateUtc dt:dt="string">2016-04-05T22:28:32Z</DateUtc></StartTime><FrequencyChanges><FrequencyChange><Frequency dt:dt="r8">3507705</Frequency><Timestamp dt:dt="r8">22447006195</Timestamp><Current dt:dt="r8">0</Current><DateUtc dt:dt="string">2016-04-05T22:28:32Z</DateUtc></FrequencyChange></FrequencyChanges></Clock>\n	Hungry_Donkey_bar_English_2-136-1	60.018	125	1.0.0.18	1	972868701	Standard	2.0.10.353	2.0.10.353	04-05-2016		18:28:32	2.0.10.248	104	Bar50-50.bmp	54	2	?	10r_4g.bmp	0r_4g.bmp	2r_2g.bmp	0r_2g.bmp		0r_4g.bmp			TrialProc	TrialList	0	cvbn	-999999	16	351862	0	v	89	351951	316	-269	47	-12	26	29	4	4	11	104	-10	0	-2	0	4	4	2	2	0	4
Hungry_Donkey_bar_English_2	136	1	<?xml version="1.0"?>\n<Clock xmlns:dt="urn:schemas-microsoft-com:datatypes"><Description dt:dt="string">E-Prime Primary Realtime Clock</Description><StartTime><Timestamp dt:dt="int">0</Timestamp><DateUtc dt:dt="string">2016-04-05T22:28:32Z</DateUtc></StartTime><FrequencyChanges><FrequencyChange><Frequency dt:dt="r8">3507705</Frequency><Timestamp dt:dt="r8">22447006195</Timestamp><Current dt:dt="r8">0</Current><DateUtc dt:dt="string">2016-04-05T22:28:32Z</DateUtc></FrequencyChange></FrequencyChanges></Clock>\n	Hungry_Donkey_bar_English_2-136-1	60.018	125	1.0.0.18	1	972868701	Standard	2.0.10.353	2.0.10.353	04-05-2016		18:28:32	2.0.10.248	105	Bar50-50.bmp	54	2	?	10r_4g.bmp	0r_4g.bmp	2r_2g.bmp	0r_2g.bmp		0r_4g.bmp			TrialProc	TrialList	0	cvbn	-999999	16	353978	0	v	309	354287	320	-269	51	-12	30	29	4	3	11	105	-10	0	-2	0	4	4	2	2	0	4
Hungry_Donkey_bar_English_2	136	1	<?xml version="1.0"?>\n<Clock xmlns:dt="urn:schemas-microsoft-com:datatypes"><Description dt:dt="string">E-Prime Primary Realtime Clock</Description><StartTime><Timestamp dt:dt="int">0</Timestamp><DateUtc dt:dt="string">2016-04-05T22:28:32Z</DateUtc></StartTime><FrequencyChanges><FrequencyChange><Frequency dt:dt="r8">3507705</Frequency><Timestamp dt:dt="r8">22447006195</Timestamp><Current dt:dt="r8">0</Current><DateUtc dt:dt="string">2016-04-05T22:28:32Z</DateUtc></FrequencyChange></FrequencyChanges></Clock>\n	Hungry_Donkey_bar_English_2-136-1	60.018	125	1.0.0.18	1	972868701	Standard	2.0.10.353	2.0.10.353	04-05-2016		18:28:32	2.0.10.248	106	Bar50-50.bmp	54	4	?	10r_4g.bmp	0r_4g.bmp	2r_2g.bmp	0r_2g.bmp				0r_2g.bmp	TrialProc	TrialList	0	cvbn	-999999	16	356311	0	n	568	356879	322	-269	53	-12	30	29	6	2	11	106	-10	0	-2	0	4	4	2	2	0	2
Hungry_Donkey_bar_English_2	136	1	<?xml version="1.0"?>\n<Clock xmlns:dt="urn:schemas-microsoft-com:datatypes"><Description dt:dt="string">E-Prime Primary Realtime Clock</Description><StartTime><Timestamp dt:dt="int">0</Timestamp><DateUtc dt:dt="string">2016-04-05T22:28:32Z</DateUtc></StartTime><FrequencyChanges><FrequencyChange><Frequency dt:dt="r8">3507705</Frequency><Timestamp dt:dt="r8">22447006195</Timestamp><Current dt:dt="r8">0</Current><DateUtc dt:dt="string">2016-04-05T22:28:32Z</DateUtc></FrequencyChange></FrequencyChanges></Clock>\n	Hungry_Donkey_bar_English_2-136-1	60.018	125	1.0.0.18	1	972868701	Standard	2.0.10.353	2.0.10.353	04-05-2016		18:28:32	2.0.10.248	107	Bar50-50.bmp	55	3	?	0r_4g.bmp	0r_4g.bmp	0r_2g.bmp	0r_2g.bmp			0r_2g.bmp		TrialProc	TrialList	0	cvbn	-999999	16	358910	0	b	417	359327	324	-269	55	-12	30	31	6	9	11	107	0	0	0	0	4	4	2	2	0	2
Hungry_Donkey_bar_English_2	136	1	<?xml version="1.0"?>\n<Clock xmlns:dt="urn:schemas-microsoft-com:datatypes"><Description dt:dt="string">E-Prime Primary Realtime Clock</Description><StartTime><Timestamp dt:dt="int">0</Timestamp><DateUtc dt:dt="string">2016-04-05T22:28:32Z</DateUtc></StartTime><FrequencyChanges><FrequencyChange><Frequency dt:dt="r8">3507705</Frequency><Timestamp dt:dt="r8">22447006195</Timestamp><Current dt:dt="r8">0</Current><DateUtc dt:dt="string">2016-04-05T22:28:32Z</DateUtc></FrequencyChange></FrequencyChanges></Clock>\n	Hungry_Donkey_bar_English_2-136-1	60.018	125	1.0.0.18	1	972868701	Standard	2.0.10.353	2.0.10.353	04-05-2016		18:28:32	2.0.10.248	108	Bar50-50.bmp	55	3	?	8r_4g.bmp	50r_4g.bmp	1r_2g.bmp	10r_2g.bmp			1r_2g.bmp		TrialProc	TrialList	0	cvbn	-999999	16	361360	0	b	446	361806	326	-270	56	-12	30	32	6	1	11	108	-8	-50	-1	-10	4	4	2	2	-1	2
Hungry_Donkey_bar_English_2	136	1	<?xml version="1.0"?>\n<Clock xmlns:dt="urn:schemas-microsoft-com:datatypes"><Description dt:dt="string">E-Prime Primary Realtime Clock</Description><StartTime><Timestamp dt:dt="int">0</Timestamp><DateUtc dt:dt="string">2016-04-05T22:28:32Z</DateUtc></StartTime><FrequencyChanges><FrequencyChange><Frequency dt:dt="r8">3507705</Frequency><Timestamp dt:dt="r8">22447006195</Timestamp><Current dt:dt="r8">0</Current><DateUtc dt:dt="string">2016-04-05T22:28:32Z</DateUtc></FrequencyChange></FrequencyChanges></Clock>\n	Hungry_Donkey_bar_English_2-136-1	60.018	125	1.0.0.18	1	972868701	Standard	2.0.10.353	2.0.10.353	04-05-2016		18:28:32	2.0.10.248	109	Bar50-50.bmp	55	3	?	0r_4g.bmp	0r_4g.bmp	0r_2g.bmp	0r_2g.bmp			0r_2g.bmp		TrialProc	TrialList	0	cvbn	-999999	16	363842	0	b	492	364334	328	-270	58	-12	30	34	6	10	11	109	0	0	0	0	4	4	2	2	0	2
Hungry_Donkey_bar_English_2	136	1	<?xml version="1.0"?>\n<Clock xmlns:dt="urn:schemas-microsoft-com:datatypes"><Description dt:dt="string">E-Prime Primary Realtime Clock</Description><StartTime><Timestamp dt:dt="int">0</Timestamp><DateUtc dt:dt="string">2016-04-05T22:28:32Z</DateUtc></StartTime><FrequencyChanges><FrequencyChange><Frequency dt:dt="r8">3507705</Frequency><Timestamp dt:dt="r8">22447006195</Timestamp><Current dt:dt="r8">0</Current><DateUtc dt:dt="string">2016-04-05T22:28:32Z</DateUtc></FrequencyChange></FrequencyChanges></Clock>\n	Hungry_Donkey_bar_English_2-136-1	60.018	125	1.0.0.18	1	972868701	Standard	2.0.10.353	2.0.10.353	04-05-2016		18:28:32	2.0.10.248	110	Bar50-50.bmp	55	3	?	0r_4g.bmp	0r_4g.bmp	0r_2g.bmp	0r_2g.bmp			0r_2g.bmp		TrialProc	TrialList	0	cvbn	-999999	16	366375	0	b	87	366462	330	-270	60	-12	30	36	6	7	11	110	0	0	0	0	4	4	2	2	0	2
Hungry_Donkey_bar_English_2	136	1	<?xml version="1.0"?>\n<Clock xmlns:dt="urn:schemas-microsoft-com:datatypes"><Description dt:dt="string">E-Prime Primary Realtime Clock</Description><StartTime><Timestamp dt:dt="int">0</Timestamp><DateUtc dt:dt="string">2016-04-05T22:28:32Z</DateUtc></StartTime><FrequencyChanges><FrequencyChange><Frequency dt:dt="r8">3507705</Frequency><Timestamp dt:dt="r8">22447006195</Timestamp><Current dt:dt="r8">0</Current><DateUtc dt:dt="string">2016-04-05T22:28:32Z</DateUtc></FrequencyChange></FrequencyChanges></Clock>\n	Hungry_Donkey_bar_English_2-136-1	60.018	125	1.0.0.18	1	972868701	Standard	2.0.10.353	2.0.10.353	04-05-2016		18:28:32	2.0.10.248	111	Bar50-50.bmp	55	3	?	0r_4g.bmp	0r_4g.bmp	0r_2g.bmp	0r_2g.bmp			0r_2g.bmp		TrialProc	TrialList	0	cvbn	-999999	16	368491	0	b	387	368878	332	-270	62	-12	30	38	6	8	12	111	0	0	0	0	4	4	2	2	0	2
Hungry_Donkey_bar_English_2	136	1	<?xml version="1.0"?>\n<Clock xmlns:dt="urn:schemas-microsoft-com:datatypes"><Description dt:dt="string">E-Prime Primary Realtime Clock</Description><StartTime><Timestamp dt:dt="int">0</Timestamp><DateUtc dt:dt="string">2016-04-05T22:28:32Z</DateUtc></StartTime><FrequencyChanges><FrequencyChange><Frequency dt:dt="r8">3507705</Frequency><Timestamp dt:dt="r8">22447006195</Timestamp><Current dt:dt="r8">0</Current><DateUtc dt:dt="string">2016-04-05T22:28:32Z</DateUtc></FrequencyChange></FrequencyChanges></Clock>\n	Hungry_Donkey_bar_English_2-136-1	60.018	125	1.0.0.18	1	972868701	Standard	2.0.10.353	2.0.10.353	04-05-2016		18:28:32	2.0.10.248	112	Bar50-50.bmp	55	3	?	8r_4g.bmp	50r_4g.bmp	1r_2g.bmp	10r_2g.bmp			1r_2g.bmp		TrialProc	TrialList	0	cvbn	-999999	16	370907	0	b	227	371134	334	-271	63	-12	30	39	6	1	12	112	-8	-50	-1	-10	4	4	2	2	-1	2
Hungry_Donkey_bar_English_2	136	1	<?xml version="1.0"?>\n<Clock xmlns:dt="urn:schemas-microsoft-com:datatypes"><Description dt:dt="string">E-Prime Primary Realtime Clock</Description><StartTime><Timestamp dt:dt="int">0</Timestamp><DateUtc dt:dt="string">2016-04-05T22:28:32Z</DateUtc></StartTime><FrequencyChanges><FrequencyChange><Frequency dt:dt="r8">3507705</Frequency><Timestamp dt:dt="r8">22447006195</Timestamp><Current dt:dt="r8">0</Current><DateUtc dt:dt="string">2016-04-05T22:28:32Z</DateUtc></FrequencyChange></FrequencyChanges></Clock>\n	Hungry_Donkey_bar_English_2-136-1	60.018	125	1.0.0.18	1	972868701	Standard	2.0.10.353	2.0.10.353	04-05-2016		18:28:32	2.0.10.248	113	Bar50-50.bmp	56	2	?	0r_4g.bmp	0r_4g.bmp	0r_2g.bmp	0r_2g.bmp		0r_4g.bmp			TrialProc	TrialList	0	cvbn	-999999	16	373173	0	v	297	373470	338	-271	67	-12	34	39	6	9	12	113	0	0	0	0	4	4	2	2	0	4
Hungry_Donkey_bar_English_2	136	1	<?xml version="1.0"?>\n<Clock xmlns:dt="urn:schemas-microsoft-com:datatypes"><Description dt:dt="string">E-Prime Primary Realtime Clock</Description><StartTime><Timestamp dt:dt="int">0</Timestamp><DateUtc dt:dt="string">2016-04-05T22:28:32Z</DateUtc></StartTime><FrequencyChanges><FrequencyChange><Frequency dt:dt="r8">3507705</Frequency><Timestamp dt:dt="r8">22447006195</Timestamp><Current dt:dt="r8">0</Current><DateUtc dt:dt="string">2016-04-05T22:28:32Z</DateUtc></FrequencyChange></FrequencyChanges></Clock>\n	Hungry_Donkey_bar_English_2-136-1	60.018	125	1.0.0.18	1	972868701	Standard	2.0.10.353	2.0.10.353	04-05-2016		18:28:32	2.0.10.248	114	Bar50-50.bmp	56	1	?	0r_4g.bmp	0r_4g.bmp	0r_2g.bmp	0r_2g.bmp	0r_4g.bmp				TrialProc	TrialList	0	cvbn	-999999	16	375505	0	c	445	375950	342	-271	71	-8	34	39	6	7	12	114	0	0	0	0	4	4	2	2	0	4
