ExperimentName	Subject	Session	Clock.Information	DataFile.Basename	Display.RefreshRate	Eindtotaal[Session]	ExperimentVersion	Group	RandomSeed	RuntimeCapabilities	RuntimeVersion	RuntimeVersionExpected	SessionDate	SessionStartDateTimeUtc	SessionTime	StudioVersion	Block	BarImage	BarTotalWinst	DoorChoice	Eindtotaal[Block]	FBDoor1	FBDoor2	FBDoor3	FBDoor4	Image1	Image2	Image3	Image4	Procedure	Running	spel.ACC	spel.CRESP	spel.DurationError	spel.OnsetDelay	spel.OnsetTime	spel.OnsetToOnsetTime	spel.RESP	spel.RT	spel.RTTime	TotalGain	TotalLose	Totalsum	TotalsumD1	TotalsumD2	TotalsumD3	TotalsumD4	TrialList	TrialList.Cycle	TrialList.Sample	varV1	varV2	varV3	varV4	varW1	varW2	varW3	varW4	Verliesbedrag	Winstbedrag
Hungry_Donkey_bar_English_2	166	1	<?xml version="1.0"?>\n<Clock xmlns:dt="urn:schemas-microsoft-com:datatypes"><Description dt:dt="string">E-Prime Primary Realtime Clock</Description><StartTime><Timestamp dt:dt="int">0</Timestamp><DateUtc dt:dt="string">2016-08-11T22:02:26Z</DateUtc></StartTime><FrequencyChanges><FrequencyChange><Frequency dt:dt="r8">3507705</Frequency><Timestamp dt:dt="r8">334661604089</Timestamp><Current dt:dt="r8">0</Current><DateUtc dt:dt="string">2016-08-11T22:02:26Z</DateUtc></FrequencyChange></FrequencyChanges></Clock>\n	Hungry_Donkey_bar_English_2-166-1	60.018	-103	1.0.0.18	1	-345137184	Standard	2.0.10.353	2.0.10.353	08-11-2016		18:02:27	2.0.10.248	1	Bar25-75.bmp	29	1	?	10r_4g.bmp	0r_4g.bmp	2r_2g.bmp	0r_2g.bmp	10r_4g.bmp				TrialProc	TrialList	0	cvbn	-999999	36	63452	0	c	540	63992	4	-10	-6	-6	0	0	0	2	1	1	-10	0	-2	0	4	4	2	2	-10	4
Hungry_Donkey_bar_English_2	166	1	<?xml version="1.0"?>\n<Clock xmlns:dt="urn:schemas-microsoft-com:datatypes"><Description dt:dt="string">E-Prime Primary Realtime Clock</Description><StartTime><Timestamp dt:dt="int">0</Timestamp><DateUtc dt:dt="string">2016-08-11T22:02:26Z</DateUtc></StartTime><FrequencyChanges><FrequencyChange><Frequency dt:dt="r8">3507705</Frequency><Timestamp dt:dt="r8">334661604089</Timestamp><Current dt:dt="r8">0</Current><DateUtc dt:dt="string">2016-08-11T22:02:26Z</DateUtc></FrequencyChange></FrequencyChanges></Clock>\n	Hungry_Donkey_bar_English_2-166-1	60.018	-103	1.0.0.18	1	-345137184	Standard	2.0.10.353	2.0.10.353	08-11-2016		18:02:27	2.0.10.248	2	Bar50-50.bmp	44	2	?	10r_4g.bmp	0r_4g.bmp	2r_2g.bmp	0r_2g.bmp		0r_4g.bmp			TrialProc	TrialList	0	cvbn	-999999	16	66034	0	v	310	66344	8	-10	-2	-6	4	0	0	4	1	2	-10	0	-2	0	4	4	2	2	0	4
Hungry_Donkey_bar_English_2	166	1	<?xml version="1.0"?>\n<Clock xmlns:dt="urn:schemas-microsoft-com:datatypes"><Description dt:dt="string">E-Prime Primary Realtime Clock</Description><StartTime><Timestamp dt:dt="int">0</Timestamp><DateUtc dt:dt="string">2016-08-11T22:02:26Z</DateUtc></StartTime><FrequencyChanges><FrequencyChange><Frequency dt:dt="r8">3507705</Frequency><Timestamp dt:dt="r8">334661604089</Timestamp><Current dt:dt="r8">0</Current><DateUtc dt:dt="string">2016-08-11T22:02:26Z</DateUtc></FrequencyChange></FrequencyChanges></Clock>\n	Hungry_Donkey_bar_English_2-166-1	60.018	-103	1.0.0.18	1	-345137184	Standard	2.0.10.353	2.0.10.353	08-11-2016		18:02:27	2.0.10.248	3	Bar37-63.bmp	33	4	?	8r_4g.bmp	50r_4g.bmp	1r_2g.bmp	10r_2g.bmp				10r_2g.bmp	TrialProc	TrialList	0	cvbn	-999999	16	68384	0	n	472	68856	10	-20	-10	-6	4	0	-8	1	1	3	-8	-50	-1	-10	4	4	2	2	-10	2
Hungry_Donkey_bar_English_2	166	1	<?xml version="1.0"?>\n<Clock xmlns:dt="urn:schemas-microsoft-com:datatypes"><Description dt:dt="string">E-Prime Primary Realtime Clock</Description><StartTime><Timestamp dt:dt="int">0</Timestamp><DateUtc dt:dt="string">2016-08-11T22:02:26Z</DateUtc></StartTime><FrequencyChanges><FrequencyChange><Frequency dt:dt="r8">3507705</Frequency><Timestamp dt:dt="r8">334661604089</Timestamp><Current dt:dt="r8">0</Current><DateUtc dt:dt="string">2016-08-11T22:02:26Z</DateUtc></FrequencyChange></FrequencyChanges></Clock>\n	Hungry_Donkey_bar_English_2-166-1	60.018	-103	1.0.0.18	1	-345137184	Standard	2.0.10.353	2.0.10.353	08-11-2016		18:02:27	2.0.10.248	4	Bar37-63.bmp	41	1	?	0r_4g.bmp	0r_4g.bmp	0r_2g.bmp	0r_2g.bmp	0r_4g.bmp				TrialProc	TrialList	0	cvbn	-999999	16	70900	0	c	788	71688	14	-20	-6	-2	4	0	-8	7	1	4	0	0	0	0	4	4	2	2	0	4
Hungry_Donkey_bar_English_2	166	1	<?xml version="1.0"?>\n<Clock xmlns:dt="urn:schemas-microsoft-com:datatypes"><Description dt:dt="string">E-Prime Primary Realtime Clock</Description><StartTime><Timestamp dt:dt="int">0</Timestamp><DateUtc dt:dt="string">2016-08-11T22:02:26Z</DateUtc></StartTime><FrequencyChanges><FrequencyChange><Frequency dt:dt="r8">3507705</Frequency><Timestamp dt:dt="r8">334661604089</Timestamp><Current dt:dt="r8">0</Current><DateUtc dt:dt="string">2016-08-11T22:02:26Z</DateUtc></FrequencyChange></FrequencyChanges></Clock>\n	Hungry_Donkey_bar_English_2-166-1	60.018	-103	1.0.0.18	1	-345137184	Standard	2.0.10.353	2.0.10.353	08-11-2016		18:02:27	2.0.10.248	5	Bar37-63.bmp	41	3	?	12r_4g.bmp	0r_4g.bmp	3r_2g.bmp	0r_2g.bmp			3r_2g.bmp		TrialProc	TrialList	0	cvbn	-999999	16	73715	0	b	821	74536	16	-23	-7	-2	4	-1	-8	5	1	5	-12	0	-3	0	4	4	2	2	-3	2
Hungry_Donkey_bar_English_2	166	1	<?xml version="1.0"?>\n<Clock xmlns:dt="urn:schemas-microsoft-com:datatypes"><Description dt:dt="string">E-Prime Primary Realtime Clock</Description><StartTime><Timestamp dt:dt="int">0</Timestamp><DateUtc dt:dt="string">2016-08-11T22:02:26Z</DateUtc></StartTime><FrequencyChanges><FrequencyChange><Frequency dt:dt="r8">3507705</Frequency><Timestamp dt:dt="r8">334661604089</Timestamp><Current dt:dt="r8">0</Current><DateUtc dt:dt="string">2016-08-11T22:02:26Z</DateUtc></FrequencyChange></FrequencyChanges></Clock>\n	Hungry_Donkey_bar_English_2-166-1	60.018	-103	1.0.0.18	1	-345137184	Standard	2.0.10.353	2.0.10.353	08-11-2016		18:02:27	2.0.10.248	6	Bar50-50.bmp	47	2	?	0r_4g.bmp	0r_4g.bmp	0r_2g.bmp	0r_2g.bmp		0r_4g.bmp			TrialProc	TrialList	0	cvbn	-999999	16	76581	0	v	1123	77704	20	-23	-3	-2	8	-1	-8	6	1	6	0	0	0	0	4	4	2	2	0	4
Hungry_Donkey_bar_English_2	166	1	<?xml version="1.0"?>\n<Clock xmlns:dt="urn:schemas-microsoft-com:datatypes"><Description dt:dt="string">E-Prime Primary Realtime Clock</Description><StartTime><Timestamp dt:dt="int">0</Timestamp><DateUtc dt:dt="string">2016-08-11T22:02:26Z</DateUtc></StartTime><FrequencyChanges><FrequencyChange><Frequency dt:dt="r8">3507705</Frequency><Timestamp dt:dt="r8">334661604089</Timestamp><Current dt:dt="r8">0</Current><DateUtc dt:dt="string">2016-08-11T22:02:26Z</DateUtc></FrequencyChange></FrequencyChanges></Clock>\n	Hungry_Donkey_bar_English_2-166-1	60.018	-103	1.0.0.18	1	-345137184	Standard	2.0.10.353	2.0.10.353	08-11-2016		18:02:27	2.0.10.248	7	Bar50-50.bmp	49	4	?	0r_4g.bmp	0r_4g.bmp	0r_2g.bmp	0r_2g.bmp				0r_2g.bmp	TrialProc	TrialList	0	cvbn	-999999	16	79730	0	n	245	79975	22	-23	-1	-2	8	-1	-6	9	1	7	0	0	0	0	4	4	2	2	0	2
Hungry_Donkey_bar_English_2	166	1	<?xml version="1.0"?>\n<Clock xmlns:dt="urn:schemas-microsoft-com:datatypes"><Description dt:dt="string">E-Prime Primary Realtime Clock</Description><StartTime><Timestamp dt:dt="int">0</Timestamp><DateUtc dt:dt="string">2016-08-11T22:02:26Z</DateUtc></StartTime><FrequencyChanges><FrequencyChange><Frequency dt:dt="r8">3507705</Frequency><Timestamp dt:dt="r8">334661604089</Timestamp><Current dt:dt="r8">0</Current><DateUtc dt:dt="string">2016-08-11T22:02:26Z</DateUtc></FrequencyChange></FrequencyChanges></Clock>\n	Hungry_Donkey_bar_English_2-166-1	60.018	-103	1.0.0.18	1	-345137184	Standard	2.0.10.353	2.0.10.353	08-11-2016		18:02:27	2.0.10.248	8	Bar50-50.bmp	53	2	?	0r_4g.bmp	0r_4g.bmp	0r_2g.bmp	0r_2g.bmp		0r_4g.bmp			TrialProc	TrialList	0	cvbn	-999999	16	82013	0	v	1050	83063	26	-23	3	-2	12	-1	-6	10	1	8	0	0	0	0	4	4	2	2	0	4
Hungry_Donkey_bar_English_2	166	1	<?xml version="1.0"?>\n<Clock xmlns:dt="urn:schemas-microsoft-com:datatypes"><Description dt:dt="string">E-Prime Primary Realtime Clock</Description><StartTime><Timestamp dt:dt="int">0</Timestamp><DateUtc dt:dt="string">2016-08-11T22:02:26Z</DateUtc></StartTime><FrequencyChanges><FrequencyChange><Frequency dt:dt="r8">3507705</Frequency><Timestamp dt:dt="r8">334661604089</Timestamp><Current dt:dt="r8">0</Current><DateUtc dt:dt="string">2016-08-11T22:02:26Z</DateUtc></FrequencyChange></FrequencyChanges></Clock>\n	Hungry_Donkey_bar_English_2-166-1	60.018	-103	1.0.0.18	1	-345137184	Standard	2.0.10.353	2.0.10.353	08-11-2016		18:02:27	2.0.10.248	9	Bar63-37.bmp	57	1	?	0r_4g.bmp	0r_4g.bmp	0r_2g.bmp	0r_2g.bmp	0r_4g.bmp				TrialProc	TrialList	0	cvbn	-999999	16	85095	0	c	576	85671	30	-23	7	2	12	-1	-6	8	1	9	0	0	0	0	4	4	2	2	0	4
Hungry_Donkey_bar_English_2	166	1	<?xml version="1.0"?>\n<Clock xmlns:dt="urn:schemas-microsoft-com:datatypes"><Description dt:dt="string">E-Prime Primary Realtime Clock</Description><StartTime><Timestamp dt:dt="int">0</Timestamp><DateUtc dt:dt="string">2016-08-11T22:02:26Z</DateUtc></StartTime><FrequencyChanges><FrequencyChange><Frequency dt:dt="r8">3507705</Frequency><Timestamp dt:dt="r8">334661604089</Timestamp><Current dt:dt="r8">0</Current><DateUtc dt:dt="string">2016-08-11T22:02:26Z</DateUtc></FrequencyChange></FrequencyChanges></Clock>\n	Hungry_Donkey_bar_English_2-166-1	60.018	-103	1.0.0.18	1	-345137184	Standard	2.0.10.353	2.0.10.353	08-11-2016		18:02:27	2.0.10.248	10	Bar50-50.bmp	56	3	?	10r_4g.bmp	0r_4g.bmp	2r_2g.bmp	0r_2g.bmp			2r_2g.bmp		TrialProc	TrialList	0	cvbn	-999999	16	87711	0	b	232	87943	32	-25	7	2	12	-1	-6	3	1	10	-10	0	-2	0	4	4	2	2	-2	2
Hungry_Donkey_bar_English_2	166	1	<?xml version="1.0"?>\n<Clock xmlns:dt="urn:schemas-microsoft-com:datatypes"><Description dt:dt="string">E-Prime Primary Realtime Clock</Description><StartTime><Timestamp dt:dt="int">0</Timestamp><DateUtc dt:dt="string">2016-08-11T22:02:26Z</DateUtc></StartTime><FrequencyChanges><FrequencyChange><Frequency dt:dt="r8">3507705</Frequency><Timestamp dt:dt="r8">334661604089</Timestamp><Current dt:dt="r8">0</Current><DateUtc dt:dt="string">2016-08-11T22:02:26Z</DateUtc></FrequencyChange></FrequencyChanges></Clock>\n	Hungry_Donkey_bar_English_2-166-1	60.018	-103	1.0.0.18	1	-345137184	Standard	2.0.10.353	2.0.10.353	08-11-2016		18:02:27	2.0.10.248	11	Bar50-50.bmp	51	1	?	10r_4g.bmp	0r_4g.bmp	2r_2g.bmp	0r_2g.bmp	10r_4g.bmp				TrialProc	TrialList	0	cvbn	-999999	16	89977	0	c	286	90263	36	-35	1	-4	12	-1	-6	3	2	11	-10	0	-2	0	4	4	2	2	-10	4
Hungry_Donkey_bar_English_2	166	1	<?xml version="1.0"?>\n<Clock xmlns:dt="urn:schemas-microsoft-com:datatypes"><Description dt:dt="string">E-Prime Primary Realtime Clock</Description><StartTime><Timestamp dt:dt="int">0</Timestamp><DateUtc dt:dt="string">2016-08-11T22:02:26Z</DateUtc></StartTime><FrequencyChanges><FrequencyChange><Frequency dt:dt="r8">3507705</Frequency><Timestamp dt:dt="r8">334661604089</Timestamp><Current dt:dt="r8">0</Current><DateUtc dt:dt="string">2016-08-11T22:02:26Z</DateUtc></FrequencyChange></FrequencyChanges></Clock>\n	Hungry_Donkey_bar_English_2-166-1	60.018	-103	1.0.0.18	1	-345137184	Standard	2.0.10.353	2.0.10.353	08-11-2016		18:02:27	2.0.10.248	12	Bar50-50.bmp	50	3	?	12r_4g.bmp	0r_4g.bmp	3r_2g.bmp	0r_2g.bmp			3r_2g.bmp		TrialProc	TrialList	0	cvbn	-999999	16	92293	0	b	386	92679	38	-38	0	-4	12	-2	-6	5	2	12	-12	0	-3	0	4	4	2	2	-3	2
Hungry_Donkey_bar_English_2	166	1	<?xml version="1.0"?>\n<Clock xmlns:dt="urn:schemas-microsoft-com:datatypes"><Description dt:dt="string">E-Prime Primary Realtime Clock</Description><StartTime><Timestamp dt:dt="int">0</Timestamp><DateUtc dt:dt="string">2016-08-11T22:02:26Z</DateUtc></StartTime><FrequencyChanges><FrequencyChange><Frequency dt:dt="r8">3507705</Frequency><Timestamp dt:dt="r8">334661604089</Timestamp><Current dt:dt="r8">0</Current><DateUtc dt:dt="string">2016-08-11T22:02:26Z</DateUtc></FrequencyChange></FrequencyChanges></Clock>\n	Hungry_Donkey_bar_English_2-166-1	60.018	-103	1.0.0.18	1	-345137184	Standard	2.0.10.353	2.0.10.353	08-11-2016		18:02:27	2.0.10.248	13	Bar50-50.bmp	52	2	?	0r_4g.bmp	0r_4g.bmp	0r_2g.bmp	0r_2g.bmp		0r_4g.bmp			TrialProc	TrialList	0	cvbn	-999999	16	94709	0	v	658	95367	42	-38	4	-4	16	-2	-6	9	2	13	0	0	0	0	4	4	2	2	0	4
Hungry_Donkey_bar_English_2	166	1	<?xml version="1.0"?>\n<Clock xmlns:dt="urn:schemas-microsoft-com:datatypes"><Description dt:dt="string">E-Prime Primary Realtime Clock</Description><StartTime><Timestamp dt:dt="int">0</Timestamp><DateUtc dt:dt="string">2016-08-11T22:02:26Z</DateUtc></StartTime><FrequencyChanges><FrequencyChange><Frequency dt:dt="r8">3507705</Frequency><Timestamp dt:dt="r8">334661604089</Timestamp><Current dt:dt="r8">0</Current><DateUtc dt:dt="string">2016-08-11T22:02:26Z</DateUtc></FrequencyChange></FrequencyChanges></Clock>\n	Hungry_Donkey_bar_English_2-166-1	60.018	-103	1.0.0.18	1	-345137184	Standard	2.0.10.353	2.0.10.353	08-11-2016		18:02:27	2.0.10.248	14	Bar50-50.bmp	54	4	?	10r_4g.bmp	0r_4g.bmp	2r_2g.bmp	0r_2g.bmp				0r_2g.bmp	TrialProc	TrialList	0	cvbn	-999999	16	97392	0	n	502	97894	44	-38	6	-4	16	-2	-4	2	2	14	-10	0	-2	0	4	4	2	2	0	2
Hungry_Donkey_bar_English_2	166	1	<?xml version="1.0"?>\n<Clock xmlns:dt="urn:schemas-microsoft-com:datatypes"><Description dt:dt="string">E-Prime Primary Realtime Clock</Description><StartTime><Timestamp dt:dt="int">0</Timestamp><DateUtc dt:dt="string">2016-08-11T22:02:26Z</DateUtc></StartTime><FrequencyChanges><FrequencyChange><Frequency dt:dt="r8">3507705</Frequency><Timestamp dt:dt="r8">334661604089</Timestamp><Current dt:dt="r8">0</Current><DateUtc dt:dt="string">2016-08-11T22:02:26Z</DateUtc></FrequencyChange></FrequencyChanges></Clock>\n	Hungry_Donkey_bar_English_2-166-1	60.018	-103	1.0.0.18	1	-345137184	Standard	2.0.10.353	2.0.10.353	08-11-2016		18:02:27	2.0.10.248	15	Bar50-50.bmp	56	1	?	0r_4g.bmp	0r_4g.bmp	0r_2g.bmp	0r_2g.bmp	0r_4g.bmp				TrialProc	TrialList	0	cvbn	-999999	16	99924	0	c	434	100358	48	-38	10	0	16	-2	-4	7	2	15	0	0	0	0	4	4	2	2	0	4
Hungry_Donkey_bar_English_2	166	1	<?xml version="1.0"?>\n<Clock xmlns:dt="urn:schemas-microsoft-com:datatypes"><Description dt:dt="string">E-Prime Primary Realtime Clock</Description><StartTime><Timestamp dt:dt="int">0</Timestamp><DateUtc dt:dt="string">2016-08-11T22:02:26Z</DateUtc></StartTime><FrequencyChanges><FrequencyChange><Frequency dt:dt="r8">3507705</Frequency><Timestamp dt:dt="r8">334661604089</Timestamp><Current dt:dt="r8">0</Current><DateUtc dt:dt="string">2016-08-11T22:02:26Z</DateUtc></FrequencyChange></FrequencyChanges></Clock>\n	Hungry_Donkey_bar_English_2-166-1	60.018	-103	1.0.0.18	1	-345137184	Standard	2.0.10.353	2.0.10.353	08-11-2016		18:02:27	2.0.10.248	16	Bar50-50.bmp	56	3	?	10r_4g.bmp	0r_4g.bmp	2r_2g.bmp	0r_2g.bmp			2r_2g.bmp		TrialProc	TrialList	0	cvbn	-999999	16	102390	0	b	224	102614	50	-40	10	0	16	-2	-4	4	2	16	-10	0	-2	0	4	4	2	2	-2	2
Hungry_Donkey_bar_English_2	166	1	<?xml version="1.0"?>\n<Clock xmlns:dt="urn:schemas-microsoft-com:datatypes"><Description dt:dt="string">E-Prime Primary Realtime Clock</Description><StartTime><Timestamp dt:dt="int">0</Timestamp><DateUtc dt:dt="string">2016-08-11T22:02:26Z</DateUtc></StartTime><FrequencyChanges><FrequencyChange><Frequency dt:dt="r8">3507705</Frequency><Timestamp dt:dt="r8">334661604089</Timestamp><Current dt:dt="r8">0</Current><DateUtc dt:dt="string">2016-08-11T22:02:26Z</DateUtc></FrequencyChange></FrequencyChanges></Clock>\n	Hungry_Donkey_bar_English_2-166-1	60.018	-103	1.0.0.18	1	-345137184	Standard	2.0.10.353	2.0.10.353	08-11-2016		18:02:27	2.0.10.248	17	Bar63-37.bmp	57	1	?	0r_4g.bmp	0r_4g.bmp	0r_2g.bmp	0r_2g.bmp	0r_4g.bmp				TrialProc	TrialList	0	cvbn	-999999	16	104640	0	c	310	104950	54	-40	14	4	16	-2	-4	8	2	17	0	0	0	0	4	4	2	2	0	4
Hungry_Donkey_bar_English_2	166	1	<?xml version="1.0"?>\n<Clock xmlns:dt="urn:schemas-microsoft-com:datatypes"><Description dt:dt="string">E-Prime Primary Realtime Clock</Description><StartTime><Timestamp dt:dt="int">0</Timestamp><DateUtc dt:dt="string">2016-08-11T22:02:26Z</DateUtc></StartTime><FrequencyChanges><FrequencyChange><Frequency dt:dt="r8">3507705</Frequency><Timestamp dt:dt="r8">334661604089</Timestamp><Current dt:dt="r8">0</Current><DateUtc dt:dt="string">2016-08-11T22:02:26Z</DateUtc></FrequencyChange></FrequencyChanges></Clock>\n	Hungry_Donkey_bar_English_2-166-1	60.018	-103	1.0.0.18	1	-345137184	Standard	2.0.10.353	2.0.10.353	08-11-2016		18:02:27	2.0.10.248	18	Bar63-37.bmp	58	4	?	0r_4g.bmp	0r_4g.bmp	0r_2g.bmp	0r_2g.bmp				0r_2g.bmp	TrialProc	TrialList	0	cvbn	-999999	16	106989	0	n	425	107414	56	-40	16	4	16	-2	-2	6	2	18	0	0	0	0	4	4	2	2	0	2
Hungry_Donkey_bar_English_2	166	1	<?xml version="1.0"?>\n<Clock xmlns:dt="urn:schemas-microsoft-com:datatypes"><Description dt:dt="string">E-Prime Primary Realtime Clock</Description><StartTime><Timestamp dt:dt="int">0</Timestamp><DateUtc dt:dt="string">2016-08-11T22:02:26Z</DateUtc></StartTime><FrequencyChanges><FrequencyChange><Frequency dt:dt="r8">3507705</Frequency><Timestamp dt:dt="r8">334661604089</Timestamp><Current dt:dt="r8">0</Current><DateUtc dt:dt="string">2016-08-11T22:02:26Z</DateUtc></FrequencyChange></FrequencyChanges></Clock>\n	Hungry_Donkey_bar_English_2-166-1	60.018	-103	1.0.0.18	1	-345137184	Standard	2.0.10.353	2.0.10.353	08-11-2016		18:02:27	2.0.10.248	19	Bar63-37.bmp	60	2	?	0r_4g.bmp	0r_4g.bmp	0r_2g.bmp	0r_2g.bmp		0r_4g.bmp			TrialProc	TrialList	0	cvbn	-999999	16	109438	0	v	472	109910	60	-40	20	4	20	-2	-2	10	2	19	0	0	0	0	4	4	2	2	0	4
Hungry_Donkey_bar_English_2	166	1	<?xml version="1.0"?>\n<Clock xmlns:dt="urn:schemas-microsoft-com:datatypes"><Description dt:dt="string">E-Prime Primary Realtime Clock</Description><StartTime><Timestamp dt:dt="int">0</Timestamp><DateUtc dt:dt="string">2016-08-11T22:02:26Z</DateUtc></StartTime><FrequencyChanges><FrequencyChange><Frequency dt:dt="r8">3507705</Frequency><Timestamp dt:dt="r8">334661604089</Timestamp><Current dt:dt="r8">0</Current><DateUtc dt:dt="string">2016-08-11T22:02:26Z</DateUtc></FrequencyChange></FrequencyChanges></Clock>\n	Hungry_Donkey_bar_English_2-166-1	60.018	-103	1.0.0.18	1	-345137184	Standard	2.0.10.353	2.0.10.353	08-11-2016		18:02:27	2.0.10.248	20	Bar63-37.bmp	57	1	?	8r_4g.bmp	50r_4g.bmp	1r_2g.bmp	10r_2g.bmp	8r_4g.bmp				TrialProc	TrialList	0	cvbn	-999999	17	111938	0	c	180	112118	64	-48	16	0	20	-2	-2	1	2	20	-8	-50	-1	-10	4	4	2	2	-8	4
Hungry_Donkey_bar_English_2	166	1	<?xml version="1.0"?>\n<Clock xmlns:dt="urn:schemas-microsoft-com:datatypes"><Description dt:dt="string">E-Prime Primary Realtime Clock</Description><StartTime><Timestamp dt:dt="int">0</Timestamp><DateUtc dt:dt="string">2016-08-11T22:02:26Z</DateUtc></StartTime><FrequencyChanges><FrequencyChange><Frequency dt:dt="r8">3507705</Frequency><Timestamp dt:dt="r8">334661604089</Timestamp><Current dt:dt="r8">0</Current><DateUtc dt:dt="string">2016-08-11T22:02:26Z</DateUtc></FrequencyChange></FrequencyChanges></Clock>\n	Hungry_Donkey_bar_English_2-166-1	60.018	-103	1.0.0.18	1	-345137184	Standard	2.0.10.353	2.0.10.353	08-11-2016		18:02:27	2.0.10.248	21	Bar63-37.bmp	59	2	?	10r_4g.bmp	0r_4g.bmp	2r_2g.bmp	0r_2g.bmp		0r_4g.bmp			TrialProc	TrialList	0	cvbn	-999999	17	114154	0	v	539	114693	68	-48	20	0	24	-2	-2	2	3	21	-10	0	-2	0	4	4	2	2	0	4
Hungry_Donkey_bar_English_2	166	1	<?xml version="1.0"?>\n<Clock xmlns:dt="urn:schemas-microsoft-com:datatypes"><Description dt:dt="string">E-Prime Primary Realtime Clock</Description><StartTime><Timestamp dt:dt="int">0</Timestamp><DateUtc dt:dt="string">2016-08-11T22:02:26Z</DateUtc></StartTime><FrequencyChanges><FrequencyChange><Frequency dt:dt="r8">3507705</Frequency><Timestamp dt:dt="r8">334661604089</Timestamp><Current dt:dt="r8">0</Current><DateUtc dt:dt="string">2016-08-11T22:02:26Z</DateUtc></FrequencyChange></FrequencyChanges></Clock>\n	Hungry_Donkey_bar_English_2-166-1	60.018	-103	1.0.0.18	1	-345137184	Standard	2.0.10.353	2.0.10.353	08-11-2016		18:02:27	2.0.10.248	22	Bar63-37.bmp	59	3	?	0r_4g.bmp	0r_4g.bmp	0r_2g.bmp	0r_2g.bmp			0r_2g.bmp		TrialProc	TrialList	0	cvbn	-999999	16	116719	0	b	150	116869	70	-48	22	0	24	0	-2	9	3	22	0	0	0	0	4	4	2	2	0	2
Hungry_Donkey_bar_English_2	166	1	<?xml version="1.0"?>\n<Clock xmlns:dt="urn:schemas-microsoft-com:datatypes"><Description dt:dt="string">E-Prime Primary Realtime Clock</Description><StartTime><Timestamp dt:dt="int">0</Timestamp><DateUtc dt:dt="string">2016-08-11T22:02:26Z</DateUtc></StartTime><FrequencyChanges><FrequencyChange><Frequency dt:dt="r8">3507705</Frequency><Timestamp dt:dt="r8">334661604089</Timestamp><Current dt:dt="r8">0</Current><DateUtc dt:dt="string">2016-08-11T22:02:26Z</DateUtc></FrequencyChange></FrequencyChanges></Clock>\n	Hungry_Donkey_bar_English_2-166-1	60.018	-103	1.0.0.18	1	-345137184	Standard	2.0.10.353	2.0.10.353	08-11-2016		18:02:27	2.0.10.248	23	Bar63-37.bmp	61	1	?	0r_4g.bmp	0r_4g.bmp	0r_2g.bmp	0r_2g.bmp	0r_4g.bmp				TrialProc	TrialList	0	cvbn	-999999	16	118902	0	c	159	119061	74	-48	26	4	24	0	-2	6	3	23	0	0	0	0	4	4	2	2	0	4
Hungry_Donkey_bar_English_2	166	1	<?xml version="1.0"?>\n<Clock xmlns:dt="urn:schemas-microsoft-com:datatypes"><Description dt:dt="string">E-Prime Primary Realtime Clock</Description><StartTime><Timestamp dt:dt="int">0</Timestamp><DateUtc dt:dt="string">2016-08-11T22:02:26Z</DateUtc></StartTime><FrequencyChanges><FrequencyChange><Frequency dt:dt="r8">3507705</Frequency><Timestamp dt:dt="r8">334661604089</Timestamp><Current dt:dt="r8">0</Current><DateUtc dt:dt="string">2016-08-11T22:02:26Z</DateUtc></FrequencyChange></FrequencyChanges></Clock>\n	Hungry_Donkey_bar_English_2-166-1	60.018	-103	1.0.0.18	1	-345137184	Standard	2.0.10.353	2.0.10.353	08-11-2016		18:02:27	2.0.10.248	24	Bar63-37.bmp	61	4	?	0r_4g.bmp	0r_4g.bmp	0r_2g.bmp	0r_2g.bmp				0r_2g.bmp	TrialProc	TrialList	0	cvbn	-999999	16	121085	0	n	472	121557	76	-48	28	4	24	0	0	8	3	24	0	0	0	0	4	4	2	2	0	2
Hungry_Donkey_bar_English_2	166	1	<?xml version="1.0"?>\n<Clock xmlns:dt="urn:schemas-microsoft-com:datatypes"><Description dt:dt="string">E-Prime Primary Realtime Clock</Description><StartTime><Timestamp dt:dt="int">0</Timestamp><DateUtc dt:dt="string">2016-08-11T22:02:26Z</DateUtc></StartTime><FrequencyChanges><FrequencyChange><Frequency dt:dt="r8">3507705</Frequency><Timestamp dt:dt="r8">334661604089</Timestamp><Current dt:dt="r8">0</Current><DateUtc dt:dt="string">2016-08-11T22:02:26Z</DateUtc></FrequencyChange></FrequencyChanges></Clock>\n	Hungry_Donkey_bar_English_2-166-1	60.018	-103	1.0.0.18	1	-345137184	Standard	2.0.10.353	2.0.10.353	08-11-2016		18:02:27	2.0.10.248	25	Bar50-50.bmp	45	2	?	8r_4g.bmp	50r_4g.bmp	1r_2g.bmp	10r_2g.bmp		50r_4g.bmp			TrialProc	TrialList	0	cvbn	-999999	16	123584	0	v	533	124117	80	-98	-18	4	-22	0	0	1	3	25	-8	-50	-1	-10	4	4	2	2	-50	4
Hungry_Donkey_bar_English_2	166	1	<?xml version="1.0"?>\n<Clock xmlns:dt="urn:schemas-microsoft-com:datatypes"><Description dt:dt="string">E-Prime Primary Realtime Clock</Description><StartTime><Timestamp dt:dt="int">0</Timestamp><DateUtc dt:dt="string">2016-08-11T22:02:26Z</DateUtc></StartTime><FrequencyChanges><FrequencyChange><Frequency dt:dt="r8">3507705</Frequency><Timestamp dt:dt="r8">334661604089</Timestamp><Current dt:dt="r8">0</Current><DateUtc dt:dt="string">2016-08-11T22:02:26Z</DateUtc></FrequencyChange></FrequencyChanges></Clock>\n	Hungry_Donkey_bar_English_2-166-1	60.018	-103	1.0.0.18	1	-345137184	Standard	2.0.10.353	2.0.10.353	08-11-2016		18:02:27	2.0.10.248	26	Bar50-50.bmp	44	1	?	10r_4g.bmp	0r_4g.bmp	2r_2g.bmp	0r_2g.bmp	10r_4g.bmp				TrialProc	TrialList	0	cvbn	-999999	16	126150	0	c	399	126549	84	-108	-24	-2	-22	0	0	3	3	26	-10	0	-2	0	4	4	2	2	-10	4
Hungry_Donkey_bar_English_2	166	1	<?xml version="1.0"?>\n<Clock xmlns:dt="urn:schemas-microsoft-com:datatypes"><Description dt:dt="string">E-Prime Primary Realtime Clock</Description><StartTime><Timestamp dt:dt="int">0</Timestamp><DateUtc dt:dt="string">2016-08-11T22:02:26Z</DateUtc></StartTime><FrequencyChanges><FrequencyChange><Frequency dt:dt="r8">3507705</Frequency><Timestamp dt:dt="r8">334661604089</Timestamp><Current dt:dt="r8">0</Current><DateUtc dt:dt="string">2016-08-11T22:02:26Z</DateUtc></FrequencyChange></FrequencyChanges></Clock>\n	Hungry_Donkey_bar_English_2-166-1	60.018	-103	1.0.0.18	1	-345137184	Standard	2.0.10.353	2.0.10.353	08-11-2016		18:02:27	2.0.10.248	27	Bar50-50.bmp	44	4	?	10r_4g.bmp	0r_4g.bmp	2r_2g.bmp	0r_2g.bmp				0r_2g.bmp	TrialProc	TrialList	0	cvbn	-999999	16	128583	0	n	350	128933	86	-108	-22	-2	-22	0	2	4	3	27	-10	0	-2	0	4	4	2	2	0	2
Hungry_Donkey_bar_English_2	166	1	<?xml version="1.0"?>\n<Clock xmlns:dt="urn:schemas-microsoft-com:datatypes"><Description dt:dt="string">E-Prime Primary Realtime Clock</Description><StartTime><Timestamp dt:dt="int">0</Timestamp><DateUtc dt:dt="string">2016-08-11T22:02:26Z</DateUtc></StartTime><FrequencyChanges><FrequencyChange><Frequency dt:dt="r8">3507705</Frequency><Timestamp dt:dt="r8">334661604089</Timestamp><Current dt:dt="r8">0</Current><DateUtc dt:dt="string">2016-08-11T22:02:26Z</DateUtc></FrequencyChange></FrequencyChanges></Clock>\n	Hungry_Donkey_bar_English_2-166-1	60.018	-103	1.0.0.18	1	-345137184	Standard	2.0.10.353	2.0.10.353	08-11-2016		18:02:27	2.0.10.248	28	Bar50-50.bmp	45	2	?	0r_4g.bmp	0r_4g.bmp	0r_2g.bmp	0r_2g.bmp		0r_4g.bmp			TrialProc	TrialList	0	cvbn	-999999	16	130965	0	v	544	131509	90	-108	-18	-2	-18	0	2	7	3	28	0	0	0	0	4	4	2	2	0	4
Hungry_Donkey_bar_English_2	166	1	<?xml version="1.0"?>\n<Clock xmlns:dt="urn:schemas-microsoft-com:datatypes"><Description dt:dt="string">E-Prime Primary Realtime Clock</Description><StartTime><Timestamp dt:dt="int">0</Timestamp><DateUtc dt:dt="string">2016-08-11T22:02:26Z</DateUtc></StartTime><FrequencyChanges><FrequencyChange><Frequency dt:dt="r8">3507705</Frequency><Timestamp dt:dt="r8">334661604089</Timestamp><Current dt:dt="r8">0</Current><DateUtc dt:dt="string">2016-08-11T22:02:26Z</DateUtc></FrequencyChange></FrequencyChanges></Clock>\n	Hungry_Donkey_bar_English_2-166-1	60.018	-103	1.0.0.18	1	-345137184	Standard	2.0.10.353	2.0.10.353	08-11-2016		18:02:27	2.0.10.248	29	Bar50-50.bmp	47	1	?	0r_4g.bmp	0r_4g.bmp	0r_2g.bmp	0r_2g.bmp	0r_4g.bmp				TrialProc	TrialList	0	cvbn	-999999	16	133548	0	c	424	133972	94	-108	-14	2	-18	0	2	10	3	29	0	0	0	0	4	4	2	2	0	4
Hungry_Donkey_bar_English_2	166	1	<?xml version="1.0"?>\n<Clock xmlns:dt="urn:schemas-microsoft-com:datatypes"><Description dt:dt="string">E-Prime Primary Realtime Clock</Description><StartTime><Timestamp dt:dt="int">0</Timestamp><DateUtc dt:dt="string">2016-08-11T22:02:26Z</DateUtc></StartTime><FrequencyChanges><FrequencyChange><Frequency dt:dt="r8">3507705</Frequency><Timestamp dt:dt="r8">334661604089</Timestamp><Current dt:dt="r8">0</Current><DateUtc dt:dt="string">2016-08-11T22:02:26Z</DateUtc></FrequencyChange></FrequencyChanges></Clock>\n	Hungry_Donkey_bar_English_2-166-1	60.018	-103	1.0.0.18	1	-345137184	Standard	2.0.10.353	2.0.10.353	08-11-2016		18:02:27	2.0.10.248	30	Bar50-50.bmp	46	3	?	12r_4g.bmp	0r_4g.bmp	3r_2g.bmp	0r_2g.bmp			3r_2g.bmp		TrialProc	TrialList	0	cvbn	-999999	16	135997	0	b	455	136452	96	-111	-15	2	-18	-1	2	5	3	30	-12	0	-3	0	4	4	2	2	-3	2
Hungry_Donkey_bar_English_2	166	1	<?xml version="1.0"?>\n<Clock xmlns:dt="urn:schemas-microsoft-com:datatypes"><Description dt:dt="string">E-Prime Primary Realtime Clock</Description><StartTime><Timestamp dt:dt="int">0</Timestamp><DateUtc dt:dt="string">2016-08-11T22:02:26Z</DateUtc></StartTime><FrequencyChanges><FrequencyChange><Frequency dt:dt="r8">3507705</Frequency><Timestamp dt:dt="r8">334661604089</Timestamp><Current dt:dt="r8">0</Current><DateUtc dt:dt="string">2016-08-11T22:02:26Z</DateUtc></FrequencyChange></FrequencyChanges></Clock>\n	Hungry_Donkey_bar_English_2-166-1	60.018	-103	1.0.0.18	1	-345137184	Standard	2.0.10.353	2.0.10.353	08-11-2016		18:02:27	2.0.10.248	31	Bar50-50.bmp	46	1	?	8r_4g.bmp	50r_4g.bmp	1r_2g.bmp	10r_2g.bmp	8r_4g.bmp				TrialProc	TrialList	0	cvbn	-999999	16	138480	0	c	436	138916	100	-119	-19	-2	-18	-1	2	1	4	31	-8	-50	-1	-10	4	4	2	2	-8	4
Hungry_Donkey_bar_English_2	166	1	<?xml version="1.0"?>\n<Clock xmlns:dt="urn:schemas-microsoft-com:datatypes"><Description dt:dt="string">E-Prime Primary Realtime Clock</Description><StartTime><Timestamp dt:dt="int">0</Timestamp><DateUtc dt:dt="string">2016-08-11T22:02:26Z</DateUtc></StartTime><FrequencyChanges><FrequencyChange><Frequency dt:dt="r8">3507705</Frequency><Timestamp dt:dt="r8">334661604089</Timestamp><Current dt:dt="r8">0</Current><DateUtc dt:dt="string">2016-08-11T22:02:26Z</DateUtc></FrequencyChange></FrequencyChanges></Clock>\n	Hungry_Donkey_bar_English_2-166-1	60.018	-103	1.0.0.18	1	-345137184	Standard	2.0.10.353	2.0.10.353	08-11-2016		18:02:27	2.0.10.248	32	Bar50-50.bmp	46	3	?	0r_4g.bmp	0r_4g.bmp	0r_2g.bmp	0r_2g.bmp			0r_2g.bmp		TrialProc	TrialList	0	cvbn	-999999	16	140946	0	b	338	141284	102	-119	-17	-2	-18	1	2	7	4	32	0	0	0	0	4	4	2	2	0	2
Hungry_Donkey_bar_English_2	166	1	<?xml version="1.0"?>\n<Clock xmlns:dt="urn:schemas-microsoft-com:datatypes"><Description dt:dt="string">E-Prime Primary Realtime Clock</Description><StartTime><Timestamp dt:dt="int">0</Timestamp><DateUtc dt:dt="string">2016-08-11T22:02:26Z</DateUtc></StartTime><FrequencyChanges><FrequencyChange><Frequency dt:dt="r8">3507705</Frequency><Timestamp dt:dt="r8">334661604089</Timestamp><Current dt:dt="r8">0</Current><DateUtc dt:dt="string">2016-08-11T22:02:26Z</DateUtc></FrequencyChange></FrequencyChanges></Clock>\n	Hungry_Donkey_bar_English_2-166-1	60.018	-103	1.0.0.18	1	-345137184	Standard	2.0.10.353	2.0.10.353	08-11-2016		18:02:27	2.0.10.248	33	Bar50-50.bmp	47	4	?	0r_4g.bmp	0r_4g.bmp	0r_2g.bmp	0r_2g.bmp				0r_2g.bmp	TrialProc	TrialList	0	cvbn	-999999	16	143312	0	n	308	143620	104	-119	-15	-2	-18	1	4	8	4	33	0	0	0	0	4	4	2	2	0	2
Hungry_Donkey_bar_English_2	166	1	<?xml version="1.0"?>\n<Clock xmlns:dt="urn:schemas-microsoft-com:datatypes"><Description dt:dt="string">E-Prime Primary Realtime Clock</Description><StartTime><Timestamp dt:dt="int">0</Timestamp><DateUtc dt:dt="string">2016-08-11T22:02:26Z</DateUtc></StartTime><FrequencyChanges><FrequencyChange><Frequency dt:dt="r8">3507705</Frequency><Timestamp dt:dt="r8">334661604089</Timestamp><Current dt:dt="r8">0</Current><DateUtc dt:dt="string">2016-08-11T22:02:26Z</DateUtc></FrequencyChange></FrequencyChanges></Clock>\n	Hungry_Donkey_bar_English_2-166-1	60.018	-103	1.0.0.18	1	-345137184	Standard	2.0.10.353	2.0.10.353	08-11-2016		18:02:27	2.0.10.248	34	Bar50-50.bmp	48	2	?	0r_4g.bmp	0r_4g.bmp	0r_2g.bmp	0r_2g.bmp		0r_4g.bmp			TrialProc	TrialList	0	cvbn	-999999	16	145644	0	v	744	146388	108	-119	-11	-2	-14	1	4	10	4	34	0	0	0	0	4	4	2	2	0	4
Hungry_Donkey_bar_English_2	166	1	<?xml version="1.0"?>\n<Clock xmlns:dt="urn:schemas-microsoft-com:datatypes"><Description dt:dt="string">E-Prime Primary Realtime Clock</Description><StartTime><Timestamp dt:dt="int">0</Timestamp><DateUtc dt:dt="string">2016-08-11T22:02:26Z</DateUtc></StartTime><FrequencyChanges><FrequencyChange><Frequency dt:dt="r8">3507705</Frequency><Timestamp dt:dt="r8">334661604089</Timestamp><Current dt:dt="r8">0</Current><DateUtc dt:dt="string">2016-08-11T22:02:26Z</DateUtc></FrequencyChange></FrequencyChanges></Clock>\n	Hungry_Donkey_bar_English_2-166-1	60.018	-103	1.0.0.18	1	-345137184	Standard	2.0.10.353	2.0.10.353	08-11-2016		18:02:27	2.0.10.248	35	Bar50-50.bmp	48	3	?	10r_4g.bmp	0r_4g.bmp	2r_2g.bmp	0r_2g.bmp			2r_2g.bmp		TrialProc	TrialList	0	cvbn	-999999	16	148427	0	b	617	149044	110	-121	-11	-2	-14	1	4	3	4	35	-10	0	-2	0	4	4	2	2	-2	2
Hungry_Donkey_bar_English_2	166	1	<?xml version="1.0"?>\n<Clock xmlns:dt="urn:schemas-microsoft-com:datatypes"><Description dt:dt="string">E-Prime Primary Realtime Clock</Description><StartTime><Timestamp dt:dt="int">0</Timestamp><DateUtc dt:dt="string">2016-08-11T22:02:26Z</DateUtc></StartTime><FrequencyChanges><FrequencyChange><Frequency dt:dt="r8">3507705</Frequency><Timestamp dt:dt="r8">334661604089</Timestamp><Current dt:dt="r8">0</Current><DateUtc dt:dt="string">2016-08-11T22:02:26Z</DateUtc></FrequencyChange></FrequencyChanges></Clock>\n	Hungry_Donkey_bar_English_2-166-1	60.018	-103	1.0.0.18	1	-345137184	Standard	2.0.10.353	2.0.10.353	08-11-2016		18:02:27	2.0.10.248	36	Bar50-50.bmp	49	2	?	10r_4g.bmp	0r_4g.bmp	2r_2g.bmp	0r_2g.bmp		0r_4g.bmp			TrialProc	TrialList	0	cvbn	-999999	16	151076	0	v	559	151635	114	-121	-7	-2	-10	1	4	2	4	36	-10	0	-2	0	4	4	2	2	0	4
Hungry_Donkey_bar_English_2	166	1	<?xml version="1.0"?>\n<Clock xmlns:dt="urn:schemas-microsoft-com:datatypes"><Description dt:dt="string">E-Prime Primary Realtime Clock</Description><StartTime><Timestamp dt:dt="int">0</Timestamp><DateUtc dt:dt="string">2016-08-11T22:02:26Z</DateUtc></StartTime><FrequencyChanges><FrequencyChange><Frequency dt:dt="r8">3507705</Frequency><Timestamp dt:dt="r8">334661604089</Timestamp><Current dt:dt="r8">0</Current><DateUtc dt:dt="string">2016-08-11T22:02:26Z</DateUtc></FrequencyChange></FrequencyChanges></Clock>\n	Hungry_Donkey_bar_English_2-166-1	60.018	-103	1.0.0.18	1	-345137184	Standard	2.0.10.353	2.0.10.353	08-11-2016		18:02:27	2.0.10.248	37	Bar50-50.bmp	49	4	?	12r_4g.bmp	0r_4g.bmp	3r_2g.bmp	0r_2g.bmp				0r_2g.bmp	TrialProc	TrialList	0	cvbn	-999999	17	153659	0	n	568	154227	116	-121	-5	-2	-10	1	6	5	4	37	-12	0	-3	0	4	4	2	2	0	2
Hungry_Donkey_bar_English_2	166	1	<?xml version="1.0"?>\n<Clock xmlns:dt="urn:schemas-microsoft-com:datatypes"><Description dt:dt="string">E-Prime Primary Realtime Clock</Description><StartTime><Timestamp dt:dt="int">0</Timestamp><DateUtc dt:dt="string">2016-08-11T22:02:26Z</DateUtc></StartTime><FrequencyChanges><FrequencyChange><Frequency dt:dt="r8">3507705</Frequency><Timestamp dt:dt="r8">334661604089</Timestamp><Current dt:dt="r8">0</Current><DateUtc dt:dt="string">2016-08-11T22:02:26Z</DateUtc></FrequencyChange></FrequencyChanges></Clock>\n	Hungry_Donkey_bar_English_2-166-1	60.018	-103	1.0.0.18	1	-345137184	Standard	2.0.10.353	2.0.10.353	08-11-2016		18:02:27	2.0.10.248	38	Bar50-50.bmp	50	2	?	0r_4g.bmp	0r_4g.bmp	0r_2g.bmp	0r_2g.bmp		0r_4g.bmp			TrialProc	TrialList	0	cvbn	-999999	16	156258	0	v	593	156851	120	-121	-1	-2	-6	1	6	6	4	38	0	0	0	0	4	4	2	2	0	4
Hungry_Donkey_bar_English_2	166	1	<?xml version="1.0"?>\n<Clock xmlns:dt="urn:schemas-microsoft-com:datatypes"><Description dt:dt="string">E-Prime Primary Realtime Clock</Description><StartTime><Timestamp dt:dt="int">0</Timestamp><DateUtc dt:dt="string">2016-08-11T22:02:26Z</DateUtc></StartTime><FrequencyChanges><FrequencyChange><Frequency dt:dt="r8">3507705</Frequency><Timestamp dt:dt="r8">334661604089</Timestamp><Current dt:dt="r8">0</Current><DateUtc dt:dt="string">2016-08-11T22:02:26Z</DateUtc></FrequencyChange></FrequencyChanges></Clock>\n	Hungry_Donkey_bar_English_2-166-1	60.018	-103	1.0.0.18	1	-345137184	Standard	2.0.10.353	2.0.10.353	08-11-2016		18:02:27	2.0.10.248	39	Bar50-50.bmp	50	3	?	10r_4g.bmp	0r_4g.bmp	2r_2g.bmp	0r_2g.bmp			2r_2g.bmp		TrialProc	TrialList	0	cvbn	-999999	16	158890	0	b	681	159571	122	-123	-1	-2	-6	1	6	4	4	39	-10	0	-2	0	4	4	2	2	-2	2
Hungry_Donkey_bar_English_2	166	1	<?xml version="1.0"?>\n<Clock xmlns:dt="urn:schemas-microsoft-com:datatypes"><Description dt:dt="string">E-Prime Primary Realtime Clock</Description><StartTime><Timestamp dt:dt="int">0</Timestamp><DateUtc dt:dt="string">2016-08-11T22:02:26Z</DateUtc></StartTime><FrequencyChanges><FrequencyChange><Frequency dt:dt="r8">3507705</Frequency><Timestamp dt:dt="r8">334661604089</Timestamp><Current dt:dt="r8">0</Current><DateUtc dt:dt="string">2016-08-11T22:02:26Z</DateUtc></FrequencyChange></FrequencyChanges></Clock>\n	Hungry_Donkey_bar_English_2-166-1	60.018	-103	1.0.0.18	1	-345137184	Standard	2.0.10.353	2.0.10.353	08-11-2016		18:02:27	2.0.10.248	40	Bar50-50.bmp	50	4	?	0r_4g.bmp	0r_4g.bmp	0r_2g.bmp	0r_2g.bmp				0r_2g.bmp	TrialProc	TrialList	0	cvbn	-999999	16	161606	0	n	333	161939	124	-123	1	-2	-6	1	8	9	4	40	0	0	0	0	4	4	2	2	0	2
Hungry_Donkey_bar_English_2	166	1	<?xml version="1.0"?>\n<Clock xmlns:dt="urn:schemas-microsoft-com:datatypes"><Description dt:dt="string">E-Prime Primary Realtime Clock</Description><StartTime><Timestamp dt:dt="int">0</Timestamp><DateUtc dt:dt="string">2016-08-11T22:02:26Z</DateUtc></StartTime><FrequencyChanges><FrequencyChange><Frequency dt:dt="r8">3507705</Frequency><Timestamp dt:dt="r8">334661604089</Timestamp><Current dt:dt="r8">0</Current><DateUtc dt:dt="string">2016-08-11T22:02:26Z</DateUtc></FrequencyChange></FrequencyChanges></Clock>\n	Hungry_Donkey_bar_English_2-166-1	60.018	-103	1.0.0.18	1	-345137184	Standard	2.0.10.353	2.0.10.353	08-11-2016		18:02:27	2.0.10.248	41	Bar50-50.bmp	49	1	?	10r_4g.bmp	0r_4g.bmp	2r_2g.bmp	0r_2g.bmp	10r_4g.bmp				TrialProc	TrialList	0	cvbn	-999999	16	163972	0	c	367	164339	128	-133	-5	-8	-6	1	8	2	5	41	-10	0	-2	0	4	4	2	2	-10	4
Hungry_Donkey_bar_English_2	166	1	<?xml version="1.0"?>\n<Clock xmlns:dt="urn:schemas-microsoft-com:datatypes"><Description dt:dt="string">E-Prime Primary Realtime Clock</Description><StartTime><Timestamp dt:dt="int">0</Timestamp><DateUtc dt:dt="string">2016-08-11T22:02:26Z</DateUtc></StartTime><FrequencyChanges><FrequencyChange><Frequency dt:dt="r8">3507705</Frequency><Timestamp dt:dt="r8">334661604089</Timestamp><Current dt:dt="r8">0</Current><DateUtc dt:dt="string">2016-08-11T22:02:26Z</DateUtc></FrequencyChange></FrequencyChanges></Clock>\n	Hungry_Donkey_bar_English_2-166-1	60.018	-103	1.0.0.18	1	-345137184	Standard	2.0.10.353	2.0.10.353	08-11-2016		18:02:27	2.0.10.248	42	Bar50-50.bmp	50	2	?	0r_4g.bmp	0r_4g.bmp	0r_2g.bmp	0r_2g.bmp		0r_4g.bmp			TrialProc	TrialList	0	cvbn	-999999	16	166371	0	v	767	167138	132	-133	-1	-8	-2	1	8	9	5	42	0	0	0	0	4	4	2	2	0	4
Hungry_Donkey_bar_English_2	166	1	<?xml version="1.0"?>\n<Clock xmlns:dt="urn:schemas-microsoft-com:datatypes"><Description dt:dt="string">E-Prime Primary Realtime Clock</Description><StartTime><Timestamp dt:dt="int">0</Timestamp><DateUtc dt:dt="string">2016-08-11T22:02:26Z</DateUtc></StartTime><FrequencyChanges><FrequencyChange><Frequency dt:dt="r8">3507705</Frequency><Timestamp dt:dt="r8">334661604089</Timestamp><Current dt:dt="r8">0</Current><DateUtc dt:dt="string">2016-08-11T22:02:26Z</DateUtc></FrequencyChange></FrequencyChanges></Clock>\n	Hungry_Donkey_bar_English_2-166-1	60.018	-103	1.0.0.18	1	-345137184	Standard	2.0.10.353	2.0.10.353	08-11-2016		18:02:27	2.0.10.248	43	Bar50-50.bmp	48	4	?	8r_4g.bmp	50r_4g.bmp	1r_2g.bmp	10r_2g.bmp				10r_2g.bmp	TrialProc	TrialList	0	cvbn	-999999	16	169171	0	n	703	169874	134	-143	-9	-8	-2	1	0	1	5	43	-8	-50	-1	-10	4	4	2	2	-10	2
Hungry_Donkey_bar_English_2	166	1	<?xml version="1.0"?>\n<Clock xmlns:dt="urn:schemas-microsoft-com:datatypes"><Description dt:dt="string">E-Prime Primary Realtime Clock</Description><StartTime><Timestamp dt:dt="int">0</Timestamp><DateUtc dt:dt="string">2016-08-11T22:02:26Z</DateUtc></StartTime><FrequencyChanges><FrequencyChange><Frequency dt:dt="r8">3507705</Frequency><Timestamp dt:dt="r8">334661604089</Timestamp><Current dt:dt="r8">0</Current><DateUtc dt:dt="string">2016-08-11T22:02:26Z</DateUtc></FrequencyChange></FrequencyChanges></Clock>\n	Hungry_Donkey_bar_English_2-166-1	60.018	-103	1.0.0.18	1	-345137184	Standard	2.0.10.353	2.0.10.353	08-11-2016		18:02:27	2.0.10.248	44	Bar50-50.bmp	48	3	?	10r_4g.bmp	0r_4g.bmp	2r_2g.bmp	0r_2g.bmp			2r_2g.bmp		TrialProc	TrialList	0	cvbn	-999999	16	171903	0	b	35	171938	136	-145	-9	-8	-2	1	0	3	5	44	-10	0	-2	0	4	4	2	2	-2	2
Hungry_Donkey_bar_English_2	166	1	<?xml version="1.0"?>\n<Clock xmlns:dt="urn:schemas-microsoft-com:datatypes"><Description dt:dt="string">E-Prime Primary Realtime Clock</Description><StartTime><Timestamp dt:dt="int">0</Timestamp><DateUtc dt:dt="string">2016-08-11T22:02:26Z</DateUtc></StartTime><FrequencyChanges><FrequencyChange><Frequency dt:dt="r8">3507705</Frequency><Timestamp dt:dt="r8">334661604089</Timestamp><Current dt:dt="r8">0</Current><DateUtc dt:dt="string">2016-08-11T22:02:26Z</DateUtc></FrequencyChange></FrequencyChanges></Clock>\n	Hungry_Donkey_bar_English_2-166-1	60.018	-103	1.0.0.18	1	-345137184	Standard	2.0.10.353	2.0.10.353	08-11-2016		18:02:27	2.0.10.248	45	Bar50-50.bmp	49	2	?	0r_4g.bmp	0r_4g.bmp	0r_2g.bmp	0r_2g.bmp		0r_4g.bmp			TrialProc	TrialList	0	cvbn	-999999	16	173969	0	v	545	174514	140	-145	-5	-8	2	1	0	10	5	45	0	0	0	0	4	4	2	2	0	4
Hungry_Donkey_bar_English_2	166	1	<?xml version="1.0"?>\n<Clock xmlns:dt="urn:schemas-microsoft-com:datatypes"><Description dt:dt="string">E-Prime Primary Realtime Clock</Description><StartTime><Timestamp dt:dt="int">0</Timestamp><DateUtc dt:dt="string">2016-08-11T22:02:26Z</DateUtc></StartTime><FrequencyChanges><FrequencyChange><Frequency dt:dt="r8">3507705</Frequency><Timestamp dt:dt="r8">334661604089</Timestamp><Current dt:dt="r8">0</Current><DateUtc dt:dt="string">2016-08-11T22:02:26Z</DateUtc></FrequencyChange></FrequencyChanges></Clock>\n	Hungry_Donkey_bar_English_2-166-1	60.018	-103	1.0.0.18	1	-345137184	Standard	2.0.10.353	2.0.10.353	08-11-2016		18:02:27	2.0.10.248	46	Bar50-50.bmp	49	4	?	0r_4g.bmp	0r_4g.bmp	0r_2g.bmp	0r_2g.bmp				0r_2g.bmp	TrialProc	TrialList	0	cvbn	-999999	16	176552	0	n	650	177202	142	-145	-3	-8	2	1	2	7	5	46	0	0	0	0	4	4	2	2	0	2
Hungry_Donkey_bar_English_2	166	1	<?xml version="1.0"?>\n<Clock xmlns:dt="urn:schemas-microsoft-com:datatypes"><Description dt:dt="string">E-Prime Primary Realtime Clock</Description><StartTime><Timestamp dt:dt="int">0</Timestamp><DateUtc dt:dt="string">2016-08-11T22:02:26Z</DateUtc></StartTime><FrequencyChanges><FrequencyChange><Frequency dt:dt="r8">3507705</Frequency><Timestamp dt:dt="r8">334661604089</Timestamp><Current dt:dt="r8">0</Current><DateUtc dt:dt="string">2016-08-11T22:02:26Z</DateUtc></FrequencyChange></FrequencyChanges></Clock>\n	Hungry_Donkey_bar_English_2-166-1	60.018	-103	1.0.0.18	1	-345137184	Standard	2.0.10.353	2.0.10.353	08-11-2016		18:02:27	2.0.10.248	47	Bar50-50.bmp	50	1	?	0r_4g.bmp	0r_4g.bmp	0r_2g.bmp	0r_2g.bmp	0r_4g.bmp				TrialProc	TrialList	0	cvbn	-999999	16	179234	0	c	496	179730	146	-145	1	-4	2	1	2	6	5	47	0	0	0	0	4	4	2	2	0	4
Hungry_Donkey_bar_English_2	166	1	<?xml version="1.0"?>\n<Clock xmlns:dt="urn:schemas-microsoft-com:datatypes"><Description dt:dt="string">E-Prime Primary Realtime Clock</Description><StartTime><Timestamp dt:dt="int">0</Timestamp><DateUtc dt:dt="string">2016-08-11T22:02:26Z</DateUtc></StartTime><FrequencyChanges><FrequencyChange><Frequency dt:dt="r8">3507705</Frequency><Timestamp dt:dt="r8">334661604089</Timestamp><Current dt:dt="r8">0</Current><DateUtc dt:dt="string">2016-08-11T22:02:26Z</DateUtc></FrequencyChange></FrequencyChanges></Clock>\n	Hungry_Donkey_bar_English_2-166-1	60.018	-103	1.0.0.18	1	-345137184	Standard	2.0.10.353	2.0.10.353	08-11-2016		18:02:27	2.0.10.248	48	Bar50-50.bmp	51	3	?	0r_4g.bmp	0r_4g.bmp	0r_2g.bmp	0r_2g.bmp			0r_2g.bmp		TrialProc	TrialList	0	cvbn	-999999	16	181767	0	b	635	182402	148	-145	3	-4	2	3	2	8	5	48	0	0	0	0	4	4	2	2	0	2
Hungry_Donkey_bar_English_2	166	1	<?xml version="1.0"?>\n<Clock xmlns:dt="urn:schemas-microsoft-com:datatypes"><Description dt:dt="string">E-Prime Primary Realtime Clock</Description><StartTime><Timestamp dt:dt="int">0</Timestamp><DateUtc dt:dt="string">2016-08-11T22:02:26Z</DateUtc></StartTime><FrequencyChanges><FrequencyChange><Frequency dt:dt="r8">3507705</Frequency><Timestamp dt:dt="r8">334661604089</Timestamp><Current dt:dt="r8">0</Current><DateUtc dt:dt="string">2016-08-11T22:02:26Z</DateUtc></FrequencyChange></FrequencyChanges></Clock>\n	Hungry_Donkey_bar_English_2-166-1	60.018	-103	1.0.0.18	1	-345137184	Standard	2.0.10.353	2.0.10.353	08-11-2016		18:02:27	2.0.10.248	49	Bar50-50.bmp	51	4	?	12r_4g.bmp	0r_4g.bmp	3r_2g.bmp	0r_2g.bmp				0r_2g.bmp	TrialProc	TrialList	0	cvbn	-999999	16	184433	0	n	672	185105	150	-145	5	-4	2	3	4	5	5	49	-12	0	-3	0	4	4	2	2	0	2
Hungry_Donkey_bar_English_2	166	1	<?xml version="1.0"?>\n<Clock xmlns:dt="urn:schemas-microsoft-com:datatypes"><Description dt:dt="string">E-Prime Primary Realtime Clock</Description><StartTime><Timestamp dt:dt="int">0</Timestamp><DateUtc dt:dt="string">2016-08-11T22:02:26Z</DateUtc></StartTime><FrequencyChanges><FrequencyChange><Frequency dt:dt="r8">3507705</Frequency><Timestamp dt:dt="r8">334661604089</Timestamp><Current dt:dt="r8">0</Current><DateUtc dt:dt="string">2016-08-11T22:02:26Z</DateUtc></FrequencyChange></FrequencyChanges></Clock>\n	Hungry_Donkey_bar_English_2-166-1	60.018	-103	1.0.0.18	1	-345137184	Standard	2.0.10.353	2.0.10.353	08-11-2016		18:02:27	2.0.10.248	50	Bar50-50.bmp	52	2	?	10r_4g.bmp	0r_4g.bmp	2r_2g.bmp	0r_2g.bmp		0r_4g.bmp			TrialProc	TrialList	0	cvbn	-999999	16	187132	0	v	37	187169	154	-145	9	-4	6	3	4	4	5	50	-10	0	-2	0	4	4	2	2	0	4
Hungry_Donkey_bar_English_2	166	1	<?xml version="1.0"?>\n<Clock xmlns:dt="urn:schemas-microsoft-com:datatypes"><Description dt:dt="string">E-Prime Primary Realtime Clock</Description><StartTime><Timestamp dt:dt="int">0</Timestamp><DateUtc dt:dt="string">2016-08-11T22:02:26Z</DateUtc></StartTime><FrequencyChanges><FrequencyChange><Frequency dt:dt="r8">3507705</Frequency><Timestamp dt:dt="r8">334661604089</Timestamp><Current dt:dt="r8">0</Current><DateUtc dt:dt="string">2016-08-11T22:02:26Z</DateUtc></FrequencyChange></FrequencyChanges></Clock>\n	Hungry_Donkey_bar_English_2-166-1	60.018	-103	1.0.0.18	1	-345137184	Standard	2.0.10.353	2.0.10.353	08-11-2016		18:02:27	2.0.10.248	51	Bar50-50.bmp	50	1	?	10r_4g.bmp	0r_4g.bmp	2r_2g.bmp	0r_2g.bmp	10r_4g.bmp				TrialProc	TrialList	0	cvbn	-999999	16	189198	0	c	531	189729	158	-155	3	-10	6	3	4	2	6	51	-10	0	-2	0	4	4	2	2	-10	4
Hungry_Donkey_bar_English_2	166	1	<?xml version="1.0"?>\n<Clock xmlns:dt="urn:schemas-microsoft-com:datatypes"><Description dt:dt="string">E-Prime Primary Realtime Clock</Description><StartTime><Timestamp dt:dt="int">0</Timestamp><DateUtc dt:dt="string">2016-08-11T22:02:26Z</DateUtc></StartTime><FrequencyChanges><FrequencyChange><Frequency dt:dt="r8">3507705</Frequency><Timestamp dt:dt="r8">334661604089</Timestamp><Current dt:dt="r8">0</Current><DateUtc dt:dt="string">2016-08-11T22:02:26Z</DateUtc></FrequencyChange></FrequencyChanges></Clock>\n	Hungry_Donkey_bar_English_2-166-1	60.018	-103	1.0.0.18	1	-345137184	Standard	2.0.10.353	2.0.10.353	08-11-2016		18:02:27	2.0.10.248	52	Bar50-50.bmp	51	3	?	8r_4g.bmp	50r_4g.bmp	1r_2g.bmp	10r_2g.bmp			1r_2g.bmp		TrialProc	TrialList	0	cvbn	-999999	16	191764	0	b	989	192753	160	-156	4	-10	6	4	4	1	6	52	-8	-50	-1	-10	4	4	2	2	-1	2
Hungry_Donkey_bar_English_2	166	1	<?xml version="1.0"?>\n<Clock xmlns:dt="urn:schemas-microsoft-com:datatypes"><Description dt:dt="string">E-Prime Primary Realtime Clock</Description><StartTime><Timestamp dt:dt="int">0</Timestamp><DateUtc dt:dt="string">2016-08-11T22:02:26Z</DateUtc></StartTime><FrequencyChanges><FrequencyChange><Frequency dt:dt="r8">3507705</Frequency><Timestamp dt:dt="r8">334661604089</Timestamp><Current dt:dt="r8">0</Current><DateUtc dt:dt="string">2016-08-11T22:02:26Z</DateUtc></FrequencyChange></FrequencyChanges></Clock>\n	Hungry_Donkey_bar_English_2-166-1	60.018	-103	1.0.0.18	1	-345137184	Standard	2.0.10.353	2.0.10.353	08-11-2016		18:02:27	2.0.10.248	53	Bar50-50.bmp	51	4	?	10r_4g.bmp	0r_4g.bmp	2r_2g.bmp	0r_2g.bmp				0r_2g.bmp	TrialProc	TrialList	0	cvbn	-999999	16	194796	0	n	2549	197345	162	-156	6	-10	6	4	6	3	6	53	-10	0	-2	0	4	4	2	2	0	2
Hungry_Donkey_bar_English_2	166	1	<?xml version="1.0"?>\n<Clock xmlns:dt="urn:schemas-microsoft-com:datatypes"><Description dt:dt="string">E-Prime Primary Realtime Clock</Description><StartTime><Timestamp dt:dt="int">0</Timestamp><DateUtc dt:dt="string">2016-08-11T22:02:26Z</DateUtc></StartTime><FrequencyChanges><FrequencyChange><Frequency dt:dt="r8">3507705</Frequency><Timestamp dt:dt="r8">334661604089</Timestamp><Current dt:dt="r8">0</Current><DateUtc dt:dt="string">2016-08-11T22:02:26Z</DateUtc></FrequencyChange></FrequencyChanges></Clock>\n	Hungry_Donkey_bar_English_2-166-1	60.018	-103	1.0.0.18	1	-345137184	Standard	2.0.10.353	2.0.10.353	08-11-2016		18:02:27	2.0.10.248	54	Bar50-50.bmp	52	2	?	0r_4g.bmp	0r_4g.bmp	0r_2g.bmp	0r_2g.bmp		0r_4g.bmp			TrialProc	TrialList	0	cvbn	-999999	16	199378	0	v	319	199697	166	-156	10	-10	10	4	6	7	6	54	0	0	0	0	4	4	2	2	0	4
Hungry_Donkey_bar_English_2	166	1	<?xml version="1.0"?>\n<Clock xmlns:dt="urn:schemas-microsoft-com:datatypes"><Description dt:dt="string">E-Prime Primary Realtime Clock</Description><StartTime><Timestamp dt:dt="int">0</Timestamp><DateUtc dt:dt="string">2016-08-11T22:02:26Z</DateUtc></StartTime><FrequencyChanges><FrequencyChange><Frequency dt:dt="r8">3507705</Frequency><Timestamp dt:dt="r8">334661604089</Timestamp><Current dt:dt="r8">0</Current><DateUtc dt:dt="string">2016-08-11T22:02:26Z</DateUtc></FrequencyChange></FrequencyChanges></Clock>\n	Hungry_Donkey_bar_English_2-166-1	60.018	-103	1.0.0.18	1	-345137184	Standard	2.0.10.353	2.0.10.353	08-11-2016		18:02:27	2.0.10.248	55	Bar50-50.bmp	52	1	?	0r_4g.bmp	0r_4g.bmp	0r_2g.bmp	0r_2g.bmp	0r_4g.bmp				TrialProc	TrialList	0	cvbn	-999999	16	201728	0	c	208	201936	170	-156	14	-6	10	4	6	10	6	55	0	0	0	0	4	4	2	2	0	4
Hungry_Donkey_bar_English_2	166	1	<?xml version="1.0"?>\n<Clock xmlns:dt="urn:schemas-microsoft-com:datatypes"><Description dt:dt="string">E-Prime Primary Realtime Clock</Description><StartTime><Timestamp dt:dt="int">0</Timestamp><DateUtc dt:dt="string">2016-08-11T22:02:26Z</DateUtc></StartTime><FrequencyChanges><FrequencyChange><Frequency dt:dt="r8">3507705</Frequency><Timestamp dt:dt="r8">334661604089</Timestamp><Current dt:dt="r8">0</Current><DateUtc dt:dt="string">2016-08-11T22:02:26Z</DateUtc></FrequencyChange></FrequencyChanges></Clock>\n	Hungry_Donkey_bar_English_2-166-1	60.018	-103	1.0.0.18	1	-345137184	Standard	2.0.10.353	2.0.10.353	08-11-2016		18:02:27	2.0.10.248	56	Bar50-50.bmp	52	3	?	10r_4g.bmp	0r_4g.bmp	2r_2g.bmp	0r_2g.bmp			2r_2g.bmp		TrialProc	TrialList	0	cvbn	-999999	15	203960	0	b	72	204032	172	-158	14	-6	10	4	6	4	6	56	-10	0	-2	0	4	4	2	2	-2	2
Hungry_Donkey_bar_English_2	166	1	<?xml version="1.0"?>\n<Clock xmlns:dt="urn:schemas-microsoft-com:datatypes"><Description dt:dt="string">E-Prime Primary Realtime Clock</Description><StartTime><Timestamp dt:dt="int">0</Timestamp><DateUtc dt:dt="string">2016-08-11T22:02:26Z</DateUtc></StartTime><FrequencyChanges><FrequencyChange><Frequency dt:dt="r8">3507705</Frequency><Timestamp dt:dt="r8">334661604089</Timestamp><Current dt:dt="r8">0</Current><DateUtc dt:dt="string">2016-08-11T22:02:26Z</DateUtc></FrequencyChange></FrequencyChanges></Clock>\n	Hungry_Donkey_bar_English_2-166-1	60.018	-103	1.0.0.18	1	-345137184	Standard	2.0.10.353	2.0.10.353	08-11-2016		18:02:27	2.0.10.248	57	Bar50-50.bmp	51	1	?	12r_4g.bmp	0r_4g.bmp	3r_2g.bmp	0r_2g.bmp	12r_4g.bmp				TrialProc	TrialList	0	cvbn	-999999	16	206060	0	c	212	206272	176	-170	6	-14	10	4	6	5	6	57	-12	0	-3	0	4	4	2	2	-12	4
Hungry_Donkey_bar_English_2	166	1	<?xml version="1.0"?>\n<Clock xmlns:dt="urn:schemas-microsoft-com:datatypes"><Description dt:dt="string">E-Prime Primary Realtime Clock</Description><StartTime><Timestamp dt:dt="int">0</Timestamp><DateUtc dt:dt="string">2016-08-11T22:02:26Z</DateUtc></StartTime><FrequencyChanges><FrequencyChange><Frequency dt:dt="r8">3507705</Frequency><Timestamp dt:dt="r8">334661604089</Timestamp><Current dt:dt="r8">0</Current><DateUtc dt:dt="string">2016-08-11T22:02:26Z</DateUtc></FrequencyChange></FrequencyChanges></Clock>\n	Hungry_Donkey_bar_English_2-166-1	60.018	-103	1.0.0.18	1	-345137184	Standard	2.0.10.353	2.0.10.353	08-11-2016		18:02:27	2.0.10.248	58	Bar50-50.bmp	51	2	?	0r_4g.bmp	0r_4g.bmp	0r_2g.bmp	0r_2g.bmp		0r_4g.bmp			TrialProc	TrialList	0	cvbn	-999999	16	208309	0	v	475	208784	180	-170	10	-14	14	4	6	6	6	58	0	0	0	0	4	4	2	2	0	4
Hungry_Donkey_bar_English_2	166	1	<?xml version="1.0"?>\n<Clock xmlns:dt="urn:schemas-microsoft-com:datatypes"><Description dt:dt="string">E-Prime Primary Realtime Clock</Description><StartTime><Timestamp dt:dt="int">0</Timestamp><DateUtc dt:dt="string">2016-08-11T22:02:26Z</DateUtc></StartTime><FrequencyChanges><FrequencyChange><Frequency dt:dt="r8">3507705</Frequency><Timestamp dt:dt="r8">334661604089</Timestamp><Current dt:dt="r8">0</Current><DateUtc dt:dt="string">2016-08-11T22:02:26Z</DateUtc></FrequencyChange></FrequencyChanges></Clock>\n	Hungry_Donkey_bar_English_2-166-1	60.018	-103	1.0.0.18	1	-345137184	Standard	2.0.10.353	2.0.10.353	08-11-2016		18:02:27	2.0.10.248	59	Bar50-50.bmp	52	4	?	0r_4g.bmp	0r_4g.bmp	0r_2g.bmp	0r_2g.bmp				0r_2g.bmp	TrialProc	TrialList	0	cvbn	-999999	15	210808	0	n	520	211328	182	-170	12	-14	14	4	8	8	6	59	0	0	0	0	4	4	2	2	0	2
Hungry_Donkey_bar_English_2	166	1	<?xml version="1.0"?>\n<Clock xmlns:dt="urn:schemas-microsoft-com:datatypes"><Description dt:dt="string">E-Prime Primary Realtime Clock</Description><StartTime><Timestamp dt:dt="int">0</Timestamp><DateUtc dt:dt="string">2016-08-11T22:02:26Z</DateUtc></StartTime><FrequencyChanges><FrequencyChange><Frequency dt:dt="r8">3507705</Frequency><Timestamp dt:dt="r8">334661604089</Timestamp><Current dt:dt="r8">0</Current><DateUtc dt:dt="string">2016-08-11T22:02:26Z</DateUtc></FrequencyChange></FrequencyChanges></Clock>\n	Hungry_Donkey_bar_English_2-166-1	60.018	-103	1.0.0.18	1	-345137184	Standard	2.0.10.353	2.0.10.353	08-11-2016		18:02:27	2.0.10.248	60	Bar50-50.bmp	52	2	?	0r_4g.bmp	0r_4g.bmp	0r_2g.bmp	0r_2g.bmp		0r_4g.bmp			TrialProc	TrialList	0	cvbn	-999999	16	213358	0	v	34	213392	186	-170	16	-14	18	4	8	9	6	60	0	0	0	0	4	4	2	2	0	4
Hungry_Donkey_bar_English_2	166	1	<?xml version="1.0"?>\n<Clock xmlns:dt="urn:schemas-microsoft-com:datatypes"><Description dt:dt="string">E-Prime Primary Realtime Clock</Description><StartTime><Timestamp dt:dt="int">0</Timestamp><DateUtc dt:dt="string">2016-08-11T22:02:26Z</DateUtc></StartTime><FrequencyChanges><FrequencyChange><Frequency dt:dt="r8">3507705</Frequency><Timestamp dt:dt="r8">334661604089</Timestamp><Current dt:dt="r8">0</Current><DateUtc dt:dt="string">2016-08-11T22:02:26Z</DateUtc></FrequencyChange></FrequencyChanges></Clock>\n	Hungry_Donkey_bar_English_2-166-1	60.018	-103	1.0.0.18	1	-345137184	Standard	2.0.10.353	2.0.10.353	08-11-2016		18:02:27	2.0.10.248	61	Bar50-50.bmp	52	3	?	10r_4g.bmp	0r_4g.bmp	2r_2g.bmp	0r_2g.bmp			2r_2g.bmp		TrialProc	TrialList	0	cvbn	-999999	16	215424	0	b	896	216320	188	-172	16	-14	18	4	8	2	7	61	-10	0	-2	0	4	4	2	2	-2	2
Hungry_Donkey_bar_English_2	166	1	<?xml version="1.0"?>\n<Clock xmlns:dt="urn:schemas-microsoft-com:datatypes"><Description dt:dt="string">E-Prime Primary Realtime Clock</Description><StartTime><Timestamp dt:dt="int">0</Timestamp><DateUtc dt:dt="string">2016-08-11T22:02:26Z</DateUtc></StartTime><FrequencyChanges><FrequencyChange><Frequency dt:dt="r8">3507705</Frequency><Timestamp dt:dt="r8">334661604089</Timestamp><Current dt:dt="r8">0</Current><DateUtc dt:dt="string">2016-08-11T22:02:26Z</DateUtc></FrequencyChange></FrequencyChanges></Clock>\n	Hungry_Donkey_bar_English_2-166-1	60.018	-103	1.0.0.18	1	-345137184	Standard	2.0.10.353	2.0.10.353	08-11-2016		18:02:27	2.0.10.248	62	Bar50-50.bmp	53	1	?	0r_4g.bmp	0r_4g.bmp	0r_2g.bmp	0r_2g.bmp	0r_4g.bmp				TrialProc	TrialList	0	cvbn	-999999	16	218356	0	c	332	218688	192	-172	20	-10	18	4	8	10	7	62	0	0	0	0	4	4	2	2	0	4
Hungry_Donkey_bar_English_2	166	1	<?xml version="1.0"?>\n<Clock xmlns:dt="urn:schemas-microsoft-com:datatypes"><Description dt:dt="string">E-Prime Primary Realtime Clock</Description><StartTime><Timestamp dt:dt="int">0</Timestamp><DateUtc dt:dt="string">2016-08-11T22:02:26Z</DateUtc></StartTime><FrequencyChanges><FrequencyChange><Frequency dt:dt="r8">3507705</Frequency><Timestamp dt:dt="r8">334661604089</Timestamp><Current dt:dt="r8">0</Current><DateUtc dt:dt="string">2016-08-11T22:02:26Z</DateUtc></FrequencyChange></FrequencyChanges></Clock>\n	Hungry_Donkey_bar_English_2-166-1	60.018	-103	1.0.0.18	1	-345137184	Standard	2.0.10.353	2.0.10.353	08-11-2016		18:02:27	2.0.10.248	63	Bar50-50.bmp	53	2	?	0r_4g.bmp	0r_4g.bmp	0r_2g.bmp	0r_2g.bmp		0r_4g.bmp			TrialProc	TrialList	0	cvbn	-999999	16	220722	0	v	477	221199	196	-172	24	-10	22	4	8	6	7	63	0	0	0	0	4	4	2	2	0	4
Hungry_Donkey_bar_English_2	166	1	<?xml version="1.0"?>\n<Clock xmlns:dt="urn:schemas-microsoft-com:datatypes"><Description dt:dt="string">E-Prime Primary Realtime Clock</Description><StartTime><Timestamp dt:dt="int">0</Timestamp><DateUtc dt:dt="string">2016-08-11T22:02:26Z</DateUtc></StartTime><FrequencyChanges><FrequencyChange><Frequency dt:dt="r8">3507705</Frequency><Timestamp dt:dt="r8">334661604089</Timestamp><Current dt:dt="r8">0</Current><DateUtc dt:dt="string">2016-08-11T22:02:26Z</DateUtc></FrequencyChange></FrequencyChanges></Clock>\n	Hungry_Donkey_bar_English_2-166-1	60.018	-103	1.0.0.18	1	-345137184	Standard	2.0.10.353	2.0.10.353	08-11-2016		18:02:27	2.0.10.248	64	Bar50-50.bmp	54	4	?	10r_4g.bmp	0r_4g.bmp	2r_2g.bmp	0r_2g.bmp				0r_2g.bmp	TrialProc	TrialList	0	cvbn	-999999	16	223238	0	n	393	223631	198	-172	26	-10	22	4	10	4	7	64	-10	0	-2	0	4	4	2	2	0	2
Hungry_Donkey_bar_English_2	166	1	<?xml version="1.0"?>\n<Clock xmlns:dt="urn:schemas-microsoft-com:datatypes"><Description dt:dt="string">E-Prime Primary Realtime Clock</Description><StartTime><Timestamp dt:dt="int">0</Timestamp><DateUtc dt:dt="string">2016-08-11T22:02:26Z</DateUtc></StartTime><FrequencyChanges><FrequencyChange><Frequency dt:dt="r8">3507705</Frequency><Timestamp dt:dt="r8">334661604089</Timestamp><Current dt:dt="r8">0</Current><DateUtc dt:dt="string">2016-08-11T22:02:26Z</DateUtc></FrequencyChange></FrequencyChanges></Clock>\n	Hungry_Donkey_bar_English_2-166-1	60.018	-103	1.0.0.18	1	-345137184	Standard	2.0.10.353	2.0.10.353	08-11-2016		18:02:27	2.0.10.248	65	Bar50-50.bmp	54	2	?	0r_4g.bmp	0r_4g.bmp	0r_2g.bmp	0r_2g.bmp		0r_4g.bmp			TrialProc	TrialList	0	cvbn	-999999	16	225671	0	v	296	225967	202	-172	30	-10	26	4	10	7	7	65	0	0	0	0	4	4	2	2	0	4
Hungry_Donkey_bar_English_2	166	1	<?xml version="1.0"?>\n<Clock xmlns:dt="urn:schemas-microsoft-com:datatypes"><Description dt:dt="string">E-Prime Primary Realtime Clock</Description><StartTime><Timestamp dt:dt="int">0</Timestamp><DateUtc dt:dt="string">2016-08-11T22:02:26Z</DateUtc></StartTime><FrequencyChanges><FrequencyChange><Frequency dt:dt="r8">3507705</Frequency><Timestamp dt:dt="r8">334661604089</Timestamp><Current dt:dt="r8">0</Current><DateUtc dt:dt="string">2016-08-11T22:02:26Z</DateUtc></FrequencyChange></FrequencyChanges></Clock>\n	Hungry_Donkey_bar_English_2-166-1	60.018	-103	1.0.0.18	1	-345137184	Standard	2.0.10.353	2.0.10.353	08-11-2016		18:02:27	2.0.10.248	66	Bar50-50.bmp	54	3	?	10r_4g.bmp	0r_4g.bmp	2r_2g.bmp	0r_2g.bmp			2r_2g.bmp		TrialProc	TrialList	0	cvbn	-999999	16	228003	0	b	124	228127	204	-174	30	-10	26	4	10	3	7	66	-10	0	-2	0	4	4	2	2	-2	2
Hungry_Donkey_bar_English_2	166	1	<?xml version="1.0"?>\n<Clock xmlns:dt="urn:schemas-microsoft-com:datatypes"><Description dt:dt="string">E-Prime Primary Realtime Clock</Description><StartTime><Timestamp dt:dt="int">0</Timestamp><DateUtc dt:dt="string">2016-08-11T22:02:26Z</DateUtc></StartTime><FrequencyChanges><FrequencyChange><Frequency dt:dt="r8">3507705</Frequency><Timestamp dt:dt="r8">334661604089</Timestamp><Current dt:dt="r8">0</Current><DateUtc dt:dt="string">2016-08-11T22:02:26Z</DateUtc></FrequencyChange></FrequencyChanges></Clock>\n	Hungry_Donkey_bar_English_2-166-1	60.018	-103	1.0.0.18	1	-345137184	Standard	2.0.10.353	2.0.10.353	08-11-2016		18:02:27	2.0.10.248	67	Bar50-50.bmp	54	1	?	0r_4g.bmp	0r_4g.bmp	0r_2g.bmp	0r_2g.bmp	0r_4g.bmp				TrialProc	TrialList	0	cvbn	-999999	16	230153	0	c	102	230255	208	-174	34	-6	26	4	10	9	7	67	0	0	0	0	4	4	2	2	0	4
Hungry_Donkey_bar_English_2	166	1	<?xml version="1.0"?>\n<Clock xmlns:dt="urn:schemas-microsoft-com:datatypes"><Description dt:dt="string">E-Prime Primary Realtime Clock</Description><StartTime><Timestamp dt:dt="int">0</Timestamp><DateUtc dt:dt="string">2016-08-11T22:02:26Z</DateUtc></StartTime><FrequencyChanges><FrequencyChange><Frequency dt:dt="r8">3507705</Frequency><Timestamp dt:dt="r8">334661604089</Timestamp><Current dt:dt="r8">0</Current><DateUtc dt:dt="string">2016-08-11T22:02:26Z</DateUtc></FrequencyChange></FrequencyChanges></Clock>\n	Hungry_Donkey_bar_English_2-166-1	60.018	-103	1.0.0.18	1	-345137184	Standard	2.0.10.353	2.0.10.353	08-11-2016		18:02:27	2.0.10.248	68	Bar50-50.bmp	55	3	?	8r_4g.bmp	50r_4g.bmp	1r_2g.bmp	10r_2g.bmp			1r_2g.bmp		TrialProc	TrialList	0	cvbn	-999999	16	232285	0	b	178	232463	210	-175	35	-6	26	5	10	1	7	68	-8	-50	-1	-10	4	4	2	2	-1	2
Hungry_Donkey_bar_English_2	166	1	<?xml version="1.0"?>\n<Clock xmlns:dt="urn:schemas-microsoft-com:datatypes"><Description dt:dt="string">E-Prime Primary Realtime Clock</Description><StartTime><Timestamp dt:dt="int">0</Timestamp><DateUtc dt:dt="string">2016-08-11T22:02:26Z</DateUtc></StartTime><FrequencyChanges><FrequencyChange><Frequency dt:dt="r8">3507705</Frequency><Timestamp dt:dt="r8">334661604089</Timestamp><Current dt:dt="r8">0</Current><DateUtc dt:dt="string">2016-08-11T22:02:26Z</DateUtc></FrequencyChange></FrequencyChanges></Clock>\n	Hungry_Donkey_bar_English_2-166-1	60.018	-103	1.0.0.18	1	-345137184	Standard	2.0.10.353	2.0.10.353	08-11-2016		18:02:27	2.0.10.248	69	Bar50-50.bmp	55	2	?	12r_4g.bmp	0r_4g.bmp	3r_2g.bmp	0r_2g.bmp		0r_4g.bmp			TrialProc	TrialList	0	cvbn	-999999	16	234501	0	v	170	234671	214	-175	39	-6	30	5	10	5	7	69	-12	0	-3	0	4	4	2	2	0	4
Hungry_Donkey_bar_English_2	166	1	<?xml version="1.0"?>\n<Clock xmlns:dt="urn:schemas-microsoft-com:datatypes"><Description dt:dt="string">E-Prime Primary Realtime Clock</Description><StartTime><Timestamp dt:dt="int">0</Timestamp><DateUtc dt:dt="string">2016-08-11T22:02:26Z</DateUtc></StartTime><FrequencyChanges><FrequencyChange><Frequency dt:dt="r8">3507705</Frequency><Timestamp dt:dt="r8">334661604089</Timestamp><Current dt:dt="r8">0</Current><DateUtc dt:dt="string">2016-08-11T22:02:26Z</DateUtc></FrequencyChange></FrequencyChanges></Clock>\n	Hungry_Donkey_bar_English_2-166-1	60.018	-103	1.0.0.18	1	-345137184	Standard	2.0.10.353	2.0.10.353	08-11-2016		18:02:27	2.0.10.248	70	Bar50-50.bmp	55	4	?	0r_4g.bmp	0r_4g.bmp	0r_2g.bmp	0r_2g.bmp				0r_2g.bmp	TrialProc	TrialList	0	cvbn	-999999	16	236701	0	n	177	236878	216	-175	41	-6	30	5	12	8	7	70	0	0	0	0	4	4	2	2	0	2
Hungry_Donkey_bar_English_2	166	1	<?xml version="1.0"?>\n<Clock xmlns:dt="urn:schemas-microsoft-com:datatypes"><Description dt:dt="string">E-Prime Primary Realtime Clock</Description><StartTime><Timestamp dt:dt="int">0</Timestamp><DateUtc dt:dt="string">2016-08-11T22:02:26Z</DateUtc></StartTime><FrequencyChanges><FrequencyChange><Frequency dt:dt="r8">3507705</Frequency><Timestamp dt:dt="r8">334661604089</Timestamp><Current dt:dt="r8">0</Current><DateUtc dt:dt="string">2016-08-11T22:02:26Z</DateUtc></FrequencyChange></FrequencyChanges></Clock>\n	Hungry_Donkey_bar_English_2-166-1	60.018	-103	1.0.0.18	1	-345137184	Standard	2.0.10.353	2.0.10.353	08-11-2016		18:02:27	2.0.10.248	71	Bar50-50.bmp	55	3	?	10r_4g.bmp	0r_4g.bmp	2r_2g.bmp	0r_2g.bmp			2r_2g.bmp		TrialProc	TrialList	0	cvbn	-999999	16	238917	0	b	137	239054	218	-177	41	-6	30	5	12	3	8	71	-10	0	-2	0	4	4	2	2	-2	2
Hungry_Donkey_bar_English_2	166	1	<?xml version="1.0"?>\n<Clock xmlns:dt="urn:schemas-microsoft-com:datatypes"><Description dt:dt="string">E-Prime Primary Realtime Clock</Description><StartTime><Timestamp dt:dt="int">0</Timestamp><DateUtc dt:dt="string">2016-08-11T22:02:26Z</DateUtc></StartTime><FrequencyChanges><FrequencyChange><Frequency dt:dt="r8">3507705</Frequency><Timestamp dt:dt="r8">334661604089</Timestamp><Current dt:dt="r8">0</Current><DateUtc dt:dt="string">2016-08-11T22:02:26Z</DateUtc></FrequencyChange></FrequencyChanges></Clock>\n	Hungry_Donkey_bar_English_2-166-1	60.018	-103	1.0.0.18	1	-345137184	Standard	2.0.10.353	2.0.10.353	08-11-2016		18:02:27	2.0.10.248	72	Bar50-50.bmp	56	1	?	0r_4g.bmp	0r_4g.bmp	0r_2g.bmp	0r_2g.bmp	0r_4g.bmp				TrialProc	TrialList	0	cvbn	-999999	16	241083	0	c	147	241230	222	-177	45	-2	30	5	12	9	8	72	0	0	0	0	4	4	2	2	0	4
Hungry_Donkey_bar_English_2	166	1	<?xml version="1.0"?>\n<Clock xmlns:dt="urn:schemas-microsoft-com:datatypes"><Description dt:dt="string">E-Prime Primary Realtime Clock</Description><StartTime><Timestamp dt:dt="int">0</Timestamp><DateUtc dt:dt="string">2016-08-11T22:02:26Z</DateUtc></StartTime><FrequencyChanges><FrequencyChange><Frequency dt:dt="r8">3507705</Frequency><Timestamp dt:dt="r8">334661604089</Timestamp><Current dt:dt="r8">0</Current><DateUtc dt:dt="string">2016-08-11T22:02:26Z</DateUtc></FrequencyChange></FrequencyChanges></Clock>\n	Hungry_Donkey_bar_English_2-166-1	60.018	-103	1.0.0.18	1	-345137184	Standard	2.0.10.353	2.0.10.353	08-11-2016		18:02:27	2.0.10.248	73	Bar50-50.bmp	56	2	?	0r_4g.bmp	0r_4g.bmp	0r_2g.bmp	0r_2g.bmp		0r_4g.bmp			TrialProc	TrialList	0	cvbn	-999999	17	243266	0	v	28	243294	226	-177	49	-2	34	5	12	8	8	73	0	0	0	0	4	4	2	2	0	4
Hungry_Donkey_bar_English_2	166	1	<?xml version="1.0"?>\n<Clock xmlns:dt="urn:schemas-microsoft-com:datatypes"><Description dt:dt="string">E-Prime Primary Realtime Clock</Description><StartTime><Timestamp dt:dt="int">0</Timestamp><DateUtc dt:dt="string">2016-08-11T22:02:26Z</DateUtc></StartTime><FrequencyChanges><FrequencyChange><Frequency dt:dt="r8">3507705</Frequency><Timestamp dt:dt="r8">334661604089</Timestamp><Current dt:dt="r8">0</Current><DateUtc dt:dt="string">2016-08-11T22:02:26Z</DateUtc></FrequencyChange></FrequencyChanges></Clock>\n	Hungry_Donkey_bar_English_2-166-1	60.018	-103	1.0.0.18	1	-345137184	Standard	2.0.10.353	2.0.10.353	08-11-2016		18:02:27	2.0.10.248	74	Bar50-50.bmp	56	4	?	0r_4g.bmp	0r_4g.bmp	0r_2g.bmp	0r_2g.bmp				0r_2g.bmp	TrialProc	TrialList	0	cvbn	-999999	17	245332	0	n	202	245534	228	-177	51	-2	34	5	14	10	8	74	0	0	0	0	4	4	2	2	0	2
Hungry_Donkey_bar_English_2	166	1	<?xml version="1.0"?>\n<Clock xmlns:dt="urn:schemas-microsoft-com:datatypes"><Description dt:dt="string">E-Prime Primary Realtime Clock</Description><StartTime><Timestamp dt:dt="int">0</Timestamp><DateUtc dt:dt="string">2016-08-11T22:02:26Z</DateUtc></StartTime><FrequencyChanges><FrequencyChange><Frequency dt:dt="r8">3507705</Frequency><Timestamp dt:dt="r8">334661604089</Timestamp><Current dt:dt="r8">0</Current><DateUtc dt:dt="string">2016-08-11T22:02:26Z</DateUtc></FrequencyChange></FrequencyChanges></Clock>\n	Hungry_Donkey_bar_English_2-166-1	60.018	-103	1.0.0.18	1	-345137184	Standard	2.0.10.353	2.0.10.353	08-11-2016		18:02:27	2.0.10.248	75	Bar63-37.bmp	57	2	?	0r_4g.bmp	0r_4g.bmp	0r_2g.bmp	0r_2g.bmp		0r_4g.bmp			TrialProc	TrialList	0	cvbn	-999999	16	247564	0	v	98	247662	232	-177	55	-2	38	5	14	7	8	75	0	0	0	0	4	4	2	2	0	4
Hungry_Donkey_bar_English_2	166	1	<?xml version="1.0"?>\n<Clock xmlns:dt="urn:schemas-microsoft-com:datatypes"><Description dt:dt="string">E-Prime Primary Realtime Clock</Description><StartTime><Timestamp dt:dt="int">0</Timestamp><DateUtc dt:dt="string">2016-08-11T22:02:26Z</DateUtc></StartTime><FrequencyChanges><FrequencyChange><Frequency dt:dt="r8">3507705</Frequency><Timestamp dt:dt="r8">334661604089</Timestamp><Current dt:dt="r8">0</Current><DateUtc dt:dt="string">2016-08-11T22:02:26Z</DateUtc></FrequencyChange></FrequencyChanges></Clock>\n	Hungry_Donkey_bar_English_2-166-1	60.018	-103	1.0.0.18	1	-345137184	Standard	2.0.10.353	2.0.10.353	08-11-2016		18:02:27	2.0.10.248	76	Bar63-37.bmp	57	1	?	0r_4g.bmp	0r_4g.bmp	0r_2g.bmp	0r_2g.bmp	0r_4g.bmp				TrialProc	TrialList	0	cvbn	-999999	16	249697	0	c	93	249790	236	-177	59	2	38	5	14	6	8	76	0	0	0	0	4	4	2	2	0	4
Hungry_Donkey_bar_English_2	166	1	<?xml version="1.0"?>\n<Clock xmlns:dt="urn:schemas-microsoft-com:datatypes"><Description dt:dt="string">E-Prime Primary Realtime Clock</Description><StartTime><Timestamp dt:dt="int">0</Timestamp><DateUtc dt:dt="string">2016-08-11T22:02:26Z</DateUtc></StartTime><FrequencyChanges><FrequencyChange><Frequency dt:dt="r8">3507705</Frequency><Timestamp dt:dt="r8">334661604089</Timestamp><Current dt:dt="r8">0</Current><DateUtc dt:dt="string">2016-08-11T22:02:26Z</DateUtc></FrequencyChange></FrequencyChanges></Clock>\n	Hungry_Donkey_bar_English_2-166-1	60.018	-103	1.0.0.18	1	-345137184	Standard	2.0.10.353	2.0.10.353	08-11-2016		18:02:27	2.0.10.248	77	Bar50-50.bmp	56	4	?	8r_4g.bmp	50r_4g.bmp	1r_2g.bmp	10r_2g.bmp				10r_2g.bmp	TrialProc	TrialList	0	cvbn	-999999	16	251830	0	n	104	251934	238	-187	51	2	38	5	6	1	8	77	-8	-50	-1	-10	4	4	2	2	-10	2
Hungry_Donkey_bar_English_2	166	1	<?xml version="1.0"?>\n<Clock xmlns:dt="urn:schemas-microsoft-com:datatypes"><Description dt:dt="string">E-Prime Primary Realtime Clock</Description><StartTime><Timestamp dt:dt="int">0</Timestamp><DateUtc dt:dt="string">2016-08-11T22:02:26Z</DateUtc></StartTime><FrequencyChanges><FrequencyChange><Frequency dt:dt="r8">3507705</Frequency><Timestamp dt:dt="r8">334661604089</Timestamp><Current dt:dt="r8">0</Current><DateUtc dt:dt="string">2016-08-11T22:02:26Z</DateUtc></FrequencyChange></FrequencyChanges></Clock>\n	Hungry_Donkey_bar_English_2-166-1	60.018	-103	1.0.0.18	1	-345137184	Standard	2.0.10.353	2.0.10.353	08-11-2016		18:02:27	2.0.10.248	78	Bar50-50.bmp	56	3	?	12r_4g.bmp	0r_4g.bmp	3r_2g.bmp	0r_2g.bmp			3r_2g.bmp		TrialProc	TrialList	0	cvbn	-999999	16	253962	0	b	36	253998	240	-190	50	2	38	4	6	5	8	78	-12	0	-3	0	4	4	2	2	-3	2
Hungry_Donkey_bar_English_2	166	1	<?xml version="1.0"?>\n<Clock xmlns:dt="urn:schemas-microsoft-com:datatypes"><Description dt:dt="string">E-Prime Primary Realtime Clock</Description><StartTime><Timestamp dt:dt="int">0</Timestamp><DateUtc dt:dt="string">2016-08-11T22:02:26Z</DateUtc></StartTime><FrequencyChanges><FrequencyChange><Frequency dt:dt="r8">3507705</Frequency><Timestamp dt:dt="r8">334661604089</Timestamp><Current dt:dt="r8">0</Current><DateUtc dt:dt="string">2016-08-11T22:02:26Z</DateUtc></FrequencyChange></FrequencyChanges></Clock>\n	Hungry_Donkey_bar_English_2-166-1	60.018	-103	1.0.0.18	1	-345137184	Standard	2.0.10.353	2.0.10.353	08-11-2016		18:02:27	2.0.10.248	79	Bar50-50.bmp	56	2	?	10r_4g.bmp	0r_4g.bmp	2r_2g.bmp	0r_2g.bmp		0r_4g.bmp			TrialProc	TrialList	0	cvbn	-999999	16	256028	0	v	97	256125	244	-190	54	2	42	4	6	4	8	79	-10	0	-2	0	4	4	2	2	0	4
Hungry_Donkey_bar_English_2	166	1	<?xml version="1.0"?>\n<Clock xmlns:dt="urn:schemas-microsoft-com:datatypes"><Description dt:dt="string">E-Prime Primary Realtime Clock</Description><StartTime><Timestamp dt:dt="int">0</Timestamp><DateUtc dt:dt="string">2016-08-11T22:02:26Z</DateUtc></StartTime><FrequencyChanges><FrequencyChange><Frequency dt:dt="r8">3507705</Frequency><Timestamp dt:dt="r8">334661604089</Timestamp><Current dt:dt="r8">0</Current><DateUtc dt:dt="string">2016-08-11T22:02:26Z</DateUtc></FrequencyChange></FrequencyChanges></Clock>\n	Hungry_Donkey_bar_English_2-166-1	60.018	-103	1.0.0.18	1	-345137184	Standard	2.0.10.353	2.0.10.353	08-11-2016		18:02:27	2.0.10.248	80	Bar50-50.bmp	55	1	?	10r_4g.bmp	0r_4g.bmp	2r_2g.bmp	0r_2g.bmp	10r_4g.bmp				TrialProc	TrialList	0	cvbn	-999999	16	258161	0	c	1132	259293	248	-200	48	-4	42	4	6	2	8	80	-10	0	-2	0	4	4	2	2	-10	4
Hungry_Donkey_bar_English_2	166	1	<?xml version="1.0"?>\n<Clock xmlns:dt="urn:schemas-microsoft-com:datatypes"><Description dt:dt="string">E-Prime Primary Realtime Clock</Description><StartTime><Timestamp dt:dt="int">0</Timestamp><DateUtc dt:dt="string">2016-08-11T22:02:26Z</DateUtc></StartTime><FrequencyChanges><FrequencyChange><Frequency dt:dt="r8">3507705</Frequency><Timestamp dt:dt="r8">334661604089</Timestamp><Current dt:dt="r8">0</Current><DateUtc dt:dt="string">2016-08-11T22:02:26Z</DateUtc></FrequencyChange></FrequencyChanges></Clock>\n	Hungry_Donkey_bar_English_2-166-1	60.018	-103	1.0.0.18	1	-345137184	Standard	2.0.10.353	2.0.10.353	08-11-2016		18:02:27	2.0.10.248	81	Bar50-50.bmp	55	3	?	10r_4g.bmp	0r_4g.bmp	2r_2g.bmp	0r_2g.bmp			2r_2g.bmp		TrialProc	TrialList	0	cvbn	-999999	16	261327	0	b	158	261485	250	-202	48	-4	42	4	6	4	9	81	-10	0	-2	0	4	4	2	2	-2	2
Hungry_Donkey_bar_English_2	166	1	<?xml version="1.0"?>\n<Clock xmlns:dt="urn:schemas-microsoft-com:datatypes"><Description dt:dt="string">E-Prime Primary Realtime Clock</Description><StartTime><Timestamp dt:dt="int">0</Timestamp><DateUtc dt:dt="string">2016-08-11T22:02:26Z</DateUtc></StartTime><FrequencyChanges><FrequencyChange><Frequency dt:dt="r8">3507705</Frequency><Timestamp dt:dt="r8">334661604089</Timestamp><Current dt:dt="r8">0</Current><DateUtc dt:dt="string">2016-08-11T22:02:26Z</DateUtc></FrequencyChange></FrequencyChanges></Clock>\n	Hungry_Donkey_bar_English_2-166-1	60.018	-103	1.0.0.18	1	-345137184	Standard	2.0.10.353	2.0.10.353	08-11-2016		18:02:27	2.0.10.248	82	Bar50-50.bmp	56	4	?	0r_4g.bmp	0r_4g.bmp	0r_2g.bmp	0r_2g.bmp				0r_2g.bmp	TrialProc	TrialList	0	cvbn	-999999	17	263510	0	n	663	264173	252	-202	50	-4	42	4	8	6	9	82	0	0	0	0	4	4	2	2	0	2
Hungry_Donkey_bar_English_2	166	1	<?xml version="1.0"?>\n<Clock xmlns:dt="urn:schemas-microsoft-com:datatypes"><Description dt:dt="string">E-Prime Primary Realtime Clock</Description><StartTime><Timestamp dt:dt="int">0</Timestamp><DateUtc dt:dt="string">2016-08-11T22:02:26Z</DateUtc></StartTime><FrequencyChanges><FrequencyChange><Frequency dt:dt="r8">3507705</Frequency><Timestamp dt:dt="r8">334661604089</Timestamp><Current dt:dt="r8">0</Current><DateUtc dt:dt="string">2016-08-11T22:02:26Z</DateUtc></FrequencyChange></FrequencyChanges></Clock>\n	Hungry_Donkey_bar_English_2-166-1	60.018	-103	1.0.0.18	1	-345137184	Standard	2.0.10.353	2.0.10.353	08-11-2016		18:02:27	2.0.10.248	83	Bar50-50.bmp	56	2	?	10r_4g.bmp	0r_4g.bmp	2r_2g.bmp	0r_2g.bmp		0r_4g.bmp			TrialProc	TrialList	0	cvbn	-999999	16	266209	0	v	396	266605	256	-202	54	-4	46	4	8	2	9	83	-10	0	-2	0	4	4	2	2	0	4
Hungry_Donkey_bar_English_2	166	1	<?xml version="1.0"?>\n<Clock xmlns:dt="urn:schemas-microsoft-com:datatypes"><Description dt:dt="string">E-Prime Primary Realtime Clock</Description><StartTime><Timestamp dt:dt="int">0</Timestamp><DateUtc dt:dt="string">2016-08-11T22:02:26Z</DateUtc></StartTime><FrequencyChanges><FrequencyChange><Frequency dt:dt="r8">3507705</Frequency><Timestamp dt:dt="r8">334661604089</Timestamp><Current dt:dt="r8">0</Current><DateUtc dt:dt="string">2016-08-11T22:02:26Z</DateUtc></FrequencyChange></FrequencyChanges></Clock>\n	Hungry_Donkey_bar_English_2-166-1	60.018	-103	1.0.0.18	1	-345137184	Standard	2.0.10.353	2.0.10.353	08-11-2016		18:02:27	2.0.10.248	84	Bar50-50.bmp	56	3	?	12r_4g.bmp	0r_4g.bmp	3r_2g.bmp	0r_2g.bmp			3r_2g.bmp		TrialProc	TrialList	0	cvbn	-999999	16	268641	0	b	700	269341	258	-205	53	-4	46	3	8	5	9	84	-12	0	-3	0	4	4	2	2	-3	2
Hungry_Donkey_bar_English_2	166	1	<?xml version="1.0"?>\n<Clock xmlns:dt="urn:schemas-microsoft-com:datatypes"><Description dt:dt="string">E-Prime Primary Realtime Clock</Description><StartTime><Timestamp dt:dt="int">0</Timestamp><DateUtc dt:dt="string">2016-08-11T22:02:26Z</DateUtc></StartTime><FrequencyChanges><FrequencyChange><Frequency dt:dt="r8">3507705</Frequency><Timestamp dt:dt="r8">334661604089</Timestamp><Current dt:dt="r8">0</Current><DateUtc dt:dt="string">2016-08-11T22:02:26Z</DateUtc></FrequencyChange></FrequencyChanges></Clock>\n	Hungry_Donkey_bar_English_2-166-1	60.018	-103	1.0.0.18	1	-345137184	Standard	2.0.10.353	2.0.10.353	08-11-2016		18:02:27	2.0.10.248	85	Bar50-50.bmp	55	4	?	8r_4g.bmp	50r_4g.bmp	1r_2g.bmp	10r_2g.bmp				10r_2g.bmp	TrialProc	TrialList	0	cvbn	-999999	16	271374	0	n	639	272013	260	-215	45	-4	46	3	0	1	9	85	-8	-50	-1	-10	4	4	2	2	-10	2
Hungry_Donkey_bar_English_2	166	1	<?xml version="1.0"?>\n<Clock xmlns:dt="urn:schemas-microsoft-com:datatypes"><Description dt:dt="string">E-Prime Primary Realtime Clock</Description><StartTime><Timestamp dt:dt="int">0</Timestamp><DateUtc dt:dt="string">2016-08-11T22:02:26Z</DateUtc></StartTime><FrequencyChanges><FrequencyChange><Frequency dt:dt="r8">3507705</Frequency><Timestamp dt:dt="r8">334661604089</Timestamp><Current dt:dt="r8">0</Current><DateUtc dt:dt="string">2016-08-11T22:02:26Z</DateUtc></FrequencyChange></FrequencyChanges></Clock>\n	Hungry_Donkey_bar_English_2-166-1	60.018	-103	1.0.0.18	1	-345137184	Standard	2.0.10.353	2.0.10.353	08-11-2016		18:02:27	2.0.10.248	86	Bar50-50.bmp	55	1	?	0r_4g.bmp	0r_4g.bmp	0r_2g.bmp	0r_2g.bmp	0r_4g.bmp				TrialProc	TrialList	0	cvbn	-999999	16	274040	0	c	356	274396	264	-215	49	0	46	3	0	10	9	86	0	0	0	0	4	4	2	2	0	4
Hungry_Donkey_bar_English_2	166	1	<?xml version="1.0"?>\n<Clock xmlns:dt="urn:schemas-microsoft-com:datatypes"><Description dt:dt="string">E-Prime Primary Realtime Clock</Description><StartTime><Timestamp dt:dt="int">0</Timestamp><DateUtc dt:dt="string">2016-08-11T22:02:26Z</DateUtc></StartTime><FrequencyChanges><FrequencyChange><Frequency dt:dt="r8">3507705</Frequency><Timestamp dt:dt="r8">334661604089</Timestamp><Current dt:dt="r8">0</Current><DateUtc dt:dt="string">2016-08-11T22:02:26Z</DateUtc></FrequencyChange></FrequencyChanges></Clock>\n	Hungry_Donkey_bar_English_2-166-1	60.018	-103	1.0.0.18	1	-345137184	Standard	2.0.10.353	2.0.10.353	08-11-2016		18:02:27	2.0.10.248	87	Bar50-50.bmp	55	3	?	0r_4g.bmp	0r_4g.bmp	0r_2g.bmp	0r_2g.bmp			0r_2g.bmp		TrialProc	TrialList	0	cvbn	-999999	16	276422	0	b	390	276812	266	-215	51	0	46	5	0	9	9	87	0	0	0	0	4	4	2	2	0	2
Hungry_Donkey_bar_English_2	166	1	<?xml version="1.0"?>\n<Clock xmlns:dt="urn:schemas-microsoft-com:datatypes"><Description dt:dt="string">E-Prime Primary Realtime Clock</Description><StartTime><Timestamp dt:dt="int">0</Timestamp><DateUtc dt:dt="string">2016-08-11T22:02:26Z</DateUtc></StartTime><FrequencyChanges><FrequencyChange><Frequency dt:dt="r8">3507705</Frequency><Timestamp dt:dt="r8">334661604089</Timestamp><Current dt:dt="r8">0</Current><DateUtc dt:dt="string">2016-08-11T22:02:26Z</DateUtc></FrequencyChange></FrequencyChanges></Clock>\n	Hungry_Donkey_bar_English_2-166-1	60.018	-103	1.0.0.18	1	-345137184	Standard	2.0.10.353	2.0.10.353	08-11-2016		18:02:27	2.0.10.248	88	Bar50-50.bmp	56	2	?	0r_4g.bmp	0r_4g.bmp	0r_2g.bmp	0r_2g.bmp		0r_4g.bmp			TrialProc	TrialList	0	cvbn	-999999	16	278838	0	v	406	279244	270	-215	55	0	50	5	0	8	9	88	0	0	0	0	4	4	2	2	0	4
Hungry_Donkey_bar_English_2	166	1	<?xml version="1.0"?>\n<Clock xmlns:dt="urn:schemas-microsoft-com:datatypes"><Description dt:dt="string">E-Prime Primary Realtime Clock</Description><StartTime><Timestamp dt:dt="int">0</Timestamp><DateUtc dt:dt="string">2016-08-11T22:02:26Z</DateUtc></StartTime><FrequencyChanges><FrequencyChange><Frequency dt:dt="r8">3507705</Frequency><Timestamp dt:dt="r8">334661604089</Timestamp><Current dt:dt="r8">0</Current><DateUtc dt:dt="string">2016-08-11T22:02:26Z</DateUtc></FrequencyChange></FrequencyChanges></Clock>\n	Hungry_Donkey_bar_English_2-166-1	60.018	-103	1.0.0.18	1	-345137184	Standard	2.0.10.353	2.0.10.353	08-11-2016		18:02:27	2.0.10.248	89	Bar50-50.bmp	55	1	?	10r_4g.bmp	0r_4g.bmp	2r_2g.bmp	0r_2g.bmp	10r_4g.bmp				TrialProc	TrialList	0	cvbn	-999999	16	281271	0	c	421	281692	274	-225	49	-6	50	5	0	3	9	89	-10	0	-2	0	4	4	2	2	-10	4
Hungry_Donkey_bar_English_2	166	1	<?xml version="1.0"?>\n<Clock xmlns:dt="urn:schemas-microsoft-com:datatypes"><Description dt:dt="string">E-Prime Primary Realtime Clock</Description><StartTime><Timestamp dt:dt="int">0</Timestamp><DateUtc dt:dt="string">2016-08-11T22:02:26Z</DateUtc></StartTime><FrequencyChanges><FrequencyChange><Frequency dt:dt="r8">3507705</Frequency><Timestamp dt:dt="r8">334661604089</Timestamp><Current dt:dt="r8">0</Current><DateUtc dt:dt="string">2016-08-11T22:02:26Z</DateUtc></FrequencyChange></FrequencyChanges></Clock>\n	Hungry_Donkey_bar_English_2-166-1	60.018	-103	1.0.0.18	1	-345137184	Standard	2.0.10.353	2.0.10.353	08-11-2016		18:02:27	2.0.10.248	90	Bar50-50.bmp	55	2	?	0r_4g.bmp	0r_4g.bmp	0r_2g.bmp	0r_2g.bmp		0r_4g.bmp			TrialProc	TrialList	0	cvbn	-999999	16	283720	0	v	196	283916	278	-225	53	-6	54	5	0	7	9	90	0	0	0	0	4	4	2	2	0	4
Hungry_Donkey_bar_English_2	166	1	<?xml version="1.0"?>\n<Clock xmlns:dt="urn:schemas-microsoft-com:datatypes"><Description dt:dt="string">E-Prime Primary Realtime Clock</Description><StartTime><Timestamp dt:dt="int">0</Timestamp><DateUtc dt:dt="string">2016-08-11T22:02:26Z</DateUtc></StartTime><FrequencyChanges><FrequencyChange><Frequency dt:dt="r8">3507705</Frequency><Timestamp dt:dt="r8">334661604089</Timestamp><Current dt:dt="r8">0</Current><DateUtc dt:dt="string">2016-08-11T22:02:26Z</DateUtc></FrequencyChange></FrequencyChanges></Clock>\n	Hungry_Donkey_bar_English_2-166-1	60.018	-103	1.0.0.18	1	-345137184	Standard	2.0.10.353	2.0.10.353	08-11-2016		18:02:27	2.0.10.248	91	Bar50-50.bmp	55	3	?	12r_4g.bmp	0r_4g.bmp	3r_2g.bmp	0r_2g.bmp			3r_2g.bmp		TrialProc	TrialList	0	cvbn	-999999	16	285953	0	b	571	286524	280	-228	52	-6	54	4	0	5	10	91	-12	0	-3	0	4	4	2	2	-3	2
Hungry_Donkey_bar_English_2	166	1	<?xml version="1.0"?>\n<Clock xmlns:dt="urn:schemas-microsoft-com:datatypes"><Description dt:dt="string">E-Prime Primary Realtime Clock</Description><StartTime><Timestamp dt:dt="int">0</Timestamp><DateUtc dt:dt="string">2016-08-11T22:02:26Z</DateUtc></StartTime><FrequencyChanges><FrequencyChange><Frequency dt:dt="r8">3507705</Frequency><Timestamp dt:dt="r8">334661604089</Timestamp><Current dt:dt="r8">0</Current><DateUtc dt:dt="string">2016-08-11T22:02:26Z</DateUtc></FrequencyChange></FrequencyChanges></Clock>\n	Hungry_Donkey_bar_English_2-166-1	60.018	-103	1.0.0.18	1	-345137184	Standard	2.0.10.353	2.0.10.353	08-11-2016		18:02:27	2.0.10.248	92	Bar50-50.bmp	55	4	?	0r_4g.bmp	0r_4g.bmp	0r_2g.bmp	0r_2g.bmp				0r_2g.bmp	TrialProc	TrialList	0	cvbn	-999999	16	288552	0	n	404	288956	282	-228	54	-6	54	4	2	9	10	92	0	0	0	0	4	4	2	2	0	2
Hungry_Donkey_bar_English_2	166	1	<?xml version="1.0"?>\n<Clock xmlns:dt="urn:schemas-microsoft-com:datatypes"><Description dt:dt="string">E-Prime Primary Realtime Clock</Description><StartTime><Timestamp dt:dt="int">0</Timestamp><DateUtc dt:dt="string">2016-08-11T22:02:26Z</DateUtc></StartTime><FrequencyChanges><FrequencyChange><Frequency dt:dt="r8">3507705</Frequency><Timestamp dt:dt="r8">334661604089</Timestamp><Current dt:dt="r8">0</Current><DateUtc dt:dt="string">2016-08-11T22:02:26Z</DateUtc></FrequencyChange></FrequencyChanges></Clock>\n	Hungry_Donkey_bar_English_2-166-1	60.018	-103	1.0.0.18	1	-345137184	Standard	2.0.10.353	2.0.10.353	08-11-2016		18:02:27	2.0.10.248	93	Bar50-50.bmp	56	2	?	0r_4g.bmp	0r_4g.bmp	0r_2g.bmp	0r_2g.bmp		0r_4g.bmp			TrialProc	TrialList	0	cvbn	-999999	16	290985	0	v	290	291275	286	-228	58	-6	58	4	2	8	10	93	0	0	0	0	4	4	2	2	0	4
Hungry_Donkey_bar_English_2	166	1	<?xml version="1.0"?>\n<Clock xmlns:dt="urn:schemas-microsoft-com:datatypes"><Description dt:dt="string">E-Prime Primary Realtime Clock</Description><StartTime><Timestamp dt:dt="int">0</Timestamp><DateUtc dt:dt="string">2016-08-11T22:02:26Z</DateUtc></StartTime><FrequencyChanges><FrequencyChange><Frequency dt:dt="r8">3507705</Frequency><Timestamp dt:dt="r8">334661604089</Timestamp><Current dt:dt="r8">0</Current><DateUtc dt:dt="string">2016-08-11T22:02:26Z</DateUtc></FrequencyChange></FrequencyChanges></Clock>\n	Hungry_Donkey_bar_English_2-166-1	60.018	-103	1.0.0.18	1	-345137184	Standard	2.0.10.353	2.0.10.353	08-11-2016		18:02:27	2.0.10.248	94	Bar50-50.bmp	55	1	?	10r_4g.bmp	0r_4g.bmp	2r_2g.bmp	0r_2g.bmp	10r_4g.bmp				TrialProc	TrialList	0	cvbn	-999999	16	293301	0	c	390	293691	290	-238	52	-12	58	4	2	4	10	94	-10	0	-2	0	4	4	2	2	-10	4
Hungry_Donkey_bar_English_2	166	1	<?xml version="1.0"?>\n<Clock xmlns:dt="urn:schemas-microsoft-com:datatypes"><Description dt:dt="string">E-Prime Primary Realtime Clock</Description><StartTime><Timestamp dt:dt="int">0</Timestamp><DateUtc dt:dt="string">2016-08-11T22:02:26Z</DateUtc></StartTime><FrequencyChanges><FrequencyChange><Frequency dt:dt="r8">3507705</Frequency><Timestamp dt:dt="r8">334661604089</Timestamp><Current dt:dt="r8">0</Current><DateUtc dt:dt="string">2016-08-11T22:02:26Z</DateUtc></FrequencyChange></FrequencyChanges></Clock>\n	Hungry_Donkey_bar_English_2-166-1	60.018	-103	1.0.0.18	1	-345137184	Standard	2.0.10.353	2.0.10.353	08-11-2016		18:02:27	2.0.10.248	95	Bar50-50.bmp	55	3	?	0r_4g.bmp	0r_4g.bmp	0r_2g.bmp	0r_2g.bmp			0r_2g.bmp		TrialProc	TrialList	0	cvbn	-999999	16	295717	0	b	390	296107	292	-238	54	-12	58	6	2	7	10	95	0	0	0	0	4	4	2	2	0	2
Hungry_Donkey_bar_English_2	166	1	<?xml version="1.0"?>\n<Clock xmlns:dt="urn:schemas-microsoft-com:datatypes"><Description dt:dt="string">E-Prime Primary Realtime Clock</Description><StartTime><Timestamp dt:dt="int">0</Timestamp><DateUtc dt:dt="string">2016-08-11T22:02:26Z</DateUtc></StartTime><FrequencyChanges><FrequencyChange><Frequency dt:dt="r8">3507705</Frequency><Timestamp dt:dt="r8">334661604089</Timestamp><Current dt:dt="r8">0</Current><DateUtc dt:dt="string">2016-08-11T22:02:26Z</DateUtc></FrequencyChange></FrequencyChanges></Clock>\n	Hungry_Donkey_bar_English_2-166-1	60.018	-103	1.0.0.18	1	-345137184	Standard	2.0.10.353	2.0.10.353	08-11-2016		18:02:27	2.0.10.248	96	Bar50-50.bmp	55	4	?	0r_4g.bmp	0r_4g.bmp	0r_2g.bmp	0r_2g.bmp				0r_2g.bmp	TrialProc	TrialList	0	cvbn	-999999	16	298133	0	n	454	298587	294	-238	56	-12	58	6	4	6	10	96	0	0	0	0	4	4	2	2	0	2
Hungry_Donkey_bar_English_2	166	1	<?xml version="1.0"?>\n<Clock xmlns:dt="urn:schemas-microsoft-com:datatypes"><Description dt:dt="string">E-Prime Primary Realtime Clock</Description><StartTime><Timestamp dt:dt="int">0</Timestamp><DateUtc dt:dt="string">2016-08-11T22:02:26Z</DateUtc></StartTime><FrequencyChanges><FrequencyChange><Frequency dt:dt="r8">3507705</Frequency><Timestamp dt:dt="r8">334661604089</Timestamp><Current dt:dt="r8">0</Current><DateUtc dt:dt="string">2016-08-11T22:02:26Z</DateUtc></FrequencyChange></FrequencyChanges></Clock>\n	Hungry_Donkey_bar_English_2-166-1	60.018	-103	1.0.0.18	1	-345137184	Standard	2.0.10.353	2.0.10.353	08-11-2016		18:02:27	2.0.10.248	97	Bar50-50.bmp	56	2	?	10r_4g.bmp	0r_4g.bmp	2r_2g.bmp	0r_2g.bmp		0r_4g.bmp			TrialProc	TrialList	0	cvbn	-999999	16	300615	0	v	500	301115	298	-238	60	-12	62	6	4	3	10	97	-10	0	-2	0	4	4	2	2	0	4
Hungry_Donkey_bar_English_2	166	1	<?xml version="1.0"?>\n<Clock xmlns:dt="urn:schemas-microsoft-com:datatypes"><Description dt:dt="string">E-Prime Primary Realtime Clock</Description><StartTime><Timestamp dt:dt="int">0</Timestamp><DateUtc dt:dt="string">2016-08-11T22:02:26Z</DateUtc></StartTime><FrequencyChanges><FrequencyChange><Frequency dt:dt="r8">3507705</Frequency><Timestamp dt:dt="r8">334661604089</Timestamp><Current dt:dt="r8">0</Current><DateUtc dt:dt="string">2016-08-11T22:02:26Z</DateUtc></FrequencyChange></FrequencyChanges></Clock>\n	Hungry_Donkey_bar_English_2-166-1	60.018	-103	1.0.0.18	1	-345137184	Standard	2.0.10.353	2.0.10.353	08-11-2016		18:02:27	2.0.10.248	98	Bar50-50.bmp	56	3	?	0r_4g.bmp	0r_4g.bmp	0r_2g.bmp	0r_2g.bmp			0r_2g.bmp		TrialProc	TrialList	0	cvbn	-999999	16	303148	0	b	399	303547	300	-238	62	-12	62	8	4	10	10	98	0	0	0	0	4	4	2	2	0	2
Hungry_Donkey_bar_English_2	166	1	<?xml version="1.0"?>\n<Clock xmlns:dt="urn:schemas-microsoft-com:datatypes"><Description dt:dt="string">E-Prime Primary Realtime Clock</Description><StartTime><Timestamp dt:dt="int">0</Timestamp><DateUtc dt:dt="string">2016-08-11T22:02:26Z</DateUtc></StartTime><FrequencyChanges><FrequencyChange><Frequency dt:dt="r8">3507705</Frequency><Timestamp dt:dt="r8">334661604089</Timestamp><Current dt:dt="r8">0</Current><DateUtc dt:dt="string">2016-08-11T22:02:26Z</DateUtc></FrequencyChange></FrequencyChanges></Clock>\n	Hungry_Donkey_bar_English_2-166-1	60.018	-103	1.0.0.18	1	-345137184	Standard	2.0.10.353	2.0.10.353	08-11-2016		18:02:27	2.0.10.248	99	Bar50-50.bmp	55	1	?	8r_4g.bmp	50r_4g.bmp	1r_2g.bmp	10r_2g.bmp	8r_4g.bmp				TrialProc	TrialList	0	cvbn	-999999	16	305580	0	c	447	306027	304	-246	58	-16	62	8	4	1	10	99	-8	-50	-1	-10	4	4	2	2	-8	4
Hungry_Donkey_bar_English_2	166	1	<?xml version="1.0"?>\n<Clock xmlns:dt="urn:schemas-microsoft-com:datatypes"><Description dt:dt="string">E-Prime Primary Realtime Clock</Description><StartTime><Timestamp dt:dt="int">0</Timestamp><DateUtc dt:dt="string">2016-08-11T22:02:26Z</DateUtc></StartTime><FrequencyChanges><FrequencyChange><Frequency dt:dt="r8">3507705</Frequency><Timestamp dt:dt="r8">334661604089</Timestamp><Current dt:dt="r8">0</Current><DateUtc dt:dt="string">2016-08-11T22:02:26Z</DateUtc></FrequencyChange></FrequencyChanges></Clock>\n	Hungry_Donkey_bar_English_2-166-1	60.018	-103	1.0.0.18	1	-345137184	Standard	2.0.10.353	2.0.10.353	08-11-2016		18:02:27	2.0.10.248	100	Bar50-50.bmp	56	2	?	10r_4g.bmp	0r_4g.bmp	2r_2g.bmp	0r_2g.bmp		0r_4g.bmp			TrialProc	TrialList	0	cvbn	-999999	16	308063	0	v	523	308586	308	-246	62	-16	66	8	4	2	10	100	-10	0	-2	0	4	4	2	2	0	4
Hungry_Donkey_bar_English_2	166	1	<?xml version="1.0"?>\n<Clock xmlns:dt="urn:schemas-microsoft-com:datatypes"><Description dt:dt="string">E-Prime Primary Realtime Clock</Description><StartTime><Timestamp dt:dt="int">0</Timestamp><DateUtc dt:dt="string">2016-08-11T22:02:26Z</DateUtc></StartTime><FrequencyChanges><FrequencyChange><Frequency dt:dt="r8">3507705</Frequency><Timestamp dt:dt="r8">334661604089</Timestamp><Current dt:dt="r8">0</Current><DateUtc dt:dt="string">2016-08-11T22:02:26Z</DateUtc></FrequencyChange></FrequencyChanges></Clock>\n	Hungry_Donkey_bar_English_2-166-1	60.018	-103	1.0.0.18	1	-345137184	Standard	2.0.10.353	2.0.10.353	08-11-2016		18:02:27	2.0.10.248	101	Bar50-50.bmp	56	4	?	10r_4g.bmp	0r_4g.bmp	2r_2g.bmp	0r_2g.bmp				0r_2g.bmp	TrialProc	TrialList	0	cvbn	-999999	16	310612	0	n	454	311066	310	-246	64	-16	66	8	6	2	11	101	-10	0	-2	0	4	4	2	2	0	2
Hungry_Donkey_bar_English_2	166	1	<?xml version="1.0"?>\n<Clock xmlns:dt="urn:schemas-microsoft-com:datatypes"><Description dt:dt="string">E-Prime Primary Realtime Clock</Description><StartTime><Timestamp dt:dt="int">0</Timestamp><DateUtc dt:dt="string">2016-08-11T22:02:26Z</DateUtc></StartTime><FrequencyChanges><FrequencyChange><Frequency dt:dt="r8">3507705</Frequency><Timestamp dt:dt="r8">334661604089</Timestamp><Current dt:dt="r8">0</Current><DateUtc dt:dt="string">2016-08-11T22:02:26Z</DateUtc></FrequencyChange></FrequencyChanges></Clock>\n	Hungry_Donkey_bar_English_2-166-1	60.018	-103	1.0.0.18	1	-345137184	Standard	2.0.10.353	2.0.10.353	08-11-2016		18:02:27	2.0.10.248	102	Bar50-50.bmp	56	2	?	0r_4g.bmp	0r_4g.bmp	0r_2g.bmp	0r_2g.bmp		0r_4g.bmp			TrialProc	TrialList	0	cvbn	-999999	16	313095	0	v	691	313786	314	-246	68	-16	70	8	6	8	11	102	0	0	0	0	4	4	2	2	0	4
Hungry_Donkey_bar_English_2	166	1	<?xml version="1.0"?>\n<Clock xmlns:dt="urn:schemas-microsoft-com:datatypes"><Description dt:dt="string">E-Prime Primary Realtime Clock</Description><StartTime><Timestamp dt:dt="int">0</Timestamp><DateUtc dt:dt="string">2016-08-11T22:02:26Z</DateUtc></StartTime><FrequencyChanges><FrequencyChange><Frequency dt:dt="r8">3507705</Frequency><Timestamp dt:dt="r8">334661604089</Timestamp><Current dt:dt="r8">0</Current><DateUtc dt:dt="string">2016-08-11T22:02:26Z</DateUtc></FrequencyChange></FrequencyChanges></Clock>\n	Hungry_Donkey_bar_English_2-166-1	60.018	-103	1.0.0.18	1	-345137184	Standard	2.0.10.353	2.0.10.353	08-11-2016		18:02:27	2.0.10.248	103	Bar50-50.bmp	56	3	?	0r_4g.bmp	0r_4g.bmp	0r_2g.bmp	0r_2g.bmp			0r_2g.bmp		TrialProc	TrialList	0	cvbn	-999999	16	315811	0	b	311	316122	316	-246	70	-16	70	10	6	10	11	103	0	0	0	0	4	4	2	2	0	2
Hungry_Donkey_bar_English_2	166	1	<?xml version="1.0"?>\n<Clock xmlns:dt="urn:schemas-microsoft-com:datatypes"><Description dt:dt="string">E-Prime Primary Realtime Clock</Description><StartTime><Timestamp dt:dt="int">0</Timestamp><DateUtc dt:dt="string">2016-08-11T22:02:26Z</DateUtc></StartTime><FrequencyChanges><FrequencyChange><Frequency dt:dt="r8">3507705</Frequency><Timestamp dt:dt="r8">334661604089</Timestamp><Current dt:dt="r8">0</Current><DateUtc dt:dt="string">2016-08-11T22:02:26Z</DateUtc></FrequencyChange></FrequencyChanges></Clock>\n	Hungry_Donkey_bar_English_2-166-1	60.018	-103	1.0.0.18	1	-345137184	Standard	2.0.10.353	2.0.10.353	08-11-2016		18:02:27	2.0.10.248	104	Bar50-50.bmp	52	2	?	8r_4g.bmp	50r_4g.bmp	1r_2g.bmp	10r_2g.bmp		50r_4g.bmp			TrialProc	TrialList	0	cvbn	-999999	16	318160	0	v	426	318586	320	-296	24	-16	24	10	6	1	11	104	-8	-50	-1	-10	4	4	2	2	-50	4
Hungry_Donkey_bar_English_2	166	1	<?xml version="1.0"?>\n<Clock xmlns:dt="urn:schemas-microsoft-com:datatypes"><Description dt:dt="string">E-Prime Primary Realtime Clock</Description><StartTime><Timestamp dt:dt="int">0</Timestamp><DateUtc dt:dt="string">2016-08-11T22:02:26Z</DateUtc></StartTime><FrequencyChanges><FrequencyChange><Frequency dt:dt="r8">3507705</Frequency><Timestamp dt:dt="r8">334661604089</Timestamp><Current dt:dt="r8">0</Current><DateUtc dt:dt="string">2016-08-11T22:02:26Z</DateUtc></FrequencyChange></FrequencyChanges></Clock>\n	Hungry_Donkey_bar_English_2-166-1	60.018	-103	1.0.0.18	1	-345137184	Standard	2.0.10.353	2.0.10.353	08-11-2016		18:02:27	2.0.10.248	105	Bar50-50.bmp	51	1	?	10r_4g.bmp	0r_4g.bmp	2r_2g.bmp	0r_2g.bmp	10r_4g.bmp				TrialProc	TrialList	0	cvbn	-999999	16	320626	0	c	408	321034	324	-306	18	-22	24	10	6	3	11	105	-10	0	-2	0	4	4	2	2	-10	4
Hungry_Donkey_bar_English_2	166	1	<?xml version="1.0"?>\n<Clock xmlns:dt="urn:schemas-microsoft-com:datatypes"><Description dt:dt="string">E-Prime Primary Realtime Clock</Description><StartTime><Timestamp dt:dt="int">0</Timestamp><DateUtc dt:dt="string">2016-08-11T22:02:26Z</DateUtc></StartTime><FrequencyChanges><FrequencyChange><Frequency dt:dt="r8">3507705</Frequency><Timestamp dt:dt="r8">334661604089</Timestamp><Current dt:dt="r8">0</Current><DateUtc dt:dt="string">2016-08-11T22:02:26Z</DateUtc></FrequencyChange></FrequencyChanges></Clock>\n	Hungry_Donkey_bar_English_2-166-1	60.018	-103	1.0.0.18	1	-345137184	Standard	2.0.10.353	2.0.10.353	08-11-2016		18:02:27	2.0.10.248	106	Bar50-50.bmp	52	2	?	0r_4g.bmp	0r_4g.bmp	0r_2g.bmp	0r_2g.bmp		0r_4g.bmp			TrialProc	TrialList	0	cvbn	-999999	16	323075	0	v	199	323274	328	-306	22	-22	28	10	6	7	11	106	0	0	0	0	4	4	2	2	0	4
Hungry_Donkey_bar_English_2	166	1	<?xml version="1.0"?>\n<Clock xmlns:dt="urn:schemas-microsoft-com:datatypes"><Description dt:dt="string">E-Prime Primary Realtime Clock</Description><StartTime><Timestamp dt:dt="int">0</Timestamp><DateUtc dt:dt="string">2016-08-11T22:02:26Z</DateUtc></StartTime><FrequencyChanges><FrequencyChange><Frequency dt:dt="r8">3507705</Frequency><Timestamp dt:dt="r8">334661604089</Timestamp><Current dt:dt="r8">0</Current><DateUtc dt:dt="string">2016-08-11T22:02:26Z</DateUtc></FrequencyChange></FrequencyChanges></Clock>\n	Hungry_Donkey_bar_English_2-166-1	60.018	-103	1.0.0.18	1	-345137184	Standard	2.0.10.353	2.0.10.353	08-11-2016		18:02:27	2.0.10.248	107	Bar50-50.bmp	52	3	?	10r_4g.bmp	0r_4g.bmp	2r_2g.bmp	0r_2g.bmp			2r_2g.bmp		TrialProc	TrialList	0	cvbn	-999999	16	325308	0	b	509	325817	330	-308	22	-22	28	10	6	4	11	107	-10	0	-2	0	4	4	2	2	-2	2
Hungry_Donkey_bar_English_2	166	1	<?xml version="1.0"?>\n<Clock xmlns:dt="urn:schemas-microsoft-com:datatypes"><Description dt:dt="string">E-Prime Primary Realtime Clock</Description><StartTime><Timestamp dt:dt="int">0</Timestamp><DateUtc dt:dt="string">2016-08-11T22:02:26Z</DateUtc></StartTime><FrequencyChanges><FrequencyChange><Frequency dt:dt="r8">3507705</Frequency><Timestamp dt:dt="r8">334661604089</Timestamp><Current dt:dt="r8">0</Current><DateUtc dt:dt="string">2016-08-11T22:02:26Z</DateUtc></FrequencyChange></FrequencyChanges></Clock>\n	Hungry_Donkey_bar_English_2-166-1	60.018	-103	1.0.0.18	1	-345137184	Standard	2.0.10.353	2.0.10.353	08-11-2016		18:02:27	2.0.10.248	108	Bar50-50.bmp	52	4	?	0r_4g.bmp	0r_4g.bmp	0r_2g.bmp	0r_2g.bmp				0r_2g.bmp	TrialProc	TrialList	0	cvbn	-999999	16	327841	0	n	360	328201	332	-308	24	-22	28	10	8	6	11	108	0	0	0	0	4	4	2	2	0	2
Hungry_Donkey_bar_English_2	166	1	<?xml version="1.0"?>\n<Clock xmlns:dt="urn:schemas-microsoft-com:datatypes"><Description dt:dt="string">E-Prime Primary Realtime Clock</Description><StartTime><Timestamp dt:dt="int">0</Timestamp><DateUtc dt:dt="string">2016-08-11T22:02:26Z</DateUtc></StartTime><FrequencyChanges><FrequencyChange><Frequency dt:dt="r8">3507705</Frequency><Timestamp dt:dt="r8">334661604089</Timestamp><Current dt:dt="r8">0</Current><DateUtc dt:dt="string">2016-08-11T22:02:26Z</DateUtc></FrequencyChange></FrequencyChanges></Clock>\n	Hungry_Donkey_bar_English_2-166-1	60.018	-103	1.0.0.18	1	-345137184	Standard	2.0.10.353	2.0.10.353	08-11-2016		18:02:27	2.0.10.248	109	Bar50-50.bmp	52	2	?	0r_4g.bmp	0r_4g.bmp	0r_2g.bmp	0r_2g.bmp		0r_4g.bmp			TrialProc	TrialList	0	cvbn	-999999	16	330240	0	v	9	330249	336	-308	28	-22	32	10	8	9	11	109	0	0	0	0	4	4	2	2	0	4
Hungry_Donkey_bar_English_2	166	1	<?xml version="1.0"?>\n<Clock xmlns:dt="urn:schemas-microsoft-com:datatypes"><Description dt:dt="string">E-Prime Primary Realtime Clock</Description><StartTime><Timestamp dt:dt="int">0</Timestamp><DateUtc dt:dt="string">2016-08-11T22:02:26Z</DateUtc></StartTime><FrequencyChanges><FrequencyChange><Frequency dt:dt="r8">3507705</Frequency><Timestamp dt:dt="r8">334661604089</Timestamp><Current dt:dt="r8">0</Current><DateUtc dt:dt="string">2016-08-11T22:02:26Z</DateUtc></FrequencyChange></FrequencyChanges></Clock>\n	Hungry_Donkey_bar_English_2-166-1	60.018	-103	1.0.0.18	1	-345137184	Standard	2.0.10.353	2.0.10.353	08-11-2016		18:02:27	2.0.10.248	110	Bar50-50.bmp	52	3	?	12r_4g.bmp	0r_4g.bmp	3r_2g.bmp	0r_2g.bmp			3r_2g.bmp		TrialProc	TrialList	0	cvbn	-999999	16	332289	0	b	184	332473	338	-311	27	-22	32	9	8	5	11	110	-12	0	-3	0	4	4	2	2	-3	2
Hungry_Donkey_bar_English_2	166	1	<?xml version="1.0"?>\n<Clock xmlns:dt="urn:schemas-microsoft-com:datatypes"><Description dt:dt="string">E-Prime Primary Realtime Clock</Description><StartTime><Timestamp dt:dt="int">0</Timestamp><DateUtc dt:dt="string">2016-08-11T22:02:26Z</DateUtc></StartTime><FrequencyChanges><FrequencyChange><Frequency dt:dt="r8">3507705</Frequency><Timestamp dt:dt="r8">334661604089</Timestamp><Current dt:dt="r8">0</Current><DateUtc dt:dt="string">2016-08-11T22:02:26Z</DateUtc></FrequencyChange></FrequencyChanges></Clock>\n	Hungry_Donkey_bar_English_2-166-1	60.018	-103	1.0.0.18	1	-345137184	Standard	2.0.10.353	2.0.10.353	08-11-2016		18:02:27	2.0.10.248	111	Bar50-50.bmp	52	4	?	10r_4g.bmp	0r_4g.bmp	2r_2g.bmp	0r_2g.bmp				0r_2g.bmp	TrialProc	TrialList	0	cvbn	-999999	16	334505	0	n	64	334569	340	-311	29	-22	32	9	10	4	12	111	-10	0	-2	0	4	4	2	2	0	2
Hungry_Donkey_bar_English_2	166	1	<?xml version="1.0"?>\n<Clock xmlns:dt="urn:schemas-microsoft-com:datatypes"><Description dt:dt="string">E-Prime Primary Realtime Clock</Description><StartTime><Timestamp dt:dt="int">0</Timestamp><DateUtc dt:dt="string">2016-08-11T22:02:26Z</DateUtc></StartTime><FrequencyChanges><FrequencyChange><Frequency dt:dt="r8">3507705</Frequency><Timestamp dt:dt="r8">334661604089</Timestamp><Current dt:dt="r8">0</Current><DateUtc dt:dt="string">2016-08-11T22:02:26Z</DateUtc></FrequencyChange></FrequencyChanges></Clock>\n	Hungry_Donkey_bar_English_2-166-1	60.018	-103	1.0.0.18	1	-345137184	Standard	2.0.10.353	2.0.10.353	08-11-2016		18:02:27	2.0.10.248	112	Bar50-50.bmp	52	1	?	8r_4g.bmp	50r_4g.bmp	1r_2g.bmp	10r_2g.bmp	8r_4g.bmp				TrialProc	TrialList	0	cvbn	-999999	16	336605	0	c	892	337497	344	-319	25	-26	32	9	10	1	12	112	-8	-50	-1	-10	4	4	2	2	-8	4
Hungry_Donkey_bar_English_2	166	1	<?xml version="1.0"?>\n<Clock xmlns:dt="urn:schemas-microsoft-com:datatypes"><Description dt:dt="string">E-Prime Primary Realtime Clock</Description><StartTime><Timestamp dt:dt="int">0</Timestamp><DateUtc dt:dt="string">2016-08-11T22:02:26Z</DateUtc></StartTime><FrequencyChanges><FrequencyChange><Frequency dt:dt="r8">3507705</Frequency><Timestamp dt:dt="r8">334661604089</Timestamp><Current dt:dt="r8">0</Current><DateUtc dt:dt="string">2016-08-11T22:02:26Z</DateUtc></FrequencyChange></FrequencyChanges></Clock>\n	Hungry_Donkey_bar_English_2-166-1	60.018	-103	1.0.0.18	1	-345137184	Standard	2.0.10.353	2.0.10.353	08-11-2016		18:02:27	2.0.10.248	113	Bar50-50.bmp	52	2	?	0r_4g.bmp	0r_4g.bmp	0r_2g.bmp	0r_2g.bmp		0r_4g.bmp			TrialProc	TrialList	0	cvbn	-999999	17	339521	0	v	1304	340825	348	-319	29	-26	36	9	10	9	12	113	0	0	0	0	4	4	2	2	0	4
