ExperimentName	Subject	Session	Clock.Information	DataFile.Basename	Display.RefreshRate	Eindtotaal[Session]	ExperimentVersion	Group	RandomSeed	RuntimeCapabilities	RuntimeVersion	RuntimeVersionExpected	SessionDate	SessionStartDateTimeUtc	SessionTime	StudioVersion	Block	BarImage	BarTotalWinst	DoorChoice	Eindtotaal[Block]	FBDoor1	FBDoor2	FBDoor3	FBDoor4	Image1	Image2	Image3	Image4	Procedure	Running	spel.ACC	spel.CRESP	spel.DurationError	spel.OnsetDelay	spel.OnsetTime	spel.OnsetToOnsetTime	spel.RESP	spel.RT	spel.RTTime	TotalGain	TotalLose	Totalsum	TotalsumD1	TotalsumD2	TotalsumD3	TotalsumD4	TrialList	TrialList.Cycle	TrialList.Sample	varV1	varV2	varV3	varV4	varW1	varW2	varW3	varW4	Verliesbedrag	Winstbedrag
Hungry_Donkey_bar_English_2	147	1	<?xml version="1.0"?>\n<Clock xmlns:dt="urn:schemas-microsoft-com:datatypes"><Description dt:dt="string">E-Prime Primary Realtime Clock</Description><StartTime><Timestamp dt:dt="int">0</Timestamp><DateUtc dt:dt="string">2016-05-13T21:29:17Z</DateUtc></StartTime><FrequencyChanges><FrequencyChange><Frequency dt:dt="r8">3507675</Frequency><Timestamp dt:dt="r8">106813907081</Timestamp><Current dt:dt="r8">0</Current><DateUtc dt:dt="string">2016-05-13T21:29:17Z</DateUtc></FrequencyChange></FrequencyChanges></Clock>\n	Hungry_Donkey_bar_English_2-147-1	60.017	64	1.0.0.18	1	-559613100	Standard	2.0.10.353	2.0.10.353	05-13-2016	5/13/2016 9:29:17 PM	17:29:17	2.0.10.248	1	Bar25-75.bmp	25	1	?	12r_4g.bmp	0r_4g.bmp	3r_2g.bmp	0r_2g.bmp	12r_4g.bmp				TrialProc	TrialList	0	cvbn	-999999	30	51944	0	c	2482	54426	4	-12	-8	-8	0	0	0	5	1	1	-12	0	-3	0	4	4	2	2	-12	4
Hungry_Donkey_bar_English_2	147	1	<?xml version="1.0"?>\n<Clock xmlns:dt="urn:schemas-microsoft-com:datatypes"><Description dt:dt="string">E-Prime Primary Realtime Clock</Description><StartTime><Timestamp dt:dt="int">0</Timestamp><DateUtc dt:dt="string">2016-05-13T21:29:17Z</DateUtc></StartTime><FrequencyChanges><FrequencyChange><Frequency dt:dt="r8">3507675</Frequency><Timestamp dt:dt="r8">106813907081</Timestamp><Current dt:dt="r8">0</Current><DateUtc dt:dt="string">2016-05-13T21:29:17Z</DateUtc></FrequencyChange></FrequencyChanges></Clock>\n	Hungry_Donkey_bar_English_2-147-1	60.017	64	1.0.0.18	1	-559613100	Standard	2.0.10.353	2.0.10.353	05-13-2016	5/13/2016 9:29:17 PM	17:29:17	2.0.10.248	2	Bar37-63.bmp	40	2	?	10r_4g.bmp	0r_4g.bmp	2r_2g.bmp	0r_2g.bmp		0r_4g.bmp			TrialProc	TrialList	0	cvbn	-999999	16	56460	0	v	1246	57706	8	-12	-4	-8	4	0	0	2	1	2	-10	0	-2	0	4	4	2	2	0	4
Hungry_Donkey_bar_English_2	147	1	<?xml version="1.0"?>\n<Clock xmlns:dt="urn:schemas-microsoft-com:datatypes"><Description dt:dt="string">E-Prime Primary Realtime Clock</Description><StartTime><Timestamp dt:dt="int">0</Timestamp><DateUtc dt:dt="string">2016-05-13T21:29:17Z</DateUtc></StartTime><FrequencyChanges><FrequencyChange><Frequency dt:dt="r8">3507675</Frequency><Timestamp dt:dt="r8">106813907081</Timestamp><Current dt:dt="r8">0</Current><DateUtc dt:dt="string">2016-05-13T21:29:17Z</DateUtc></FrequencyChange></FrequencyChanges></Clock>\n	Hungry_Donkey_bar_English_2-147-1	60.017	64	1.0.0.18	1	-559613100	Standard	2.0.10.353	2.0.10.353	05-13-2016	5/13/2016 9:29:17 PM	17:29:17	2.0.10.248	3	Bar50-50.bmp	45	4	?	0r_4g.bmp	0r_4g.bmp	0r_2g.bmp	0r_2g.bmp				0r_2g.bmp	TrialProc	TrialList	0	cvbn	-999999	16	59742	0	n	4492	64234	10	-12	-2	-8	4	0	2	6	1	3	0	0	0	0	4	4	2	2	0	2
Hungry_Donkey_bar_English_2	147	1	<?xml version="1.0"?>\n<Clock xmlns:dt="urn:schemas-microsoft-com:datatypes"><Description dt:dt="string">E-Prime Primary Realtime Clock</Description><StartTime><Timestamp dt:dt="int">0</Timestamp><DateUtc dt:dt="string">2016-05-13T21:29:17Z</DateUtc></StartTime><FrequencyChanges><FrequencyChange><Frequency dt:dt="r8">3507675</Frequency><Timestamp dt:dt="r8">106813907081</Timestamp><Current dt:dt="r8">0</Current><DateUtc dt:dt="string">2016-05-13T21:29:17Z</DateUtc></FrequencyChange></FrequencyChanges></Clock>\n	Hungry_Donkey_bar_English_2-147-1	60.017	64	1.0.0.18	1	-559613100	Standard	2.0.10.353	2.0.10.353	05-13-2016	5/13/2016 9:29:17 PM	17:29:17	2.0.10.248	4	Bar50-50.bmp	54	1	?	0r_4g.bmp	0r_4g.bmp	0r_2g.bmp	0r_2g.bmp	0r_4g.bmp				TrialProc	TrialList	0	cvbn	-999999	16	66273	0	c	729	67002	14	-12	2	-4	4	0	2	7	1	4	0	0	0	0	4	4	2	2	0	4
Hungry_Donkey_bar_English_2	147	1	<?xml version="1.0"?>\n<Clock xmlns:dt="urn:schemas-microsoft-com:datatypes"><Description dt:dt="string">E-Prime Primary Realtime Clock</Description><StartTime><Timestamp dt:dt="int">0</Timestamp><DateUtc dt:dt="string">2016-05-13T21:29:17Z</DateUtc></StartTime><FrequencyChanges><FrequencyChange><Frequency dt:dt="r8">3507675</Frequency><Timestamp dt:dt="r8">106813907081</Timestamp><Current dt:dt="r8">0</Current><DateUtc dt:dt="string">2016-05-13T21:29:17Z</DateUtc></FrequencyChange></FrequencyChanges></Clock>\n	Hungry_Donkey_bar_English_2-147-1	60.017	64	1.0.0.18	1	-559613100	Standard	2.0.10.353	2.0.10.353	05-13-2016	5/13/2016 9:29:17 PM	17:29:17	2.0.10.248	5	Bar63-37.bmp	57	3	?	0r_4g.bmp	0r_4g.bmp	0r_2g.bmp	0r_2g.bmp			0r_2g.bmp		TrialProc	TrialList	0	cvbn	-999999	16	69039	0	b	474	69513	16	-12	4	-4	4	2	2	10	1	5	0	0	0	0	4	4	2	2	0	2
Hungry_Donkey_bar_English_2	147	1	<?xml version="1.0"?>\n<Clock xmlns:dt="urn:schemas-microsoft-com:datatypes"><Description dt:dt="string">E-Prime Primary Realtime Clock</Description><StartTime><Timestamp dt:dt="int">0</Timestamp><DateUtc dt:dt="string">2016-05-13T21:29:17Z</DateUtc></StartTime><FrequencyChanges><FrequencyChange><Frequency dt:dt="r8">3507675</Frequency><Timestamp dt:dt="r8">106813907081</Timestamp><Current dt:dt="r8">0</Current><DateUtc dt:dt="string">2016-05-13T21:29:17Z</DateUtc></FrequencyChange></FrequencyChanges></Clock>\n	Hungry_Donkey_bar_English_2-147-1	60.017	64	1.0.0.18	1	-559613100	Standard	2.0.10.353	2.0.10.353	05-13-2016	5/13/2016 9:29:17 PM	17:29:17	2.0.10.248	6	Bar63-37.bmp	62	2	?	10r_4g.bmp	0r_4g.bmp	2r_2g.bmp	0r_2g.bmp		0r_4g.bmp			TrialProc	TrialList	0	cvbn	-999999	16	71555	0	v	662	72217	20	-12	8	-4	8	2	2	4	1	6	-10	0	-2	0	4	4	2	2	0	4
Hungry_Donkey_bar_English_2	147	1	<?xml version="1.0"?>\n<Clock xmlns:dt="urn:schemas-microsoft-com:datatypes"><Description dt:dt="string">E-Prime Primary Realtime Clock</Description><StartTime><Timestamp dt:dt="int">0</Timestamp><DateUtc dt:dt="string">2016-05-13T21:29:17Z</DateUtc></StartTime><FrequencyChanges><FrequencyChange><Frequency dt:dt="r8">3507675</Frequency><Timestamp dt:dt="r8">106813907081</Timestamp><Current dt:dt="r8">0</Current><DateUtc dt:dt="string">2016-05-13T21:29:17Z</DateUtc></FrequencyChange></FrequencyChanges></Clock>\n	Hungry_Donkey_bar_English_2-147-1	60.017	64	1.0.0.18	1	-559613100	Standard	2.0.10.353	2.0.10.353	05-13-2016	5/13/2016 9:29:17 PM	17:29:17	2.0.10.248	7	Bar50-50.bmp	52	1	?	10r_4g.bmp	0r_4g.bmp	2r_2g.bmp	0r_2g.bmp	10r_4g.bmp				TrialProc	TrialList	0	cvbn	-999999	17	74255	0	c	410	74665	24	-22	2	-10	8	2	2	3	1	7	-10	0	-2	0	4	4	2	2	-10	4
Hungry_Donkey_bar_English_2	147	1	<?xml version="1.0"?>\n<Clock xmlns:dt="urn:schemas-microsoft-com:datatypes"><Description dt:dt="string">E-Prime Primary Realtime Clock</Description><StartTime><Timestamp dt:dt="int">0</Timestamp><DateUtc dt:dt="string">2016-05-13T21:29:17Z</DateUtc></StartTime><FrequencyChanges><FrequencyChange><Frequency dt:dt="r8">3507675</Frequency><Timestamp dt:dt="r8">106813907081</Timestamp><Current dt:dt="r8">0</Current><DateUtc dt:dt="string">2016-05-13T21:29:17Z</DateUtc></FrequencyChange></FrequencyChanges></Clock>\n	Hungry_Donkey_bar_English_2-147-1	60.017	64	1.0.0.18	1	-559613100	Standard	2.0.10.353	2.0.10.353	05-13-2016	5/13/2016 9:29:17 PM	17:29:17	2.0.10.248	8	Bar50-50.bmp	54	4	?	0r_4g.bmp	0r_4g.bmp	0r_2g.bmp	0r_2g.bmp				0r_2g.bmp	TrialProc	TrialList	0	cvbn	-999999	16	76704	0	n	521	77225	26	-22	4	-10	8	2	4	9	1	8	0	0	0	0	4	4	2	2	0	2
Hungry_Donkey_bar_English_2	147	1	<?xml version="1.0"?>\n<Clock xmlns:dt="urn:schemas-microsoft-com:datatypes"><Description dt:dt="string">E-Prime Primary Realtime Clock</Description><StartTime><Timestamp dt:dt="int">0</Timestamp><DateUtc dt:dt="string">2016-05-13T21:29:17Z</DateUtc></StartTime><FrequencyChanges><FrequencyChange><Frequency dt:dt="r8">3507675</Frequency><Timestamp dt:dt="r8">106813907081</Timestamp><Current dt:dt="r8">0</Current><DateUtc dt:dt="string">2016-05-13T21:29:17Z</DateUtc></FrequencyChange></FrequencyChanges></Clock>\n	Hungry_Donkey_bar_English_2-147-1	60.017	64	1.0.0.18	1	-559613100	Standard	2.0.10.353	2.0.10.353	05-13-2016	5/13/2016 9:29:17 PM	17:29:17	2.0.10.248	9	Bar50-50.bmp	55	3	?	8r_4g.bmp	50r_4g.bmp	1r_2g.bmp	10r_2g.bmp			1r_2g.bmp		TrialProc	TrialList	0	cvbn	-999999	16	79253	0	b	1028	80281	28	-23	5	-10	8	3	4	1	1	9	-8	-50	-1	-10	4	4	2	2	-1	2
Hungry_Donkey_bar_English_2	147	1	<?xml version="1.0"?>\n<Clock xmlns:dt="urn:schemas-microsoft-com:datatypes"><Description dt:dt="string">E-Prime Primary Realtime Clock</Description><StartTime><Timestamp dt:dt="int">0</Timestamp><DateUtc dt:dt="string">2016-05-13T21:29:17Z</DateUtc></StartTime><FrequencyChanges><FrequencyChange><Frequency dt:dt="r8">3507675</Frequency><Timestamp dt:dt="r8">106813907081</Timestamp><Current dt:dt="r8">0</Current><DateUtc dt:dt="string">2016-05-13T21:29:17Z</DateUtc></FrequencyChange></FrequencyChanges></Clock>\n	Hungry_Donkey_bar_English_2-147-1	60.017	64	1.0.0.18	1	-559613100	Standard	2.0.10.353	2.0.10.353	05-13-2016	5/13/2016 9:29:17 PM	17:29:17	2.0.10.248	10	Bar63-37.bmp	58	1	?	0r_4g.bmp	0r_4g.bmp	0r_2g.bmp	0r_2g.bmp	0r_4g.bmp				TrialProc	TrialList	0	cvbn	-999999	16	82319	0	c	554	82873	32	-23	9	-6	8	3	4	8	1	10	0	0	0	0	4	4	2	2	0	4
Hungry_Donkey_bar_English_2	147	1	<?xml version="1.0"?>\n<Clock xmlns:dt="urn:schemas-microsoft-com:datatypes"><Description dt:dt="string">E-Prime Primary Realtime Clock</Description><StartTime><Timestamp dt:dt="int">0</Timestamp><DateUtc dt:dt="string">2016-05-13T21:29:17Z</DateUtc></StartTime><FrequencyChanges><FrequencyChange><Frequency dt:dt="r8">3507675</Frequency><Timestamp dt:dt="r8">106813907081</Timestamp><Current dt:dt="r8">0</Current><DateUtc dt:dt="string">2016-05-13T21:29:17Z</DateUtc></FrequencyChange></FrequencyChanges></Clock>\n	Hungry_Donkey_bar_English_2-147-1	60.017	64	1.0.0.18	1	-559613100	Standard	2.0.10.353	2.0.10.353	05-13-2016	5/13/2016 9:29:17 PM	17:29:17	2.0.10.248	11	Bar63-37.bmp	61	2	?	10r_4g.bmp	0r_4g.bmp	2r_2g.bmp	0r_2g.bmp		0r_4g.bmp			TrialProc	TrialList	0	cvbn	-999999	16	84901	0	v	452	85353	36	-23	13	-6	12	3	4	3	2	11	-10	0	-2	0	4	4	2	2	0	4
Hungry_Donkey_bar_English_2	147	1	<?xml version="1.0"?>\n<Clock xmlns:dt="urn:schemas-microsoft-com:datatypes"><Description dt:dt="string">E-Prime Primary Realtime Clock</Description><StartTime><Timestamp dt:dt="int">0</Timestamp><DateUtc dt:dt="string">2016-05-13T21:29:17Z</DateUtc></StartTime><FrequencyChanges><FrequencyChange><Frequency dt:dt="r8">3507675</Frequency><Timestamp dt:dt="r8">106813907081</Timestamp><Current dt:dt="r8">0</Current><DateUtc dt:dt="string">2016-05-13T21:29:17Z</DateUtc></FrequencyChange></FrequencyChanges></Clock>\n	Hungry_Donkey_bar_English_2-147-1	60.017	64	1.0.0.18	1	-559613100	Standard	2.0.10.353	2.0.10.353	05-13-2016	5/13/2016 9:29:17 PM	17:29:17	2.0.10.248	12	Bar63-37.bmp	63	2	?	0r_4g.bmp	0r_4g.bmp	0r_2g.bmp	0r_2g.bmp		0r_4g.bmp			TrialProc	TrialList	0	cvbn	-999999	16	87384	0	v	609	87993	40	-23	17	-6	16	3	4	8	2	12	0	0	0	0	4	4	2	2	0	4
Hungry_Donkey_bar_English_2	147	1	<?xml version="1.0"?>\n<Clock xmlns:dt="urn:schemas-microsoft-com:datatypes"><Description dt:dt="string">E-Prime Primary Realtime Clock</Description><StartTime><Timestamp dt:dt="int">0</Timestamp><DateUtc dt:dt="string">2016-05-13T21:29:17Z</DateUtc></StartTime><FrequencyChanges><FrequencyChange><Frequency dt:dt="r8">3507675</Frequency><Timestamp dt:dt="r8">106813907081</Timestamp><Current dt:dt="r8">0</Current><DateUtc dt:dt="string">2016-05-13T21:29:17Z</DateUtc></FrequencyChange></FrequencyChanges></Clock>\n	Hungry_Donkey_bar_English_2-147-1	60.017	64	1.0.0.18	1	-559613100	Standard	2.0.10.353	2.0.10.353	05-13-2016	5/13/2016 9:29:17 PM	17:29:17	2.0.10.248	13	Bar63-37.bmp	65	4	?	0r_4g.bmp	0r_4g.bmp	0r_2g.bmp	0r_2g.bmp				0r_2g.bmp	TrialProc	TrialList	0	cvbn	-999999	16	90033	0	n	551	90584	42	-23	19	-6	16	3	6	10	2	13	0	0	0	0	4	4	2	2	0	2
Hungry_Donkey_bar_English_2	147	1	<?xml version="1.0"?>\n<Clock xmlns:dt="urn:schemas-microsoft-com:datatypes"><Description dt:dt="string">E-Prime Primary Realtime Clock</Description><StartTime><Timestamp dt:dt="int">0</Timestamp><DateUtc dt:dt="string">2016-05-13T21:29:17Z</DateUtc></StartTime><FrequencyChanges><FrequencyChange><Frequency dt:dt="r8">3507675</Frequency><Timestamp dt:dt="r8">106813907081</Timestamp><Current dt:dt="r8">0</Current><DateUtc dt:dt="string">2016-05-13T21:29:17Z</DateUtc></FrequencyChange></FrequencyChanges></Clock>\n	Hungry_Donkey_bar_English_2-147-1	60.017	64	1.0.0.18	1	-559613100	Standard	2.0.10.353	2.0.10.353	05-13-2016	5/13/2016 9:29:17 PM	17:29:17	2.0.10.248	14	Bar63-37.bmp	66	3	?	0r_4g.bmp	0r_4g.bmp	0r_2g.bmp	0r_2g.bmp			0r_2g.bmp		TrialProc	TrialList	0	cvbn	-999999	16	92616	0	b	576	93192	44	-23	21	-6	16	5	6	9	2	14	0	0	0	0	4	4	2	2	0	2
Hungry_Donkey_bar_English_2	147	1	<?xml version="1.0"?>\n<Clock xmlns:dt="urn:schemas-microsoft-com:datatypes"><Description dt:dt="string">E-Prime Primary Realtime Clock</Description><StartTime><Timestamp dt:dt="int">0</Timestamp><DateUtc dt:dt="string">2016-05-13T21:29:17Z</DateUtc></StartTime><FrequencyChanges><FrequencyChange><Frequency dt:dt="r8">3507675</Frequency><Timestamp dt:dt="r8">106813907081</Timestamp><Current dt:dt="r8">0</Current><DateUtc dt:dt="string">2016-05-13T21:29:17Z</DateUtc></FrequencyChange></FrequencyChanges></Clock>\n	Hungry_Donkey_bar_English_2-147-1	60.017	64	1.0.0.18	1	-559613100	Standard	2.0.10.353	2.0.10.353	05-13-2016	5/13/2016 9:29:17 PM	17:29:17	2.0.10.248	15	Bar63-37.bmp	68	1	?	0r_4g.bmp	0r_4g.bmp	0r_2g.bmp	0r_2g.bmp	0r_4g.bmp				TrialProc	TrialList	0	cvbn	-999999	16	95215	0	c	569	95784	48	-23	25	-2	16	5	6	7	2	15	0	0	0	0	4	4	2	2	0	4
Hungry_Donkey_bar_English_2	147	1	<?xml version="1.0"?>\n<Clock xmlns:dt="urn:schemas-microsoft-com:datatypes"><Description dt:dt="string">E-Prime Primary Realtime Clock</Description><StartTime><Timestamp dt:dt="int">0</Timestamp><DateUtc dt:dt="string">2016-05-13T21:29:17Z</DateUtc></StartTime><FrequencyChanges><FrequencyChange><Frequency dt:dt="r8">3507675</Frequency><Timestamp dt:dt="r8">106813907081</Timestamp><Current dt:dt="r8">0</Current><DateUtc dt:dt="string">2016-05-13T21:29:17Z</DateUtc></FrequencyChange></FrequencyChanges></Clock>\n	Hungry_Donkey_bar_English_2-147-1	60.017	64	1.0.0.18	1	-559613100	Standard	2.0.10.353	2.0.10.353	05-13-2016	5/13/2016 9:29:17 PM	17:29:17	2.0.10.248	16	Bar37-63.bmp	42	2	?	8r_4g.bmp	50r_4g.bmp	1r_2g.bmp	10r_2g.bmp		50r_4g.bmp			TrialProc	TrialList	0	cvbn	-999999	16	97814	0	v	418	98232	52	-73	-21	-2	-30	5	6	1	2	16	-8	-50	-1	-10	4	4	2	2	-50	4
Hungry_Donkey_bar_English_2	147	1	<?xml version="1.0"?>\n<Clock xmlns:dt="urn:schemas-microsoft-com:datatypes"><Description dt:dt="string">E-Prime Primary Realtime Clock</Description><StartTime><Timestamp dt:dt="int">0</Timestamp><DateUtc dt:dt="string">2016-05-13T21:29:17Z</DateUtc></StartTime><FrequencyChanges><FrequencyChange><Frequency dt:dt="r8">3507675</Frequency><Timestamp dt:dt="r8">106813907081</Timestamp><Current dt:dt="r8">0</Current><DateUtc dt:dt="string">2016-05-13T21:29:17Z</DateUtc></FrequencyChange></FrequencyChanges></Clock>\n	Hungry_Donkey_bar_English_2-147-1	60.017	64	1.0.0.18	1	-559613100	Standard	2.0.10.353	2.0.10.353	05-13-2016	5/13/2016 9:29:17 PM	17:29:17	2.0.10.248	17	Bar37-63.bmp	43	4	?	10r_4g.bmp	0r_4g.bmp	2r_2g.bmp	0r_2g.bmp				0r_2g.bmp	TrialProc	TrialList	0	cvbn	-999999	16	100264	0	n	848	101112	54	-73	-19	-2	-30	5	8	2	2	17	-10	0	-2	0	4	4	2	2	0	2
Hungry_Donkey_bar_English_2	147	1	<?xml version="1.0"?>\n<Clock xmlns:dt="urn:schemas-microsoft-com:datatypes"><Description dt:dt="string">E-Prime Primary Realtime Clock</Description><StartTime><Timestamp dt:dt="int">0</Timestamp><DateUtc dt:dt="string">2016-05-13T21:29:17Z</DateUtc></StartTime><FrequencyChanges><FrequencyChange><Frequency dt:dt="r8">3507675</Frequency><Timestamp dt:dt="r8">106813907081</Timestamp><Current dt:dt="r8">0</Current><DateUtc dt:dt="string">2016-05-13T21:29:17Z</DateUtc></FrequencyChange></FrequencyChanges></Clock>\n	Hungry_Donkey_bar_English_2-147-1	60.017	64	1.0.0.18	1	-559613100	Standard	2.0.10.353	2.0.10.353	05-13-2016	5/13/2016 9:29:17 PM	17:29:17	2.0.10.248	18	Bar37-63.bmp	43	3	?	0r_4g.bmp	0r_4g.bmp	0r_2g.bmp	0r_2g.bmp			0r_2g.bmp		TrialProc	TrialList	0	cvbn	-999999	16	103146	0	b	526	103672	56	-73	-17	-2	-30	7	8	6	2	18	0	0	0	0	4	4	2	2	0	2
Hungry_Donkey_bar_English_2	147	1	<?xml version="1.0"?>\n<Clock xmlns:dt="urn:schemas-microsoft-com:datatypes"><Description dt:dt="string">E-Prime Primary Realtime Clock</Description><StartTime><Timestamp dt:dt="int">0</Timestamp><DateUtc dt:dt="string">2016-05-13T21:29:17Z</DateUtc></StartTime><FrequencyChanges><FrequencyChange><Frequency dt:dt="r8">3507675</Frequency><Timestamp dt:dt="r8">106813907081</Timestamp><Current dt:dt="r8">0</Current><DateUtc dt:dt="string">2016-05-13T21:29:17Z</DateUtc></FrequencyChange></FrequencyChanges></Clock>\n	Hungry_Donkey_bar_English_2-147-1	60.017	64	1.0.0.18	1	-559613100	Standard	2.0.10.353	2.0.10.353	05-13-2016	5/13/2016 9:29:17 PM	17:29:17	2.0.10.248	19	Bar37-63.bmp	41	1	?	12r_4g.bmp	0r_4g.bmp	3r_2g.bmp	0r_2g.bmp	12r_4g.bmp				TrialProc	TrialList	0	cvbn	-999999	17	105696	0	c	344	106040	60	-85	-25	-10	-30	7	8	5	2	19	-12	0	-3	0	4	4	2	2	-12	4
Hungry_Donkey_bar_English_2	147	1	<?xml version="1.0"?>\n<Clock xmlns:dt="urn:schemas-microsoft-com:datatypes"><Description dt:dt="string">E-Prime Primary Realtime Clock</Description><StartTime><Timestamp dt:dt="int">0</Timestamp><DateUtc dt:dt="string">2016-05-13T21:29:17Z</DateUtc></StartTime><FrequencyChanges><FrequencyChange><Frequency dt:dt="r8">3507675</Frequency><Timestamp dt:dt="r8">106813907081</Timestamp><Current dt:dt="r8">0</Current><DateUtc dt:dt="string">2016-05-13T21:29:17Z</DateUtc></FrequencyChange></FrequencyChanges></Clock>\n	Hungry_Donkey_bar_English_2-147-1	60.017	64	1.0.0.18	1	-559613100	Standard	2.0.10.353	2.0.10.353	05-13-2016	5/13/2016 9:29:17 PM	17:29:17	2.0.10.248	20	Bar37-63.bmp	43	2	?	10r_4g.bmp	0r_4g.bmp	2r_2g.bmp	0r_2g.bmp		0r_4g.bmp			TrialProc	TrialList	0	cvbn	-999999	16	108078	0	v	538	108616	64	-85	-21	-10	-26	7	8	4	2	20	-10	0	-2	0	4	4	2	2	0	4
Hungry_Donkey_bar_English_2	147	1	<?xml version="1.0"?>\n<Clock xmlns:dt="urn:schemas-microsoft-com:datatypes"><Description dt:dt="string">E-Prime Primary Realtime Clock</Description><StartTime><Timestamp dt:dt="int">0</Timestamp><DateUtc dt:dt="string">2016-05-13T21:29:17Z</DateUtc></StartTime><FrequencyChanges><FrequencyChange><Frequency dt:dt="r8">3507675</Frequency><Timestamp dt:dt="r8">106813907081</Timestamp><Current dt:dt="r8">0</Current><DateUtc dt:dt="string">2016-05-13T21:29:17Z</DateUtc></FrequencyChange></FrequencyChanges></Clock>\n	Hungry_Donkey_bar_English_2-147-1	60.017	64	1.0.0.18	1	-559613100	Standard	2.0.10.353	2.0.10.353	05-13-2016	5/13/2016 9:29:17 PM	17:29:17	2.0.10.248	21	Bar50-50.bmp	44	4	?	0r_4g.bmp	0r_4g.bmp	0r_2g.bmp	0r_2g.bmp				0r_2g.bmp	TrialProc	TrialList	0	cvbn	-999999	16	110644	0	n	419	111063	66	-85	-19	-10	-26	7	10	8	3	21	0	0	0	0	4	4	2	2	0	2
Hungry_Donkey_bar_English_2	147	1	<?xml version="1.0"?>\n<Clock xmlns:dt="urn:schemas-microsoft-com:datatypes"><Description dt:dt="string">E-Prime Primary Realtime Clock</Description><StartTime><Timestamp dt:dt="int">0</Timestamp><DateUtc dt:dt="string">2016-05-13T21:29:17Z</DateUtc></StartTime><FrequencyChanges><FrequencyChange><Frequency dt:dt="r8">3507675</Frequency><Timestamp dt:dt="r8">106813907081</Timestamp><Current dt:dt="r8">0</Current><DateUtc dt:dt="string">2016-05-13T21:29:17Z</DateUtc></FrequencyChange></FrequencyChanges></Clock>\n	Hungry_Donkey_bar_English_2-147-1	60.017	64	1.0.0.18	1	-559613100	Standard	2.0.10.353	2.0.10.353	05-13-2016	5/13/2016 9:29:17 PM	17:29:17	2.0.10.248	22	Bar50-50.bmp	45	1	?	0r_4g.bmp	0r_4g.bmp	0r_2g.bmp	0r_2g.bmp	0r_4g.bmp				TrialProc	TrialList	0	cvbn	-999999	16	113093	0	c	450	113543	70	-85	-15	-6	-26	7	10	7	3	22	0	0	0	0	4	4	2	2	0	4
Hungry_Donkey_bar_English_2	147	1	<?xml version="1.0"?>\n<Clock xmlns:dt="urn:schemas-microsoft-com:datatypes"><Description dt:dt="string">E-Prime Primary Realtime Clock</Description><StartTime><Timestamp dt:dt="int">0</Timestamp><DateUtc dt:dt="string">2016-05-13T21:29:17Z</DateUtc></StartTime><FrequencyChanges><FrequencyChange><Frequency dt:dt="r8">3507675</Frequency><Timestamp dt:dt="r8">106813907081</Timestamp><Current dt:dt="r8">0</Current><DateUtc dt:dt="string">2016-05-13T21:29:17Z</DateUtc></FrequencyChange></FrequencyChanges></Clock>\n	Hungry_Donkey_bar_English_2-147-1	60.017	64	1.0.0.18	1	-559613100	Standard	2.0.10.353	2.0.10.353	05-13-2016	5/13/2016 9:29:17 PM	17:29:17	2.0.10.248	23	Bar50-50.bmp	45	3	?	10r_4g.bmp	0r_4g.bmp	2r_2g.bmp	0r_2g.bmp			2r_2g.bmp		TrialProc	TrialList	0	cvbn	-999999	16	115576	0	b	783	116359	72	-87	-15	-6	-26	7	10	3	3	23	-10	0	-2	0	4	4	2	2	-2	2
Hungry_Donkey_bar_English_2	147	1	<?xml version="1.0"?>\n<Clock xmlns:dt="urn:schemas-microsoft-com:datatypes"><Description dt:dt="string">E-Prime Primary Realtime Clock</Description><StartTime><Timestamp dt:dt="int">0</Timestamp><DateUtc dt:dt="string">2016-05-13T21:29:17Z</DateUtc></StartTime><FrequencyChanges><FrequencyChange><Frequency dt:dt="r8">3507675</Frequency><Timestamp dt:dt="r8">106813907081</Timestamp><Current dt:dt="r8">0</Current><DateUtc dt:dt="string">2016-05-13T21:29:17Z</DateUtc></FrequencyChange></FrequencyChanges></Clock>\n	Hungry_Donkey_bar_English_2-147-1	60.017	64	1.0.0.18	1	-559613100	Standard	2.0.10.353	2.0.10.353	05-13-2016	5/13/2016 9:29:17 PM	17:29:17	2.0.10.248	24	Bar50-50.bmp	47	2	?	12r_4g.bmp	0r_4g.bmp	3r_2g.bmp	0r_2g.bmp		0r_4g.bmp			TrialProc	TrialList	0	cvbn	-999999	16	118392	0	v	479	118871	76	-87	-11	-6	-22	7	10	5	3	24	-12	0	-3	0	4	4	2	2	0	4
Hungry_Donkey_bar_English_2	147	1	<?xml version="1.0"?>\n<Clock xmlns:dt="urn:schemas-microsoft-com:datatypes"><Description dt:dt="string">E-Prime Primary Realtime Clock</Description><StartTime><Timestamp dt:dt="int">0</Timestamp><DateUtc dt:dt="string">2016-05-13T21:29:17Z</DateUtc></StartTime><FrequencyChanges><FrequencyChange><Frequency dt:dt="r8">3507675</Frequency><Timestamp dt:dt="r8">106813907081</Timestamp><Current dt:dt="r8">0</Current><DateUtc dt:dt="string">2016-05-13T21:29:17Z</DateUtc></FrequencyChange></FrequencyChanges></Clock>\n	Hungry_Donkey_bar_English_2-147-1	60.017	64	1.0.0.18	1	-559613100	Standard	2.0.10.353	2.0.10.353	05-13-2016	5/13/2016 9:29:17 PM	17:29:17	2.0.10.248	25	Bar50-50.bmp	47	4	?	10r_4g.bmp	0r_4g.bmp	2r_2g.bmp	0r_2g.bmp				0r_2g.bmp	TrialProc	TrialList	0	cvbn	-999999	16	120908	0	n	603	121511	78	-87	-9	-6	-22	7	12	4	3	25	-10	0	-2	0	4	4	2	2	0	2
Hungry_Donkey_bar_English_2	147	1	<?xml version="1.0"?>\n<Clock xmlns:dt="urn:schemas-microsoft-com:datatypes"><Description dt:dt="string">E-Prime Primary Realtime Clock</Description><StartTime><Timestamp dt:dt="int">0</Timestamp><DateUtc dt:dt="string">2016-05-13T21:29:17Z</DateUtc></StartTime><FrequencyChanges><FrequencyChange><Frequency dt:dt="r8">3507675</Frequency><Timestamp dt:dt="r8">106813907081</Timestamp><Current dt:dt="r8">0</Current><DateUtc dt:dt="string">2016-05-13T21:29:17Z</DateUtc></FrequencyChange></FrequencyChanges></Clock>\n	Hungry_Donkey_bar_English_2-147-1	60.017	64	1.0.0.18	1	-559613100	Standard	2.0.10.353	2.0.10.353	05-13-2016	5/13/2016 9:29:17 PM	17:29:17	2.0.10.248	26	Bar50-50.bmp	46	1	?	10r_4g.bmp	0r_4g.bmp	2r_2g.bmp	0r_2g.bmp	10r_4g.bmp				TrialProc	TrialList	0	cvbn	-999999	16	123540	0	c	595	124135	82	-97	-15	-12	-22	7	12	2	3	26	-10	0	-2	0	4	4	2	2	-10	4
Hungry_Donkey_bar_English_2	147	1	<?xml version="1.0"?>\n<Clock xmlns:dt="urn:schemas-microsoft-com:datatypes"><Description dt:dt="string">E-Prime Primary Realtime Clock</Description><StartTime><Timestamp dt:dt="int">0</Timestamp><DateUtc dt:dt="string">2016-05-13T21:29:17Z</DateUtc></StartTime><FrequencyChanges><FrequencyChange><Frequency dt:dt="r8">3507675</Frequency><Timestamp dt:dt="r8">106813907081</Timestamp><Current dt:dt="r8">0</Current><DateUtc dt:dt="string">2016-05-13T21:29:17Z</DateUtc></FrequencyChange></FrequencyChanges></Clock>\n	Hungry_Donkey_bar_English_2-147-1	60.017	64	1.0.0.18	1	-559613100	Standard	2.0.10.353	2.0.10.353	05-13-2016	5/13/2016 9:29:17 PM	17:29:17	2.0.10.248	27	Bar37-63.bmp	37	2	?	8r_4g.bmp	50r_4g.bmp	1r_2g.bmp	10r_2g.bmp		50r_4g.bmp			TrialProc	TrialList	0	cvbn	-999999	16	126173	0	v	458	126631	86	-147	-61	-12	-68	7	12	1	3	27	-8	-50	-1	-10	4	4	2	2	-50	4
Hungry_Donkey_bar_English_2	147	1	<?xml version="1.0"?>\n<Clock xmlns:dt="urn:schemas-microsoft-com:datatypes"><Description dt:dt="string">E-Prime Primary Realtime Clock</Description><StartTime><Timestamp dt:dt="int">0</Timestamp><DateUtc dt:dt="string">2016-05-13T21:29:17Z</DateUtc></StartTime><FrequencyChanges><FrequencyChange><Frequency dt:dt="r8">3507675</Frequency><Timestamp dt:dt="r8">106813907081</Timestamp><Current dt:dt="r8">0</Current><DateUtc dt:dt="string">2016-05-13T21:29:17Z</DateUtc></FrequencyChange></FrequencyChanges></Clock>\n	Hungry_Donkey_bar_English_2-147-1	60.017	64	1.0.0.18	1	-559613100	Standard	2.0.10.353	2.0.10.353	05-13-2016	5/13/2016 9:29:17 PM	17:29:17	2.0.10.248	28	Bar37-63.bmp	38	2	?	0r_4g.bmp	0r_4g.bmp	0r_2g.bmp	0r_2g.bmp		0r_4g.bmp			TrialProc	TrialList	0	cvbn	-999999	16	128672	0	v	1447	130119	90	-147	-57	-12	-64	7	12	6	3	28	0	0	0	0	4	4	2	2	0	4
Hungry_Donkey_bar_English_2	147	1	<?xml version="1.0"?>\n<Clock xmlns:dt="urn:schemas-microsoft-com:datatypes"><Description dt:dt="string">E-Prime Primary Realtime Clock</Description><StartTime><Timestamp dt:dt="int">0</Timestamp><DateUtc dt:dt="string">2016-05-13T21:29:17Z</DateUtc></StartTime><FrequencyChanges><FrequencyChange><Frequency dt:dt="r8">3507675</Frequency><Timestamp dt:dt="r8">106813907081</Timestamp><Current dt:dt="r8">0</Current><DateUtc dt:dt="string">2016-05-13T21:29:17Z</DateUtc></FrequencyChange></FrequencyChanges></Clock>\n	Hungry_Donkey_bar_English_2-147-1	60.017	64	1.0.0.18	1	-559613100	Standard	2.0.10.353	2.0.10.353	05-13-2016	5/13/2016 9:29:17 PM	17:29:17	2.0.10.248	29	Bar37-63.bmp	39	2	?	0r_4g.bmp	0r_4g.bmp	0r_2g.bmp	0r_2g.bmp		0r_4g.bmp			TrialProc	TrialList	0	cvbn	-999999	16	132155	0	v	475	132630	94	-147	-53	-12	-60	7	12	10	3	29	0	0	0	0	4	4	2	2	0	4
Hungry_Donkey_bar_English_2	147	1	<?xml version="1.0"?>\n<Clock xmlns:dt="urn:schemas-microsoft-com:datatypes"><Description dt:dt="string">E-Prime Primary Realtime Clock</Description><StartTime><Timestamp dt:dt="int">0</Timestamp><DateUtc dt:dt="string">2016-05-13T21:29:17Z</DateUtc></StartTime><FrequencyChanges><FrequencyChange><Frequency dt:dt="r8">3507675</Frequency><Timestamp dt:dt="r8">106813907081</Timestamp><Current dt:dt="r8">0</Current><DateUtc dt:dt="string">2016-05-13T21:29:17Z</DateUtc></FrequencyChange></FrequencyChanges></Clock>\n	Hungry_Donkey_bar_English_2-147-1	60.017	64	1.0.0.18	1	-559613100	Standard	2.0.10.353	2.0.10.353	05-13-2016	5/13/2016 9:29:17 PM	17:29:17	2.0.10.248	30	Bar37-63.bmp	40	3	?	0r_4g.bmp	0r_4g.bmp	0r_2g.bmp	0r_2g.bmp			0r_2g.bmp		TrialProc	TrialList	0	cvbn	-999999	16	134654	0	b	376	135030	96	-147	-51	-12	-60	9	12	9	3	30	0	0	0	0	4	4	2	2	0	2
Hungry_Donkey_bar_English_2	147	1	<?xml version="1.0"?>\n<Clock xmlns:dt="urn:schemas-microsoft-com:datatypes"><Description dt:dt="string">E-Prime Primary Realtime Clock</Description><StartTime><Timestamp dt:dt="int">0</Timestamp><DateUtc dt:dt="string">2016-05-13T21:29:17Z</DateUtc></StartTime><FrequencyChanges><FrequencyChange><Frequency dt:dt="r8">3507675</Frequency><Timestamp dt:dt="r8">106813907081</Timestamp><Current dt:dt="r8">0</Current><DateUtc dt:dt="string">2016-05-13T21:29:17Z</DateUtc></FrequencyChange></FrequencyChanges></Clock>\n	Hungry_Donkey_bar_English_2-147-1	60.017	64	1.0.0.18	1	-559613100	Standard	2.0.10.353	2.0.10.353	05-13-2016	5/13/2016 9:29:17 PM	17:29:17	2.0.10.248	31	Bar37-63.bmp	40	3	?	10r_4g.bmp	0r_4g.bmp	2r_2g.bmp	0r_2g.bmp			2r_2g.bmp		TrialProc	TrialList	0	cvbn	-999999	15	137053	0	b	489	137542	98	-149	-51	-12	-60	9	12	2	4	31	-10	0	-2	0	4	4	2	2	-2	2
Hungry_Donkey_bar_English_2	147	1	<?xml version="1.0"?>\n<Clock xmlns:dt="urn:schemas-microsoft-com:datatypes"><Description dt:dt="string">E-Prime Primary Realtime Clock</Description><StartTime><Timestamp dt:dt="int">0</Timestamp><DateUtc dt:dt="string">2016-05-13T21:29:17Z</DateUtc></StartTime><FrequencyChanges><FrequencyChange><Frequency dt:dt="r8">3507675</Frequency><Timestamp dt:dt="r8">106813907081</Timestamp><Current dt:dt="r8">0</Current><DateUtc dt:dt="string">2016-05-13T21:29:17Z</DateUtc></FrequencyChange></FrequencyChanges></Clock>\n	Hungry_Donkey_bar_English_2-147-1	60.017	64	1.0.0.18	1	-559613100	Standard	2.0.10.353	2.0.10.353	05-13-2016	5/13/2016 9:29:17 PM	17:29:17	2.0.10.248	32	Bar37-63.bmp	40	4	?	10r_4g.bmp	0r_4g.bmp	2r_2g.bmp	0r_2g.bmp				0r_2g.bmp	TrialProc	TrialList	0	cvbn	-999999	16	139569	0	n	485	140054	100	-149	-49	-12	-60	9	14	3	4	32	-10	0	-2	0	4	4	2	2	0	2
Hungry_Donkey_bar_English_2	147	1	<?xml version="1.0"?>\n<Clock xmlns:dt="urn:schemas-microsoft-com:datatypes"><Description dt:dt="string">E-Prime Primary Realtime Clock</Description><StartTime><Timestamp dt:dt="int">0</Timestamp><DateUtc dt:dt="string">2016-05-13T21:29:17Z</DateUtc></StartTime><FrequencyChanges><FrequencyChange><Frequency dt:dt="r8">3507675</Frequency><Timestamp dt:dt="r8">106813907081</Timestamp><Current dt:dt="r8">0</Current><DateUtc dt:dt="string">2016-05-13T21:29:17Z</DateUtc></FrequencyChange></FrequencyChanges></Clock>\n	Hungry_Donkey_bar_English_2-147-1	60.017	64	1.0.0.18	1	-559613100	Standard	2.0.10.353	2.0.10.353	05-13-2016	5/13/2016 9:29:17 PM	17:29:17	2.0.10.248	33	Bar37-63.bmp	41	4	?	0r_4g.bmp	0r_4g.bmp	0r_2g.bmp	0r_2g.bmp				0r_2g.bmp	TrialProc	TrialList	0	cvbn	-999999	16	142085	0	n	369	142454	102	-149	-47	-12	-60	9	16	8	4	33	0	0	0	0	4	4	2	2	0	2
Hungry_Donkey_bar_English_2	147	1	<?xml version="1.0"?>\n<Clock xmlns:dt="urn:schemas-microsoft-com:datatypes"><Description dt:dt="string">E-Prime Primary Realtime Clock</Description><StartTime><Timestamp dt:dt="int">0</Timestamp><DateUtc dt:dt="string">2016-05-13T21:29:17Z</DateUtc></StartTime><FrequencyChanges><FrequencyChange><Frequency dt:dt="r8">3507675</Frequency><Timestamp dt:dt="r8">106813907081</Timestamp><Current dt:dt="r8">0</Current><DateUtc dt:dt="string">2016-05-13T21:29:17Z</DateUtc></FrequencyChange></FrequencyChanges></Clock>\n	Hungry_Donkey_bar_English_2-147-1	60.017	64	1.0.0.18	1	-559613100	Standard	2.0.10.353	2.0.10.353	05-13-2016	5/13/2016 9:29:17 PM	17:29:17	2.0.10.248	34	Bar37-63.bmp	41	4	?	0r_4g.bmp	0r_4g.bmp	0r_2g.bmp	0r_2g.bmp				0r_2g.bmp	TrialProc	TrialList	0	cvbn	-999999	16	144484	0	n	434	144918	104	-149	-45	-12	-60	9	18	10	4	34	0	0	0	0	4	4	2	2	0	2
Hungry_Donkey_bar_English_2	147	1	<?xml version="1.0"?>\n<Clock xmlns:dt="urn:schemas-microsoft-com:datatypes"><Description dt:dt="string">E-Prime Primary Realtime Clock</Description><StartTime><Timestamp dt:dt="int">0</Timestamp><DateUtc dt:dt="string">2016-05-13T21:29:17Z</DateUtc></StartTime><FrequencyChanges><FrequencyChange><Frequency dt:dt="r8">3507675</Frequency><Timestamp dt:dt="r8">106813907081</Timestamp><Current dt:dt="r8">0</Current><DateUtc dt:dt="string">2016-05-13T21:29:17Z</DateUtc></FrequencyChange></FrequencyChanges></Clock>\n	Hungry_Donkey_bar_English_2-147-1	60.017	64	1.0.0.18	1	-559613100	Standard	2.0.10.353	2.0.10.353	05-13-2016	5/13/2016 9:29:17 PM	17:29:17	2.0.10.248	35	Bar37-63.bmp	40	4	?	8r_4g.bmp	50r_4g.bmp	1r_2g.bmp	10r_2g.bmp				10r_2g.bmp	TrialProc	TrialList	0	cvbn	-999999	16	146950	0	n	592	147542	106	-159	-53	-12	-60	9	10	1	4	35	-8	-50	-1	-10	4	4	2	2	-10	2
Hungry_Donkey_bar_English_2	147	1	<?xml version="1.0"?>\n<Clock xmlns:dt="urn:schemas-microsoft-com:datatypes"><Description dt:dt="string">E-Prime Primary Realtime Clock</Description><StartTime><Timestamp dt:dt="int">0</Timestamp><DateUtc dt:dt="string">2016-05-13T21:29:17Z</DateUtc></StartTime><FrequencyChanges><FrequencyChange><Frequency dt:dt="r8">3507675</Frequency><Timestamp dt:dt="r8">106813907081</Timestamp><Current dt:dt="r8">0</Current><DateUtc dt:dt="string">2016-05-13T21:29:17Z</DateUtc></FrequencyChange></FrequencyChanges></Clock>\n	Hungry_Donkey_bar_English_2-147-1	60.017	64	1.0.0.18	1	-559613100	Standard	2.0.10.353	2.0.10.353	05-13-2016	5/13/2016 9:29:17 PM	17:29:17	2.0.10.248	36	Bar37-63.bmp	41	1	?	0r_4g.bmp	0r_4g.bmp	0r_2g.bmp	0r_2g.bmp	0r_4g.bmp				TrialProc	TrialList	0	cvbn	-999999	16	149566	0	c	616	150182	110	-159	-49	-8	-60	9	10	7	4	36	0	0	0	0	4	4	2	2	0	4
Hungry_Donkey_bar_English_2	147	1	<?xml version="1.0"?>\n<Clock xmlns:dt="urn:schemas-microsoft-com:datatypes"><Description dt:dt="string">E-Prime Primary Realtime Clock</Description><StartTime><Timestamp dt:dt="int">0</Timestamp><DateUtc dt:dt="string">2016-05-13T21:29:17Z</DateUtc></StartTime><FrequencyChanges><FrequencyChange><Frequency dt:dt="r8">3507675</Frequency><Timestamp dt:dt="r8">106813907081</Timestamp><Current dt:dt="r8">0</Current><DateUtc dt:dt="string">2016-05-13T21:29:17Z</DateUtc></FrequencyChange></FrequencyChanges></Clock>\n	Hungry_Donkey_bar_English_2-147-1	60.017	64	1.0.0.18	1	-559613100	Standard	2.0.10.353	2.0.10.353	05-13-2016	5/13/2016 9:29:17 PM	17:29:17	2.0.10.248	37	Bar37-63.bmp	42	1	?	0r_4g.bmp	0r_4g.bmp	0r_2g.bmp	0r_2g.bmp	0r_4g.bmp				TrialProc	TrialList	0	cvbn	-999999	17	152216	0	c	765	152981	114	-159	-45	-4	-60	9	10	6	4	37	0	0	0	0	4	4	2	2	0	4
Hungry_Donkey_bar_English_2	147	1	<?xml version="1.0"?>\n<Clock xmlns:dt="urn:schemas-microsoft-com:datatypes"><Description dt:dt="string">E-Prime Primary Realtime Clock</Description><StartTime><Timestamp dt:dt="int">0</Timestamp><DateUtc dt:dt="string">2016-05-13T21:29:17Z</DateUtc></StartTime><FrequencyChanges><FrequencyChange><Frequency dt:dt="r8">3507675</Frequency><Timestamp dt:dt="r8">106813907081</Timestamp><Current dt:dt="r8">0</Current><DateUtc dt:dt="string">2016-05-13T21:29:17Z</DateUtc></FrequencyChange></FrequencyChanges></Clock>\n	Hungry_Donkey_bar_English_2-147-1	60.017	64	1.0.0.18	1	-559613100	Standard	2.0.10.353	2.0.10.353	05-13-2016	5/13/2016 9:29:17 PM	17:29:17	2.0.10.248	38	Bar37-63.bmp	43	2	?	12r_4g.bmp	0r_4g.bmp	3r_2g.bmp	0r_2g.bmp		0r_4g.bmp			TrialProc	TrialList	0	cvbn	-999999	16	155015	0	v	574	155589	118	-159	-41	-4	-56	9	10	5	4	38	-12	0	-3	0	4	4	2	2	0	4
Hungry_Donkey_bar_English_2	147	1	<?xml version="1.0"?>\n<Clock xmlns:dt="urn:schemas-microsoft-com:datatypes"><Description dt:dt="string">E-Prime Primary Realtime Clock</Description><StartTime><Timestamp dt:dt="int">0</Timestamp><DateUtc dt:dt="string">2016-05-13T21:29:17Z</DateUtc></StartTime><FrequencyChanges><FrequencyChange><Frequency dt:dt="r8">3507675</Frequency><Timestamp dt:dt="r8">106813907081</Timestamp><Current dt:dt="r8">0</Current><DateUtc dt:dt="string">2016-05-13T21:29:17Z</DateUtc></FrequencyChange></FrequencyChanges></Clock>\n	Hungry_Donkey_bar_English_2-147-1	60.017	64	1.0.0.18	1	-559613100	Standard	2.0.10.353	2.0.10.353	05-13-2016	5/13/2016 9:29:17 PM	17:29:17	2.0.10.248	39	Bar37-63.bmp	43	3	?	10r_4g.bmp	0r_4g.bmp	2r_2g.bmp	0r_2g.bmp			2r_2g.bmp		TrialProc	TrialList	0	cvbn	-999999	16	157614	0	b	727	158341	120	-161	-41	-4	-56	9	10	4	4	39	-10	0	-2	0	4	4	2	2	-2	2
Hungry_Donkey_bar_English_2	147	1	<?xml version="1.0"?>\n<Clock xmlns:dt="urn:schemas-microsoft-com:datatypes"><Description dt:dt="string">E-Prime Primary Realtime Clock</Description><StartTime><Timestamp dt:dt="int">0</Timestamp><DateUtc dt:dt="string">2016-05-13T21:29:17Z</DateUtc></StartTime><FrequencyChanges><FrequencyChange><Frequency dt:dt="r8">3507675</Frequency><Timestamp dt:dt="r8">106813907081</Timestamp><Current dt:dt="r8">0</Current><DateUtc dt:dt="string">2016-05-13T21:29:17Z</DateUtc></FrequencyChange></FrequencyChanges></Clock>\n	Hungry_Donkey_bar_English_2-147-1	60.017	64	1.0.0.18	1	-559613100	Standard	2.0.10.353	2.0.10.353	05-13-2016	5/13/2016 9:29:17 PM	17:29:17	2.0.10.248	40	Bar50-50.bmp	44	1	?	0r_4g.bmp	0r_4g.bmp	0r_2g.bmp	0r_2g.bmp	0r_4g.bmp				TrialProc	TrialList	0	cvbn	-999999	16	160380	0	c	473	160853	124	-161	-37	0	-56	9	10	9	4	40	0	0	0	0	4	4	2	2	0	4
Hungry_Donkey_bar_English_2	147	1	<?xml version="1.0"?>\n<Clock xmlns:dt="urn:schemas-microsoft-com:datatypes"><Description dt:dt="string">E-Prime Primary Realtime Clock</Description><StartTime><Timestamp dt:dt="int">0</Timestamp><DateUtc dt:dt="string">2016-05-13T21:29:17Z</DateUtc></StartTime><FrequencyChanges><FrequencyChange><Frequency dt:dt="r8">3507675</Frequency><Timestamp dt:dt="r8">106813907081</Timestamp><Current dt:dt="r8">0</Current><DateUtc dt:dt="string">2016-05-13T21:29:17Z</DateUtc></FrequencyChange></FrequencyChanges></Clock>\n	Hungry_Donkey_bar_English_2-147-1	60.017	64	1.0.0.18	1	-559613100	Standard	2.0.10.353	2.0.10.353	05-13-2016	5/13/2016 9:29:17 PM	17:29:17	2.0.10.248	41	Bar50-50.bmp	44	2	?	0r_4g.bmp	0r_4g.bmp	0r_2g.bmp	0r_2g.bmp		0r_4g.bmp			TrialProc	TrialList	0	cvbn	-999999	16	162879	0	v	470	163349	128	-161	-33	0	-52	9	10	9	5	41	0	0	0	0	4	4	2	2	0	4
Hungry_Donkey_bar_English_2	147	1	<?xml version="1.0"?>\n<Clock xmlns:dt="urn:schemas-microsoft-com:datatypes"><Description dt:dt="string">E-Prime Primary Realtime Clock</Description><StartTime><Timestamp dt:dt="int">0</Timestamp><DateUtc dt:dt="string">2016-05-13T21:29:17Z</DateUtc></StartTime><FrequencyChanges><FrequencyChange><Frequency dt:dt="r8">3507675</Frequency><Timestamp dt:dt="r8">106813907081</Timestamp><Current dt:dt="r8">0</Current><DateUtc dt:dt="string">2016-05-13T21:29:17Z</DateUtc></FrequencyChange></FrequencyChanges></Clock>\n	Hungry_Donkey_bar_English_2-147-1	60.017	64	1.0.0.18	1	-559613100	Standard	2.0.10.353	2.0.10.353	05-13-2016	5/13/2016 9:29:17 PM	17:29:17	2.0.10.248	42	Bar50-50.bmp	45	4	?	0r_4g.bmp	0r_4g.bmp	0r_2g.bmp	0r_2g.bmp				0r_2g.bmp	TrialProc	TrialList	0	cvbn	-999999	16	165378	0	n	771	166149	130	-161	-31	0	-52	9	12	8	5	42	0	0	0	0	4	4	2	2	0	2
Hungry_Donkey_bar_English_2	147	1	<?xml version="1.0"?>\n<Clock xmlns:dt="urn:schemas-microsoft-com:datatypes"><Description dt:dt="string">E-Prime Primary Realtime Clock</Description><StartTime><Timestamp dt:dt="int">0</Timestamp><DateUtc dt:dt="string">2016-05-13T21:29:17Z</DateUtc></StartTime><FrequencyChanges><FrequencyChange><Frequency dt:dt="r8">3507675</Frequency><Timestamp dt:dt="r8">106813907081</Timestamp><Current dt:dt="r8">0</Current><DateUtc dt:dt="string">2016-05-13T21:29:17Z</DateUtc></FrequencyChange></FrequencyChanges></Clock>\n	Hungry_Donkey_bar_English_2-147-1	60.017	64	1.0.0.18	1	-559613100	Standard	2.0.10.353	2.0.10.353	05-13-2016	5/13/2016 9:29:17 PM	17:29:17	2.0.10.248	43	Bar50-50.bmp	45	3	?	12r_4g.bmp	0r_4g.bmp	3r_2g.bmp	0r_2g.bmp			3r_2g.bmp		TrialProc	TrialList	0	cvbn	-999999	16	168178	0	b	643	168821	132	-164	-32	0	-52	8	12	5	5	43	-12	0	-3	0	4	4	2	2	-3	2
Hungry_Donkey_bar_English_2	147	1	<?xml version="1.0"?>\n<Clock xmlns:dt="urn:schemas-microsoft-com:datatypes"><Description dt:dt="string">E-Prime Primary Realtime Clock</Description><StartTime><Timestamp dt:dt="int">0</Timestamp><DateUtc dt:dt="string">2016-05-13T21:29:17Z</DateUtc></StartTime><FrequencyChanges><FrequencyChange><Frequency dt:dt="r8">3507675</Frequency><Timestamp dt:dt="r8">106813907081</Timestamp><Current dt:dt="r8">0</Current><DateUtc dt:dt="string">2016-05-13T21:29:17Z</DateUtc></FrequencyChange></FrequencyChanges></Clock>\n	Hungry_Donkey_bar_English_2-147-1	60.017	64	1.0.0.18	1	-559613100	Standard	2.0.10.353	2.0.10.353	05-13-2016	5/13/2016 9:29:17 PM	17:29:17	2.0.10.248	44	Bar50-50.bmp	44	1	?	10r_4g.bmp	0r_4g.bmp	2r_2g.bmp	0r_2g.bmp	10r_4g.bmp				TrialProc	TrialList	0	cvbn	-999999	16	170844	0	c	809	171653	136	-174	-38	-6	-52	8	12	2	5	44	-10	0	-2	0	4	4	2	2	-10	4
Hungry_Donkey_bar_English_2	147	1	<?xml version="1.0"?>\n<Clock xmlns:dt="urn:schemas-microsoft-com:datatypes"><Description dt:dt="string">E-Prime Primary Realtime Clock</Description><StartTime><Timestamp dt:dt="int">0</Timestamp><DateUtc dt:dt="string">2016-05-13T21:29:17Z</DateUtc></StartTime><FrequencyChanges><FrequencyChange><Frequency dt:dt="r8">3507675</Frequency><Timestamp dt:dt="r8">106813907081</Timestamp><Current dt:dt="r8">0</Current><DateUtc dt:dt="string">2016-05-13T21:29:17Z</DateUtc></FrequencyChange></FrequencyChanges></Clock>\n	Hungry_Donkey_bar_English_2-147-1	60.017	64	1.0.0.18	1	-559613100	Standard	2.0.10.353	2.0.10.353	05-13-2016	5/13/2016 9:29:17 PM	17:29:17	2.0.10.248	45	Bar50-50.bmp	45	2	?	0r_4g.bmp	0r_4g.bmp	0r_2g.bmp	0r_2g.bmp		0r_4g.bmp			TrialProc	TrialList	0	cvbn	-999999	15	173676	0	v	600	174276	140	-174	-34	-6	-48	8	12	10	5	45	0	0	0	0	4	4	2	2	0	4
Hungry_Donkey_bar_English_2	147	1	<?xml version="1.0"?>\n<Clock xmlns:dt="urn:schemas-microsoft-com:datatypes"><Description dt:dt="string">E-Prime Primary Realtime Clock</Description><StartTime><Timestamp dt:dt="int">0</Timestamp><DateUtc dt:dt="string">2016-05-13T21:29:17Z</DateUtc></StartTime><FrequencyChanges><FrequencyChange><Frequency dt:dt="r8">3507675</Frequency><Timestamp dt:dt="r8">106813907081</Timestamp><Current dt:dt="r8">0</Current><DateUtc dt:dt="string">2016-05-13T21:29:17Z</DateUtc></FrequencyChange></FrequencyChanges></Clock>\n	Hungry_Donkey_bar_English_2-147-1	60.017	64	1.0.0.18	1	-559613100	Standard	2.0.10.353	2.0.10.353	05-13-2016	5/13/2016 9:29:17 PM	17:29:17	2.0.10.248	46	Bar50-50.bmp	45	2	?	0r_4g.bmp	0r_4g.bmp	0r_2g.bmp	0r_2g.bmp		0r_4g.bmp			TrialProc	TrialList	0	cvbn	-999999	16	176309	0	v	575	176884	144	-174	-30	-6	-44	8	12	7	5	46	0	0	0	0	4	4	2	2	0	4
Hungry_Donkey_bar_English_2	147	1	<?xml version="1.0"?>\n<Clock xmlns:dt="urn:schemas-microsoft-com:datatypes"><Description dt:dt="string">E-Prime Primary Realtime Clock</Description><StartTime><Timestamp dt:dt="int">0</Timestamp><DateUtc dt:dt="string">2016-05-13T21:29:17Z</DateUtc></StartTime><FrequencyChanges><FrequencyChange><Frequency dt:dt="r8">3507675</Frequency><Timestamp dt:dt="r8">106813907081</Timestamp><Current dt:dt="r8">0</Current><DateUtc dt:dt="string">2016-05-13T21:29:17Z</DateUtc></FrequencyChange></FrequencyChanges></Clock>\n	Hungry_Donkey_bar_English_2-147-1	60.017	64	1.0.0.18	1	-559613100	Standard	2.0.10.353	2.0.10.353	05-13-2016	5/13/2016 9:29:17 PM	17:29:17	2.0.10.248	47	Bar50-50.bmp	45	3	?	10r_4g.bmp	0r_4g.bmp	2r_2g.bmp	0r_2g.bmp			2r_2g.bmp		TrialProc	TrialList	0	cvbn	-999999	16	178908	0	b	344	179252	146	-176	-30	-6	-44	8	12	4	5	47	-10	0	-2	0	4	4	2	2	-2	2
Hungry_Donkey_bar_English_2	147	1	<?xml version="1.0"?>\n<Clock xmlns:dt="urn:schemas-microsoft-com:datatypes"><Description dt:dt="string">E-Prime Primary Realtime Clock</Description><StartTime><Timestamp dt:dt="int">0</Timestamp><DateUtc dt:dt="string">2016-05-13T21:29:17Z</DateUtc></StartTime><FrequencyChanges><FrequencyChange><Frequency dt:dt="r8">3507675</Frequency><Timestamp dt:dt="r8">106813907081</Timestamp><Current dt:dt="r8">0</Current><DateUtc dt:dt="string">2016-05-13T21:29:17Z</DateUtc></FrequencyChange></FrequencyChanges></Clock>\n	Hungry_Donkey_bar_English_2-147-1	60.017	64	1.0.0.18	1	-559613100	Standard	2.0.10.353	2.0.10.353	05-13-2016	5/13/2016 9:29:17 PM	17:29:17	2.0.10.248	48	Bar50-50.bmp	44	4	?	8r_4g.bmp	50r_4g.bmp	1r_2g.bmp	10r_2g.bmp				10r_2g.bmp	TrialProc	TrialList	0	cvbn	-999999	17	181291	0	n	489	181780	148	-186	-38	-6	-44	8	4	1	5	48	-8	-50	-1	-10	4	4	2	2	-10	2
Hungry_Donkey_bar_English_2	147	1	<?xml version="1.0"?>\n<Clock xmlns:dt="urn:schemas-microsoft-com:datatypes"><Description dt:dt="string">E-Prime Primary Realtime Clock</Description><StartTime><Timestamp dt:dt="int">0</Timestamp><DateUtc dt:dt="string">2016-05-13T21:29:17Z</DateUtc></StartTime><FrequencyChanges><FrequencyChange><Frequency dt:dt="r8">3507675</Frequency><Timestamp dt:dt="r8">106813907081</Timestamp><Current dt:dt="r8">0</Current><DateUtc dt:dt="string">2016-05-13T21:29:17Z</DateUtc></FrequencyChange></FrequencyChanges></Clock>\n	Hungry_Donkey_bar_English_2-147-1	60.017	64	1.0.0.18	1	-559613100	Standard	2.0.10.353	2.0.10.353	05-13-2016	5/13/2016 9:29:17 PM	17:29:17	2.0.10.248	49	Bar50-50.bmp	45	2	?	0r_4g.bmp	0r_4g.bmp	0r_2g.bmp	0r_2g.bmp		0r_4g.bmp			TrialProc	TrialList	0	cvbn	-999999	17	183807	0	v	693	184500	152	-186	-34	-6	-40	8	4	6	5	49	0	0	0	0	4	4	2	2	0	4
Hungry_Donkey_bar_English_2	147	1	<?xml version="1.0"?>\n<Clock xmlns:dt="urn:schemas-microsoft-com:datatypes"><Description dt:dt="string">E-Prime Primary Realtime Clock</Description><StartTime><Timestamp dt:dt="int">0</Timestamp><DateUtc dt:dt="string">2016-05-13T21:29:17Z</DateUtc></StartTime><FrequencyChanges><FrequencyChange><Frequency dt:dt="r8">3507675</Frequency><Timestamp dt:dt="r8">106813907081</Timestamp><Current dt:dt="r8">0</Current><DateUtc dt:dt="string">2016-05-13T21:29:17Z</DateUtc></FrequencyChange></FrequencyChanges></Clock>\n	Hungry_Donkey_bar_English_2-147-1	60.017	64	1.0.0.18	1	-559613100	Standard	2.0.10.353	2.0.10.353	05-13-2016	5/13/2016 9:29:17 PM	17:29:17	2.0.10.248	50	Bar50-50.bmp	46	2	?	10r_4g.bmp	0r_4g.bmp	2r_2g.bmp	0r_2g.bmp		0r_4g.bmp			TrialProc	TrialList	0	cvbn	-999999	16	186539	0	v	457	186996	156	-186	-30	-6	-36	8	4	3	5	50	-10	0	-2	0	4	4	2	2	0	4
Hungry_Donkey_bar_English_2	147	1	<?xml version="1.0"?>\n<Clock xmlns:dt="urn:schemas-microsoft-com:datatypes"><Description dt:dt="string">E-Prime Primary Realtime Clock</Description><StartTime><Timestamp dt:dt="int">0</Timestamp><DateUtc dt:dt="string">2016-05-13T21:29:17Z</DateUtc></StartTime><FrequencyChanges><FrequencyChange><Frequency dt:dt="r8">3507675</Frequency><Timestamp dt:dt="r8">106813907081</Timestamp><Current dt:dt="r8">0</Current><DateUtc dt:dt="string">2016-05-13T21:29:17Z</DateUtc></FrequencyChange></FrequencyChanges></Clock>\n	Hungry_Donkey_bar_English_2-147-1	60.017	64	1.0.0.18	1	-559613100	Standard	2.0.10.353	2.0.10.353	05-13-2016	5/13/2016 9:29:17 PM	17:29:17	2.0.10.248	51	Bar50-50.bmp	46	2	?	10r_4g.bmp	0r_4g.bmp	2r_2g.bmp	0r_2g.bmp		0r_4g.bmp			TrialProc	TrialList	0	cvbn	-999999	16	189022	0	v	454	189476	160	-186	-26	-6	-32	8	4	4	6	51	-10	0	-2	0	4	4	2	2	0	4
Hungry_Donkey_bar_English_2	147	1	<?xml version="1.0"?>\n<Clock xmlns:dt="urn:schemas-microsoft-com:datatypes"><Description dt:dt="string">E-Prime Primary Realtime Clock</Description><StartTime><Timestamp dt:dt="int">0</Timestamp><DateUtc dt:dt="string">2016-05-13T21:29:17Z</DateUtc></StartTime><FrequencyChanges><FrequencyChange><Frequency dt:dt="r8">3507675</Frequency><Timestamp dt:dt="r8">106813907081</Timestamp><Current dt:dt="r8">0</Current><DateUtc dt:dt="string">2016-05-13T21:29:17Z</DateUtc></FrequencyChange></FrequencyChanges></Clock>\n	Hungry_Donkey_bar_English_2-147-1	60.017	64	1.0.0.18	1	-559613100	Standard	2.0.10.353	2.0.10.353	05-13-2016	5/13/2016 9:29:17 PM	17:29:17	2.0.10.248	52	Bar50-50.bmp	47	1	?	0r_4g.bmp	0r_4g.bmp	0r_2g.bmp	0r_2g.bmp	0r_4g.bmp				TrialProc	TrialList	0	cvbn	-999999	16	191504	0	c	308	191812	164	-186	-22	-2	-32	8	4	6	6	52	0	0	0	0	4	4	2	2	0	4
Hungry_Donkey_bar_English_2	147	1	<?xml version="1.0"?>\n<Clock xmlns:dt="urn:schemas-microsoft-com:datatypes"><Description dt:dt="string">E-Prime Primary Realtime Clock</Description><StartTime><Timestamp dt:dt="int">0</Timestamp><DateUtc dt:dt="string">2016-05-13T21:29:17Z</DateUtc></StartTime><FrequencyChanges><FrequencyChange><Frequency dt:dt="r8">3507675</Frequency><Timestamp dt:dt="r8">106813907081</Timestamp><Current dt:dt="r8">0</Current><DateUtc dt:dt="string">2016-05-13T21:29:17Z</DateUtc></FrequencyChange></FrequencyChanges></Clock>\n	Hungry_Donkey_bar_English_2-147-1	60.017	64	1.0.0.18	1	-559613100	Standard	2.0.10.353	2.0.10.353	05-13-2016	5/13/2016 9:29:17 PM	17:29:17	2.0.10.248	53	Bar50-50.bmp	47	4	?	12r_4g.bmp	0r_4g.bmp	3r_2g.bmp	0r_2g.bmp				0r_2g.bmp	TrialProc	TrialList	0	cvbn	-999999	16	193837	0	n	918	194755	166	-186	-20	-2	-32	8	6	5	6	53	-12	0	-3	0	4	4	2	2	0	2
Hungry_Donkey_bar_English_2	147	1	<?xml version="1.0"?>\n<Clock xmlns:dt="urn:schemas-microsoft-com:datatypes"><Description dt:dt="string">E-Prime Primary Realtime Clock</Description><StartTime><Timestamp dt:dt="int">0</Timestamp><DateUtc dt:dt="string">2016-05-13T21:29:17Z</DateUtc></StartTime><FrequencyChanges><FrequencyChange><Frequency dt:dt="r8">3507675</Frequency><Timestamp dt:dt="r8">106813907081</Timestamp><Current dt:dt="r8">0</Current><DateUtc dt:dt="string">2016-05-13T21:29:17Z</DateUtc></FrequencyChange></FrequencyChanges></Clock>\n	Hungry_Donkey_bar_English_2-147-1	60.017	64	1.0.0.18	1	-559613100	Standard	2.0.10.353	2.0.10.353	05-13-2016	5/13/2016 9:29:17 PM	17:29:17	2.0.10.248	54	Bar50-50.bmp	48	1	?	0r_4g.bmp	0r_4g.bmp	0r_2g.bmp	0r_2g.bmp	0r_4g.bmp				TrialProc	TrialList	0	cvbn	-999999	16	196786	0	c	353	197139	170	-186	-16	2	-32	8	6	7	6	54	0	0	0	0	4	4	2	2	0	4
Hungry_Donkey_bar_English_2	147	1	<?xml version="1.0"?>\n<Clock xmlns:dt="urn:schemas-microsoft-com:datatypes"><Description dt:dt="string">E-Prime Primary Realtime Clock</Description><StartTime><Timestamp dt:dt="int">0</Timestamp><DateUtc dt:dt="string">2016-05-13T21:29:17Z</DateUtc></StartTime><FrequencyChanges><FrequencyChange><Frequency dt:dt="r8">3507675</Frequency><Timestamp dt:dt="r8">106813907081</Timestamp><Current dt:dt="r8">0</Current><DateUtc dt:dt="string">2016-05-13T21:29:17Z</DateUtc></FrequencyChange></FrequencyChanges></Clock>\n	Hungry_Donkey_bar_English_2-147-1	60.017	64	1.0.0.18	1	-559613100	Standard	2.0.10.353	2.0.10.353	05-13-2016	5/13/2016 9:29:17 PM	17:29:17	2.0.10.248	55	Bar50-50.bmp	48	3	?	10r_4g.bmp	0r_4g.bmp	2r_2g.bmp	0r_2g.bmp			2r_2g.bmp		TrialProc	TrialList	0	cvbn	-999999	16	199169	0	b	498	199667	172	-188	-16	2	-32	8	6	2	6	55	-10	0	-2	0	4	4	2	2	-2	2
Hungry_Donkey_bar_English_2	147	1	<?xml version="1.0"?>\n<Clock xmlns:dt="urn:schemas-microsoft-com:datatypes"><Description dt:dt="string">E-Prime Primary Realtime Clock</Description><StartTime><Timestamp dt:dt="int">0</Timestamp><DateUtc dt:dt="string">2016-05-13T21:29:17Z</DateUtc></StartTime><FrequencyChanges><FrequencyChange><Frequency dt:dt="r8">3507675</Frequency><Timestamp dt:dt="r8">106813907081</Timestamp><Current dt:dt="r8">0</Current><DateUtc dt:dt="string">2016-05-13T21:29:17Z</DateUtc></FrequencyChange></FrequencyChanges></Clock>\n	Hungry_Donkey_bar_English_2-147-1	60.017	64	1.0.0.18	1	-559613100	Standard	2.0.10.353	2.0.10.353	05-13-2016	5/13/2016 9:29:17 PM	17:29:17	2.0.10.248	56	Bar50-50.bmp	48	4	?	0r_4g.bmp	0r_4g.bmp	0r_2g.bmp	0r_2g.bmp				0r_2g.bmp	TrialProc	TrialList	0	cvbn	-999999	16	201701	0	n	398	202099	174	-188	-14	2	-32	8	8	9	6	56	0	0	0	0	4	4	2	2	0	2
Hungry_Donkey_bar_English_2	147	1	<?xml version="1.0"?>\n<Clock xmlns:dt="urn:schemas-microsoft-com:datatypes"><Description dt:dt="string">E-Prime Primary Realtime Clock</Description><StartTime><Timestamp dt:dt="int">0</Timestamp><DateUtc dt:dt="string">2016-05-13T21:29:17Z</DateUtc></StartTime><FrequencyChanges><FrequencyChange><Frequency dt:dt="r8">3507675</Frequency><Timestamp dt:dt="r8">106813907081</Timestamp><Current dt:dt="r8">0</Current><DateUtc dt:dt="string">2016-05-13T21:29:17Z</DateUtc></FrequencyChange></FrequencyChanges></Clock>\n	Hungry_Donkey_bar_English_2-147-1	60.017	64	1.0.0.18	1	-559613100	Standard	2.0.10.353	2.0.10.353	05-13-2016	5/13/2016 9:29:17 PM	17:29:17	2.0.10.248	57	Bar50-50.bmp	49	1	?	0r_4g.bmp	0r_4g.bmp	0r_2g.bmp	0r_2g.bmp	0r_4g.bmp				TrialProc	TrialList	0	cvbn	-999999	16	204134	0	c	413	204547	178	-188	-10	6	-32	8	8	10	6	57	0	0	0	0	4	4	2	2	0	4
Hungry_Donkey_bar_English_2	147	1	<?xml version="1.0"?>\n<Clock xmlns:dt="urn:schemas-microsoft-com:datatypes"><Description dt:dt="string">E-Prime Primary Realtime Clock</Description><StartTime><Timestamp dt:dt="int">0</Timestamp><DateUtc dt:dt="string">2016-05-13T21:29:17Z</DateUtc></StartTime><FrequencyChanges><FrequencyChange><Frequency dt:dt="r8">3507675</Frequency><Timestamp dt:dt="r8">106813907081</Timestamp><Current dt:dt="r8">0</Current><DateUtc dt:dt="string">2016-05-13T21:29:17Z</DateUtc></FrequencyChange></FrequencyChanges></Clock>\n	Hungry_Donkey_bar_English_2-147-1	60.017	64	1.0.0.18	1	-559613100	Standard	2.0.10.353	2.0.10.353	05-13-2016	5/13/2016 9:29:17 PM	17:29:17	2.0.10.248	58	Bar50-50.bmp	49	2	?	0r_4g.bmp	0r_4g.bmp	0r_2g.bmp	0r_2g.bmp		0r_4g.bmp			TrialProc	TrialList	0	cvbn	-999999	16	206583	0	v	588	207171	182	-188	-6	6	-28	8	8	8	6	58	0	0	0	0	4	4	2	2	0	4
Hungry_Donkey_bar_English_2	147	1	<?xml version="1.0"?>\n<Clock xmlns:dt="urn:schemas-microsoft-com:datatypes"><Description dt:dt="string">E-Prime Primary Realtime Clock</Description><StartTime><Timestamp dt:dt="int">0</Timestamp><DateUtc dt:dt="string">2016-05-13T21:29:17Z</DateUtc></StartTime><FrequencyChanges><FrequencyChange><Frequency dt:dt="r8">3507675</Frequency><Timestamp dt:dt="r8">106813907081</Timestamp><Current dt:dt="r8">0</Current><DateUtc dt:dt="string">2016-05-13T21:29:17Z</DateUtc></FrequencyChange></FrequencyChanges></Clock>\n	Hungry_Donkey_bar_English_2-147-1	60.017	64	1.0.0.18	1	-559613100	Standard	2.0.10.353	2.0.10.353	05-13-2016	5/13/2016 9:29:17 PM	17:29:17	2.0.10.248	59	Bar50-50.bmp	50	2	?	10r_4g.bmp	0r_4g.bmp	2r_2g.bmp	0r_2g.bmp		0r_4g.bmp			TrialProc	TrialList	0	cvbn	-999999	16	209199	0	v	1012	210211	186	-188	-2	6	-24	8	8	3	6	59	-10	0	-2	0	4	4	2	2	0	4
Hungry_Donkey_bar_English_2	147	1	<?xml version="1.0"?>\n<Clock xmlns:dt="urn:schemas-microsoft-com:datatypes"><Description dt:dt="string">E-Prime Primary Realtime Clock</Description><StartTime><Timestamp dt:dt="int">0</Timestamp><DateUtc dt:dt="string">2016-05-13T21:29:17Z</DateUtc></StartTime><FrequencyChanges><FrequencyChange><Frequency dt:dt="r8">3507675</Frequency><Timestamp dt:dt="r8">106813907081</Timestamp><Current dt:dt="r8">0</Current><DateUtc dt:dt="string">2016-05-13T21:29:17Z</DateUtc></FrequencyChange></FrequencyChanges></Clock>\n	Hungry_Donkey_bar_English_2-147-1	60.017	64	1.0.0.18	1	-559613100	Standard	2.0.10.353	2.0.10.353	05-13-2016	5/13/2016 9:29:17 PM	17:29:17	2.0.10.248	60	Bar50-50.bmp	50	3	?	8r_4g.bmp	50r_4g.bmp	1r_2g.bmp	10r_2g.bmp			1r_2g.bmp		TrialProc	TrialList	0	cvbn	-999999	16	212248	0	b	411	212659	188	-189	-1	6	-24	9	8	1	6	60	-8	-50	-1	-10	4	4	2	2	-1	2
Hungry_Donkey_bar_English_2	147	1	<?xml version="1.0"?>\n<Clock xmlns:dt="urn:schemas-microsoft-com:datatypes"><Description dt:dt="string">E-Prime Primary Realtime Clock</Description><StartTime><Timestamp dt:dt="int">0</Timestamp><DateUtc dt:dt="string">2016-05-13T21:29:17Z</DateUtc></StartTime><FrequencyChanges><FrequencyChange><Frequency dt:dt="r8">3507675</Frequency><Timestamp dt:dt="r8">106813907081</Timestamp><Current dt:dt="r8">0</Current><DateUtc dt:dt="string">2016-05-13T21:29:17Z</DateUtc></FrequencyChange></FrequencyChanges></Clock>\n	Hungry_Donkey_bar_English_2-147-1	60.017	64	1.0.0.18	1	-559613100	Standard	2.0.10.353	2.0.10.353	05-13-2016	5/13/2016 9:29:17 PM	17:29:17	2.0.10.248	61	Bar50-50.bmp	50	3	?	8r_4g.bmp	50r_4g.bmp	1r_2g.bmp	10r_2g.bmp			1r_2g.bmp		TrialProc	TrialList	0	cvbn	-999999	16	214698	0	b	568	215266	190	-190	0	6	-24	10	8	1	7	61	-8	-50	-1	-10	4	4	2	2	-1	2
Hungry_Donkey_bar_English_2	147	1	<?xml version="1.0"?>\n<Clock xmlns:dt="urn:schemas-microsoft-com:datatypes"><Description dt:dt="string">E-Prime Primary Realtime Clock</Description><StartTime><Timestamp dt:dt="int">0</Timestamp><DateUtc dt:dt="string">2016-05-13T21:29:17Z</DateUtc></StartTime><FrequencyChanges><FrequencyChange><Frequency dt:dt="r8">3507675</Frequency><Timestamp dt:dt="r8">106813907081</Timestamp><Current dt:dt="r8">0</Current><DateUtc dt:dt="string">2016-05-13T21:29:17Z</DateUtc></FrequencyChange></FrequencyChanges></Clock>\n	Hungry_Donkey_bar_English_2-147-1	60.017	64	1.0.0.18	1	-559613100	Standard	2.0.10.353	2.0.10.353	05-13-2016	5/13/2016 9:29:17 PM	17:29:17	2.0.10.248	62	Bar50-50.bmp	50	4	?	0r_4g.bmp	0r_4g.bmp	0r_2g.bmp	0r_2g.bmp				0r_2g.bmp	TrialProc	TrialList	0	cvbn	-999999	16	217297	0	n	369	217666	192	-190	2	6	-24	10	10	9	7	62	0	0	0	0	4	4	2	2	0	2
Hungry_Donkey_bar_English_2	147	1	<?xml version="1.0"?>\n<Clock xmlns:dt="urn:schemas-microsoft-com:datatypes"><Description dt:dt="string">E-Prime Primary Realtime Clock</Description><StartTime><Timestamp dt:dt="int">0</Timestamp><DateUtc dt:dt="string">2016-05-13T21:29:17Z</DateUtc></StartTime><FrequencyChanges><FrequencyChange><Frequency dt:dt="r8">3507675</Frequency><Timestamp dt:dt="r8">106813907081</Timestamp><Current dt:dt="r8">0</Current><DateUtc dt:dt="string">2016-05-13T21:29:17Z</DateUtc></FrequencyChange></FrequencyChanges></Clock>\n	Hungry_Donkey_bar_English_2-147-1	60.017	64	1.0.0.18	1	-559613100	Standard	2.0.10.353	2.0.10.353	05-13-2016	5/13/2016 9:29:17 PM	17:29:17	2.0.10.248	63	Bar50-50.bmp	51	4	?	10r_4g.bmp	0r_4g.bmp	2r_2g.bmp	0r_2g.bmp				0r_2g.bmp	TrialProc	TrialList	0	cvbn	-999999	16	219696	0	n	466	220162	194	-190	4	6	-24	10	12	3	7	63	-10	0	-2	0	4	4	2	2	0	2
Hungry_Donkey_bar_English_2	147	1	<?xml version="1.0"?>\n<Clock xmlns:dt="urn:schemas-microsoft-com:datatypes"><Description dt:dt="string">E-Prime Primary Realtime Clock</Description><StartTime><Timestamp dt:dt="int">0</Timestamp><DateUtc dt:dt="string">2016-05-13T21:29:17Z</DateUtc></StartTime><FrequencyChanges><FrequencyChange><Frequency dt:dt="r8">3507675</Frequency><Timestamp dt:dt="r8">106813907081</Timestamp><Current dt:dt="r8">0</Current><DateUtc dt:dt="string">2016-05-13T21:29:17Z</DateUtc></FrequencyChange></FrequencyChanges></Clock>\n	Hungry_Donkey_bar_English_2-147-1	60.017	64	1.0.0.18	1	-559613100	Standard	2.0.10.353	2.0.10.353	05-13-2016	5/13/2016 9:29:17 PM	17:29:17	2.0.10.248	64	Bar50-50.bmp	51	1	?	0r_4g.bmp	0r_4g.bmp	0r_2g.bmp	0r_2g.bmp	0r_4g.bmp				TrialProc	TrialList	0	cvbn	-999999	17	222196	0	c	622	222818	198	-190	8	10	-24	10	12	8	7	64	0	0	0	0	4	4	2	2	0	4
Hungry_Donkey_bar_English_2	147	1	<?xml version="1.0"?>\n<Clock xmlns:dt="urn:schemas-microsoft-com:datatypes"><Description dt:dt="string">E-Prime Primary Realtime Clock</Description><StartTime><Timestamp dt:dt="int">0</Timestamp><DateUtc dt:dt="string">2016-05-13T21:29:17Z</DateUtc></StartTime><FrequencyChanges><FrequencyChange><Frequency dt:dt="r8">3507675</Frequency><Timestamp dt:dt="r8">106813907081</Timestamp><Current dt:dt="r8">0</Current><DateUtc dt:dt="string">2016-05-13T21:29:17Z</DateUtc></FrequencyChange></FrequencyChanges></Clock>\n	Hungry_Donkey_bar_English_2-147-1	60.017	64	1.0.0.18	1	-559613100	Standard	2.0.10.353	2.0.10.353	05-13-2016	5/13/2016 9:29:17 PM	17:29:17	2.0.10.248	65	Bar50-50.bmp	52	1	?	0r_4g.bmp	0r_4g.bmp	0r_2g.bmp	0r_2g.bmp	0r_4g.bmp				TrialProc	TrialList	0	cvbn	-999999	16	224845	0	c	597	225442	202	-190	12	14	-24	10	12	6	7	65	0	0	0	0	4	4	2	2	0	4
Hungry_Donkey_bar_English_2	147	1	<?xml version="1.0"?>\n<Clock xmlns:dt="urn:schemas-microsoft-com:datatypes"><Description dt:dt="string">E-Prime Primary Realtime Clock</Description><StartTime><Timestamp dt:dt="int">0</Timestamp><DateUtc dt:dt="string">2016-05-13T21:29:17Z</DateUtc></StartTime><FrequencyChanges><FrequencyChange><Frequency dt:dt="r8">3507675</Frequency><Timestamp dt:dt="r8">106813907081</Timestamp><Current dt:dt="r8">0</Current><DateUtc dt:dt="string">2016-05-13T21:29:17Z</DateUtc></FrequencyChange></FrequencyChanges></Clock>\n	Hungry_Donkey_bar_English_2-147-1	60.017	64	1.0.0.18	1	-559613100	Standard	2.0.10.353	2.0.10.353	05-13-2016	5/13/2016 9:29:17 PM	17:29:17	2.0.10.248	66	Bar50-50.bmp	52	2	?	12r_4g.bmp	0r_4g.bmp	3r_2g.bmp	0r_2g.bmp		0r_4g.bmp			TrialProc	TrialList	0	cvbn	-999999	16	227477	0	v	493	227970	206	-190	16	14	-20	10	12	5	7	66	-12	0	-3	0	4	4	2	2	0	4
Hungry_Donkey_bar_English_2	147	1	<?xml version="1.0"?>\n<Clock xmlns:dt="urn:schemas-microsoft-com:datatypes"><Description dt:dt="string">E-Prime Primary Realtime Clock</Description><StartTime><Timestamp dt:dt="int">0</Timestamp><DateUtc dt:dt="string">2016-05-13T21:29:17Z</DateUtc></StartTime><FrequencyChanges><FrequencyChange><Frequency dt:dt="r8">3507675</Frequency><Timestamp dt:dt="r8">106813907081</Timestamp><Current dt:dt="r8">0</Current><DateUtc dt:dt="string">2016-05-13T21:29:17Z</DateUtc></FrequencyChange></FrequencyChanges></Clock>\n	Hungry_Donkey_bar_English_2-147-1	60.017	64	1.0.0.18	1	-559613100	Standard	2.0.10.353	2.0.10.353	05-13-2016	5/13/2016 9:29:17 PM	17:29:17	2.0.10.248	67	Bar50-50.bmp	52	2	?	0r_4g.bmp	0r_4g.bmp	0r_2g.bmp	0r_2g.bmp		0r_4g.bmp			TrialProc	TrialList	0	cvbn	-999999	15	229993	0	v	425	230418	210	-190	20	14	-16	10	12	10	7	67	0	0	0	0	4	4	2	2	0	4
Hungry_Donkey_bar_English_2	147	1	<?xml version="1.0"?>\n<Clock xmlns:dt="urn:schemas-microsoft-com:datatypes"><Description dt:dt="string">E-Prime Primary Realtime Clock</Description><StartTime><Timestamp dt:dt="int">0</Timestamp><DateUtc dt:dt="string">2016-05-13T21:29:17Z</DateUtc></StartTime><FrequencyChanges><FrequencyChange><Frequency dt:dt="r8">3507675</Frequency><Timestamp dt:dt="r8">106813907081</Timestamp><Current dt:dt="r8">0</Current><DateUtc dt:dt="string">2016-05-13T21:29:17Z</DateUtc></FrequencyChange></FrequencyChanges></Clock>\n	Hungry_Donkey_bar_English_2-147-1	60.017	64	1.0.0.18	1	-559613100	Standard	2.0.10.353	2.0.10.353	05-13-2016	5/13/2016 9:29:17 PM	17:29:17	2.0.10.248	68	Bar50-50.bmp	52	1	?	10r_4g.bmp	0r_4g.bmp	2r_2g.bmp	0r_2g.bmp	10r_4g.bmp				TrialProc	TrialList	0	cvbn	-999999	16	232443	0	c	599	233042	214	-200	14	8	-16	10	12	2	7	68	-10	0	-2	0	4	4	2	2	-10	4
Hungry_Donkey_bar_English_2	147	1	<?xml version="1.0"?>\n<Clock xmlns:dt="urn:schemas-microsoft-com:datatypes"><Description dt:dt="string">E-Prime Primary Realtime Clock</Description><StartTime><Timestamp dt:dt="int">0</Timestamp><DateUtc dt:dt="string">2016-05-13T21:29:17Z</DateUtc></StartTime><FrequencyChanges><FrequencyChange><Frequency dt:dt="r8">3507675</Frequency><Timestamp dt:dt="r8">106813907081</Timestamp><Current dt:dt="r8">0</Current><DateUtc dt:dt="string">2016-05-13T21:29:17Z</DateUtc></FrequencyChange></FrequencyChanges></Clock>\n	Hungry_Donkey_bar_English_2-147-1	60.017	64	1.0.0.18	1	-559613100	Standard	2.0.10.353	2.0.10.353	05-13-2016	5/13/2016 9:29:17 PM	17:29:17	2.0.10.248	69	Bar50-50.bmp	52	2	?	0r_4g.bmp	0r_4g.bmp	0r_2g.bmp	0r_2g.bmp		0r_4g.bmp			TrialProc	TrialList	0	cvbn	-999999	16	235075	0	v	686	235761	218	-200	18	8	-12	10	12	7	7	69	0	0	0	0	4	4	2	2	0	4
Hungry_Donkey_bar_English_2	147	1	<?xml version="1.0"?>\n<Clock xmlns:dt="urn:schemas-microsoft-com:datatypes"><Description dt:dt="string">E-Prime Primary Realtime Clock</Description><StartTime><Timestamp dt:dt="int">0</Timestamp><DateUtc dt:dt="string">2016-05-13T21:29:17Z</DateUtc></StartTime><FrequencyChanges><FrequencyChange><Frequency dt:dt="r8">3507675</Frequency><Timestamp dt:dt="r8">106813907081</Timestamp><Current dt:dt="r8">0</Current><DateUtc dt:dt="string">2016-05-13T21:29:17Z</DateUtc></FrequencyChange></FrequencyChanges></Clock>\n	Hungry_Donkey_bar_English_2-147-1	60.017	64	1.0.0.18	1	-559613100	Standard	2.0.10.353	2.0.10.353	05-13-2016	5/13/2016 9:29:17 PM	17:29:17	2.0.10.248	70	Bar50-50.bmp	52	3	?	10r_4g.bmp	0r_4g.bmp	2r_2g.bmp	0r_2g.bmp			2r_2g.bmp		TrialProc	TrialList	0	cvbn	-999999	16	237791	0	b	722	238513	220	-202	18	8	-12	10	12	4	7	70	-10	0	-2	0	4	4	2	2	-2	2
Hungry_Donkey_bar_English_2	147	1	<?xml version="1.0"?>\n<Clock xmlns:dt="urn:schemas-microsoft-com:datatypes"><Description dt:dt="string">E-Prime Primary Realtime Clock</Description><StartTime><Timestamp dt:dt="int">0</Timestamp><DateUtc dt:dt="string">2016-05-13T21:29:17Z</DateUtc></StartTime><FrequencyChanges><FrequencyChange><Frequency dt:dt="r8">3507675</Frequency><Timestamp dt:dt="r8">106813907081</Timestamp><Current dt:dt="r8">0</Current><DateUtc dt:dt="string">2016-05-13T21:29:17Z</DateUtc></FrequencyChange></FrequencyChanges></Clock>\n	Hungry_Donkey_bar_English_2-147-1	60.017	64	1.0.0.18	1	-559613100	Standard	2.0.10.353	2.0.10.353	05-13-2016	5/13/2016 9:29:17 PM	17:29:17	2.0.10.248	71	Bar50-50.bmp	51	1	?	12r_4g.bmp	0r_4g.bmp	3r_2g.bmp	0r_2g.bmp	12r_4g.bmp				TrialProc	TrialList	0	cvbn	-999999	16	240540	0	c	677	241217	224	-214	10	0	-12	10	12	5	8	71	-12	0	-3	0	4	4	2	2	-12	4
Hungry_Donkey_bar_English_2	147	1	<?xml version="1.0"?>\n<Clock xmlns:dt="urn:schemas-microsoft-com:datatypes"><Description dt:dt="string">E-Prime Primary Realtime Clock</Description><StartTime><Timestamp dt:dt="int">0</Timestamp><DateUtc dt:dt="string">2016-05-13T21:29:17Z</DateUtc></StartTime><FrequencyChanges><FrequencyChange><Frequency dt:dt="r8">3507675</Frequency><Timestamp dt:dt="r8">106813907081</Timestamp><Current dt:dt="r8">0</Current><DateUtc dt:dt="string">2016-05-13T21:29:17Z</DateUtc></FrequencyChange></FrequencyChanges></Clock>\n	Hungry_Donkey_bar_English_2-147-1	60.017	64	1.0.0.18	1	-559613100	Standard	2.0.10.353	2.0.10.353	05-13-2016	5/13/2016 9:29:17 PM	17:29:17	2.0.10.248	72	Bar50-50.bmp	46	2	?	8r_4g.bmp	50r_4g.bmp	1r_2g.bmp	10r_2g.bmp		50r_4g.bmp			TrialProc	TrialList	0	cvbn	-999999	16	243256	0	v	569	243825	228	-264	-36	0	-58	10	12	1	8	72	-8	-50	-1	-10	4	4	2	2	-50	4
Hungry_Donkey_bar_English_2	147	1	<?xml version="1.0"?>\n<Clock xmlns:dt="urn:schemas-microsoft-com:datatypes"><Description dt:dt="string">E-Prime Primary Realtime Clock</Description><StartTime><Timestamp dt:dt="int">0</Timestamp><DateUtc dt:dt="string">2016-05-13T21:29:17Z</DateUtc></StartTime><FrequencyChanges><FrequencyChange><Frequency dt:dt="r8">3507675</Frequency><Timestamp dt:dt="r8">106813907081</Timestamp><Current dt:dt="r8">0</Current><DateUtc dt:dt="string">2016-05-13T21:29:17Z</DateUtc></FrequencyChange></FrequencyChanges></Clock>\n	Hungry_Donkey_bar_English_2-147-1	60.017	64	1.0.0.18	1	-559613100	Standard	2.0.10.353	2.0.10.353	05-13-2016	5/13/2016 9:29:17 PM	17:29:17	2.0.10.248	73	Bar50-50.bmp	47	4	?	0r_4g.bmp	0r_4g.bmp	0r_2g.bmp	0r_2g.bmp				0r_2g.bmp	TrialProc	TrialList	0	cvbn	-999999	16	245855	0	n	930	246785	230	-264	-34	0	-58	10	14	9	8	73	0	0	0	0	4	4	2	2	0	2
Hungry_Donkey_bar_English_2	147	1	<?xml version="1.0"?>\n<Clock xmlns:dt="urn:schemas-microsoft-com:datatypes"><Description dt:dt="string">E-Prime Primary Realtime Clock</Description><StartTime><Timestamp dt:dt="int">0</Timestamp><DateUtc dt:dt="string">2016-05-13T21:29:17Z</DateUtc></StartTime><FrequencyChanges><FrequencyChange><Frequency dt:dt="r8">3507675</Frequency><Timestamp dt:dt="r8">106813907081</Timestamp><Current dt:dt="r8">0</Current><DateUtc dt:dt="string">2016-05-13T21:29:17Z</DateUtc></FrequencyChange></FrequencyChanges></Clock>\n	Hungry_Donkey_bar_English_2-147-1	60.017	64	1.0.0.18	1	-559613100	Standard	2.0.10.353	2.0.10.353	05-13-2016	5/13/2016 9:29:17 PM	17:29:17	2.0.10.248	74	Bar50-50.bmp	47	3	?	10r_4g.bmp	0r_4g.bmp	2r_2g.bmp	0r_2g.bmp			2r_2g.bmp		TrialProc	TrialList	0	cvbn	-999999	16	248821	0	b	444	249265	232	-266	-34	0	-58	10	14	4	8	74	-10	0	-2	0	4	4	2	2	-2	2
Hungry_Donkey_bar_English_2	147	1	<?xml version="1.0"?>\n<Clock xmlns:dt="urn:schemas-microsoft-com:datatypes"><Description dt:dt="string">E-Prime Primary Realtime Clock</Description><StartTime><Timestamp dt:dt="int">0</Timestamp><DateUtc dt:dt="string">2016-05-13T21:29:17Z</DateUtc></StartTime><FrequencyChanges><FrequencyChange><Frequency dt:dt="r8">3507675</Frequency><Timestamp dt:dt="r8">106813907081</Timestamp><Current dt:dt="r8">0</Current><DateUtc dt:dt="string">2016-05-13T21:29:17Z</DateUtc></FrequencyChange></FrequencyChanges></Clock>\n	Hungry_Donkey_bar_English_2-147-1	60.017	64	1.0.0.18	1	-559613100	Standard	2.0.10.353	2.0.10.353	05-13-2016	5/13/2016 9:29:17 PM	17:29:17	2.0.10.248	75	Bar50-50.bmp	47	4	?	10r_4g.bmp	0r_4g.bmp	2r_2g.bmp	0r_2g.bmp				0r_2g.bmp	TrialProc	TrialList	0	cvbn	-999999	16	251304	0	n	441	251745	234	-266	-32	0	-58	10	16	3	8	75	-10	0	-2	0	4	4	2	2	0	2
Hungry_Donkey_bar_English_2	147	1	<?xml version="1.0"?>\n<Clock xmlns:dt="urn:schemas-microsoft-com:datatypes"><Description dt:dt="string">E-Prime Primary Realtime Clock</Description><StartTime><Timestamp dt:dt="int">0</Timestamp><DateUtc dt:dt="string">2016-05-13T21:29:17Z</DateUtc></StartTime><FrequencyChanges><FrequencyChange><Frequency dt:dt="r8">3507675</Frequency><Timestamp dt:dt="r8">106813907081</Timestamp><Current dt:dt="r8">0</Current><DateUtc dt:dt="string">2016-05-13T21:29:17Z</DateUtc></FrequencyChange></FrequencyChanges></Clock>\n	Hungry_Donkey_bar_English_2-147-1	60.017	64	1.0.0.18	1	-559613100	Standard	2.0.10.353	2.0.10.353	05-13-2016	5/13/2016 9:29:17 PM	17:29:17	2.0.10.248	76	Bar50-50.bmp	47	4	?	10r_4g.bmp	0r_4g.bmp	2r_2g.bmp	0r_2g.bmp				0r_2g.bmp	TrialProc	TrialList	0	cvbn	-999999	16	253770	0	n	471	254241	236	-266	-30	0	-58	10	18	2	8	76	-10	0	-2	0	4	4	2	2	0	2
Hungry_Donkey_bar_English_2	147	1	<?xml version="1.0"?>\n<Clock xmlns:dt="urn:schemas-microsoft-com:datatypes"><Description dt:dt="string">E-Prime Primary Realtime Clock</Description><StartTime><Timestamp dt:dt="int">0</Timestamp><DateUtc dt:dt="string">2016-05-13T21:29:17Z</DateUtc></StartTime><FrequencyChanges><FrequencyChange><Frequency dt:dt="r8">3507675</Frequency><Timestamp dt:dt="r8">106813907081</Timestamp><Current dt:dt="r8">0</Current><DateUtc dt:dt="string">2016-05-13T21:29:17Z</DateUtc></FrequencyChange></FrequencyChanges></Clock>\n	Hungry_Donkey_bar_English_2-147-1	60.017	64	1.0.0.18	1	-559613100	Standard	2.0.10.353	2.0.10.353	05-13-2016	5/13/2016 9:29:17 PM	17:29:17	2.0.10.248	77	Bar50-50.bmp	47	1	?	0r_4g.bmp	0r_4g.bmp	0r_2g.bmp	0r_2g.bmp	0r_4g.bmp				TrialProc	TrialList	0	cvbn	-999999	16	256269	0	c	499	256768	240	-266	-26	4	-58	10	18	7	8	77	0	0	0	0	4	4	2	2	0	4
Hungry_Donkey_bar_English_2	147	1	<?xml version="1.0"?>\n<Clock xmlns:dt="urn:schemas-microsoft-com:datatypes"><Description dt:dt="string">E-Prime Primary Realtime Clock</Description><StartTime><Timestamp dt:dt="int">0</Timestamp><DateUtc dt:dt="string">2016-05-13T21:29:17Z</DateUtc></StartTime><FrequencyChanges><FrequencyChange><Frequency dt:dt="r8">3507675</Frequency><Timestamp dt:dt="r8">106813907081</Timestamp><Current dt:dt="r8">0</Current><DateUtc dt:dt="string">2016-05-13T21:29:17Z</DateUtc></FrequencyChange></FrequencyChanges></Clock>\n	Hungry_Donkey_bar_English_2-147-1	60.017	64	1.0.0.18	1	-559613100	Standard	2.0.10.353	2.0.10.353	05-13-2016	5/13/2016 9:29:17 PM	17:29:17	2.0.10.248	78	Bar50-50.bmp	48	2	?	0r_4g.bmp	0r_4g.bmp	0r_2g.bmp	0r_2g.bmp		0r_4g.bmp			TrialProc	TrialList	0	cvbn	-999999	16	258802	0	v	542	259344	244	-266	-22	4	-54	10	18	6	8	78	0	0	0	0	4	4	2	2	0	4
Hungry_Donkey_bar_English_2	147	1	<?xml version="1.0"?>\n<Clock xmlns:dt="urn:schemas-microsoft-com:datatypes"><Description dt:dt="string">E-Prime Primary Realtime Clock</Description><StartTime><Timestamp dt:dt="int">0</Timestamp><DateUtc dt:dt="string">2016-05-13T21:29:17Z</DateUtc></StartTime><FrequencyChanges><FrequencyChange><Frequency dt:dt="r8">3507675</Frequency><Timestamp dt:dt="r8">106813907081</Timestamp><Current dt:dt="r8">0</Current><DateUtc dt:dt="string">2016-05-13T21:29:17Z</DateUtc></FrequencyChange></FrequencyChanges></Clock>\n	Hungry_Donkey_bar_English_2-147-1	60.017	64	1.0.0.18	1	-559613100	Standard	2.0.10.353	2.0.10.353	05-13-2016	5/13/2016 9:29:17 PM	17:29:17	2.0.10.248	79	Bar50-50.bmp	48	2	?	0r_4g.bmp	0r_4g.bmp	0r_2g.bmp	0r_2g.bmp		0r_4g.bmp			TrialProc	TrialList	0	cvbn	-999999	16	261368	0	v	552	261920	248	-266	-18	4	-50	10	18	10	8	79	0	0	0	0	4	4	2	2	0	4
Hungry_Donkey_bar_English_2	147	1	<?xml version="1.0"?>\n<Clock xmlns:dt="urn:schemas-microsoft-com:datatypes"><Description dt:dt="string">E-Prime Primary Realtime Clock</Description><StartTime><Timestamp dt:dt="int">0</Timestamp><DateUtc dt:dt="string">2016-05-13T21:29:17Z</DateUtc></StartTime><FrequencyChanges><FrequencyChange><Frequency dt:dt="r8">3507675</Frequency><Timestamp dt:dt="r8">106813907081</Timestamp><Current dt:dt="r8">0</Current><DateUtc dt:dt="string">2016-05-13T21:29:17Z</DateUtc></FrequencyChange></FrequencyChanges></Clock>\n	Hungry_Donkey_bar_English_2-147-1	60.017	64	1.0.0.18	1	-559613100	Standard	2.0.10.353	2.0.10.353	05-13-2016	5/13/2016 9:29:17 PM	17:29:17	2.0.10.248	80	Bar50-50.bmp	48	4	?	0r_4g.bmp	0r_4g.bmp	0r_2g.bmp	0r_2g.bmp				0r_2g.bmp	TrialProc	TrialList	0	cvbn	-999999	16	263950	0	n	498	264448	250	-266	-16	4	-50	10	20	8	8	80	0	0	0	0	4	4	2	2	0	2
Hungry_Donkey_bar_English_2	147	1	<?xml version="1.0"?>\n<Clock xmlns:dt="urn:schemas-microsoft-com:datatypes"><Description dt:dt="string">E-Prime Primary Realtime Clock</Description><StartTime><Timestamp dt:dt="int">0</Timestamp><DateUtc dt:dt="string">2016-05-13T21:29:17Z</DateUtc></StartTime><FrequencyChanges><FrequencyChange><Frequency dt:dt="r8">3507675</Frequency><Timestamp dt:dt="r8">106813907081</Timestamp><Current dt:dt="r8">0</Current><DateUtc dt:dt="string">2016-05-13T21:29:17Z</DateUtc></FrequencyChange></FrequencyChanges></Clock>\n	Hungry_Donkey_bar_English_2-147-1	60.017	64	1.0.0.18	1	-559613100	Standard	2.0.10.353	2.0.10.353	05-13-2016	5/13/2016 9:29:17 PM	17:29:17	2.0.10.248	81	Bar50-50.bmp	49	4	?	0r_4g.bmp	0r_4g.bmp	0r_2g.bmp	0r_2g.bmp				0r_2g.bmp	TrialProc	TrialList	0	cvbn	-999999	16	266483	0	n	493	266976	252	-266	-14	4	-50	10	22	10	9	81	0	0	0	0	4	4	2	2	0	2
Hungry_Donkey_bar_English_2	147	1	<?xml version="1.0"?>\n<Clock xmlns:dt="urn:schemas-microsoft-com:datatypes"><Description dt:dt="string">E-Prime Primary Realtime Clock</Description><StartTime><Timestamp dt:dt="int">0</Timestamp><DateUtc dt:dt="string">2016-05-13T21:29:17Z</DateUtc></StartTime><FrequencyChanges><FrequencyChange><Frequency dt:dt="r8">3507675</Frequency><Timestamp dt:dt="r8">106813907081</Timestamp><Current dt:dt="r8">0</Current><DateUtc dt:dt="string">2016-05-13T21:29:17Z</DateUtc></FrequencyChange></FrequencyChanges></Clock>\n	Hungry_Donkey_bar_English_2-147-1	60.017	64	1.0.0.18	1	-559613100	Standard	2.0.10.353	2.0.10.353	05-13-2016	5/13/2016 9:29:17 PM	17:29:17	2.0.10.248	82	Bar50-50.bmp	49	3	?	10r_4g.bmp	0r_4g.bmp	2r_2g.bmp	0r_2g.bmp			2r_2g.bmp		TrialProc	TrialList	0	cvbn	-999999	17	269016	0	b	360	269376	254	-268	-14	4	-50	10	22	3	9	82	-10	0	-2	0	4	4	2	2	-2	2
Hungry_Donkey_bar_English_2	147	1	<?xml version="1.0"?>\n<Clock xmlns:dt="urn:schemas-microsoft-com:datatypes"><Description dt:dt="string">E-Prime Primary Realtime Clock</Description><StartTime><Timestamp dt:dt="int">0</Timestamp><DateUtc dt:dt="string">2016-05-13T21:29:17Z</DateUtc></StartTime><FrequencyChanges><FrequencyChange><Frequency dt:dt="r8">3507675</Frequency><Timestamp dt:dt="r8">106813907081</Timestamp><Current dt:dt="r8">0</Current><DateUtc dt:dt="string">2016-05-13T21:29:17Z</DateUtc></FrequencyChange></FrequencyChanges></Clock>\n	Hungry_Donkey_bar_English_2-147-1	60.017	64	1.0.0.18	1	-559613100	Standard	2.0.10.353	2.0.10.353	05-13-2016	5/13/2016 9:29:17 PM	17:29:17	2.0.10.248	83	Bar50-50.bmp	49	1	?	0r_4g.bmp	0r_4g.bmp	0r_2g.bmp	0r_2g.bmp	0r_4g.bmp				TrialProc	TrialList	0	cvbn	-999999	16	271415	0	c	601	272016	258	-268	-10	8	-50	10	22	7	9	83	0	0	0	0	4	4	2	2	0	4
Hungry_Donkey_bar_English_2	147	1	<?xml version="1.0"?>\n<Clock xmlns:dt="urn:schemas-microsoft-com:datatypes"><Description dt:dt="string">E-Prime Primary Realtime Clock</Description><StartTime><Timestamp dt:dt="int">0</Timestamp><DateUtc dt:dt="string">2016-05-13T21:29:17Z</DateUtc></StartTime><FrequencyChanges><FrequencyChange><Frequency dt:dt="r8">3507675</Frequency><Timestamp dt:dt="r8">106813907081</Timestamp><Current dt:dt="r8">0</Current><DateUtc dt:dt="string">2016-05-13T21:29:17Z</DateUtc></FrequencyChange></FrequencyChanges></Clock>\n	Hungry_Donkey_bar_English_2-147-1	60.017	64	1.0.0.18	1	-559613100	Standard	2.0.10.353	2.0.10.353	05-13-2016	5/13/2016 9:29:17 PM	17:29:17	2.0.10.248	84	Bar50-50.bmp	49	1	?	8r_4g.bmp	50r_4g.bmp	1r_2g.bmp	10r_2g.bmp	8r_4g.bmp				TrialProc	TrialList	0	cvbn	-999999	16	274047	0	c	385	274432	262	-276	-14	4	-50	10	22	1	9	84	-8	-50	-1	-10	4	4	2	2	-8	4
Hungry_Donkey_bar_English_2	147	1	<?xml version="1.0"?>\n<Clock xmlns:dt="urn:schemas-microsoft-com:datatypes"><Description dt:dt="string">E-Prime Primary Realtime Clock</Description><StartTime><Timestamp dt:dt="int">0</Timestamp><DateUtc dt:dt="string">2016-05-13T21:29:17Z</DateUtc></StartTime><FrequencyChanges><FrequencyChange><Frequency dt:dt="r8">3507675</Frequency><Timestamp dt:dt="r8">106813907081</Timestamp><Current dt:dt="r8">0</Current><DateUtc dt:dt="string">2016-05-13T21:29:17Z</DateUtc></FrequencyChange></FrequencyChanges></Clock>\n	Hungry_Donkey_bar_English_2-147-1	60.017	64	1.0.0.18	1	-559613100	Standard	2.0.10.353	2.0.10.353	05-13-2016	5/13/2016 9:29:17 PM	17:29:17	2.0.10.248	85	Bar50-50.bmp	49	2	?	10r_4g.bmp	0r_4g.bmp	2r_2g.bmp	0r_2g.bmp		0r_4g.bmp			TrialProc	TrialList	0	cvbn	-999999	16	276463	0	v	960	277423	266	-276	-10	4	-46	10	22	4	9	85	-10	0	-2	0	4	4	2	2	0	4
Hungry_Donkey_bar_English_2	147	1	<?xml version="1.0"?>\n<Clock xmlns:dt="urn:schemas-microsoft-com:datatypes"><Description dt:dt="string">E-Prime Primary Realtime Clock</Description><StartTime><Timestamp dt:dt="int">0</Timestamp><DateUtc dt:dt="string">2016-05-13T21:29:17Z</DateUtc></StartTime><FrequencyChanges><FrequencyChange><Frequency dt:dt="r8">3507675</Frequency><Timestamp dt:dt="r8">106813907081</Timestamp><Current dt:dt="r8">0</Current><DateUtc dt:dt="string">2016-05-13T21:29:17Z</DateUtc></FrequencyChange></FrequencyChanges></Clock>\n	Hungry_Donkey_bar_English_2-147-1	60.017	64	1.0.0.18	1	-559613100	Standard	2.0.10.353	2.0.10.353	05-13-2016	5/13/2016 9:29:17 PM	17:29:17	2.0.10.248	86	Bar50-50.bmp	49	2	?	12r_4g.bmp	0r_4g.bmp	3r_2g.bmp	0r_2g.bmp		0r_4g.bmp			TrialProc	TrialList	0	cvbn	-999999	17	279463	0	v	456	279919	270	-276	-6	4	-42	10	22	5	9	86	-12	0	-3	0	4	4	2	2	0	4
Hungry_Donkey_bar_English_2	147	1	<?xml version="1.0"?>\n<Clock xmlns:dt="urn:schemas-microsoft-com:datatypes"><Description dt:dt="string">E-Prime Primary Realtime Clock</Description><StartTime><Timestamp dt:dt="int">0</Timestamp><DateUtc dt:dt="string">2016-05-13T21:29:17Z</DateUtc></StartTime><FrequencyChanges><FrequencyChange><Frequency dt:dt="r8">3507675</Frequency><Timestamp dt:dt="r8">106813907081</Timestamp><Current dt:dt="r8">0</Current><DateUtc dt:dt="string">2016-05-13T21:29:17Z</DateUtc></FrequencyChange></FrequencyChanges></Clock>\n	Hungry_Donkey_bar_English_2-147-1	60.017	64	1.0.0.18	1	-559613100	Standard	2.0.10.353	2.0.10.353	05-13-2016	5/13/2016 9:29:17 PM	17:29:17	2.0.10.248	87	Bar50-50.bmp	50	3	?	0r_4g.bmp	0r_4g.bmp	0r_2g.bmp	0r_2g.bmp			0r_2g.bmp		TrialProc	TrialList	0	cvbn	-999999	16	281945	0	b	486	282431	272	-276	-4	4	-42	12	22	9	9	87	0	0	0	0	4	4	2	2	0	2
Hungry_Donkey_bar_English_2	147	1	<?xml version="1.0"?>\n<Clock xmlns:dt="urn:schemas-microsoft-com:datatypes"><Description dt:dt="string">E-Prime Primary Realtime Clock</Description><StartTime><Timestamp dt:dt="int">0</Timestamp><DateUtc dt:dt="string">2016-05-13T21:29:17Z</DateUtc></StartTime><FrequencyChanges><FrequencyChange><Frequency dt:dt="r8">3507675</Frequency><Timestamp dt:dt="r8">106813907081</Timestamp><Current dt:dt="r8">0</Current><DateUtc dt:dt="string">2016-05-13T21:29:17Z</DateUtc></FrequencyChange></FrequencyChanges></Clock>\n	Hungry_Donkey_bar_English_2-147-1	60.017	64	1.0.0.18	1	-559613100	Standard	2.0.10.353	2.0.10.353	05-13-2016	5/13/2016 9:29:17 PM	17:29:17	2.0.10.248	88	Bar50-50.bmp	50	4	?	10r_4g.bmp	0r_4g.bmp	2r_2g.bmp	0r_2g.bmp				0r_2g.bmp	TrialProc	TrialList	0	cvbn	-999999	16	284461	0	n	850	285311	274	-276	-2	4	-42	12	24	2	9	88	-10	0	-2	0	4	4	2	2	0	2
Hungry_Donkey_bar_English_2	147	1	<?xml version="1.0"?>\n<Clock xmlns:dt="urn:schemas-microsoft-com:datatypes"><Description dt:dt="string">E-Prime Primary Realtime Clock</Description><StartTime><Timestamp dt:dt="int">0</Timestamp><DateUtc dt:dt="string">2016-05-13T21:29:17Z</DateUtc></StartTime><FrequencyChanges><FrequencyChange><Frequency dt:dt="r8">3507675</Frequency><Timestamp dt:dt="r8">106813907081</Timestamp><Current dt:dt="r8">0</Current><DateUtc dt:dt="string">2016-05-13T21:29:17Z</DateUtc></FrequencyChange></FrequencyChanges></Clock>\n	Hungry_Donkey_bar_English_2-147-1	60.017	64	1.0.0.18	1	-559613100	Standard	2.0.10.353	2.0.10.353	05-13-2016	5/13/2016 9:29:17 PM	17:29:17	2.0.10.248	89	Bar50-50.bmp	50	3	?	0r_4g.bmp	0r_4g.bmp	0r_2g.bmp	0r_2g.bmp			0r_2g.bmp		TrialProc	TrialList	0	cvbn	-999999	16	287344	0	b	559	287903	276	-276	0	4	-42	14	24	6	9	89	0	0	0	0	4	4	2	2	0	2
Hungry_Donkey_bar_English_2	147	1	<?xml version="1.0"?>\n<Clock xmlns:dt="urn:schemas-microsoft-com:datatypes"><Description dt:dt="string">E-Prime Primary Realtime Clock</Description><StartTime><Timestamp dt:dt="int">0</Timestamp><DateUtc dt:dt="string">2016-05-13T21:29:17Z</DateUtc></StartTime><FrequencyChanges><FrequencyChange><Frequency dt:dt="r8">3507675</Frequency><Timestamp dt:dt="r8">106813907081</Timestamp><Current dt:dt="r8">0</Current><DateUtc dt:dt="string">2016-05-13T21:29:17Z</DateUtc></FrequencyChange></FrequencyChanges></Clock>\n	Hungry_Donkey_bar_English_2-147-1	60.017	64	1.0.0.18	1	-559613100	Standard	2.0.10.353	2.0.10.353	05-13-2016	5/13/2016 9:29:17 PM	17:29:17	2.0.10.248	90	Bar50-50.bmp	50	4	?	0r_4g.bmp	0r_4g.bmp	0r_2g.bmp	0r_2g.bmp				0r_2g.bmp	TrialProc	TrialList	0	cvbn	-999999	15	289926	0	n	521	290447	278	-276	2	4	-42	14	26	8	9	90	0	0	0	0	4	4	2	2	0	2
Hungry_Donkey_bar_English_2	147	1	<?xml version="1.0"?>\n<Clock xmlns:dt="urn:schemas-microsoft-com:datatypes"><Description dt:dt="string">E-Prime Primary Realtime Clock</Description><StartTime><Timestamp dt:dt="int">0</Timestamp><DateUtc dt:dt="string">2016-05-13T21:29:17Z</DateUtc></StartTime><FrequencyChanges><FrequencyChange><Frequency dt:dt="r8">3507675</Frequency><Timestamp dt:dt="r8">106813907081</Timestamp><Current dt:dt="r8">0</Current><DateUtc dt:dt="string">2016-05-13T21:29:17Z</DateUtc></FrequencyChange></FrequencyChanges></Clock>\n	Hungry_Donkey_bar_English_2-147-1	60.017	64	1.0.0.18	1	-559613100	Standard	2.0.10.353	2.0.10.353	05-13-2016	5/13/2016 9:29:17 PM	17:29:17	2.0.10.248	91	Bar50-50.bmp	50	3	?	0r_4g.bmp	0r_4g.bmp	0r_2g.bmp	0r_2g.bmp			0r_2g.bmp		TrialProc	TrialList	0	cvbn	-999999	16	292475	0	b	484	292959	280	-276	4	4	-42	16	26	7	10	91	0	0	0	0	4	4	2	2	0	2
Hungry_Donkey_bar_English_2	147	1	<?xml version="1.0"?>\n<Clock xmlns:dt="urn:schemas-microsoft-com:datatypes"><Description dt:dt="string">E-Prime Primary Realtime Clock</Description><StartTime><Timestamp dt:dt="int">0</Timestamp><DateUtc dt:dt="string">2016-05-13T21:29:17Z</DateUtc></StartTime><FrequencyChanges><FrequencyChange><Frequency dt:dt="r8">3507675</Frequency><Timestamp dt:dt="r8">106813907081</Timestamp><Current dt:dt="r8">0</Current><DateUtc dt:dt="string">2016-05-13T21:29:17Z</DateUtc></FrequencyChange></FrequencyChanges></Clock>\n	Hungry_Donkey_bar_English_2-147-1	60.017	64	1.0.0.18	1	-559613100	Standard	2.0.10.353	2.0.10.353	05-13-2016	5/13/2016 9:29:17 PM	17:29:17	2.0.10.248	92	Bar50-50.bmp	51	4	?	10r_4g.bmp	0r_4g.bmp	2r_2g.bmp	0r_2g.bmp				0r_2g.bmp	TrialProc	TrialList	0	cvbn	-999999	16	294991	0	n	512	295503	282	-276	6	4	-42	16	28	2	10	92	-10	0	-2	0	4	4	2	2	0	2
Hungry_Donkey_bar_English_2	147	1	<?xml version="1.0"?>\n<Clock xmlns:dt="urn:schemas-microsoft-com:datatypes"><Description dt:dt="string">E-Prime Primary Realtime Clock</Description><StartTime><Timestamp dt:dt="int">0</Timestamp><DateUtc dt:dt="string">2016-05-13T21:29:17Z</DateUtc></StartTime><FrequencyChanges><FrequencyChange><Frequency dt:dt="r8">3507675</Frequency><Timestamp dt:dt="r8">106813907081</Timestamp><Current dt:dt="r8">0</Current><DateUtc dt:dt="string">2016-05-13T21:29:17Z</DateUtc></FrequencyChange></FrequencyChanges></Clock>\n	Hungry_Donkey_bar_English_2-147-1	60.017	64	1.0.0.18	1	-559613100	Standard	2.0.10.353	2.0.10.353	05-13-2016	5/13/2016 9:29:17 PM	17:29:17	2.0.10.248	93	Bar50-50.bmp	51	3	?	10r_4g.bmp	0r_4g.bmp	2r_2g.bmp	0r_2g.bmp			2r_2g.bmp		TrialProc	TrialList	0	cvbn	-999999	16	297541	0	b	425	297966	284	-278	6	4	-42	16	28	4	10	93	-10	0	-2	0	4	4	2	2	-2	2
Hungry_Donkey_bar_English_2	147	1	<?xml version="1.0"?>\n<Clock xmlns:dt="urn:schemas-microsoft-com:datatypes"><Description dt:dt="string">E-Prime Primary Realtime Clock</Description><StartTime><Timestamp dt:dt="int">0</Timestamp><DateUtc dt:dt="string">2016-05-13T21:29:17Z</DateUtc></StartTime><FrequencyChanges><FrequencyChange><Frequency dt:dt="r8">3507675</Frequency><Timestamp dt:dt="r8">106813907081</Timestamp><Current dt:dt="r8">0</Current><DateUtc dt:dt="string">2016-05-13T21:29:17Z</DateUtc></FrequencyChange></FrequencyChanges></Clock>\n	Hungry_Donkey_bar_English_2-147-1	60.017	64	1.0.0.18	1	-559613100	Standard	2.0.10.353	2.0.10.353	05-13-2016	5/13/2016 9:29:17 PM	17:29:17	2.0.10.248	94	Bar50-50.bmp	50	4	?	8r_4g.bmp	50r_4g.bmp	1r_2g.bmp	10r_2g.bmp				10r_2g.bmp	TrialProc	TrialList	0	cvbn	-999999	16	300007	0	n	375	300382	286	-288	-2	4	-42	16	20	1	10	94	-8	-50	-1	-10	4	4	2	2	-10	2
Hungry_Donkey_bar_English_2	147	1	<?xml version="1.0"?>\n<Clock xmlns:dt="urn:schemas-microsoft-com:datatypes"><Description dt:dt="string">E-Prime Primary Realtime Clock</Description><StartTime><Timestamp dt:dt="int">0</Timestamp><DateUtc dt:dt="string">2016-05-13T21:29:17Z</DateUtc></StartTime><FrequencyChanges><FrequencyChange><Frequency dt:dt="r8">3507675</Frequency><Timestamp dt:dt="r8">106813907081</Timestamp><Current dt:dt="r8">0</Current><DateUtc dt:dt="string">2016-05-13T21:29:17Z</DateUtc></FrequencyChange></FrequencyChanges></Clock>\n	Hungry_Donkey_bar_English_2-147-1	60.017	64	1.0.0.18	1	-559613100	Standard	2.0.10.353	2.0.10.353	05-13-2016	5/13/2016 9:29:17 PM	17:29:17	2.0.10.248	95	Bar50-50.bmp	49	1	?	12r_4g.bmp	0r_4g.bmp	3r_2g.bmp	0r_2g.bmp	12r_4g.bmp				TrialProc	TrialList	0	cvbn	-999999	16	302406	0	c	344	302750	290	-300	-10	-4	-42	16	20	5	10	95	-12	0	-3	0	4	4	2	2	-12	4
Hungry_Donkey_bar_English_2	147	1	<?xml version="1.0"?>\n<Clock xmlns:dt="urn:schemas-microsoft-com:datatypes"><Description dt:dt="string">E-Prime Primary Realtime Clock</Description><StartTime><Timestamp dt:dt="int">0</Timestamp><DateUtc dt:dt="string">2016-05-13T21:29:17Z</DateUtc></StartTime><FrequencyChanges><FrequencyChange><Frequency dt:dt="r8">3507675</Frequency><Timestamp dt:dt="r8">106813907081</Timestamp><Current dt:dt="r8">0</Current><DateUtc dt:dt="string">2016-05-13T21:29:17Z</DateUtc></FrequencyChange></FrequencyChanges></Clock>\n	Hungry_Donkey_bar_English_2-147-1	60.017	64	1.0.0.18	1	-559613100	Standard	2.0.10.353	2.0.10.353	05-13-2016	5/13/2016 9:29:17 PM	17:29:17	2.0.10.248	96	Bar50-50.bmp	49	2	?	0r_4g.bmp	0r_4g.bmp	0r_2g.bmp	0r_2g.bmp		0r_4g.bmp			TrialProc	TrialList	0	cvbn	-999999	16	304789	0	v	313	305102	294	-300	-6	-4	-38	16	20	10	10	96	0	0	0	0	4	4	2	2	0	4
Hungry_Donkey_bar_English_2	147	1	<?xml version="1.0"?>\n<Clock xmlns:dt="urn:schemas-microsoft-com:datatypes"><Description dt:dt="string">E-Prime Primary Realtime Clock</Description><StartTime><Timestamp dt:dt="int">0</Timestamp><DateUtc dt:dt="string">2016-05-13T21:29:17Z</DateUtc></StartTime><FrequencyChanges><FrequencyChange><Frequency dt:dt="r8">3507675</Frequency><Timestamp dt:dt="r8">106813907081</Timestamp><Current dt:dt="r8">0</Current><DateUtc dt:dt="string">2016-05-13T21:29:17Z</DateUtc></FrequencyChange></FrequencyChanges></Clock>\n	Hungry_Donkey_bar_English_2-147-1	60.017	64	1.0.0.18	1	-559613100	Standard	2.0.10.353	2.0.10.353	05-13-2016	5/13/2016 9:29:17 PM	17:29:17	2.0.10.248	97	Bar50-50.bmp	50	2	?	10r_4g.bmp	0r_4g.bmp	2r_2g.bmp	0r_2g.bmp		0r_4g.bmp			TrialProc	TrialList	0	cvbn	-999999	16	307138	0	v	332	307470	298	-300	-2	-4	-34	16	20	3	10	97	-10	0	-2	0	4	4	2	2	0	4
Hungry_Donkey_bar_English_2	147	1	<?xml version="1.0"?>\n<Clock xmlns:dt="urn:schemas-microsoft-com:datatypes"><Description dt:dt="string">E-Prime Primary Realtime Clock</Description><StartTime><Timestamp dt:dt="int">0</Timestamp><DateUtc dt:dt="string">2016-05-13T21:29:17Z</DateUtc></StartTime><FrequencyChanges><FrequencyChange><Frequency dt:dt="r8">3507675</Frequency><Timestamp dt:dt="r8">106813907081</Timestamp><Current dt:dt="r8">0</Current><DateUtc dt:dt="string">2016-05-13T21:29:17Z</DateUtc></FrequencyChange></FrequencyChanges></Clock>\n	Hungry_Donkey_bar_English_2-147-1	60.017	64	1.0.0.18	1	-559613100	Standard	2.0.10.353	2.0.10.353	05-13-2016	5/13/2016 9:29:17 PM	17:29:17	2.0.10.248	98	Bar50-50.bmp	50	2	?	0r_4g.bmp	0r_4g.bmp	0r_2g.bmp	0r_2g.bmp		0r_4g.bmp			TrialProc	TrialList	0	cvbn	-999999	16	309504	0	v	494	309998	302	-300	2	-4	-30	16	20	9	10	98	0	0	0	0	4	4	2	2	0	4
Hungry_Donkey_bar_English_2	147	1	<?xml version="1.0"?>\n<Clock xmlns:dt="urn:schemas-microsoft-com:datatypes"><Description dt:dt="string">E-Prime Primary Realtime Clock</Description><StartTime><Timestamp dt:dt="int">0</Timestamp><DateUtc dt:dt="string">2016-05-13T21:29:17Z</DateUtc></StartTime><FrequencyChanges><FrequencyChange><Frequency dt:dt="r8">3507675</Frequency><Timestamp dt:dt="r8">106813907081</Timestamp><Current dt:dt="r8">0</Current><DateUtc dt:dt="string">2016-05-13T21:29:17Z</DateUtc></FrequencyChange></FrequencyChanges></Clock>\n	Hungry_Donkey_bar_English_2-147-1	60.017	64	1.0.0.18	1	-559613100	Standard	2.0.10.353	2.0.10.353	05-13-2016	5/13/2016 9:29:17 PM	17:29:17	2.0.10.248	99	Bar50-50.bmp	50	3	?	0r_4g.bmp	0r_4g.bmp	0r_2g.bmp	0r_2g.bmp			0r_2g.bmp		TrialProc	TrialList	0	cvbn	-999999	17	312037	0	b	393	312430	304	-300	4	-4	-30	18	20	6	10	99	0	0	0	0	4	4	2	2	0	2
Hungry_Donkey_bar_English_2	147	1	<?xml version="1.0"?>\n<Clock xmlns:dt="urn:schemas-microsoft-com:datatypes"><Description dt:dt="string">E-Prime Primary Realtime Clock</Description><StartTime><Timestamp dt:dt="int">0</Timestamp><DateUtc dt:dt="string">2016-05-13T21:29:17Z</DateUtc></StartTime><FrequencyChanges><FrequencyChange><Frequency dt:dt="r8">3507675</Frequency><Timestamp dt:dt="r8">106813907081</Timestamp><Current dt:dt="r8">0</Current><DateUtc dt:dt="string">2016-05-13T21:29:17Z</DateUtc></FrequencyChange></FrequencyChanges></Clock>\n	Hungry_Donkey_bar_English_2-147-1	60.017	64	1.0.0.18	1	-559613100	Standard	2.0.10.353	2.0.10.353	05-13-2016	5/13/2016 9:29:17 PM	17:29:17	2.0.10.248	100	Bar50-50.bmp	51	2	?	0r_4g.bmp	0r_4g.bmp	0r_2g.bmp	0r_2g.bmp		0r_4g.bmp			TrialProc	TrialList	0	cvbn	-999999	16	314469	0	v	585	315054	308	-300	8	-4	-26	18	20	8	10	100	0	0	0	0	4	4	2	2	0	4
Hungry_Donkey_bar_English_2	147	1	<?xml version="1.0"?>\n<Clock xmlns:dt="urn:schemas-microsoft-com:datatypes"><Description dt:dt="string">E-Prime Primary Realtime Clock</Description><StartTime><Timestamp dt:dt="int">0</Timestamp><DateUtc dt:dt="string">2016-05-13T21:29:17Z</DateUtc></StartTime><FrequencyChanges><FrequencyChange><Frequency dt:dt="r8">3507675</Frequency><Timestamp dt:dt="r8">106813907081</Timestamp><Current dt:dt="r8">0</Current><DateUtc dt:dt="string">2016-05-13T21:29:17Z</DateUtc></FrequencyChange></FrequencyChanges></Clock>\n	Hungry_Donkey_bar_English_2-147-1	60.017	64	1.0.0.18	1	-559613100	Standard	2.0.10.353	2.0.10.353	05-13-2016	5/13/2016 9:29:17 PM	17:29:17	2.0.10.248	101	Bar50-50.bmp	51	1	?	0r_4g.bmp	0r_4g.bmp	0r_2g.bmp	0r_2g.bmp	0r_4g.bmp				TrialProc	TrialList	0	cvbn	-999999	16	317085	0	c	544	317629	312	-300	12	0	-26	18	20	9	11	101	0	0	0	0	4	4	2	2	0	4
Hungry_Donkey_bar_English_2	147	1	<?xml version="1.0"?>\n<Clock xmlns:dt="urn:schemas-microsoft-com:datatypes"><Description dt:dt="string">E-Prime Primary Realtime Clock</Description><StartTime><Timestamp dt:dt="int">0</Timestamp><DateUtc dt:dt="string">2016-05-13T21:29:17Z</DateUtc></StartTime><FrequencyChanges><FrequencyChange><Frequency dt:dt="r8">3507675</Frequency><Timestamp dt:dt="r8">106813907081</Timestamp><Current dt:dt="r8">0</Current><DateUtc dt:dt="string">2016-05-13T21:29:17Z</DateUtc></FrequencyChange></FrequencyChanges></Clock>\n	Hungry_Donkey_bar_English_2-147-1	60.017	64	1.0.0.18	1	-559613100	Standard	2.0.10.353	2.0.10.353	05-13-2016	5/13/2016 9:29:17 PM	17:29:17	2.0.10.248	102	Bar50-50.bmp	51	2	?	0r_4g.bmp	0r_4g.bmp	0r_2g.bmp	0r_2g.bmp		0r_4g.bmp			TrialProc	TrialList	0	cvbn	-999999	16	319668	0	v	601	320269	316	-300	16	0	-22	18	20	6	11	102	0	0	0	0	4	4	2	2	0	4
Hungry_Donkey_bar_English_2	147	1	<?xml version="1.0"?>\n<Clock xmlns:dt="urn:schemas-microsoft-com:datatypes"><Description dt:dt="string">E-Prime Primary Realtime Clock</Description><StartTime><Timestamp dt:dt="int">0</Timestamp><DateUtc dt:dt="string">2016-05-13T21:29:17Z</DateUtc></StartTime><FrequencyChanges><FrequencyChange><Frequency dt:dt="r8">3507675</Frequency><Timestamp dt:dt="r8">106813907081</Timestamp><Current dt:dt="r8">0</Current><DateUtc dt:dt="string">2016-05-13T21:29:17Z</DateUtc></FrequencyChange></FrequencyChanges></Clock>\n	Hungry_Donkey_bar_English_2-147-1	60.017	64	1.0.0.18	1	-559613100	Standard	2.0.10.353	2.0.10.353	05-13-2016	5/13/2016 9:29:17 PM	17:29:17	2.0.10.248	103	Bar50-50.bmp	52	1	?	0r_4g.bmp	0r_4g.bmp	0r_2g.bmp	0r_2g.bmp	0r_4g.bmp				TrialProc	TrialList	0	cvbn	-999999	16	322300	0	c	465	322765	320	-300	20	4	-22	18	20	10	11	103	0	0	0	0	4	4	2	2	0	4
Hungry_Donkey_bar_English_2	147	1	<?xml version="1.0"?>\n<Clock xmlns:dt="urn:schemas-microsoft-com:datatypes"><Description dt:dt="string">E-Prime Primary Realtime Clock</Description><StartTime><Timestamp dt:dt="int">0</Timestamp><DateUtc dt:dt="string">2016-05-13T21:29:17Z</DateUtc></StartTime><FrequencyChanges><FrequencyChange><Frequency dt:dt="r8">3507675</Frequency><Timestamp dt:dt="r8">106813907081</Timestamp><Current dt:dt="r8">0</Current><DateUtc dt:dt="string">2016-05-13T21:29:17Z</DateUtc></FrequencyChange></FrequencyChanges></Clock>\n	Hungry_Donkey_bar_English_2-147-1	60.017	64	1.0.0.18	1	-559613100	Standard	2.0.10.353	2.0.10.353	05-13-2016	5/13/2016 9:29:17 PM	17:29:17	2.0.10.248	104	Bar50-50.bmp	51	1	?	10r_4g.bmp	0r_4g.bmp	2r_2g.bmp	0r_2g.bmp	10r_4g.bmp				TrialProc	TrialList	0	cvbn	-999999	17	324800	0	c	493	325293	324	-310	14	-2	-22	18	20	3	11	104	-10	0	-2	0	4	4	2	2	-10	4
Hungry_Donkey_bar_English_2	147	1	<?xml version="1.0"?>\n<Clock xmlns:dt="urn:schemas-microsoft-com:datatypes"><Description dt:dt="string">E-Prime Primary Realtime Clock</Description><StartTime><Timestamp dt:dt="int">0</Timestamp><DateUtc dt:dt="string">2016-05-13T21:29:17Z</DateUtc></StartTime><FrequencyChanges><FrequencyChange><Frequency dt:dt="r8">3507675</Frequency><Timestamp dt:dt="r8">106813907081</Timestamp><Current dt:dt="r8">0</Current><DateUtc dt:dt="string">2016-05-13T21:29:17Z</DateUtc></FrequencyChange></FrequencyChanges></Clock>\n	Hungry_Donkey_bar_English_2-147-1	60.017	64	1.0.0.18	1	-559613100	Standard	2.0.10.353	2.0.10.353	05-13-2016	5/13/2016 9:29:17 PM	17:29:17	2.0.10.248	105	Bar50-50.bmp	51	3	?	8r_4g.bmp	50r_4g.bmp	1r_2g.bmp	10r_2g.bmp			1r_2g.bmp		TrialProc	TrialList	0	cvbn	-999999	16	327332	0	b	505	327837	326	-311	15	-2	-22	19	20	1	11	105	-8	-50	-1	-10	4	4	2	2	-1	2
Hungry_Donkey_bar_English_2	147	1	<?xml version="1.0"?>\n<Clock xmlns:dt="urn:schemas-microsoft-com:datatypes"><Description dt:dt="string">E-Prime Primary Realtime Clock</Description><StartTime><Timestamp dt:dt="int">0</Timestamp><DateUtc dt:dt="string">2016-05-13T21:29:17Z</DateUtc></StartTime><FrequencyChanges><FrequencyChange><Frequency dt:dt="r8">3507675</Frequency><Timestamp dt:dt="r8">106813907081</Timestamp><Current dt:dt="r8">0</Current><DateUtc dt:dt="string">2016-05-13T21:29:17Z</DateUtc></FrequencyChange></FrequencyChanges></Clock>\n	Hungry_Donkey_bar_English_2-147-1	60.017	64	1.0.0.18	1	-559613100	Standard	2.0.10.353	2.0.10.353	05-13-2016	5/13/2016 9:29:17 PM	17:29:17	2.0.10.248	106	Bar50-50.bmp	51	4	?	0r_4g.bmp	0r_4g.bmp	0r_2g.bmp	0r_2g.bmp				0r_2g.bmp	TrialProc	TrialList	0	cvbn	-999999	16	329865	0	n	676	330541	328	-311	17	-2	-22	19	22	8	11	106	0	0	0	0	4	4	2	2	0	2
Hungry_Donkey_bar_English_2	147	1	<?xml version="1.0"?>\n<Clock xmlns:dt="urn:schemas-microsoft-com:datatypes"><Description dt:dt="string">E-Prime Primary Realtime Clock</Description><StartTime><Timestamp dt:dt="int">0</Timestamp><DateUtc dt:dt="string">2016-05-13T21:29:17Z</DateUtc></StartTime><FrequencyChanges><FrequencyChange><Frequency dt:dt="r8">3507675</Frequency><Timestamp dt:dt="r8">106813907081</Timestamp><Current dt:dt="r8">0</Current><DateUtc dt:dt="string">2016-05-13T21:29:17Z</DateUtc></FrequencyChange></FrequencyChanges></Clock>\n	Hungry_Donkey_bar_English_2-147-1	60.017	64	1.0.0.18	1	-559613100	Standard	2.0.10.353	2.0.10.353	05-13-2016	5/13/2016 9:29:17 PM	17:29:17	2.0.10.248	107	Bar50-50.bmp	51	3	?	12r_4g.bmp	0r_4g.bmp	3r_2g.bmp	0r_2g.bmp			3r_2g.bmp		TrialProc	TrialList	0	cvbn	-999999	16	332564	0	b	1705	334269	330	-314	16	-2	-22	18	22	5	11	107	-12	0	-3	0	4	4	2	2	-3	2
Hungry_Donkey_bar_English_2	147	1	<?xml version="1.0"?>\n<Clock xmlns:dt="urn:schemas-microsoft-com:datatypes"><Description dt:dt="string">E-Prime Primary Realtime Clock</Description><StartTime><Timestamp dt:dt="int">0</Timestamp><DateUtc dt:dt="string">2016-05-13T21:29:17Z</DateUtc></StartTime><FrequencyChanges><FrequencyChange><Frequency dt:dt="r8">3507675</Frequency><Timestamp dt:dt="r8">106813907081</Timestamp><Current dt:dt="r8">0</Current><DateUtc dt:dt="string">2016-05-13T21:29:17Z</DateUtc></FrequencyChange></FrequencyChanges></Clock>\n	Hungry_Donkey_bar_English_2-147-1	60.017	64	1.0.0.18	1	-559613100	Standard	2.0.10.353	2.0.10.353	05-13-2016	5/13/2016 9:29:17 PM	17:29:17	2.0.10.248	108	Bar50-50.bmp	51	1	?	10r_4g.bmp	0r_4g.bmp	2r_2g.bmp	0r_2g.bmp	10r_4g.bmp				TrialProc	TrialList	0	cvbn	-999999	16	336296	0	c	724	337020	334	-324	10	-8	-22	18	22	4	11	108	-10	0	-2	0	4	4	2	2	-10	4
Hungry_Donkey_bar_English_2	147	1	<?xml version="1.0"?>\n<Clock xmlns:dt="urn:schemas-microsoft-com:datatypes"><Description dt:dt="string">E-Prime Primary Realtime Clock</Description><StartTime><Timestamp dt:dt="int">0</Timestamp><DateUtc dt:dt="string">2016-05-13T21:29:17Z</DateUtc></StartTime><FrequencyChanges><FrequencyChange><Frequency dt:dt="r8">3507675</Frequency><Timestamp dt:dt="r8">106813907081</Timestamp><Current dt:dt="r8">0</Current><DateUtc dt:dt="string">2016-05-13T21:29:17Z</DateUtc></FrequencyChange></FrequencyChanges></Clock>\n	Hungry_Donkey_bar_English_2-147-1	60.017	64	1.0.0.18	1	-559613100	Standard	2.0.10.353	2.0.10.353	05-13-2016	5/13/2016 9:29:17 PM	17:29:17	2.0.10.248	109	Bar50-50.bmp	51	2	?	0r_4g.bmp	0r_4g.bmp	0r_2g.bmp	0r_2g.bmp		0r_4g.bmp			TrialProc	TrialList	0	cvbn	-999999	16	339062	0	v	790	339852	338	-324	14	-8	-18	18	22	7	11	109	0	0	0	0	4	4	2	2	0	4
Hungry_Donkey_bar_English_2	147	1	<?xml version="1.0"?>\n<Clock xmlns:dt="urn:schemas-microsoft-com:datatypes"><Description dt:dt="string">E-Prime Primary Realtime Clock</Description><StartTime><Timestamp dt:dt="int">0</Timestamp><DateUtc dt:dt="string">2016-05-13T21:29:17Z</DateUtc></StartTime><FrequencyChanges><FrequencyChange><Frequency dt:dt="r8">3507675</Frequency><Timestamp dt:dt="r8">106813907081</Timestamp><Current dt:dt="r8">0</Current><DateUtc dt:dt="string">2016-05-13T21:29:17Z</DateUtc></FrequencyChange></FrequencyChanges></Clock>\n	Hungry_Donkey_bar_English_2-147-1	60.017	64	1.0.0.18	1	-559613100	Standard	2.0.10.353	2.0.10.353	05-13-2016	5/13/2016 9:29:17 PM	17:29:17	2.0.10.248	110	Bar50-50.bmp	51	2	?	10r_4g.bmp	0r_4g.bmp	2r_2g.bmp	0r_2g.bmp		0r_4g.bmp			TrialProc	TrialList	0	cvbn	-999999	16	341878	0	v	1014	342892	342	-324	18	-8	-14	18	22	2	11	110	-10	0	-2	0	4	4	2	2	0	4
Hungry_Donkey_bar_English_2	147	1	<?xml version="1.0"?>\n<Clock xmlns:dt="urn:schemas-microsoft-com:datatypes"><Description dt:dt="string">E-Prime Primary Realtime Clock</Description><StartTime><Timestamp dt:dt="int">0</Timestamp><DateUtc dt:dt="string">2016-05-13T21:29:17Z</DateUtc></StartTime><FrequencyChanges><FrequencyChange><Frequency dt:dt="r8">3507675</Frequency><Timestamp dt:dt="r8">106813907081</Timestamp><Current dt:dt="r8">0</Current><DateUtc dt:dt="string">2016-05-13T21:29:17Z</DateUtc></FrequencyChange></FrequencyChanges></Clock>\n	Hungry_Donkey_bar_English_2-147-1	60.017	64	1.0.0.18	1	-559613100	Standard	2.0.10.353	2.0.10.353	05-13-2016	5/13/2016 9:29:17 PM	17:29:17	2.0.10.248	111	Bar50-50.bmp	51	1	?	10r_4g.bmp	0r_4g.bmp	2r_2g.bmp	0r_2g.bmp	10r_4g.bmp				TrialProc	TrialList	0	cvbn	-999999	16	344927	0	c	493	345420	346	-334	12	-14	-14	18	22	4	12	111	-10	0	-2	0	4	4	2	2	-10	4
