ExperimentName	Subject	Session	Clock.Information	DataFile.Basename	Display.RefreshRate	Eindtotaal[Session]	ExperimentVersion	Group	RandomSeed	RuntimeCapabilities	RuntimeVersion	RuntimeVersionExpected	SessionDate	SessionStartDateTimeUtc	SessionTime	StudioVersion	Block	BarImage	BarTotalWinst	DoorChoice	Eindtotaal[Block]	FBDoor1	FBDoor2	FBDoor3	FBDoor4	Image1	Image2	Image3	Image4	Procedure	Running	spel.ACC	spel.CRESP	spel.DurationError	spel.OnsetDelay	spel.OnsetTime	spel.OnsetToOnsetTime	spel.RESP	spel.RT	spel.RTTime	TotalGain	TotalLose	Totalsum	TotalsumD1	TotalsumD2	TotalsumD3	TotalsumD4	TrialList	TrialList.Cycle	TrialList.Sample	varV1	varV2	varV3	varV4	varW1	varW2	varW3	varW4	Verliesbedrag	Winstbedrag
Hungry_Donkey_bar_English_2	139	1	<?xml version="1.0"?>\n<Clock xmlns:dt="urn:schemas-microsoft-com:datatypes"><Description dt:dt="string">E-Prime Primary Realtime Clock</Description><StartTime><Timestamp dt:dt="int">0</Timestamp><DateUtc dt:dt="string">2016-03-28T22:02:59Z</DateUtc></StartTime><FrequencyChanges><FrequencyChange><Frequency dt:dt="r8">3507685</Frequency><Timestamp dt:dt="r8">7486757258</Timestamp><Current dt:dt="r8">0</Current><DateUtc dt:dt="string">2016-03-28T22:02:59Z</DateUtc></FrequencyChange></FrequencyChanges></Clock>\n	Hungry_Donkey_bar_English_2-139-1	60.017	8	1.0.0.18	1	-1102488946	Standard	2.0.10.353	2.0.10.353	03-28-2016		18:02:59	2.0.10.248	1	Bar100-0.bmp	100	2	?	10r_4g.bmp	0r_4g.bmp	2r_2g.bmp	0r_2g.bmp		0r_4g.bmp			TrialProc	TrialList	0	cvbn	-999999	26	50662	0	v	1078	51740	4	0	4	0	4	0	0	2	1	1	-10	0	-2	0	4	4	2	2	0	4
Hungry_Donkey_bar_English_2	139	1	<?xml version="1.0"?>\n<Clock xmlns:dt="urn:schemas-microsoft-com:datatypes"><Description dt:dt="string">E-Prime Primary Realtime Clock</Description><StartTime><Timestamp dt:dt="int">0</Timestamp><DateUtc dt:dt="string">2016-03-28T22:02:59Z</DateUtc></StartTime><FrequencyChanges><FrequencyChange><Frequency dt:dt="r8">3507685</Frequency><Timestamp dt:dt="r8">7486757258</Timestamp><Current dt:dt="r8">0</Current><DateUtc dt:dt="string">2016-03-28T22:02:59Z</DateUtc></FrequencyChange></FrequencyChanges></Clock>\n	Hungry_Donkey_bar_English_2-139-1	60.017	8	1.0.0.18	1	-1102488946	Standard	2.0.10.353	2.0.10.353	03-28-2016		18:02:59	2.0.10.248	2	Bar100-0.bmp	100	4	?	10r_4g.bmp	0r_4g.bmp	2r_2g.bmp	0r_2g.bmp				0r_2g.bmp	TrialProc	TrialList	0	cvbn	-999999	17	53778	0	n	1786	55564	6	0	6	0	4	0	2	3	1	2	-10	0	-2	0	4	4	2	2	0	2
Hungry_Donkey_bar_English_2	139	1	<?xml version="1.0"?>\n<Clock xmlns:dt="urn:schemas-microsoft-com:datatypes"><Description dt:dt="string">E-Prime Primary Realtime Clock</Description><StartTime><Timestamp dt:dt="int">0</Timestamp><DateUtc dt:dt="string">2016-03-28T22:02:59Z</DateUtc></StartTime><FrequencyChanges><FrequencyChange><Frequency dt:dt="r8">3507685</Frequency><Timestamp dt:dt="r8">7486757258</Timestamp><Current dt:dt="r8">0</Current><DateUtc dt:dt="string">2016-03-28T22:02:59Z</DateUtc></FrequencyChange></FrequencyChanges></Clock>\n	Hungry_Donkey_bar_English_2-139-1	60.017	8	1.0.0.18	1	-1102488946	Standard	2.0.10.353	2.0.10.353	03-28-2016		18:02:59	2.0.10.248	3	Bar100-0.bmp	100	2	?	0r_4g.bmp	0r_4g.bmp	0r_2g.bmp	0r_2g.bmp		0r_4g.bmp			TrialProc	TrialList	0	cvbn	-999999	16	57610	0	v	2050	59660	10	0	10	0	8	0	2	8	1	3	0	0	0	0	4	4	2	2	0	4
Hungry_Donkey_bar_English_2	139	1	<?xml version="1.0"?>\n<Clock xmlns:dt="urn:schemas-microsoft-com:datatypes"><Description dt:dt="string">E-Prime Primary Realtime Clock</Description><StartTime><Timestamp dt:dt="int">0</Timestamp><DateUtc dt:dt="string">2016-03-28T22:02:59Z</DateUtc></StartTime><FrequencyChanges><FrequencyChange><Frequency dt:dt="r8">3507685</Frequency><Timestamp dt:dt="r8">7486757258</Timestamp><Current dt:dt="r8">0</Current><DateUtc dt:dt="string">2016-03-28T22:02:59Z</DateUtc></FrequencyChange></FrequencyChanges></Clock>\n	Hungry_Donkey_bar_English_2-139-1	60.017	8	1.0.0.18	1	-1102488946	Standard	2.0.10.353	2.0.10.353	03-28-2016		18:02:59	2.0.10.248	4	Bar100-0.bmp	100	4	?	0r_4g.bmp	0r_4g.bmp	0r_2g.bmp	0r_2g.bmp				0r_2g.bmp	TrialProc	TrialList	0	cvbn	-999999	16	61692	0	n	992	62684	12	0	12	0	8	0	4	7	1	4	0	0	0	0	4	4	2	2	0	2
Hungry_Donkey_bar_English_2	139	1	<?xml version="1.0"?>\n<Clock xmlns:dt="urn:schemas-microsoft-com:datatypes"><Description dt:dt="string">E-Prime Primary Realtime Clock</Description><StartTime><Timestamp dt:dt="int">0</Timestamp><DateUtc dt:dt="string">2016-03-28T22:02:59Z</DateUtc></StartTime><FrequencyChanges><FrequencyChange><Frequency dt:dt="r8">3507685</Frequency><Timestamp dt:dt="r8">7486757258</Timestamp><Current dt:dt="r8">0</Current><DateUtc dt:dt="string">2016-03-28T22:02:59Z</DateUtc></FrequencyChange></FrequencyChanges></Clock>\n	Hungry_Donkey_bar_English_2-139-1	60.017	8	1.0.0.18	1	-1102488946	Standard	2.0.10.353	2.0.10.353	03-28-2016		18:02:59	2.0.10.248	5	Bar63-37.bmp	62	1	?	10r_4g.bmp	0r_4g.bmp	2r_2g.bmp	0r_2g.bmp	10r_4g.bmp				TrialProc	TrialList	0	cvbn	-999999	16	64708	0	c	1415	66123	16	-10	6	-6	8	0	4	4	1	5	-10	0	-2	0	4	4	2	2	-10	4
Hungry_Donkey_bar_English_2	139	1	<?xml version="1.0"?>\n<Clock xmlns:dt="urn:schemas-microsoft-com:datatypes"><Description dt:dt="string">E-Prime Primary Realtime Clock</Description><StartTime><Timestamp dt:dt="int">0</Timestamp><DateUtc dt:dt="string">2016-03-28T22:02:59Z</DateUtc></StartTime><FrequencyChanges><FrequencyChange><Frequency dt:dt="r8">3507685</Frequency><Timestamp dt:dt="r8">7486757258</Timestamp><Current dt:dt="r8">0</Current><DateUtc dt:dt="string">2016-03-28T22:02:59Z</DateUtc></FrequencyChange></FrequencyChanges></Clock>\n	Hungry_Donkey_bar_English_2-139-1	60.017	8	1.0.0.18	1	-1102488946	Standard	2.0.10.353	2.0.10.353	03-28-2016		18:02:59	2.0.10.248	6	Bar63-37.bmp	64	4	?	12r_4g.bmp	0r_4g.bmp	3r_2g.bmp	0r_2g.bmp				0r_2g.bmp	TrialProc	TrialList	0	cvbn	-999999	16	68157	0	n	2014	70171	18	-10	8	-6	8	0	6	5	1	6	-12	0	-3	0	4	4	2	2	0	2
Hungry_Donkey_bar_English_2	139	1	<?xml version="1.0"?>\n<Clock xmlns:dt="urn:schemas-microsoft-com:datatypes"><Description dt:dt="string">E-Prime Primary Realtime Clock</Description><StartTime><Timestamp dt:dt="int">0</Timestamp><DateUtc dt:dt="string">2016-03-28T22:02:59Z</DateUtc></StartTime><FrequencyChanges><FrequencyChange><Frequency dt:dt="r8">3507685</Frequency><Timestamp dt:dt="r8">7486757258</Timestamp><Current dt:dt="r8">0</Current><DateUtc dt:dt="string">2016-03-28T22:02:59Z</DateUtc></FrequencyChange></FrequencyChanges></Clock>\n	Hungry_Donkey_bar_English_2-139-1	60.017	8	1.0.0.18	1	-1102488946	Standard	2.0.10.353	2.0.10.353	03-28-2016		18:02:59	2.0.10.248	7	Bar63-37.bmp	67	3	?	0r_4g.bmp	0r_4g.bmp	0r_2g.bmp	0r_2g.bmp			0r_2g.bmp		TrialProc	TrialList	0	cvbn	-999999	17	72206	0	b	2621	74827	20	-10	10	-6	8	2	6	6	1	7	0	0	0	0	4	4	2	2	0	2
Hungry_Donkey_bar_English_2	139	1	<?xml version="1.0"?>\n<Clock xmlns:dt="urn:schemas-microsoft-com:datatypes"><Description dt:dt="string">E-Prime Primary Realtime Clock</Description><StartTime><Timestamp dt:dt="int">0</Timestamp><DateUtc dt:dt="string">2016-03-28T22:02:59Z</DateUtc></StartTime><FrequencyChanges><FrequencyChange><Frequency dt:dt="r8">3507685</Frequency><Timestamp dt:dt="r8">7486757258</Timestamp><Current dt:dt="r8">0</Current><DateUtc dt:dt="string">2016-03-28T22:02:59Z</DateUtc></FrequencyChange></FrequencyChanges></Clock>\n	Hungry_Donkey_bar_English_2-139-1	60.017	8	1.0.0.18	1	-1102488946	Standard	2.0.10.353	2.0.10.353	03-28-2016		18:02:59	2.0.10.248	8	Bar63-37.bmp	57	1	?	8r_4g.bmp	50r_4g.bmp	1r_2g.bmp	10r_2g.bmp	8r_4g.bmp				TrialProc	TrialList	0	cvbn	-999999	16	76854	0	c	1829	78683	24	-18	6	-10	8	2	6	1	1	8	-8	-50	-1	-10	4	4	2	2	-8	4
Hungry_Donkey_bar_English_2	139	1	<?xml version="1.0"?>\n<Clock xmlns:dt="urn:schemas-microsoft-com:datatypes"><Description dt:dt="string">E-Prime Primary Realtime Clock</Description><StartTime><Timestamp dt:dt="int">0</Timestamp><DateUtc dt:dt="string">2016-03-28T22:02:59Z</DateUtc></StartTime><FrequencyChanges><FrequencyChange><Frequency dt:dt="r8">3507685</Frequency><Timestamp dt:dt="r8">7486757258</Timestamp><Current dt:dt="r8">0</Current><DateUtc dt:dt="string">2016-03-28T22:02:59Z</DateUtc></FrequencyChange></FrequencyChanges></Clock>\n	Hungry_Donkey_bar_English_2-139-1	60.017	8	1.0.0.18	1	-1102488946	Standard	2.0.10.353	2.0.10.353	03-28-2016		18:02:59	2.0.10.248	9	Bar63-37.bmp	61	2	?	0r_4g.bmp	0r_4g.bmp	0r_2g.bmp	0r_2g.bmp		0r_4g.bmp			TrialProc	TrialList	0	cvbn	-999999	16	80720	0	v	635	81355	28	-18	10	-10	12	2	6	10	1	9	0	0	0	0	4	4	2	2	0	4
Hungry_Donkey_bar_English_2	139	1	<?xml version="1.0"?>\n<Clock xmlns:dt="urn:schemas-microsoft-com:datatypes"><Description dt:dt="string">E-Prime Primary Realtime Clock</Description><StartTime><Timestamp dt:dt="int">0</Timestamp><DateUtc dt:dt="string">2016-03-28T22:02:59Z</DateUtc></StartTime><FrequencyChanges><FrequencyChange><Frequency dt:dt="r8">3507685</Frequency><Timestamp dt:dt="r8">7486757258</Timestamp><Current dt:dt="r8">0</Current><DateUtc dt:dt="string">2016-03-28T22:02:59Z</DateUtc></FrequencyChange></FrequencyChanges></Clock>\n	Hungry_Donkey_bar_English_2-139-1	60.017	8	1.0.0.18	1	-1102488946	Standard	2.0.10.353	2.0.10.353	03-28-2016		18:02:59	2.0.10.248	10	Bar63-37.bmp	62	3	?	0r_4g.bmp	0r_4g.bmp	0r_2g.bmp	0r_2g.bmp			0r_2g.bmp		TrialProc	TrialList	0	cvbn	-999999	16	83386	0	b	993	84379	30	-18	12	-10	12	4	6	9	1	10	0	0	0	0	4	4	2	2	0	2
Hungry_Donkey_bar_English_2	139	1	<?xml version="1.0"?>\n<Clock xmlns:dt="urn:schemas-microsoft-com:datatypes"><Description dt:dt="string">E-Prime Primary Realtime Clock</Description><StartTime><Timestamp dt:dt="int">0</Timestamp><DateUtc dt:dt="string">2016-03-28T22:02:59Z</DateUtc></StartTime><FrequencyChanges><FrequencyChange><Frequency dt:dt="r8">3507685</Frequency><Timestamp dt:dt="r8">7486757258</Timestamp><Current dt:dt="r8">0</Current><DateUtc dt:dt="string">2016-03-28T22:02:59Z</DateUtc></FrequencyChange></FrequencyChanges></Clock>\n	Hungry_Donkey_bar_English_2-139-1	60.017	8	1.0.0.18	1	-1102488946	Standard	2.0.10.353	2.0.10.353	03-28-2016		18:02:59	2.0.10.248	11	Bar63-37.bmp	65	2	?	10r_4g.bmp	0r_4g.bmp	2r_2g.bmp	0r_2g.bmp		0r_4g.bmp			TrialProc	TrialList	0	cvbn	-999999	16	86418	0	v	1480	87898	34	-18	16	-10	16	4	6	4	2	11	-10	0	-2	0	4	4	2	2	0	4
Hungry_Donkey_bar_English_2	139	1	<?xml version="1.0"?>\n<Clock xmlns:dt="urn:schemas-microsoft-com:datatypes"><Description dt:dt="string">E-Prime Primary Realtime Clock</Description><StartTime><Timestamp dt:dt="int">0</Timestamp><DateUtc dt:dt="string">2016-03-28T22:02:59Z</DateUtc></StartTime><FrequencyChanges><FrequencyChange><Frequency dt:dt="r8">3507685</Frequency><Timestamp dt:dt="r8">7486757258</Timestamp><Current dt:dt="r8">0</Current><DateUtc dt:dt="string">2016-03-28T22:02:59Z</DateUtc></FrequencyChange></FrequencyChanges></Clock>\n	Hungry_Donkey_bar_English_2-139-1	60.017	8	1.0.0.18	1	-1102488946	Standard	2.0.10.353	2.0.10.353	03-28-2016		18:02:59	2.0.10.248	12	Bar63-37.bmp	67	4	?	0r_4g.bmp	0r_4g.bmp	0r_2g.bmp	0r_2g.bmp				0r_2g.bmp	TrialProc	TrialList	0	cvbn	-999999	16	89934	0	n	3020	92954	36	-18	18	-10	16	4	8	8	2	12	0	0	0	0	4	4	2	2	0	2
Hungry_Donkey_bar_English_2	139	1	<?xml version="1.0"?>\n<Clock xmlns:dt="urn:schemas-microsoft-com:datatypes"><Description dt:dt="string">E-Prime Primary Realtime Clock</Description><StartTime><Timestamp dt:dt="int">0</Timestamp><DateUtc dt:dt="string">2016-03-28T22:02:59Z</DateUtc></StartTime><FrequencyChanges><FrequencyChange><Frequency dt:dt="r8">3507685</Frequency><Timestamp dt:dt="r8">7486757258</Timestamp><Current dt:dt="r8">0</Current><DateUtc dt:dt="string">2016-03-28T22:02:59Z</DateUtc></FrequencyChange></FrequencyChanges></Clock>\n	Hungry_Donkey_bar_English_2-139-1	60.017	8	1.0.0.18	1	-1102488946	Standard	2.0.10.353	2.0.10.353	03-28-2016		18:02:59	2.0.10.248	13	Bar63-37.bmp	69	1	?	0r_4g.bmp	0r_4g.bmp	0r_2g.bmp	0r_2g.bmp	0r_4g.bmp				TrialProc	TrialList	0	cvbn	-999999	16	94982	0	c	868	95850	40	-18	22	-6	16	4	8	6	2	13	0	0	0	0	4	4	2	2	0	4
Hungry_Donkey_bar_English_2	139	1	<?xml version="1.0"?>\n<Clock xmlns:dt="urn:schemas-microsoft-com:datatypes"><Description dt:dt="string">E-Prime Primary Realtime Clock</Description><StartTime><Timestamp dt:dt="int">0</Timestamp><DateUtc dt:dt="string">2016-03-28T22:02:59Z</DateUtc></StartTime><FrequencyChanges><FrequencyChange><Frequency dt:dt="r8">3507685</Frequency><Timestamp dt:dt="r8">7486757258</Timestamp><Current dt:dt="r8">0</Current><DateUtc dt:dt="string">2016-03-28T22:02:59Z</DateUtc></FrequencyChange></FrequencyChanges></Clock>\n	Hungry_Donkey_bar_English_2-139-1	60.017	8	1.0.0.18	1	-1102488946	Standard	2.0.10.353	2.0.10.353	03-28-2016		18:02:59	2.0.10.248	14	Bar63-37.bmp	68	3	?	10r_4g.bmp	0r_4g.bmp	2r_2g.bmp	0r_2g.bmp			2r_2g.bmp		TrialProc	TrialList	0	cvbn	-999999	16	97881	0	b	993	98874	42	-20	22	-6	16	4	8	3	2	14	-10	0	-2	0	4	4	2	2	-2	2
Hungry_Donkey_bar_English_2	139	1	<?xml version="1.0"?>\n<Clock xmlns:dt="urn:schemas-microsoft-com:datatypes"><Description dt:dt="string">E-Prime Primary Realtime Clock</Description><StartTime><Timestamp dt:dt="int">0</Timestamp><DateUtc dt:dt="string">2016-03-28T22:02:59Z</DateUtc></StartTime><FrequencyChanges><FrequencyChange><Frequency dt:dt="r8">3507685</Frequency><Timestamp dt:dt="r8">7486757258</Timestamp><Current dt:dt="r8">0</Current><DateUtc dt:dt="string">2016-03-28T22:02:59Z</DateUtc></FrequencyChange></FrequencyChanges></Clock>\n	Hungry_Donkey_bar_English_2-139-1	60.017	8	1.0.0.18	1	-1102488946	Standard	2.0.10.353	2.0.10.353	03-28-2016		18:02:59	2.0.10.248	15	Bar63-37.bmp	62	1	?	8r_4g.bmp	50r_4g.bmp	1r_2g.bmp	10r_2g.bmp	8r_4g.bmp				TrialProc	TrialList	0	cvbn	-999999	16	100914	0	c	552	101466	46	-28	18	-10	16	4	8	1	2	15	-8	-50	-1	-10	4	4	2	2	-8	4
Hungry_Donkey_bar_English_2	139	1	<?xml version="1.0"?>\n<Clock xmlns:dt="urn:schemas-microsoft-com:datatypes"><Description dt:dt="string">E-Prime Primary Realtime Clock</Description><StartTime><Timestamp dt:dt="int">0</Timestamp><DateUtc dt:dt="string">2016-03-28T22:02:59Z</DateUtc></StartTime><FrequencyChanges><FrequencyChange><Frequency dt:dt="r8">3507685</Frequency><Timestamp dt:dt="r8">7486757258</Timestamp><Current dt:dt="r8">0</Current><DateUtc dt:dt="string">2016-03-28T22:02:59Z</DateUtc></FrequencyChange></FrequencyChanges></Clock>\n	Hungry_Donkey_bar_English_2-139-1	60.017	8	1.0.0.18	1	-1102488946	Standard	2.0.10.353	2.0.10.353	03-28-2016		18:02:59	2.0.10.248	16	Bar63-37.bmp	64	2	?	0r_4g.bmp	0r_4g.bmp	0r_2g.bmp	0r_2g.bmp		0r_4g.bmp			TrialProc	TrialList	0	cvbn	-999999	17	103497	0	v	1233	104730	50	-28	22	-10	20	4	8	9	2	16	0	0	0	0	4	4	2	2	0	4
Hungry_Donkey_bar_English_2	139	1	<?xml version="1.0"?>\n<Clock xmlns:dt="urn:schemas-microsoft-com:datatypes"><Description dt:dt="string">E-Prime Primary Realtime Clock</Description><StartTime><Timestamp dt:dt="int">0</Timestamp><DateUtc dt:dt="string">2016-03-28T22:02:59Z</DateUtc></StartTime><FrequencyChanges><FrequencyChange><Frequency dt:dt="r8">3507685</Frequency><Timestamp dt:dt="r8">7486757258</Timestamp><Current dt:dt="r8">0</Current><DateUtc dt:dt="string">2016-03-28T22:02:59Z</DateUtc></FrequencyChange></FrequencyChanges></Clock>\n	Hungry_Donkey_bar_English_2-139-1	60.017	8	1.0.0.18	1	-1102488946	Standard	2.0.10.353	2.0.10.353	03-28-2016		18:02:59	2.0.10.248	17	Bar63-37.bmp	65	3	?	0r_4g.bmp	0r_4g.bmp	0r_2g.bmp	0r_2g.bmp			0r_2g.bmp		TrialProc	TrialList	0	cvbn	-999999	16	106762	0	b	1199	107961	52	-28	24	-10	20	6	8	7	2	17	0	0	0	0	4	4	2	2	0	2
Hungry_Donkey_bar_English_2	139	1	<?xml version="1.0"?>\n<Clock xmlns:dt="urn:schemas-microsoft-com:datatypes"><Description dt:dt="string">E-Prime Primary Realtime Clock</Description><StartTime><Timestamp dt:dt="int">0</Timestamp><DateUtc dt:dt="string">2016-03-28T22:02:59Z</DateUtc></StartTime><FrequencyChanges><FrequencyChange><Frequency dt:dt="r8">3507685</Frequency><Timestamp dt:dt="r8">7486757258</Timestamp><Current dt:dt="r8">0</Current><DateUtc dt:dt="string">2016-03-28T22:02:59Z</DateUtc></FrequencyChange></FrequencyChanges></Clock>\n	Hungry_Donkey_bar_English_2-139-1	60.017	8	1.0.0.18	1	-1102488946	Standard	2.0.10.353	2.0.10.353	03-28-2016		18:02:59	2.0.10.248	18	Bar63-37.bmp	66	4	?	12r_4g.bmp	0r_4g.bmp	3r_2g.bmp	0r_2g.bmp				0r_2g.bmp	TrialProc	TrialList	0	cvbn	-999999	16	109995	0	n	2430	112425	54	-28	26	-10	20	6	10	5	2	18	-12	0	-3	0	4	4	2	2	0	2
Hungry_Donkey_bar_English_2	139	1	<?xml version="1.0"?>\n<Clock xmlns:dt="urn:schemas-microsoft-com:datatypes"><Description dt:dt="string">E-Prime Primary Realtime Clock</Description><StartTime><Timestamp dt:dt="int">0</Timestamp><DateUtc dt:dt="string">2016-03-28T22:02:59Z</DateUtc></StartTime><FrequencyChanges><FrequencyChange><Frequency dt:dt="r8">3507685</Frequency><Timestamp dt:dt="r8">7486757258</Timestamp><Current dt:dt="r8">0</Current><DateUtc dt:dt="string">2016-03-28T22:02:59Z</DateUtc></FrequencyChange></FrequencyChanges></Clock>\n	Hungry_Donkey_bar_English_2-139-1	60.017	8	1.0.0.18	1	-1102488946	Standard	2.0.10.353	2.0.10.353	03-28-2016		18:02:59	2.0.10.248	19	Bar63-37.bmp	60	1	?	10r_4g.bmp	0r_4g.bmp	2r_2g.bmp	0r_2g.bmp	10r_4g.bmp				TrialProc	TrialList	0	cvbn	-999999	16	114460	0	c	1885	116345	58	-38	20	-16	20	6	10	2	2	19	-10	0	-2	0	4	4	2	2	-10	4
Hungry_Donkey_bar_English_2	139	1	<?xml version="1.0"?>\n<Clock xmlns:dt="urn:schemas-microsoft-com:datatypes"><Description dt:dt="string">E-Prime Primary Realtime Clock</Description><StartTime><Timestamp dt:dt="int">0</Timestamp><DateUtc dt:dt="string">2016-03-28T22:02:59Z</DateUtc></StartTime><FrequencyChanges><FrequencyChange><Frequency dt:dt="r8">3507685</Frequency><Timestamp dt:dt="r8">7486757258</Timestamp><Current dt:dt="r8">0</Current><DateUtc dt:dt="string">2016-03-28T22:02:59Z</DateUtc></FrequencyChange></FrequencyChanges></Clock>\n	Hungry_Donkey_bar_English_2-139-1	60.017	8	1.0.0.18	1	-1102488946	Standard	2.0.10.353	2.0.10.353	03-28-2016		18:02:59	2.0.10.248	20	Bar63-37.bmp	61	4	?	0r_4g.bmp	0r_4g.bmp	0r_2g.bmp	0r_2g.bmp				0r_2g.bmp	TrialProc	TrialList	0	cvbn	-999999	17	118376	0	n	1425	119801	60	-38	22	-16	20	6	12	10	2	20	0	0	0	0	4	4	2	2	0	2
Hungry_Donkey_bar_English_2	139	1	<?xml version="1.0"?>\n<Clock xmlns:dt="urn:schemas-microsoft-com:datatypes"><Description dt:dt="string">E-Prime Primary Realtime Clock</Description><StartTime><Timestamp dt:dt="int">0</Timestamp><DateUtc dt:dt="string">2016-03-28T22:02:59Z</DateUtc></StartTime><FrequencyChanges><FrequencyChange><Frequency dt:dt="r8">3507685</Frequency><Timestamp dt:dt="r8">7486757258</Timestamp><Current dt:dt="r8">0</Current><DateUtc dt:dt="string">2016-03-28T22:02:59Z</DateUtc></FrequencyChange></FrequencyChanges></Clock>\n	Hungry_Donkey_bar_English_2-139-1	60.017	8	1.0.0.18	1	-1102488946	Standard	2.0.10.353	2.0.10.353	03-28-2016		18:02:59	2.0.10.248	21	Bar63-37.bmp	63	2	?	0r_4g.bmp	0r_4g.bmp	0r_2g.bmp	0r_2g.bmp		0r_4g.bmp			TrialProc	TrialList	0	cvbn	-999999	16	121841	0	v	792	122633	64	-38	26	-16	24	6	12	9	3	21	0	0	0	0	4	4	2	2	0	4
Hungry_Donkey_bar_English_2	139	1	<?xml version="1.0"?>\n<Clock xmlns:dt="urn:schemas-microsoft-com:datatypes"><Description dt:dt="string">E-Prime Primary Realtime Clock</Description><StartTime><Timestamp dt:dt="int">0</Timestamp><DateUtc dt:dt="string">2016-03-28T22:02:59Z</DateUtc></StartTime><FrequencyChanges><FrequencyChange><Frequency dt:dt="r8">3507685</Frequency><Timestamp dt:dt="r8">7486757258</Timestamp><Current dt:dt="r8">0</Current><DateUtc dt:dt="string">2016-03-28T22:02:59Z</DateUtc></FrequencyChange></FrequencyChanges></Clock>\n	Hungry_Donkey_bar_English_2-139-1	60.017	8	1.0.0.18	1	-1102488946	Standard	2.0.10.353	2.0.10.353	03-28-2016		18:02:59	2.0.10.248	22	Bar63-37.bmp	63	4	?	0r_4g.bmp	0r_4g.bmp	0r_2g.bmp	0r_2g.bmp				0r_2g.bmp	TrialProc	TrialList	0	cvbn	-999999	16	124657	0	n	503	125160	66	-38	28	-16	24	6	14	10	3	22	0	0	0	0	4	4	2	2	0	2
Hungry_Donkey_bar_English_2	139	1	<?xml version="1.0"?>\n<Clock xmlns:dt="urn:schemas-microsoft-com:datatypes"><Description dt:dt="string">E-Prime Primary Realtime Clock</Description><StartTime><Timestamp dt:dt="int">0</Timestamp><DateUtc dt:dt="string">2016-03-28T22:02:59Z</DateUtc></StartTime><FrequencyChanges><FrequencyChange><Frequency dt:dt="r8">3507685</Frequency><Timestamp dt:dt="r8">7486757258</Timestamp><Current dt:dt="r8">0</Current><DateUtc dt:dt="string">2016-03-28T22:02:59Z</DateUtc></FrequencyChange></FrequencyChanges></Clock>\n	Hungry_Donkey_bar_English_2-139-1	60.017	8	1.0.0.18	1	-1102488946	Standard	2.0.10.353	2.0.10.353	03-28-2016		18:02:59	2.0.10.248	23	Bar63-37.bmp	63	3	?	10r_4g.bmp	0r_4g.bmp	2r_2g.bmp	0r_2g.bmp			2r_2g.bmp		TrialProc	TrialList	0	cvbn	-999999	16	127190	0	b	322	127512	68	-40	28	-16	24	6	14	2	3	23	-10	0	-2	0	4	4	2	2	-2	2
Hungry_Donkey_bar_English_2	139	1	<?xml version="1.0"?>\n<Clock xmlns:dt="urn:schemas-microsoft-com:datatypes"><Description dt:dt="string">E-Prime Primary Realtime Clock</Description><StartTime><Timestamp dt:dt="int">0</Timestamp><DateUtc dt:dt="string">2016-03-28T22:02:59Z</DateUtc></StartTime><FrequencyChanges><FrequencyChange><Frequency dt:dt="r8">3507685</Frequency><Timestamp dt:dt="r8">7486757258</Timestamp><Current dt:dt="r8">0</Current><DateUtc dt:dt="string">2016-03-28T22:02:59Z</DateUtc></FrequencyChange></FrequencyChanges></Clock>\n	Hungry_Donkey_bar_English_2-139-1	60.017	8	1.0.0.18	1	-1102488946	Standard	2.0.10.353	2.0.10.353	03-28-2016		18:02:59	2.0.10.248	24	Bar63-37.bmp	64	2	?	10r_4g.bmp	0r_4g.bmp	2r_2g.bmp	0r_2g.bmp		0r_4g.bmp			TrialProc	TrialList	0	cvbn	-999999	16	129539	0	v	309	129848	72	-40	32	-16	28	6	14	3	3	24	-10	0	-2	0	4	4	2	2	0	4
Hungry_Donkey_bar_English_2	139	1	<?xml version="1.0"?>\n<Clock xmlns:dt="urn:schemas-microsoft-com:datatypes"><Description dt:dt="string">E-Prime Primary Realtime Clock</Description><StartTime><Timestamp dt:dt="int">0</Timestamp><DateUtc dt:dt="string">2016-03-28T22:02:59Z</DateUtc></StartTime><FrequencyChanges><FrequencyChange><Frequency dt:dt="r8">3507685</Frequency><Timestamp dt:dt="r8">7486757258</Timestamp><Current dt:dt="r8">0</Current><DateUtc dt:dt="string">2016-03-28T22:02:59Z</DateUtc></FrequencyChange></FrequencyChanges></Clock>\n	Hungry_Donkey_bar_English_2-139-1	60.017	8	1.0.0.18	1	-1102488946	Standard	2.0.10.353	2.0.10.353	03-28-2016		18:02:59	2.0.10.248	25	Bar63-37.bmp	60	4	?	8r_4g.bmp	50r_4g.bmp	1r_2g.bmp	10r_2g.bmp				10r_2g.bmp	TrialProc	TrialList	0	cvbn	-999999	16	131888	0	n	1768	133656	74	-50	24	-16	28	6	6	1	3	25	-8	-50	-1	-10	4	4	2	2	-10	2
Hungry_Donkey_bar_English_2	139	1	<?xml version="1.0"?>\n<Clock xmlns:dt="urn:schemas-microsoft-com:datatypes"><Description dt:dt="string">E-Prime Primary Realtime Clock</Description><StartTime><Timestamp dt:dt="int">0</Timestamp><DateUtc dt:dt="string">2016-03-28T22:02:59Z</DateUtc></StartTime><FrequencyChanges><FrequencyChange><Frequency dt:dt="r8">3507685</Frequency><Timestamp dt:dt="r8">7486757258</Timestamp><Current dt:dt="r8">0</Current><DateUtc dt:dt="string">2016-03-28T22:02:59Z</DateUtc></FrequencyChange></FrequencyChanges></Clock>\n	Hungry_Donkey_bar_English_2-139-1	60.017	8	1.0.0.18	1	-1102488946	Standard	2.0.10.353	2.0.10.353	03-28-2016		18:02:59	2.0.10.248	26	Bar63-37.bmp	61	2	?	0r_4g.bmp	0r_4g.bmp	0r_2g.bmp	0r_2g.bmp		0r_4g.bmp			TrialProc	TrialList	0	cvbn	-999999	16	135687	0	v	385	136072	78	-50	28	-16	32	6	6	6	3	26	0	0	0	0	4	4	2	2	0	4
Hungry_Donkey_bar_English_2	139	1	<?xml version="1.0"?>\n<Clock xmlns:dt="urn:schemas-microsoft-com:datatypes"><Description dt:dt="string">E-Prime Primary Realtime Clock</Description><StartTime><Timestamp dt:dt="int">0</Timestamp><DateUtc dt:dt="string">2016-03-28T22:02:59Z</DateUtc></StartTime><FrequencyChanges><FrequencyChange><Frequency dt:dt="r8">3507685</Frequency><Timestamp dt:dt="r8">7486757258</Timestamp><Current dt:dt="r8">0</Current><DateUtc dt:dt="string">2016-03-28T22:02:59Z</DateUtc></FrequencyChange></FrequencyChanges></Clock>\n	Hungry_Donkey_bar_English_2-139-1	60.017	8	1.0.0.18	1	-1102488946	Standard	2.0.10.353	2.0.10.353	03-28-2016		18:02:59	2.0.10.248	27	Bar63-37.bmp	61	3	?	10r_4g.bmp	0r_4g.bmp	2r_2g.bmp	0r_2g.bmp			2r_2g.bmp		TrialProc	TrialList	0	cvbn	-999999	16	138103	0	b	449	138552	80	-52	28	-16	32	6	6	4	3	27	-10	0	-2	0	4	4	2	2	-2	2
Hungry_Donkey_bar_English_2	139	1	<?xml version="1.0"?>\n<Clock xmlns:dt="urn:schemas-microsoft-com:datatypes"><Description dt:dt="string">E-Prime Primary Realtime Clock</Description><StartTime><Timestamp dt:dt="int">0</Timestamp><DateUtc dt:dt="string">2016-03-28T22:02:59Z</DateUtc></StartTime><FrequencyChanges><FrequencyChange><Frequency dt:dt="r8">3507685</Frequency><Timestamp dt:dt="r8">7486757258</Timestamp><Current dt:dt="r8">0</Current><DateUtc dt:dt="string">2016-03-28T22:02:59Z</DateUtc></FrequencyChange></FrequencyChanges></Clock>\n	Hungry_Donkey_bar_English_2-139-1	60.017	8	1.0.0.18	1	-1102488946	Standard	2.0.10.353	2.0.10.353	03-28-2016		18:02:59	2.0.10.248	28	Bar63-37.bmp	57	1	?	12r_4g.bmp	0r_4g.bmp	3r_2g.bmp	0r_2g.bmp	12r_4g.bmp				TrialProc	TrialList	0	cvbn	-999999	16	140586	0	c	254	140840	84	-64	20	-24	32	6	6	5	3	28	-12	0	-3	0	4	4	2	2	-12	4
Hungry_Donkey_bar_English_2	139	1	<?xml version="1.0"?>\n<Clock xmlns:dt="urn:schemas-microsoft-com:datatypes"><Description dt:dt="string">E-Prime Primary Realtime Clock</Description><StartTime><Timestamp dt:dt="int">0</Timestamp><DateUtc dt:dt="string">2016-03-28T22:02:59Z</DateUtc></StartTime><FrequencyChanges><FrequencyChange><Frequency dt:dt="r8">3507685</Frequency><Timestamp dt:dt="r8">7486757258</Timestamp><Current dt:dt="r8">0</Current><DateUtc dt:dt="string">2016-03-28T22:02:59Z</DateUtc></FrequencyChange></FrequencyChanges></Clock>\n	Hungry_Donkey_bar_English_2-139-1	60.017	8	1.0.0.18	1	-1102488946	Standard	2.0.10.353	2.0.10.353	03-28-2016		18:02:59	2.0.10.248	29	Bar63-37.bmp	58	2	?	0r_4g.bmp	0r_4g.bmp	0r_2g.bmp	0r_2g.bmp		0r_4g.bmp			TrialProc	TrialList	0	cvbn	-999999	15	142868	0	v	692	143560	88	-64	24	-24	36	6	6	7	3	29	0	0	0	0	4	4	2	2	0	4
Hungry_Donkey_bar_English_2	139	1	<?xml version="1.0"?>\n<Clock xmlns:dt="urn:schemas-microsoft-com:datatypes"><Description dt:dt="string">E-Prime Primary Realtime Clock</Description><StartTime><Timestamp dt:dt="int">0</Timestamp><DateUtc dt:dt="string">2016-03-28T22:02:59Z</DateUtc></StartTime><FrequencyChanges><FrequencyChange><Frequency dt:dt="r8">3507685</Frequency><Timestamp dt:dt="r8">7486757258</Timestamp><Current dt:dt="r8">0</Current><DateUtc dt:dt="string">2016-03-28T22:02:59Z</DateUtc></FrequencyChange></FrequencyChanges></Clock>\n	Hungry_Donkey_bar_English_2-139-1	60.017	8	1.0.0.18	1	-1102488946	Standard	2.0.10.353	2.0.10.353	03-28-2016		18:02:59	2.0.10.248	30	Bar63-37.bmp	58	3	?	0r_4g.bmp	0r_4g.bmp	0r_2g.bmp	0r_2g.bmp			0r_2g.bmp		TrialProc	TrialList	0	cvbn	-999999	16	145584	0	b	583	146167	90	-64	26	-24	36	8	6	8	3	30	0	0	0	0	4	4	2	2	0	2
Hungry_Donkey_bar_English_2	139	1	<?xml version="1.0"?>\n<Clock xmlns:dt="urn:schemas-microsoft-com:datatypes"><Description dt:dt="string">E-Prime Primary Realtime Clock</Description><StartTime><Timestamp dt:dt="int">0</Timestamp><DateUtc dt:dt="string">2016-03-28T22:02:59Z</DateUtc></StartTime><FrequencyChanges><FrequencyChange><Frequency dt:dt="r8">3507685</Frequency><Timestamp dt:dt="r8">7486757258</Timestamp><Current dt:dt="r8">0</Current><DateUtc dt:dt="string">2016-03-28T22:02:59Z</DateUtc></FrequencyChange></FrequencyChanges></Clock>\n	Hungry_Donkey_bar_English_2-139-1	60.017	8	1.0.0.18	1	-1102488946	Standard	2.0.10.353	2.0.10.353	03-28-2016		18:02:59	2.0.10.248	31	Bar63-37.bmp	59	4	?	0r_4g.bmp	0r_4g.bmp	0r_2g.bmp	0r_2g.bmp				0r_2g.bmp	TrialProc	TrialList	0	cvbn	-999999	16	148200	0	n	543	148743	92	-64	28	-24	36	8	8	7	4	31	0	0	0	0	4	4	2	2	0	2
Hungry_Donkey_bar_English_2	139	1	<?xml version="1.0"?>\n<Clock xmlns:dt="urn:schemas-microsoft-com:datatypes"><Description dt:dt="string">E-Prime Primary Realtime Clock</Description><StartTime><Timestamp dt:dt="int">0</Timestamp><DateUtc dt:dt="string">2016-03-28T22:02:59Z</DateUtc></StartTime><FrequencyChanges><FrequencyChange><Frequency dt:dt="r8">3507685</Frequency><Timestamp dt:dt="r8">7486757258</Timestamp><Current dt:dt="r8">0</Current><DateUtc dt:dt="string">2016-03-28T22:02:59Z</DateUtc></FrequencyChange></FrequencyChanges></Clock>\n	Hungry_Donkey_bar_English_2-139-1	60.017	8	1.0.0.18	1	-1102488946	Standard	2.0.10.353	2.0.10.353	03-28-2016		18:02:59	2.0.10.248	32	Bar63-37.bmp	60	1	?	0r_4g.bmp	0r_4g.bmp	0r_2g.bmp	0r_2g.bmp	0r_4g.bmp				TrialProc	TrialList	0	cvbn	-999999	16	150783	0	c	1160	151943	96	-64	32	-20	36	8	8	6	4	32	0	0	0	0	4	4	2	2	0	4
Hungry_Donkey_bar_English_2	139	1	<?xml version="1.0"?>\n<Clock xmlns:dt="urn:schemas-microsoft-com:datatypes"><Description dt:dt="string">E-Prime Primary Realtime Clock</Description><StartTime><Timestamp dt:dt="int">0</Timestamp><DateUtc dt:dt="string">2016-03-28T22:02:59Z</DateUtc></StartTime><FrequencyChanges><FrequencyChange><Frequency dt:dt="r8">3507685</Frequency><Timestamp dt:dt="r8">7486757258</Timestamp><Current dt:dt="r8">0</Current><DateUtc dt:dt="string">2016-03-28T22:02:59Z</DateUtc></FrequencyChange></FrequencyChanges></Clock>\n	Hungry_Donkey_bar_English_2-139-1	60.017	8	1.0.0.18	1	-1102488946	Standard	2.0.10.353	2.0.10.353	03-28-2016		18:02:59	2.0.10.248	33	Bar63-37.bmp	61	2	?	10r_4g.bmp	0r_4g.bmp	2r_2g.bmp	0r_2g.bmp		0r_4g.bmp			TrialProc	TrialList	0	cvbn	-999999	16	153982	0	v	761	154743	100	-64	36	-20	40	8	8	4	4	33	-10	0	-2	0	4	4	2	2	0	4
Hungry_Donkey_bar_English_2	139	1	<?xml version="1.0"?>\n<Clock xmlns:dt="urn:schemas-microsoft-com:datatypes"><Description dt:dt="string">E-Prime Primary Realtime Clock</Description><StartTime><Timestamp dt:dt="int">0</Timestamp><DateUtc dt:dt="string">2016-03-28T22:02:59Z</DateUtc></StartTime><FrequencyChanges><FrequencyChange><Frequency dt:dt="r8">3507685</Frequency><Timestamp dt:dt="r8">7486757258</Timestamp><Current dt:dt="r8">0</Current><DateUtc dt:dt="string">2016-03-28T22:02:59Z</DateUtc></FrequencyChange></FrequencyChanges></Clock>\n	Hungry_Donkey_bar_English_2-139-1	60.017	8	1.0.0.18	1	-1102488946	Standard	2.0.10.353	2.0.10.353	03-28-2016		18:02:59	2.0.10.248	34	Bar63-37.bmp	61	3	?	0r_4g.bmp	0r_4g.bmp	0r_2g.bmp	0r_2g.bmp			0r_2g.bmp		TrialProc	TrialList	0	cvbn	-999999	16	156781	0	b	1370	158151	102	-64	38	-20	40	10	8	9	4	34	0	0	0	0	4	4	2	2	0	2
Hungry_Donkey_bar_English_2	139	1	<?xml version="1.0"?>\n<Clock xmlns:dt="urn:schemas-microsoft-com:datatypes"><Description dt:dt="string">E-Prime Primary Realtime Clock</Description><StartTime><Timestamp dt:dt="int">0</Timestamp><DateUtc dt:dt="string">2016-03-28T22:02:59Z</DateUtc></StartTime><FrequencyChanges><FrequencyChange><Frequency dt:dt="r8">3507685</Frequency><Timestamp dt:dt="r8">7486757258</Timestamp><Current dt:dt="r8">0</Current><DateUtc dt:dt="string">2016-03-28T22:02:59Z</DateUtc></FrequencyChange></FrequencyChanges></Clock>\n	Hungry_Donkey_bar_English_2-139-1	60.017	8	1.0.0.18	1	-1102488946	Standard	2.0.10.353	2.0.10.353	03-28-2016		18:02:59	2.0.10.248	35	Bar63-37.bmp	58	4	?	8r_4g.bmp	50r_4g.bmp	1r_2g.bmp	10r_2g.bmp				10r_2g.bmp	TrialProc	TrialList	0	cvbn	-999999	16	160180	0	n	1171	161351	104	-74	30	-20	40	10	0	1	4	35	-8	-50	-1	-10	4	4	2	2	-10	2
Hungry_Donkey_bar_English_2	139	1	<?xml version="1.0"?>\n<Clock xmlns:dt="urn:schemas-microsoft-com:datatypes"><Description dt:dt="string">E-Prime Primary Realtime Clock</Description><StartTime><Timestamp dt:dt="int">0</Timestamp><DateUtc dt:dt="string">2016-03-28T22:02:59Z</DateUtc></StartTime><FrequencyChanges><FrequencyChange><Frequency dt:dt="r8">3507685</Frequency><Timestamp dt:dt="r8">7486757258</Timestamp><Current dt:dt="r8">0</Current><DateUtc dt:dt="string">2016-03-28T22:02:59Z</DateUtc></FrequencyChange></FrequencyChanges></Clock>\n	Hungry_Donkey_bar_English_2-139-1	60.017	8	1.0.0.18	1	-1102488946	Standard	2.0.10.353	2.0.10.353	03-28-2016		18:02:59	2.0.10.248	36	Bar63-37.bmp	59	2	?	0r_4g.bmp	0r_4g.bmp	0r_2g.bmp	0r_2g.bmp		0r_4g.bmp			TrialProc	TrialList	0	cvbn	-999999	16	163379	0	v	995	164374	108	-74	34	-20	44	10	0	8	4	36	0	0	0	0	4	4	2	2	0	4
Hungry_Donkey_bar_English_2	139	1	<?xml version="1.0"?>\n<Clock xmlns:dt="urn:schemas-microsoft-com:datatypes"><Description dt:dt="string">E-Prime Primary Realtime Clock</Description><StartTime><Timestamp dt:dt="int">0</Timestamp><DateUtc dt:dt="string">2016-03-28T22:02:59Z</DateUtc></StartTime><FrequencyChanges><FrequencyChange><Frequency dt:dt="r8">3507685</Frequency><Timestamp dt:dt="r8">7486757258</Timestamp><Current dt:dt="r8">0</Current><DateUtc dt:dt="string">2016-03-28T22:02:59Z</DateUtc></FrequencyChange></FrequencyChanges></Clock>\n	Hungry_Donkey_bar_English_2-139-1	60.017	8	1.0.0.18	1	-1102488946	Standard	2.0.10.353	2.0.10.353	03-28-2016		18:02:59	2.0.10.248	37	Bar63-37.bmp	60	3	?	0r_4g.bmp	0r_4g.bmp	0r_2g.bmp	0r_2g.bmp			0r_2g.bmp		TrialProc	TrialList	0	cvbn	-999999	16	166412	0	b	538	166950	110	-74	36	-20	44	12	0	10	4	37	0	0	0	0	4	4	2	2	0	2
Hungry_Donkey_bar_English_2	139	1	<?xml version="1.0"?>\n<Clock xmlns:dt="urn:schemas-microsoft-com:datatypes"><Description dt:dt="string">E-Prime Primary Realtime Clock</Description><StartTime><Timestamp dt:dt="int">0</Timestamp><DateUtc dt:dt="string">2016-03-28T22:02:59Z</DateUtc></StartTime><FrequencyChanges><FrequencyChange><Frequency dt:dt="r8">3507685</Frequency><Timestamp dt:dt="r8">7486757258</Timestamp><Current dt:dt="r8">0</Current><DateUtc dt:dt="string">2016-03-28T22:02:59Z</DateUtc></FrequencyChange></FrequencyChanges></Clock>\n	Hungry_Donkey_bar_English_2-139-1	60.017	8	1.0.0.18	1	-1102488946	Standard	2.0.10.353	2.0.10.353	03-28-2016		18:02:59	2.0.10.248	38	Bar63-37.bmp	58	1	?	10r_4g.bmp	0r_4g.bmp	2r_2g.bmp	0r_2g.bmp	10r_4g.bmp				TrialProc	TrialList	0	cvbn	-999999	16	168978	0	c	468	169446	114	-84	30	-26	44	12	0	3	4	38	-10	0	-2	0	4	4	2	2	-10	4
Hungry_Donkey_bar_English_2	139	1	<?xml version="1.0"?>\n<Clock xmlns:dt="urn:schemas-microsoft-com:datatypes"><Description dt:dt="string">E-Prime Primary Realtime Clock</Description><StartTime><Timestamp dt:dt="int">0</Timestamp><DateUtc dt:dt="string">2016-03-28T22:02:59Z</DateUtc></StartTime><FrequencyChanges><FrequencyChange><Frequency dt:dt="r8">3507685</Frequency><Timestamp dt:dt="r8">7486757258</Timestamp><Current dt:dt="r8">0</Current><DateUtc dt:dt="string">2016-03-28T22:02:59Z</DateUtc></FrequencyChange></FrequencyChanges></Clock>\n	Hungry_Donkey_bar_English_2-139-1	60.017	8	1.0.0.18	1	-1102488946	Standard	2.0.10.353	2.0.10.353	03-28-2016		18:02:59	2.0.10.248	39	Bar63-37.bmp	57	3	?	12r_4g.bmp	0r_4g.bmp	3r_2g.bmp	0r_2g.bmp			3r_2g.bmp		TrialProc	TrialList	0	cvbn	-999999	16	171477	0	b	545	172022	116	-87	29	-26	44	11	0	5	4	39	-12	0	-3	0	4	4	2	2	-3	2
Hungry_Donkey_bar_English_2	139	1	<?xml version="1.0"?>\n<Clock xmlns:dt="urn:schemas-microsoft-com:datatypes"><Description dt:dt="string">E-Prime Primary Realtime Clock</Description><StartTime><Timestamp dt:dt="int">0</Timestamp><DateUtc dt:dt="string">2016-03-28T22:02:59Z</DateUtc></StartTime><FrequencyChanges><FrequencyChange><Frequency dt:dt="r8">3507685</Frequency><Timestamp dt:dt="r8">7486757258</Timestamp><Current dt:dt="r8">0</Current><DateUtc dt:dt="string">2016-03-28T22:02:59Z</DateUtc></FrequencyChange></FrequencyChanges></Clock>\n	Hungry_Donkey_bar_English_2-139-1	60.017	8	1.0.0.18	1	-1102488946	Standard	2.0.10.353	2.0.10.353	03-28-2016		18:02:59	2.0.10.248	40	Bar63-37.bmp	58	2	?	10r_4g.bmp	0r_4g.bmp	2r_2g.bmp	0r_2g.bmp		0r_4g.bmp			TrialProc	TrialList	0	cvbn	-999999	16	174059	0	v	315	174374	120	-87	33	-26	48	11	0	2	4	40	-10	0	-2	0	4	4	2	2	0	4
Hungry_Donkey_bar_English_2	139	1	<?xml version="1.0"?>\n<Clock xmlns:dt="urn:schemas-microsoft-com:datatypes"><Description dt:dt="string">E-Prime Primary Realtime Clock</Description><StartTime><Timestamp dt:dt="int">0</Timestamp><DateUtc dt:dt="string">2016-03-28T22:02:59Z</DateUtc></StartTime><FrequencyChanges><FrequencyChange><Frequency dt:dt="r8">3507685</Frequency><Timestamp dt:dt="r8">7486757258</Timestamp><Current dt:dt="r8">0</Current><DateUtc dt:dt="string">2016-03-28T22:02:59Z</DateUtc></FrequencyChange></FrequencyChanges></Clock>\n	Hungry_Donkey_bar_English_2-139-1	60.017	8	1.0.0.18	1	-1102488946	Standard	2.0.10.353	2.0.10.353	03-28-2016		18:02:59	2.0.10.248	41	Bar63-37.bmp	58	4	?	0r_4g.bmp	0r_4g.bmp	0r_2g.bmp	0r_2g.bmp				0r_2g.bmp	TrialProc	TrialList	0	cvbn	-999999	16	176409	0	n	493	176902	122	-87	35	-26	48	11	2	9	5	41	0	0	0	0	4	4	2	2	0	2
Hungry_Donkey_bar_English_2	139	1	<?xml version="1.0"?>\n<Clock xmlns:dt="urn:schemas-microsoft-com:datatypes"><Description dt:dt="string">E-Prime Primary Realtime Clock</Description><StartTime><Timestamp dt:dt="int">0</Timestamp><DateUtc dt:dt="string">2016-03-28T22:02:59Z</DateUtc></StartTime><FrequencyChanges><FrequencyChange><Frequency dt:dt="r8">3507685</Frequency><Timestamp dt:dt="r8">7486757258</Timestamp><Current dt:dt="r8">0</Current><DateUtc dt:dt="string">2016-03-28T22:02:59Z</DateUtc></FrequencyChange></FrequencyChanges></Clock>\n	Hungry_Donkey_bar_English_2-139-1	60.017	8	1.0.0.18	1	-1102488946	Standard	2.0.10.353	2.0.10.353	03-28-2016		18:02:59	2.0.10.248	42	Bar63-37.bmp	59	2	?	0r_4g.bmp	0r_4g.bmp	0r_2g.bmp	0r_2g.bmp		0r_4g.bmp			TrialProc	TrialList	0	cvbn	-999999	16	178941	0	v	345	179286	126	-87	39	-26	52	11	2	7	5	42	0	0	0	0	4	4	2	2	0	4
Hungry_Donkey_bar_English_2	139	1	<?xml version="1.0"?>\n<Clock xmlns:dt="urn:schemas-microsoft-com:datatypes"><Description dt:dt="string">E-Prime Primary Realtime Clock</Description><StartTime><Timestamp dt:dt="int">0</Timestamp><DateUtc dt:dt="string">2016-03-28T22:02:59Z</DateUtc></StartTime><FrequencyChanges><FrequencyChange><Frequency dt:dt="r8">3507685</Frequency><Timestamp dt:dt="r8">7486757258</Timestamp><Current dt:dt="r8">0</Current><DateUtc dt:dt="string">2016-03-28T22:02:59Z</DateUtc></FrequencyChange></FrequencyChanges></Clock>\n	Hungry_Donkey_bar_English_2-139-1	60.017	8	1.0.0.18	1	-1102488946	Standard	2.0.10.353	2.0.10.353	03-28-2016		18:02:59	2.0.10.248	43	Bar63-37.bmp	60	3	?	0r_4g.bmp	0r_4g.bmp	0r_2g.bmp	0r_2g.bmp			0r_2g.bmp		TrialProc	TrialList	0	cvbn	-999999	16	181324	0	b	538	181862	128	-87	41	-26	52	13	2	6	5	43	0	0	0	0	4	4	2	2	0	2
Hungry_Donkey_bar_English_2	139	1	<?xml version="1.0"?>\n<Clock xmlns:dt="urn:schemas-microsoft-com:datatypes"><Description dt:dt="string">E-Prime Primary Realtime Clock</Description><StartTime><Timestamp dt:dt="int">0</Timestamp><DateUtc dt:dt="string">2016-03-28T22:02:59Z</DateUtc></StartTime><FrequencyChanges><FrequencyChange><Frequency dt:dt="r8">3507685</Frequency><Timestamp dt:dt="r8">7486757258</Timestamp><Current dt:dt="r8">0</Current><DateUtc dt:dt="string">2016-03-28T22:02:59Z</DateUtc></FrequencyChange></FrequencyChanges></Clock>\n	Hungry_Donkey_bar_English_2-139-1	60.017	8	1.0.0.18	1	-1102488946	Standard	2.0.10.353	2.0.10.353	03-28-2016		18:02:59	2.0.10.248	44	Bar63-37.bmp	60	1	?	0r_4g.bmp	0r_4g.bmp	0r_2g.bmp	0r_2g.bmp	0r_4g.bmp				TrialProc	TrialList	0	cvbn	-999999	16	183890	0	c	675	184565	132	-87	45	-22	52	13	2	10	5	44	0	0	0	0	4	4	2	2	0	4
Hungry_Donkey_bar_English_2	139	1	<?xml version="1.0"?>\n<Clock xmlns:dt="urn:schemas-microsoft-com:datatypes"><Description dt:dt="string">E-Prime Primary Realtime Clock</Description><StartTime><Timestamp dt:dt="int">0</Timestamp><DateUtc dt:dt="string">2016-03-28T22:02:59Z</DateUtc></StartTime><FrequencyChanges><FrequencyChange><Frequency dt:dt="r8">3507685</Frequency><Timestamp dt:dt="r8">7486757258</Timestamp><Current dt:dt="r8">0</Current><DateUtc dt:dt="string">2016-03-28T22:02:59Z</DateUtc></FrequencyChange></FrequencyChanges></Clock>\n	Hungry_Donkey_bar_English_2-139-1	60.017	8	1.0.0.18	1	-1102488946	Standard	2.0.10.353	2.0.10.353	03-28-2016		18:02:59	2.0.10.248	45	Bar63-37.bmp	61	4	?	10r_4g.bmp	0r_4g.bmp	2r_2g.bmp	0r_2g.bmp				0r_2g.bmp	TrialProc	TrialList	0	cvbn	-999999	16	186589	0	n	264	186853	134	-87	47	-22	52	13	4	3	5	45	-10	0	-2	0	4	4	2	2	0	2
Hungry_Donkey_bar_English_2	139	1	<?xml version="1.0"?>\n<Clock xmlns:dt="urn:schemas-microsoft-com:datatypes"><Description dt:dt="string">E-Prime Primary Realtime Clock</Description><StartTime><Timestamp dt:dt="int">0</Timestamp><DateUtc dt:dt="string">2016-03-28T22:02:59Z</DateUtc></StartTime><FrequencyChanges><FrequencyChange><Frequency dt:dt="r8">3507685</Frequency><Timestamp dt:dt="r8">7486757258</Timestamp><Current dt:dt="r8">0</Current><DateUtc dt:dt="string">2016-03-28T22:02:59Z</DateUtc></FrequencyChange></FrequencyChanges></Clock>\n	Hungry_Donkey_bar_English_2-139-1	60.017	8	1.0.0.18	1	-1102488946	Standard	2.0.10.353	2.0.10.353	03-28-2016		18:02:59	2.0.10.248	46	Bar63-37.bmp	61	2	?	10r_4g.bmp	0r_4g.bmp	2r_2g.bmp	0r_2g.bmp		0r_4g.bmp			TrialProc	TrialList	0	cvbn	-999999	17	188889	0	v	364	189253	138	-87	51	-22	56	13	4	4	5	46	-10	0	-2	0	4	4	2	2	0	4
Hungry_Donkey_bar_English_2	139	1	<?xml version="1.0"?>\n<Clock xmlns:dt="urn:schemas-microsoft-com:datatypes"><Description dt:dt="string">E-Prime Primary Realtime Clock</Description><StartTime><Timestamp dt:dt="int">0</Timestamp><DateUtc dt:dt="string">2016-03-28T22:02:59Z</DateUtc></StartTime><FrequencyChanges><FrequencyChange><Frequency dt:dt="r8">3507685</Frequency><Timestamp dt:dt="r8">7486757258</Timestamp><Current dt:dt="r8">0</Current><DateUtc dt:dt="string">2016-03-28T22:02:59Z</DateUtc></FrequencyChange></FrequencyChanges></Clock>\n	Hungry_Donkey_bar_English_2-139-1	60.017	8	1.0.0.18	1	-1102488946	Standard	2.0.10.353	2.0.10.353	03-28-2016		18:02:59	2.0.10.248	47	Bar63-37.bmp	62	4	?	12r_4g.bmp	0r_4g.bmp	3r_2g.bmp	0r_2g.bmp				0r_2g.bmp	TrialProc	TrialList	0	cvbn	-999999	16	191288	0	n	397	191685	140	-87	53	-22	56	13	6	5	5	47	-12	0	-3	0	4	4	2	2	0	2
Hungry_Donkey_bar_English_2	139	1	<?xml version="1.0"?>\n<Clock xmlns:dt="urn:schemas-microsoft-com:datatypes"><Description dt:dt="string">E-Prime Primary Realtime Clock</Description><StartTime><Timestamp dt:dt="int">0</Timestamp><DateUtc dt:dt="string">2016-03-28T22:02:59Z</DateUtc></StartTime><FrequencyChanges><FrequencyChange><Frequency dt:dt="r8">3507685</Frequency><Timestamp dt:dt="r8">7486757258</Timestamp><Current dt:dt="r8">0</Current><DateUtc dt:dt="string">2016-03-28T22:02:59Z</DateUtc></FrequencyChange></FrequencyChanges></Clock>\n	Hungry_Donkey_bar_English_2-139-1	60.017	8	1.0.0.18	1	-1102488946	Standard	2.0.10.353	2.0.10.353	03-28-2016		18:02:59	2.0.10.248	48	Bar63-37.bmp	62	3	?	0r_4g.bmp	0r_4g.bmp	0r_2g.bmp	0r_2g.bmp			0r_2g.bmp		TrialProc	TrialList	0	cvbn	-999999	16	193720	0	b	317	194037	142	-87	55	-22	56	15	6	8	5	48	0	0	0	0	4	4	2	2	0	2
Hungry_Donkey_bar_English_2	139	1	<?xml version="1.0"?>\n<Clock xmlns:dt="urn:schemas-microsoft-com:datatypes"><Description dt:dt="string">E-Prime Primary Realtime Clock</Description><StartTime><Timestamp dt:dt="int">0</Timestamp><DateUtc dt:dt="string">2016-03-28T22:02:59Z</DateUtc></StartTime><FrequencyChanges><FrequencyChange><Frequency dt:dt="r8">3507685</Frequency><Timestamp dt:dt="r8">7486757258</Timestamp><Current dt:dt="r8">0</Current><DateUtc dt:dt="string">2016-03-28T22:02:59Z</DateUtc></FrequencyChange></FrequencyChanges></Clock>\n	Hungry_Donkey_bar_English_2-139-1	60.017	8	1.0.0.18	1	-1102488946	Standard	2.0.10.353	2.0.10.353	03-28-2016		18:02:59	2.0.10.248	49	Bar63-37.bmp	60	1	?	10r_4g.bmp	0r_4g.bmp	2r_2g.bmp	0r_2g.bmp	10r_4g.bmp				TrialProc	TrialList	0	cvbn	-999999	16	196070	0	c	319	196389	146	-97	49	-28	56	15	6	2	5	49	-10	0	-2	0	4	4	2	2	-10	4
Hungry_Donkey_bar_English_2	139	1	<?xml version="1.0"?>\n<Clock xmlns:dt="urn:schemas-microsoft-com:datatypes"><Description dt:dt="string">E-Prime Primary Realtime Clock</Description><StartTime><Timestamp dt:dt="int">0</Timestamp><DateUtc dt:dt="string">2016-03-28T22:02:59Z</DateUtc></StartTime><FrequencyChanges><FrequencyChange><Frequency dt:dt="r8">3507685</Frequency><Timestamp dt:dt="r8">7486757258</Timestamp><Current dt:dt="r8">0</Current><DateUtc dt:dt="string">2016-03-28T22:02:59Z</DateUtc></FrequencyChange></FrequencyChanges></Clock>\n	Hungry_Donkey_bar_English_2-139-1	60.017	8	1.0.0.18	1	-1102488946	Standard	2.0.10.353	2.0.10.353	03-28-2016		18:02:59	2.0.10.248	50	Bar63-37.bmp	60	3	?	8r_4g.bmp	50r_4g.bmp	1r_2g.bmp	10r_2g.bmp			1r_2g.bmp		TrialProc	TrialList	0	cvbn	-999999	16	198419	0	b	402	198821	148	-98	50	-28	56	16	6	1	5	50	-8	-50	-1	-10	4	4	2	2	-1	2
Hungry_Donkey_bar_English_2	139	1	<?xml version="1.0"?>\n<Clock xmlns:dt="urn:schemas-microsoft-com:datatypes"><Description dt:dt="string">E-Prime Primary Realtime Clock</Description><StartTime><Timestamp dt:dt="int">0</Timestamp><DateUtc dt:dt="string">2016-03-28T22:02:59Z</DateUtc></StartTime><FrequencyChanges><FrequencyChange><Frequency dt:dt="r8">3507685</Frequency><Timestamp dt:dt="r8">7486757258</Timestamp><Current dt:dt="r8">0</Current><DateUtc dt:dt="string">2016-03-28T22:02:59Z</DateUtc></FrequencyChange></FrequencyChanges></Clock>\n	Hungry_Donkey_bar_English_2-139-1	60.017	8	1.0.0.18	1	-1102488946	Standard	2.0.10.353	2.0.10.353	03-28-2016		18:02:59	2.0.10.248	51	Bar63-37.bmp	58	1	?	10r_4g.bmp	0r_4g.bmp	2r_2g.bmp	0r_2g.bmp	10r_4g.bmp				TrialProc	TrialList	0	cvbn	-999999	16	200852	0	c	705	201557	152	-108	44	-34	56	16	6	4	6	51	-10	0	-2	0	4	4	2	2	-10	4
Hungry_Donkey_bar_English_2	139	1	<?xml version="1.0"?>\n<Clock xmlns:dt="urn:schemas-microsoft-com:datatypes"><Description dt:dt="string">E-Prime Primary Realtime Clock</Description><StartTime><Timestamp dt:dt="int">0</Timestamp><DateUtc dt:dt="string">2016-03-28T22:02:59Z</DateUtc></StartTime><FrequencyChanges><FrequencyChange><Frequency dt:dt="r8">3507685</Frequency><Timestamp dt:dt="r8">7486757258</Timestamp><Current dt:dt="r8">0</Current><DateUtc dt:dt="string">2016-03-28T22:02:59Z</DateUtc></FrequencyChange></FrequencyChanges></Clock>\n	Hungry_Donkey_bar_English_2-139-1	60.017	8	1.0.0.18	1	-1102488946	Standard	2.0.10.353	2.0.10.353	03-28-2016		18:02:59	2.0.10.248	52	Bar63-37.bmp	59	2	?	0r_4g.bmp	0r_4g.bmp	0r_2g.bmp	0r_2g.bmp		0r_4g.bmp			TrialProc	TrialList	0	cvbn	-999999	16	203584	0	v	468	204052	156	-108	48	-34	60	16	6	6	6	52	0	0	0	0	4	4	2	2	0	4
Hungry_Donkey_bar_English_2	139	1	<?xml version="1.0"?>\n<Clock xmlns:dt="urn:schemas-microsoft-com:datatypes"><Description dt:dt="string">E-Prime Primary Realtime Clock</Description><StartTime><Timestamp dt:dt="int">0</Timestamp><DateUtc dt:dt="string">2016-03-28T22:02:59Z</DateUtc></StartTime><FrequencyChanges><FrequencyChange><Frequency dt:dt="r8">3507685</Frequency><Timestamp dt:dt="r8">7486757258</Timestamp><Current dt:dt="r8">0</Current><DateUtc dt:dt="string">2016-03-28T22:02:59Z</DateUtc></FrequencyChange></FrequencyChanges></Clock>\n	Hungry_Donkey_bar_English_2-139-1	60.017	8	1.0.0.18	1	-1102488946	Standard	2.0.10.353	2.0.10.353	03-28-2016		18:02:59	2.0.10.248	53	Bar63-37.bmp	59	4	?	0r_4g.bmp	0r_4g.bmp	0r_2g.bmp	0r_2g.bmp				0r_2g.bmp	TrialProc	TrialList	0	cvbn	-999999	17	206084	0	n	1776	207860	158	-108	50	-34	60	16	8	9	6	53	0	0	0	0	4	4	2	2	0	2
Hungry_Donkey_bar_English_2	139	1	<?xml version="1.0"?>\n<Clock xmlns:dt="urn:schemas-microsoft-com:datatypes"><Description dt:dt="string">E-Prime Primary Realtime Clock</Description><StartTime><Timestamp dt:dt="int">0</Timestamp><DateUtc dt:dt="string">2016-03-28T22:02:59Z</DateUtc></StartTime><FrequencyChanges><FrequencyChange><Frequency dt:dt="r8">3507685</Frequency><Timestamp dt:dt="r8">7486757258</Timestamp><Current dt:dt="r8">0</Current><DateUtc dt:dt="string">2016-03-28T22:02:59Z</DateUtc></FrequencyChange></FrequencyChanges></Clock>\n	Hungry_Donkey_bar_English_2-139-1	60.017	8	1.0.0.18	1	-1102488946	Standard	2.0.10.353	2.0.10.353	03-28-2016		18:02:59	2.0.10.248	54	Bar63-37.bmp	60	2	?	12r_4g.bmp	0r_4g.bmp	3r_2g.bmp	0r_2g.bmp		0r_4g.bmp			TrialProc	TrialList	0	cvbn	-999999	16	209899	0	v	681	210580	162	-108	54	-34	64	16	8	5	6	54	-12	0	-3	0	4	4	2	2	0	4
Hungry_Donkey_bar_English_2	139	1	<?xml version="1.0"?>\n<Clock xmlns:dt="urn:schemas-microsoft-com:datatypes"><Description dt:dt="string">E-Prime Primary Realtime Clock</Description><StartTime><Timestamp dt:dt="int">0</Timestamp><DateUtc dt:dt="string">2016-03-28T22:02:59Z</DateUtc></StartTime><FrequencyChanges><FrequencyChange><Frequency dt:dt="r8">3507685</Frequency><Timestamp dt:dt="r8">7486757258</Timestamp><Current dt:dt="r8">0</Current><DateUtc dt:dt="string">2016-03-28T22:02:59Z</DateUtc></FrequencyChange></FrequencyChanges></Clock>\n	Hungry_Donkey_bar_English_2-139-1	60.017	8	1.0.0.18	1	-1102488946	Standard	2.0.10.353	2.0.10.353	03-28-2016		18:02:59	2.0.10.248	55	Bar63-37.bmp	60	3	?	10r_4g.bmp	0r_4g.bmp	2r_2g.bmp	0r_2g.bmp			2r_2g.bmp		TrialProc	TrialList	0	cvbn	-999999	16	212615	0	b	317	212932	164	-110	54	-34	64	16	8	3	6	55	-10	0	-2	0	4	4	2	2	-2	2
Hungry_Donkey_bar_English_2	139	1	<?xml version="1.0"?>\n<Clock xmlns:dt="urn:schemas-microsoft-com:datatypes"><Description dt:dt="string">E-Prime Primary Realtime Clock</Description><StartTime><Timestamp dt:dt="int">0</Timestamp><DateUtc dt:dt="string">2016-03-28T22:02:59Z</DateUtc></StartTime><FrequencyChanges><FrequencyChange><Frequency dt:dt="r8">3507685</Frequency><Timestamp dt:dt="r8">7486757258</Timestamp><Current dt:dt="r8">0</Current><DateUtc dt:dt="string">2016-03-28T22:02:59Z</DateUtc></FrequencyChange></FrequencyChanges></Clock>\n	Hungry_Donkey_bar_English_2-139-1	60.017	8	1.0.0.18	1	-1102488946	Standard	2.0.10.353	2.0.10.353	03-28-2016		18:02:59	2.0.10.248	56	Bar63-37.bmp	60	1	?	0r_4g.bmp	0r_4g.bmp	0r_2g.bmp	0r_2g.bmp	0r_4g.bmp				TrialProc	TrialList	0	cvbn	-999999	16	214964	0	c	736	215700	168	-110	58	-30	64	16	8	7	6	56	0	0	0	0	4	4	2	2	0	4
Hungry_Donkey_bar_English_2	139	1	<?xml version="1.0"?>\n<Clock xmlns:dt="urn:schemas-microsoft-com:datatypes"><Description dt:dt="string">E-Prime Primary Realtime Clock</Description><StartTime><Timestamp dt:dt="int">0</Timestamp><DateUtc dt:dt="string">2016-03-28T22:02:59Z</DateUtc></StartTime><FrequencyChanges><FrequencyChange><Frequency dt:dt="r8">3507685</Frequency><Timestamp dt:dt="r8">7486757258</Timestamp><Current dt:dt="r8">0</Current><DateUtc dt:dt="string">2016-03-28T22:02:59Z</DateUtc></FrequencyChange></FrequencyChanges></Clock>\n	Hungry_Donkey_bar_English_2-139-1	60.017	8	1.0.0.18	1	-1102488946	Standard	2.0.10.353	2.0.10.353	03-28-2016		18:02:59	2.0.10.248	57	Bar63-37.bmp	61	2	?	10r_4g.bmp	0r_4g.bmp	2r_2g.bmp	0r_2g.bmp		0r_4g.bmp			TrialProc	TrialList	0	cvbn	-999999	16	217730	0	v	546	218276	172	-110	62	-30	68	16	8	2	6	57	-10	0	-2	0	4	4	2	2	0	4
Hungry_Donkey_bar_English_2	139	1	<?xml version="1.0"?>\n<Clock xmlns:dt="urn:schemas-microsoft-com:datatypes"><Description dt:dt="string">E-Prime Primary Realtime Clock</Description><StartTime><Timestamp dt:dt="int">0</Timestamp><DateUtc dt:dt="string">2016-03-28T22:02:59Z</DateUtc></StartTime><FrequencyChanges><FrequencyChange><Frequency dt:dt="r8">3507685</Frequency><Timestamp dt:dt="r8">7486757258</Timestamp><Current dt:dt="r8">0</Current><DateUtc dt:dt="string">2016-03-28T22:02:59Z</DateUtc></FrequencyChange></FrequencyChanges></Clock>\n	Hungry_Donkey_bar_English_2-139-1	60.017	8	1.0.0.18	1	-1102488946	Standard	2.0.10.353	2.0.10.353	03-28-2016		18:02:59	2.0.10.248	58	Bar63-37.bmp	61	3	?	8r_4g.bmp	50r_4g.bmp	1r_2g.bmp	10r_2g.bmp			1r_2g.bmp		TrialProc	TrialList	0	cvbn	-999999	16	220313	0	b	443	220756	174	-111	63	-30	68	17	8	1	6	58	-8	-50	-1	-10	4	4	2	2	-1	2
Hungry_Donkey_bar_English_2	139	1	<?xml version="1.0"?>\n<Clock xmlns:dt="urn:schemas-microsoft-com:datatypes"><Description dt:dt="string">E-Prime Primary Realtime Clock</Description><StartTime><Timestamp dt:dt="int">0</Timestamp><DateUtc dt:dt="string">2016-03-28T22:02:59Z</DateUtc></StartTime><FrequencyChanges><FrequencyChange><Frequency dt:dt="r8">3507685</Frequency><Timestamp dt:dt="r8">7486757258</Timestamp><Current dt:dt="r8">0</Current><DateUtc dt:dt="string">2016-03-28T22:02:59Z</DateUtc></FrequencyChange></FrequencyChanges></Clock>\n	Hungry_Donkey_bar_English_2-139-1	60.017	8	1.0.0.18	1	-1102488946	Standard	2.0.10.353	2.0.10.353	03-28-2016		18:02:59	2.0.10.248	59	Bar63-37.bmp	61	4	?	0r_4g.bmp	0r_4g.bmp	0r_2g.bmp	0r_2g.bmp				0r_2g.bmp	TrialProc	TrialList	0	cvbn	-999999	16	222795	0	n	632	223427	176	-111	65	-30	68	17	10	8	6	59	0	0	0	0	4	4	2	2	0	2
Hungry_Donkey_bar_English_2	139	1	<?xml version="1.0"?>\n<Clock xmlns:dt="urn:schemas-microsoft-com:datatypes"><Description dt:dt="string">E-Prime Primary Realtime Clock</Description><StartTime><Timestamp dt:dt="int">0</Timestamp><DateUtc dt:dt="string">2016-03-28T22:02:59Z</DateUtc></StartTime><FrequencyChanges><FrequencyChange><Frequency dt:dt="r8">3507685</Frequency><Timestamp dt:dt="r8">7486757258</Timestamp><Current dt:dt="r8">0</Current><DateUtc dt:dt="string">2016-03-28T22:02:59Z</DateUtc></FrequencyChange></FrequencyChanges></Clock>\n	Hungry_Donkey_bar_English_2-139-1	60.017	8	1.0.0.18	1	-1102488946	Standard	2.0.10.353	2.0.10.353	03-28-2016		18:02:59	2.0.10.248	60	Bar63-37.bmp	62	1	?	0r_4g.bmp	0r_4g.bmp	0r_2g.bmp	0r_2g.bmp	0r_4g.bmp				TrialProc	TrialList	0	cvbn	-999999	16	225461	0	c	398	225859	180	-111	69	-26	68	17	10	10	6	60	0	0	0	0	4	4	2	2	0	4
Hungry_Donkey_bar_English_2	139	1	<?xml version="1.0"?>\n<Clock xmlns:dt="urn:schemas-microsoft-com:datatypes"><Description dt:dt="string">E-Prime Primary Realtime Clock</Description><StartTime><Timestamp dt:dt="int">0</Timestamp><DateUtc dt:dt="string">2016-03-28T22:02:59Z</DateUtc></StartTime><FrequencyChanges><FrequencyChange><Frequency dt:dt="r8">3507685</Frequency><Timestamp dt:dt="r8">7486757258</Timestamp><Current dt:dt="r8">0</Current><DateUtc dt:dt="string">2016-03-28T22:02:59Z</DateUtc></FrequencyChange></FrequencyChanges></Clock>\n	Hungry_Donkey_bar_English_2-139-1	60.017	8	1.0.0.18	1	-1102488946	Standard	2.0.10.353	2.0.10.353	03-28-2016		18:02:59	2.0.10.248	61	Bar63-37.bmp	62	2	?	0r_4g.bmp	0r_4g.bmp	0r_2g.bmp	0r_2g.bmp		0r_4g.bmp			TrialProc	TrialList	0	cvbn	-999999	16	227894	0	v	349	228243	184	-111	73	-26	72	17	10	6	7	61	0	0	0	0	4	4	2	2	0	4
Hungry_Donkey_bar_English_2	139	1	<?xml version="1.0"?>\n<Clock xmlns:dt="urn:schemas-microsoft-com:datatypes"><Description dt:dt="string">E-Prime Primary Realtime Clock</Description><StartTime><Timestamp dt:dt="int">0</Timestamp><DateUtc dt:dt="string">2016-03-28T22:02:59Z</DateUtc></StartTime><FrequencyChanges><FrequencyChange><Frequency dt:dt="r8">3507685</Frequency><Timestamp dt:dt="r8">7486757258</Timestamp><Current dt:dt="r8">0</Current><DateUtc dt:dt="string">2016-03-28T22:02:59Z</DateUtc></FrequencyChange></FrequencyChanges></Clock>\n	Hungry_Donkey_bar_English_2-139-1	60.017	8	1.0.0.18	1	-1102488946	Standard	2.0.10.353	2.0.10.353	03-28-2016		18:02:59	2.0.10.248	62	Bar63-37.bmp	62	3	?	10r_4g.bmp	0r_4g.bmp	2r_2g.bmp	0r_2g.bmp			2r_2g.bmp		TrialProc	TrialList	0	cvbn	-999999	16	230277	0	b	478	230755	186	-113	73	-26	72	17	10	2	7	62	-10	0	-2	0	4	4	2	2	-2	2
Hungry_Donkey_bar_English_2	139	1	<?xml version="1.0"?>\n<Clock xmlns:dt="urn:schemas-microsoft-com:datatypes"><Description dt:dt="string">E-Prime Primary Realtime Clock</Description><StartTime><Timestamp dt:dt="int">0</Timestamp><DateUtc dt:dt="string">2016-03-28T22:02:59Z</DateUtc></StartTime><FrequencyChanges><FrequencyChange><Frequency dt:dt="r8">3507685</Frequency><Timestamp dt:dt="r8">7486757258</Timestamp><Current dt:dt="r8">0</Current><DateUtc dt:dt="string">2016-03-28T22:02:59Z</DateUtc></FrequencyChange></FrequencyChanges></Clock>\n	Hungry_Donkey_bar_English_2-139-1	60.017	8	1.0.0.18	1	-1102488946	Standard	2.0.10.353	2.0.10.353	03-28-2016		18:02:59	2.0.10.248	63	Bar63-37.bmp	61	1	?	10r_4g.bmp	0r_4g.bmp	2r_2g.bmp	0r_2g.bmp	10r_4g.bmp				TrialProc	TrialList	0	cvbn	-999999	17	232793	0	c	730	233523	190	-123	67	-32	72	17	10	3	7	63	-10	0	-2	0	4	4	2	2	-10	4
Hungry_Donkey_bar_English_2	139	1	<?xml version="1.0"?>\n<Clock xmlns:dt="urn:schemas-microsoft-com:datatypes"><Description dt:dt="string">E-Prime Primary Realtime Clock</Description><StartTime><Timestamp dt:dt="int">0</Timestamp><DateUtc dt:dt="string">2016-03-28T22:02:59Z</DateUtc></StartTime><FrequencyChanges><FrequencyChange><Frequency dt:dt="r8">3507685</Frequency><Timestamp dt:dt="r8">7486757258</Timestamp><Current dt:dt="r8">0</Current><DateUtc dt:dt="string">2016-03-28T22:02:59Z</DateUtc></FrequencyChange></FrequencyChanges></Clock>\n	Hungry_Donkey_bar_English_2-139-1	60.017	8	1.0.0.18	1	-1102488946	Standard	2.0.10.353	2.0.10.353	03-28-2016		18:02:59	2.0.10.248	64	Bar63-37.bmp	61	2	?	0r_4g.bmp	0r_4g.bmp	0r_2g.bmp	0r_2g.bmp		0r_4g.bmp			TrialProc	TrialList	0	cvbn	-999999	16	235558	0	v	717	236275	194	-123	71	-32	76	17	10	9	7	64	0	0	0	0	4	4	2	2	0	4
Hungry_Donkey_bar_English_2	139	1	<?xml version="1.0"?>\n<Clock xmlns:dt="urn:schemas-microsoft-com:datatypes"><Description dt:dt="string">E-Prime Primary Realtime Clock</Description><StartTime><Timestamp dt:dt="int">0</Timestamp><DateUtc dt:dt="string">2016-03-28T22:02:59Z</DateUtc></StartTime><FrequencyChanges><FrequencyChange><Frequency dt:dt="r8">3507685</Frequency><Timestamp dt:dt="r8">7486757258</Timestamp><Current dt:dt="r8">0</Current><DateUtc dt:dt="string">2016-03-28T22:02:59Z</DateUtc></FrequencyChange></FrequencyChanges></Clock>\n	Hungry_Donkey_bar_English_2-139-1	60.017	8	1.0.0.18	1	-1102488946	Standard	2.0.10.353	2.0.10.353	03-28-2016		18:02:59	2.0.10.248	65	Bar63-37.bmp	61	3	?	0r_4g.bmp	0r_4g.bmp	0r_2g.bmp	0r_2g.bmp			0r_2g.bmp		TrialProc	TrialList	0	cvbn	-999999	16	238308	0	b	959	239267	196	-123	73	-32	76	19	10	7	7	65	0	0	0	0	4	4	2	2	0	2
Hungry_Donkey_bar_English_2	139	1	<?xml version="1.0"?>\n<Clock xmlns:dt="urn:schemas-microsoft-com:datatypes"><Description dt:dt="string">E-Prime Primary Realtime Clock</Description><StartTime><Timestamp dt:dt="int">0</Timestamp><DateUtc dt:dt="string">2016-03-28T22:02:59Z</DateUtc></StartTime><FrequencyChanges><FrequencyChange><Frequency dt:dt="r8">3507685</Frequency><Timestamp dt:dt="r8">7486757258</Timestamp><Current dt:dt="r8">0</Current><DateUtc dt:dt="string">2016-03-28T22:02:59Z</DateUtc></FrequencyChange></FrequencyChanges></Clock>\n	Hungry_Donkey_bar_English_2-139-1	60.017	8	1.0.0.18	1	-1102488946	Standard	2.0.10.353	2.0.10.353	03-28-2016		18:02:59	2.0.10.248	66	Bar63-37.bmp	62	4	?	0r_4g.bmp	0r_4g.bmp	0r_2g.bmp	0r_2g.bmp				0r_2g.bmp	TrialProc	TrialList	0	cvbn	-999999	16	241307	0	n	536	241843	198	-123	75	-32	76	19	12	10	7	66	0	0	0	0	4	4	2	2	0	2
Hungry_Donkey_bar_English_2	139	1	<?xml version="1.0"?>\n<Clock xmlns:dt="urn:schemas-microsoft-com:datatypes"><Description dt:dt="string">E-Prime Primary Realtime Clock</Description><StartTime><Timestamp dt:dt="int">0</Timestamp><DateUtc dt:dt="string">2016-03-28T22:02:59Z</DateUtc></StartTime><FrequencyChanges><FrequencyChange><Frequency dt:dt="r8">3507685</Frequency><Timestamp dt:dt="r8">7486757258</Timestamp><Current dt:dt="r8">0</Current><DateUtc dt:dt="string">2016-03-28T22:02:59Z</DateUtc></FrequencyChange></FrequencyChanges></Clock>\n	Hungry_Donkey_bar_English_2-139-1	60.017	8	1.0.0.18	1	-1102488946	Standard	2.0.10.353	2.0.10.353	03-28-2016		18:02:59	2.0.10.248	67	Bar63-37.bmp	62	2	?	0r_4g.bmp	0r_4g.bmp	0r_2g.bmp	0r_2g.bmp		0r_4g.bmp			TrialProc	TrialList	0	cvbn	-999999	16	243873	0	v	497	244370	202	-123	79	-32	80	19	12	8	7	67	0	0	0	0	4	4	2	2	0	4
Hungry_Donkey_bar_English_2	139	1	<?xml version="1.0"?>\n<Clock xmlns:dt="urn:schemas-microsoft-com:datatypes"><Description dt:dt="string">E-Prime Primary Realtime Clock</Description><StartTime><Timestamp dt:dt="int">0</Timestamp><DateUtc dt:dt="string">2016-03-28T22:02:59Z</DateUtc></StartTime><FrequencyChanges><FrequencyChange><Frequency dt:dt="r8">3507685</Frequency><Timestamp dt:dt="r8">7486757258</Timestamp><Current dt:dt="r8">0</Current><DateUtc dt:dt="string">2016-03-28T22:02:59Z</DateUtc></FrequencyChange></FrequencyChanges></Clock>\n	Hungry_Donkey_bar_English_2-139-1	60.017	8	1.0.0.18	1	-1102488946	Standard	2.0.10.353	2.0.10.353	03-28-2016		18:02:59	2.0.10.248	68	Bar63-37.bmp	62	3	?	12r_4g.bmp	0r_4g.bmp	3r_2g.bmp	0r_2g.bmp			3r_2g.bmp		TrialProc	TrialList	0	cvbn	-999999	16	246405	0	b	733	247138	204	-126	78	-32	80	18	12	5	7	68	-12	0	-3	0	4	4	2	2	-3	2
Hungry_Donkey_bar_English_2	139	1	<?xml version="1.0"?>\n<Clock xmlns:dt="urn:schemas-microsoft-com:datatypes"><Description dt:dt="string">E-Prime Primary Realtime Clock</Description><StartTime><Timestamp dt:dt="int">0</Timestamp><DateUtc dt:dt="string">2016-03-28T22:02:59Z</DateUtc></StartTime><FrequencyChanges><FrequencyChange><Frequency dt:dt="r8">3507685</Frequency><Timestamp dt:dt="r8">7486757258</Timestamp><Current dt:dt="r8">0</Current><DateUtc dt:dt="string">2016-03-28T22:02:59Z</DateUtc></FrequencyChange></FrequencyChanges></Clock>\n	Hungry_Donkey_bar_English_2-139-1	60.017	8	1.0.0.18	1	-1102488946	Standard	2.0.10.353	2.0.10.353	03-28-2016		18:02:59	2.0.10.248	69	Bar63-37.bmp	60	4	?	8r_4g.bmp	50r_4g.bmp	1r_2g.bmp	10r_2g.bmp				10r_2g.bmp	TrialProc	TrialList	0	cvbn	-999999	16	249171	0	n	1119	250290	206	-136	70	-32	80	18	4	1	7	69	-8	-50	-1	-10	4	4	2	2	-10	2
Hungry_Donkey_bar_English_2	139	1	<?xml version="1.0"?>\n<Clock xmlns:dt="urn:schemas-microsoft-com:datatypes"><Description dt:dt="string">E-Prime Primary Realtime Clock</Description><StartTime><Timestamp dt:dt="int">0</Timestamp><DateUtc dt:dt="string">2016-03-28T22:02:59Z</DateUtc></StartTime><FrequencyChanges><FrequencyChange><Frequency dt:dt="r8">3507685</Frequency><Timestamp dt:dt="r8">7486757258</Timestamp><Current dt:dt="r8">0</Current><DateUtc dt:dt="string">2016-03-28T22:02:59Z</DateUtc></FrequencyChange></FrequencyChanges></Clock>\n	Hungry_Donkey_bar_English_2-139-1	60.017	8	1.0.0.18	1	-1102488946	Standard	2.0.10.353	2.0.10.353	03-28-2016		18:02:59	2.0.10.248	70	Bar63-37.bmp	61	2	?	10r_4g.bmp	0r_4g.bmp	2r_2g.bmp	0r_2g.bmp		0r_4g.bmp			TrialProc	TrialList	0	cvbn	-999999	16	252320	0	v	546	252866	210	-136	74	-32	84	18	4	4	7	70	-10	0	-2	0	4	4	2	2	0	4
Hungry_Donkey_bar_English_2	139	1	<?xml version="1.0"?>\n<Clock xmlns:dt="urn:schemas-microsoft-com:datatypes"><Description dt:dt="string">E-Prime Primary Realtime Clock</Description><StartTime><Timestamp dt:dt="int">0</Timestamp><DateUtc dt:dt="string">2016-03-28T22:02:59Z</DateUtc></StartTime><FrequencyChanges><FrequencyChange><Frequency dt:dt="r8">3507685</Frequency><Timestamp dt:dt="r8">7486757258</Timestamp><Current dt:dt="r8">0</Current><DateUtc dt:dt="string">2016-03-28T22:02:59Z</DateUtc></FrequencyChange></FrequencyChanges></Clock>\n	Hungry_Donkey_bar_English_2-139-1	60.017	8	1.0.0.18	1	-1102488946	Standard	2.0.10.353	2.0.10.353	03-28-2016		18:02:59	2.0.10.248	71	Bar63-37.bmp	61	3	?	10r_4g.bmp	0r_4g.bmp	2r_2g.bmp	0r_2g.bmp			2r_2g.bmp		TrialProc	TrialList	0	cvbn	-999999	16	254903	0	b	475	255378	212	-138	74	-32	84	18	4	4	8	71	-10	0	-2	0	4	4	2	2	-2	2
Hungry_Donkey_bar_English_2	139	1	<?xml version="1.0"?>\n<Clock xmlns:dt="urn:schemas-microsoft-com:datatypes"><Description dt:dt="string">E-Prime Primary Realtime Clock</Description><StartTime><Timestamp dt:dt="int">0</Timestamp><DateUtc dt:dt="string">2016-03-28T22:02:59Z</DateUtc></StartTime><FrequencyChanges><FrequencyChange><Frequency dt:dt="r8">3507685</Frequency><Timestamp dt:dt="r8">7486757258</Timestamp><Current dt:dt="r8">0</Current><DateUtc dt:dt="string">2016-03-28T22:02:59Z</DateUtc></FrequencyChange></FrequencyChanges></Clock>\n	Hungry_Donkey_bar_English_2-139-1	60.017	8	1.0.0.18	1	-1102488946	Standard	2.0.10.353	2.0.10.353	03-28-2016		18:02:59	2.0.10.248	72	Bar63-37.bmp	61	4	?	0r_4g.bmp	0r_4g.bmp	0r_2g.bmp	0r_2g.bmp				0r_2g.bmp	TrialProc	TrialList	0	cvbn	-999999	16	257402	0	n	504	257906	214	-138	76	-32	84	18	6	9	8	72	0	0	0	0	4	4	2	2	0	2
Hungry_Donkey_bar_English_2	139	1	<?xml version="1.0"?>\n<Clock xmlns:dt="urn:schemas-microsoft-com:datatypes"><Description dt:dt="string">E-Prime Primary Realtime Clock</Description><StartTime><Timestamp dt:dt="int">0</Timestamp><DateUtc dt:dt="string">2016-03-28T22:02:59Z</DateUtc></StartTime><FrequencyChanges><FrequencyChange><Frequency dt:dt="r8">3507685</Frequency><Timestamp dt:dt="r8">7486757258</Timestamp><Current dt:dt="r8">0</Current><DateUtc dt:dt="string">2016-03-28T22:02:59Z</DateUtc></FrequencyChange></FrequencyChanges></Clock>\n	Hungry_Donkey_bar_English_2-139-1	60.017	8	1.0.0.18	1	-1102488946	Standard	2.0.10.353	2.0.10.353	03-28-2016		18:02:59	2.0.10.248	73	Bar63-37.bmp	60	1	?	8r_4g.bmp	50r_4g.bmp	1r_2g.bmp	10r_2g.bmp	8r_4g.bmp				TrialProc	TrialList	0	cvbn	-999999	16	259935	0	c	291	260226	218	-146	72	-36	84	18	6	1	8	73	-8	-50	-1	-10	4	4	2	2	-8	4
Hungry_Donkey_bar_English_2	139	1	<?xml version="1.0"?>\n<Clock xmlns:dt="urn:schemas-microsoft-com:datatypes"><Description dt:dt="string">E-Prime Primary Realtime Clock</Description><StartTime><Timestamp dt:dt="int">0</Timestamp><DateUtc dt:dt="string">2016-03-28T22:02:59Z</DateUtc></StartTime><FrequencyChanges><FrequencyChange><Frequency dt:dt="r8">3507685</Frequency><Timestamp dt:dt="r8">7486757258</Timestamp><Current dt:dt="r8">0</Current><DateUtc dt:dt="string">2016-03-28T22:02:59Z</DateUtc></FrequencyChange></FrequencyChanges></Clock>\n	Hungry_Donkey_bar_English_2-139-1	60.017	8	1.0.0.18	1	-1102488946	Standard	2.0.10.353	2.0.10.353	03-28-2016		18:02:59	2.0.10.248	74	Bar63-37.bmp	60	3	?	12r_4g.bmp	0r_4g.bmp	3r_2g.bmp	0r_2g.bmp			3r_2g.bmp		TrialProc	TrialList	0	cvbn	-999999	16	262251	0	b	870	263121	220	-149	71	-36	84	17	6	5	8	74	-12	0	-3	0	4	4	2	2	-3	2
Hungry_Donkey_bar_English_2	139	1	<?xml version="1.0"?>\n<Clock xmlns:dt="urn:schemas-microsoft-com:datatypes"><Description dt:dt="string">E-Prime Primary Realtime Clock</Description><StartTime><Timestamp dt:dt="int">0</Timestamp><DateUtc dt:dt="string">2016-03-28T22:02:59Z</DateUtc></StartTime><FrequencyChanges><FrequencyChange><Frequency dt:dt="r8">3507685</Frequency><Timestamp dt:dt="r8">7486757258</Timestamp><Current dt:dt="r8">0</Current><DateUtc dt:dt="string">2016-03-28T22:02:59Z</DateUtc></FrequencyChange></FrequencyChanges></Clock>\n	Hungry_Donkey_bar_English_2-139-1	60.017	8	1.0.0.18	1	-1102488946	Standard	2.0.10.353	2.0.10.353	03-28-2016		18:02:59	2.0.10.248	75	Bar63-37.bmp	60	2	?	10r_4g.bmp	0r_4g.bmp	2r_2g.bmp	0r_2g.bmp		0r_4g.bmp			TrialProc	TrialList	0	cvbn	-999999	16	265150	0	v	1299	266449	224	-149	75	-36	88	17	6	2	8	75	-10	0	-2	0	4	4	2	2	0	4
Hungry_Donkey_bar_English_2	139	1	<?xml version="1.0"?>\n<Clock xmlns:dt="urn:schemas-microsoft-com:datatypes"><Description dt:dt="string">E-Prime Primary Realtime Clock</Description><StartTime><Timestamp dt:dt="int">0</Timestamp><DateUtc dt:dt="string">2016-03-28T22:02:59Z</DateUtc></StartTime><FrequencyChanges><FrequencyChange><Frequency dt:dt="r8">3507685</Frequency><Timestamp dt:dt="r8">7486757258</Timestamp><Current dt:dt="r8">0</Current><DateUtc dt:dt="string">2016-03-28T22:02:59Z</DateUtc></FrequencyChange></FrequencyChanges></Clock>\n	Hungry_Donkey_bar_English_2-139-1	60.017	8	1.0.0.18	1	-1102488946	Standard	2.0.10.353	2.0.10.353	03-28-2016		18:02:59	2.0.10.248	76	Bar63-37.bmp	60	3	?	0r_4g.bmp	0r_4g.bmp	0r_2g.bmp	0r_2g.bmp			0r_2g.bmp		TrialProc	TrialList	0	cvbn	-999999	16	268482	0	b	2207	270689	226	-149	77	-36	88	19	6	10	8	76	0	0	0	0	4	4	2	2	0	2
Hungry_Donkey_bar_English_2	139	1	<?xml version="1.0"?>\n<Clock xmlns:dt="urn:schemas-microsoft-com:datatypes"><Description dt:dt="string">E-Prime Primary Realtime Clock</Description><StartTime><Timestamp dt:dt="int">0</Timestamp><DateUtc dt:dt="string">2016-03-28T22:02:59Z</DateUtc></StartTime><FrequencyChanges><FrequencyChange><Frequency dt:dt="r8">3507685</Frequency><Timestamp dt:dt="r8">7486757258</Timestamp><Current dt:dt="r8">0</Current><DateUtc dt:dt="string">2016-03-28T22:02:59Z</DateUtc></FrequencyChange></FrequencyChanges></Clock>\n	Hungry_Donkey_bar_English_2-139-1	60.017	8	1.0.0.18	1	-1102488946	Standard	2.0.10.353	2.0.10.353	03-28-2016		18:02:59	2.0.10.248	77	Bar63-37.bmp	60	4	?	0r_4g.bmp	0r_4g.bmp	0r_2g.bmp	0r_2g.bmp				0r_2g.bmp	TrialProc	TrialList	0	cvbn	-999999	16	272714	0	n	1511	274225	228	-149	79	-36	88	19	8	6	8	77	0	0	0	0	4	4	2	2	0	2
Hungry_Donkey_bar_English_2	139	1	<?xml version="1.0"?>\n<Clock xmlns:dt="urn:schemas-microsoft-com:datatypes"><Description dt:dt="string">E-Prime Primary Realtime Clock</Description><StartTime><Timestamp dt:dt="int">0</Timestamp><DateUtc dt:dt="string">2016-03-28T22:02:59Z</DateUtc></StartTime><FrequencyChanges><FrequencyChange><Frequency dt:dt="r8">3507685</Frequency><Timestamp dt:dt="r8">7486757258</Timestamp><Current dt:dt="r8">0</Current><DateUtc dt:dt="string">2016-03-28T22:02:59Z</DateUtc></FrequencyChange></FrequencyChanges></Clock>\n	Hungry_Donkey_bar_English_2-139-1	60.017	8	1.0.0.18	1	-1102488946	Standard	2.0.10.353	2.0.10.353	03-28-2016		18:02:59	2.0.10.248	78	Bar63-37.bmp	61	2	?	10r_4g.bmp	0r_4g.bmp	2r_2g.bmp	0r_2g.bmp		0r_4g.bmp			TrialProc	TrialList	0	cvbn	-999999	16	276263	0	v	570	276833	232	-149	83	-36	92	19	8	3	8	78	-10	0	-2	0	4	4	2	2	0	4
Hungry_Donkey_bar_English_2	139	1	<?xml version="1.0"?>\n<Clock xmlns:dt="urn:schemas-microsoft-com:datatypes"><Description dt:dt="string">E-Prime Primary Realtime Clock</Description><StartTime><Timestamp dt:dt="int">0</Timestamp><DateUtc dt:dt="string">2016-03-28T22:02:59Z</DateUtc></StartTime><FrequencyChanges><FrequencyChange><Frequency dt:dt="r8">3507685</Frequency><Timestamp dt:dt="r8">7486757258</Timestamp><Current dt:dt="r8">0</Current><DateUtc dt:dt="string">2016-03-28T22:02:59Z</DateUtc></FrequencyChange></FrequencyChanges></Clock>\n	Hungry_Donkey_bar_English_2-139-1	60.017	8	1.0.0.18	1	-1102488946	Standard	2.0.10.353	2.0.10.353	03-28-2016		18:02:59	2.0.10.248	79	Bar63-37.bmp	61	3	?	0r_4g.bmp	0r_4g.bmp	0r_2g.bmp	0r_2g.bmp			0r_2g.bmp		TrialProc	TrialList	0	cvbn	-999999	17	278863	0	b	690	279553	234	-149	85	-36	92	21	8	8	8	79	0	0	0	0	4	4	2	2	0	2
Hungry_Donkey_bar_English_2	139	1	<?xml version="1.0"?>\n<Clock xmlns:dt="urn:schemas-microsoft-com:datatypes"><Description dt:dt="string">E-Prime Primary Realtime Clock</Description><StartTime><Timestamp dt:dt="int">0</Timestamp><DateUtc dt:dt="string">2016-03-28T22:02:59Z</DateUtc></StartTime><FrequencyChanges><FrequencyChange><Frequency dt:dt="r8">3507685</Frequency><Timestamp dt:dt="r8">7486757258</Timestamp><Current dt:dt="r8">0</Current><DateUtc dt:dt="string">2016-03-28T22:02:59Z</DateUtc></FrequencyChange></FrequencyChanges></Clock>\n	Hungry_Donkey_bar_English_2-139-1	60.017	8	1.0.0.18	1	-1102488946	Standard	2.0.10.353	2.0.10.353	03-28-2016		18:02:59	2.0.10.248	80	Bar63-37.bmp	61	2	?	0r_4g.bmp	0r_4g.bmp	0r_2g.bmp	0r_2g.bmp		0r_4g.bmp			TrialProc	TrialList	0	cvbn	-999999	16	281578	0	v	358	281936	238	-149	89	-36	96	21	8	7	8	80	0	0	0	0	4	4	2	2	0	4
Hungry_Donkey_bar_English_2	139	1	<?xml version="1.0"?>\n<Clock xmlns:dt="urn:schemas-microsoft-com:datatypes"><Description dt:dt="string">E-Prime Primary Realtime Clock</Description><StartTime><Timestamp dt:dt="int">0</Timestamp><DateUtc dt:dt="string">2016-03-28T22:02:59Z</DateUtc></StartTime><FrequencyChanges><FrequencyChange><Frequency dt:dt="r8">3507685</Frequency><Timestamp dt:dt="r8">7486757258</Timestamp><Current dt:dt="r8">0</Current><DateUtc dt:dt="string">2016-03-28T22:02:59Z</DateUtc></FrequencyChange></FrequencyChanges></Clock>\n	Hungry_Donkey_bar_English_2-139-1	60.017	8	1.0.0.18	1	-1102488946	Standard	2.0.10.353	2.0.10.353	03-28-2016		18:02:59	2.0.10.248	81	Bar63-37.bmp	62	4	?	10r_4g.bmp	0r_4g.bmp	2r_2g.bmp	0r_2g.bmp				0r_2g.bmp	TrialProc	TrialList	0	cvbn	-999999	16	283961	0	n	2535	286496	240	-149	91	-36	96	21	10	2	9	81	-10	0	-2	0	4	4	2	2	0	2
Hungry_Donkey_bar_English_2	139	1	<?xml version="1.0"?>\n<Clock xmlns:dt="urn:schemas-microsoft-com:datatypes"><Description dt:dt="string">E-Prime Primary Realtime Clock</Description><StartTime><Timestamp dt:dt="int">0</Timestamp><DateUtc dt:dt="string">2016-03-28T22:02:59Z</DateUtc></StartTime><FrequencyChanges><FrequencyChange><Frequency dt:dt="r8">3507685</Frequency><Timestamp dt:dt="r8">7486757258</Timestamp><Current dt:dt="r8">0</Current><DateUtc dt:dt="string">2016-03-28T22:02:59Z</DateUtc></FrequencyChange></FrequencyChanges></Clock>\n	Hungry_Donkey_bar_English_2-139-1	60.017	8	1.0.0.18	1	-1102488946	Standard	2.0.10.353	2.0.10.353	03-28-2016		18:02:59	2.0.10.248	82	Bar63-37.bmp	62	4	?	10r_4g.bmp	0r_4g.bmp	2r_2g.bmp	0r_2g.bmp				0r_2g.bmp	TrialProc	TrialList	0	cvbn	-999999	16	288526	0	n	882	289408	242	-149	93	-36	96	21	12	4	9	82	-10	0	-2	0	4	4	2	2	0	2
Hungry_Donkey_bar_English_2	139	1	<?xml version="1.0"?>\n<Clock xmlns:dt="urn:schemas-microsoft-com:datatypes"><Description dt:dt="string">E-Prime Primary Realtime Clock</Description><StartTime><Timestamp dt:dt="int">0</Timestamp><DateUtc dt:dt="string">2016-03-28T22:02:59Z</DateUtc></StartTime><FrequencyChanges><FrequencyChange><Frequency dt:dt="r8">3507685</Frequency><Timestamp dt:dt="r8">7486757258</Timestamp><Current dt:dt="r8">0</Current><DateUtc dt:dt="string">2016-03-28T22:02:59Z</DateUtc></FrequencyChange></FrequencyChanges></Clock>\n	Hungry_Donkey_bar_English_2-139-1	60.017	8	1.0.0.18	1	-1102488946	Standard	2.0.10.353	2.0.10.353	03-28-2016		18:02:59	2.0.10.248	83	Bar63-37.bmp	61	4	?	8r_4g.bmp	50r_4g.bmp	1r_2g.bmp	10r_2g.bmp				10r_2g.bmp	TrialProc	TrialList	0	cvbn	-999999	16	291442	0	n	1294	292736	244	-159	85	-36	96	21	4	1	9	83	-8	-50	-1	-10	4	4	2	2	-10	2
Hungry_Donkey_bar_English_2	139	1	<?xml version="1.0"?>\n<Clock xmlns:dt="urn:schemas-microsoft-com:datatypes"><Description dt:dt="string">E-Prime Primary Realtime Clock</Description><StartTime><Timestamp dt:dt="int">0</Timestamp><DateUtc dt:dt="string">2016-03-28T22:02:59Z</DateUtc></StartTime><FrequencyChanges><FrequencyChange><Frequency dt:dt="r8">3507685</Frequency><Timestamp dt:dt="r8">7486757258</Timestamp><Current dt:dt="r8">0</Current><DateUtc dt:dt="string">2016-03-28T22:02:59Z</DateUtc></FrequencyChange></FrequencyChanges></Clock>\n	Hungry_Donkey_bar_English_2-139-1	60.017	8	1.0.0.18	1	-1102488946	Standard	2.0.10.353	2.0.10.353	03-28-2016		18:02:59	2.0.10.248	84	Bar63-37.bmp	60	3	?	10r_4g.bmp	0r_4g.bmp	2r_2g.bmp	0r_2g.bmp			2r_2g.bmp		TrialProc	TrialList	0	cvbn	-999999	16	294775	0	b	521	295296	246	-161	85	-36	96	21	4	3	9	84	-10	0	-2	0	4	4	2	2	-2	2
Hungry_Donkey_bar_English_2	139	1	<?xml version="1.0"?>\n<Clock xmlns:dt="urn:schemas-microsoft-com:datatypes"><Description dt:dt="string">E-Prime Primary Realtime Clock</Description><StartTime><Timestamp dt:dt="int">0</Timestamp><DateUtc dt:dt="string">2016-03-28T22:02:59Z</DateUtc></StartTime><FrequencyChanges><FrequencyChange><Frequency dt:dt="r8">3507685</Frequency><Timestamp dt:dt="r8">7486757258</Timestamp><Current dt:dt="r8">0</Current><DateUtc dt:dt="string">2016-03-28T22:02:59Z</DateUtc></FrequencyChange></FrequencyChanges></Clock>\n	Hungry_Donkey_bar_English_2-139-1	60.017	8	1.0.0.18	1	-1102488946	Standard	2.0.10.353	2.0.10.353	03-28-2016		18:02:59	2.0.10.248	85	Bar63-37.bmp	61	2	?	0r_4g.bmp	0r_4g.bmp	0r_2g.bmp	0r_2g.bmp		0r_4g.bmp			TrialProc	TrialList	0	cvbn	-999999	16	297324	0	v	372	297696	250	-161	89	-36	100	21	4	6	9	85	0	0	0	0	4	4	2	2	0	4
Hungry_Donkey_bar_English_2	139	1	<?xml version="1.0"?>\n<Clock xmlns:dt="urn:schemas-microsoft-com:datatypes"><Description dt:dt="string">E-Prime Primary Realtime Clock</Description><StartTime><Timestamp dt:dt="int">0</Timestamp><DateUtc dt:dt="string">2016-03-28T22:02:59Z</DateUtc></StartTime><FrequencyChanges><FrequencyChange><Frequency dt:dt="r8">3507685</Frequency><Timestamp dt:dt="r8">7486757258</Timestamp><Current dt:dt="r8">0</Current><DateUtc dt:dt="string">2016-03-28T22:02:59Z</DateUtc></FrequencyChange></FrequencyChanges></Clock>\n	Hungry_Donkey_bar_English_2-139-1	60.017	8	1.0.0.18	1	-1102488946	Standard	2.0.10.353	2.0.10.353	03-28-2016		18:02:59	2.0.10.248	86	Bar63-37.bmp	61	2	?	0r_4g.bmp	0r_4g.bmp	0r_2g.bmp	0r_2g.bmp		0r_4g.bmp			TrialProc	TrialList	0	cvbn	-999999	16	299723	0	v	629	300352	254	-161	93	-36	104	21	4	8	9	86	0	0	0	0	4	4	2	2	0	4
Hungry_Donkey_bar_English_2	139	1	<?xml version="1.0"?>\n<Clock xmlns:dt="urn:schemas-microsoft-com:datatypes"><Description dt:dt="string">E-Prime Primary Realtime Clock</Description><StartTime><Timestamp dt:dt="int">0</Timestamp><DateUtc dt:dt="string">2016-03-28T22:02:59Z</DateUtc></StartTime><FrequencyChanges><FrequencyChange><Frequency dt:dt="r8">3507685</Frequency><Timestamp dt:dt="r8">7486757258</Timestamp><Current dt:dt="r8">0</Current><DateUtc dt:dt="string">2016-03-28T22:02:59Z</DateUtc></FrequencyChange></FrequencyChanges></Clock>\n	Hungry_Donkey_bar_English_2-139-1	60.017	8	1.0.0.18	1	-1102488946	Standard	2.0.10.353	2.0.10.353	03-28-2016		18:02:59	2.0.10.248	87	Bar63-37.bmp	61	3	?	0r_4g.bmp	0r_4g.bmp	0r_2g.bmp	0r_2g.bmp			0r_2g.bmp		TrialProc	TrialList	0	cvbn	-999999	16	302389	0	b	586	302975	256	-161	95	-36	104	23	4	9	9	87	0	0	0	0	4	4	2	2	0	2
Hungry_Donkey_bar_English_2	139	1	<?xml version="1.0"?>\n<Clock xmlns:dt="urn:schemas-microsoft-com:datatypes"><Description dt:dt="string">E-Prime Primary Realtime Clock</Description><StartTime><Timestamp dt:dt="int">0</Timestamp><DateUtc dt:dt="string">2016-03-28T22:02:59Z</DateUtc></StartTime><FrequencyChanges><FrequencyChange><Frequency dt:dt="r8">3507685</Frequency><Timestamp dt:dt="r8">7486757258</Timestamp><Current dt:dt="r8">0</Current><DateUtc dt:dt="string">2016-03-28T22:02:59Z</DateUtc></FrequencyChange></FrequencyChanges></Clock>\n	Hungry_Donkey_bar_English_2-139-1	60.017	8	1.0.0.18	1	-1102488946	Standard	2.0.10.353	2.0.10.353	03-28-2016		18:02:59	2.0.10.248	88	Bar63-37.bmp	60	1	?	12r_4g.bmp	0r_4g.bmp	3r_2g.bmp	0r_2g.bmp	12r_4g.bmp				TrialProc	TrialList	0	cvbn	-999999	16	305005	0	c	530	305535	260	-173	87	-44	104	23	4	5	9	88	-12	0	-3	0	4	4	2	2	-12	4
Hungry_Donkey_bar_English_2	139	1	<?xml version="1.0"?>\n<Clock xmlns:dt="urn:schemas-microsoft-com:datatypes"><Description dt:dt="string">E-Prime Primary Realtime Clock</Description><StartTime><Timestamp dt:dt="int">0</Timestamp><DateUtc dt:dt="string">2016-03-28T22:02:59Z</DateUtc></StartTime><FrequencyChanges><FrequencyChange><Frequency dt:dt="r8">3507685</Frequency><Timestamp dt:dt="r8">7486757258</Timestamp><Current dt:dt="r8">0</Current><DateUtc dt:dt="string">2016-03-28T22:02:59Z</DateUtc></FrequencyChange></FrequencyChanges></Clock>\n	Hungry_Donkey_bar_English_2-139-1	60.017	8	1.0.0.18	1	-1102488946	Standard	2.0.10.353	2.0.10.353	03-28-2016		18:02:59	2.0.10.248	89	Bar63-37.bmp	60	3	?	0r_4g.bmp	0r_4g.bmp	0r_2g.bmp	0r_2g.bmp			0r_2g.bmp		TrialProc	TrialList	0	cvbn	-999999	16	307571	0	b	444	308015	262	-173	89	-44	104	25	4	7	9	89	0	0	0	0	4	4	2	2	0	2
Hungry_Donkey_bar_English_2	139	1	<?xml version="1.0"?>\n<Clock xmlns:dt="urn:schemas-microsoft-com:datatypes"><Description dt:dt="string">E-Prime Primary Realtime Clock</Description><StartTime><Timestamp dt:dt="int">0</Timestamp><DateUtc dt:dt="string">2016-03-28T22:02:59Z</DateUtc></StartTime><FrequencyChanges><FrequencyChange><Frequency dt:dt="r8">3507685</Frequency><Timestamp dt:dt="r8">7486757258</Timestamp><Current dt:dt="r8">0</Current><DateUtc dt:dt="string">2016-03-28T22:02:59Z</DateUtc></FrequencyChange></FrequencyChanges></Clock>\n	Hungry_Donkey_bar_English_2-139-1	60.017	8	1.0.0.18	1	-1102488946	Standard	2.0.10.353	2.0.10.353	03-28-2016		18:02:59	2.0.10.248	90	Bar63-37.bmp	61	2	?	0r_4g.bmp	0r_4g.bmp	0r_2g.bmp	0r_2g.bmp		0r_4g.bmp			TrialProc	TrialList	0	cvbn	-999999	17	310054	0	v	1081	311135	266	-173	93	-44	108	25	4	10	9	90	0	0	0	0	4	4	2	2	0	4
Hungry_Donkey_bar_English_2	139	1	<?xml version="1.0"?>\n<Clock xmlns:dt="urn:schemas-microsoft-com:datatypes"><Description dt:dt="string">E-Prime Primary Realtime Clock</Description><StartTime><Timestamp dt:dt="int">0</Timestamp><DateUtc dt:dt="string">2016-03-28T22:02:59Z</DateUtc></StartTime><FrequencyChanges><FrequencyChange><Frequency dt:dt="r8">3507685</Frequency><Timestamp dt:dt="r8">7486757258</Timestamp><Current dt:dt="r8">0</Current><DateUtc dt:dt="string">2016-03-28T22:02:59Z</DateUtc></FrequencyChange></FrequencyChanges></Clock>\n	Hungry_Donkey_bar_English_2-139-1	60.017	8	1.0.0.18	1	-1102488946	Standard	2.0.10.353	2.0.10.353	03-28-2016		18:02:59	2.0.10.248	91	Bar63-37.bmp	61	3	?	0r_4g.bmp	0r_4g.bmp	0r_2g.bmp	0r_2g.bmp			0r_2g.bmp		TrialProc	TrialList	0	cvbn	-999999	16	313169	0	b	366	313535	268	-173	95	-44	108	27	4	6	10	91	0	0	0	0	4	4	2	2	0	2
Hungry_Donkey_bar_English_2	139	1	<?xml version="1.0"?>\n<Clock xmlns:dt="urn:schemas-microsoft-com:datatypes"><Description dt:dt="string">E-Prime Primary Realtime Clock</Description><StartTime><Timestamp dt:dt="int">0</Timestamp><DateUtc dt:dt="string">2016-03-28T22:02:59Z</DateUtc></StartTime><FrequencyChanges><FrequencyChange><Frequency dt:dt="r8">3507685</Frequency><Timestamp dt:dt="r8">7486757258</Timestamp><Current dt:dt="r8">0</Current><DateUtc dt:dt="string">2016-03-28T22:02:59Z</DateUtc></FrequencyChange></FrequencyChanges></Clock>\n	Hungry_Donkey_bar_English_2-139-1	60.017	8	1.0.0.18	1	-1102488946	Standard	2.0.10.353	2.0.10.353	03-28-2016		18:02:59	2.0.10.248	92	Bar63-37.bmp	60	4	?	8r_4g.bmp	50r_4g.bmp	1r_2g.bmp	10r_2g.bmp				10r_2g.bmp	TrialProc	TrialList	0	cvbn	-999999	16	315569	0	n	334	315903	270	-183	87	-44	108	27	-4	1	10	92	-8	-50	-1	-10	4	4	2	2	-10	2
Hungry_Donkey_bar_English_2	139	1	<?xml version="1.0"?>\n<Clock xmlns:dt="urn:schemas-microsoft-com:datatypes"><Description dt:dt="string">E-Prime Primary Realtime Clock</Description><StartTime><Timestamp dt:dt="int">0</Timestamp><DateUtc dt:dt="string">2016-03-28T22:02:59Z</DateUtc></StartTime><FrequencyChanges><FrequencyChange><Frequency dt:dt="r8">3507685</Frequency><Timestamp dt:dt="r8">7486757258</Timestamp><Current dt:dt="r8">0</Current><DateUtc dt:dt="string">2016-03-28T22:02:59Z</DateUtc></FrequencyChange></FrequencyChanges></Clock>\n	Hungry_Donkey_bar_English_2-139-1	60.017	8	1.0.0.18	1	-1102488946	Standard	2.0.10.353	2.0.10.353	03-28-2016		18:02:59	2.0.10.248	93	Bar63-37.bmp	60	2	?	12r_4g.bmp	0r_4g.bmp	3r_2g.bmp	0r_2g.bmp		0r_4g.bmp			TrialProc	TrialList	0	cvbn	-999999	16	317935	0	v	848	318783	274	-183	91	-44	112	27	-4	5	10	93	-12	0	-3	0	4	4	2	2	0	4
Hungry_Donkey_bar_English_2	139	1	<?xml version="1.0"?>\n<Clock xmlns:dt="urn:schemas-microsoft-com:datatypes"><Description dt:dt="string">E-Prime Primary Realtime Clock</Description><StartTime><Timestamp dt:dt="int">0</Timestamp><DateUtc dt:dt="string">2016-03-28T22:02:59Z</DateUtc></StartTime><FrequencyChanges><FrequencyChange><Frequency dt:dt="r8">3507685</Frequency><Timestamp dt:dt="r8">7486757258</Timestamp><Current dt:dt="r8">0</Current><DateUtc dt:dt="string">2016-03-28T22:02:59Z</DateUtc></FrequencyChange></FrequencyChanges></Clock>\n	Hungry_Donkey_bar_English_2-139-1	60.017	8	1.0.0.18	1	-1102488946	Standard	2.0.10.353	2.0.10.353	03-28-2016		18:02:59	2.0.10.248	94	Bar63-37.bmp	60	3	?	0r_4g.bmp	0r_4g.bmp	0r_2g.bmp	0r_2g.bmp			0r_2g.bmp		TrialProc	TrialList	0	cvbn	-999999	16	320817	0	b	461	321278	276	-183	93	-44	112	29	-4	8	10	94	0	0	0	0	4	4	2	2	0	2
Hungry_Donkey_bar_English_2	139	1	<?xml version="1.0"?>\n<Clock xmlns:dt="urn:schemas-microsoft-com:datatypes"><Description dt:dt="string">E-Prime Primary Realtime Clock</Description><StartTime><Timestamp dt:dt="int">0</Timestamp><DateUtc dt:dt="string">2016-03-28T22:02:59Z</DateUtc></StartTime><FrequencyChanges><FrequencyChange><Frequency dt:dt="r8">3507685</Frequency><Timestamp dt:dt="r8">7486757258</Timestamp><Current dt:dt="r8">0</Current><DateUtc dt:dt="string">2016-03-28T22:02:59Z</DateUtc></FrequencyChange></FrequencyChanges></Clock>\n	Hungry_Donkey_bar_English_2-139-1	60.017	8	1.0.0.18	1	-1102488946	Standard	2.0.10.353	2.0.10.353	03-28-2016		18:02:59	2.0.10.248	95	Bar63-37.bmp	60	2	?	0r_4g.bmp	0r_4g.bmp	0r_2g.bmp	0r_2g.bmp		0r_4g.bmp			TrialProc	TrialList	0	cvbn	-999999	16	323316	0	v	666	323982	280	-183	97	-44	116	29	-4	7	10	95	0	0	0	0	4	4	2	2	0	4
Hungry_Donkey_bar_English_2	139	1	<?xml version="1.0"?>\n<Clock xmlns:dt="urn:schemas-microsoft-com:datatypes"><Description dt:dt="string">E-Prime Primary Realtime Clock</Description><StartTime><Timestamp dt:dt="int">0</Timestamp><DateUtc dt:dt="string">2016-03-28T22:02:59Z</DateUtc></StartTime><FrequencyChanges><FrequencyChange><Frequency dt:dt="r8">3507685</Frequency><Timestamp dt:dt="r8">7486757258</Timestamp><Current dt:dt="r8">0</Current><DateUtc dt:dt="string">2016-03-28T22:02:59Z</DateUtc></FrequencyChange></FrequencyChanges></Clock>\n	Hungry_Donkey_bar_English_2-139-1	60.017	8	1.0.0.18	1	-1102488946	Standard	2.0.10.353	2.0.10.353	03-28-2016		18:02:59	2.0.10.248	96	Bar63-37.bmp	60	3	?	10r_4g.bmp	0r_4g.bmp	2r_2g.bmp	0r_2g.bmp			2r_2g.bmp		TrialProc	TrialList	0	cvbn	-999999	16	326016	0	b	846	326862	282	-185	97	-44	116	29	-4	3	10	96	-10	0	-2	0	4	4	2	2	-2	2
Hungry_Donkey_bar_English_2	139	1	<?xml version="1.0"?>\n<Clock xmlns:dt="urn:schemas-microsoft-com:datatypes"><Description dt:dt="string">E-Prime Primary Realtime Clock</Description><StartTime><Timestamp dt:dt="int">0</Timestamp><DateUtc dt:dt="string">2016-03-28T22:02:59Z</DateUtc></StartTime><FrequencyChanges><FrequencyChange><Frequency dt:dt="r8">3507685</Frequency><Timestamp dt:dt="r8">7486757258</Timestamp><Current dt:dt="r8">0</Current><DateUtc dt:dt="string">2016-03-28T22:02:59Z</DateUtc></FrequencyChange></FrequencyChanges></Clock>\n	Hungry_Donkey_bar_English_2-139-1	60.017	8	1.0.0.18	1	-1102488946	Standard	2.0.10.353	2.0.10.353	03-28-2016		18:02:59	2.0.10.248	97	Bar63-37.bmp	61	4	?	0r_4g.bmp	0r_4g.bmp	0r_2g.bmp	0r_2g.bmp				0r_2g.bmp	TrialProc	TrialList	0	cvbn	-999999	16	328898	0	n	524	329422	284	-185	99	-44	116	29	-2	10	10	97	0	0	0	0	4	4	2	2	0	2
Hungry_Donkey_bar_English_2	139	1	<?xml version="1.0"?>\n<Clock xmlns:dt="urn:schemas-microsoft-com:datatypes"><Description dt:dt="string">E-Prime Primary Realtime Clock</Description><StartTime><Timestamp dt:dt="int">0</Timestamp><DateUtc dt:dt="string">2016-03-28T22:02:59Z</DateUtc></StartTime><FrequencyChanges><FrequencyChange><Frequency dt:dt="r8">3507685</Frequency><Timestamp dt:dt="r8">7486757258</Timestamp><Current dt:dt="r8">0</Current><DateUtc dt:dt="string">2016-03-28T22:02:59Z</DateUtc></FrequencyChange></FrequencyChanges></Clock>\n	Hungry_Donkey_bar_English_2-139-1	60.017	8	1.0.0.18	1	-1102488946	Standard	2.0.10.353	2.0.10.353	03-28-2016		18:02:59	2.0.10.248	98	Bar63-37.bmp	61	2	?	10r_4g.bmp	0r_4g.bmp	2r_2g.bmp	0r_2g.bmp		0r_4g.bmp			TrialProc	TrialList	0	cvbn	-999999	16	331447	0	v	1127	332574	288	-185	103	-44	120	29	-2	4	10	98	-10	0	-2	0	4	4	2	2	0	4
Hungry_Donkey_bar_English_2	139	1	<?xml version="1.0"?>\n<Clock xmlns:dt="urn:schemas-microsoft-com:datatypes"><Description dt:dt="string">E-Prime Primary Realtime Clock</Description><StartTime><Timestamp dt:dt="int">0</Timestamp><DateUtc dt:dt="string">2016-03-28T22:02:59Z</DateUtc></StartTime><FrequencyChanges><FrequencyChange><Frequency dt:dt="r8">3507685</Frequency><Timestamp dt:dt="r8">7486757258</Timestamp><Current dt:dt="r8">0</Current><DateUtc dt:dt="string">2016-03-28T22:02:59Z</DateUtc></FrequencyChange></FrequencyChanges></Clock>\n	Hungry_Donkey_bar_English_2-139-1	60.017	8	1.0.0.18	1	-1102488946	Standard	2.0.10.353	2.0.10.353	03-28-2016		18:02:59	2.0.10.248	99	Bar63-37.bmp	61	4	?	10r_4g.bmp	0r_4g.bmp	2r_2g.bmp	0r_2g.bmp				0r_2g.bmp	TrialProc	TrialList	0	cvbn	-999999	16	334613	0	n	1177	335790	290	-185	105	-44	120	29	0	2	10	99	-10	0	-2	0	4	4	2	2	0	2
Hungry_Donkey_bar_English_2	139	1	<?xml version="1.0"?>\n<Clock xmlns:dt="urn:schemas-microsoft-com:datatypes"><Description dt:dt="string">E-Prime Primary Realtime Clock</Description><StartTime><Timestamp dt:dt="int">0</Timestamp><DateUtc dt:dt="string">2016-03-28T22:02:59Z</DateUtc></StartTime><FrequencyChanges><FrequencyChange><Frequency dt:dt="r8">3507685</Frequency><Timestamp dt:dt="r8">7486757258</Timestamp><Current dt:dt="r8">0</Current><DateUtc dt:dt="string">2016-03-28T22:02:59Z</DateUtc></FrequencyChange></FrequencyChanges></Clock>\n	Hungry_Donkey_bar_English_2-139-1	60.017	8	1.0.0.18	1	-1102488946	Standard	2.0.10.353	2.0.10.353	03-28-2016		18:02:59	2.0.10.248	100	Bar63-37.bmp	61	2	?	0r_4g.bmp	0r_4g.bmp	0r_2g.bmp	0r_2g.bmp		0r_4g.bmp			TrialProc	TrialList	0	cvbn	-999999	16	337829	0	v	409	338238	294	-185	109	-44	124	29	0	9	10	100	0	0	0	0	4	4	2	2	0	4
Hungry_Donkey_bar_English_2	139	1	<?xml version="1.0"?>\n<Clock xmlns:dt="urn:schemas-microsoft-com:datatypes"><Description dt:dt="string">E-Prime Primary Realtime Clock</Description><StartTime><Timestamp dt:dt="int">0</Timestamp><DateUtc dt:dt="string">2016-03-28T22:02:59Z</DateUtc></StartTime><FrequencyChanges><FrequencyChange><Frequency dt:dt="r8">3507685</Frequency><Timestamp dt:dt="r8">7486757258</Timestamp><Current dt:dt="r8">0</Current><DateUtc dt:dt="string">2016-03-28T22:02:59Z</DateUtc></FrequencyChange></FrequencyChanges></Clock>\n	Hungry_Donkey_bar_English_2-139-1	60.017	8	1.0.0.18	1	-1102488946	Standard	2.0.10.353	2.0.10.353	03-28-2016		18:02:59	2.0.10.248	101	Bar63-37.bmp	61	3	?	12r_4g.bmp	0r_4g.bmp	3r_2g.bmp	0r_2g.bmp			3r_2g.bmp		TrialProc	TrialList	0	cvbn	-999999	16	340261	0	b	376	340637	296	-188	108	-44	124	28	0	5	11	101	-12	0	-3	0	4	4	2	2	-3	2
Hungry_Donkey_bar_English_2	139	1	<?xml version="1.0"?>\n<Clock xmlns:dt="urn:schemas-microsoft-com:datatypes"><Description dt:dt="string">E-Prime Primary Realtime Clock</Description><StartTime><Timestamp dt:dt="int">0</Timestamp><DateUtc dt:dt="string">2016-03-28T22:02:59Z</DateUtc></StartTime><FrequencyChanges><FrequencyChange><Frequency dt:dt="r8">3507685</Frequency><Timestamp dt:dt="r8">7486757258</Timestamp><Current dt:dt="r8">0</Current><DateUtc dt:dt="string">2016-03-28T22:02:59Z</DateUtc></FrequencyChange></FrequencyChanges></Clock>\n	Hungry_Donkey_bar_English_2-139-1	60.017	8	1.0.0.18	1	-1102488946	Standard	2.0.10.353	2.0.10.353	03-28-2016		18:02:59	2.0.10.248	102	Bar63-37.bmp	61	1	?	0r_4g.bmp	0r_4g.bmp	0r_2g.bmp	0r_2g.bmp	0r_4g.bmp				TrialProc	TrialList	0	cvbn	-999999	16	342661	0	c	456	343117	300	-188	112	-40	124	28	0	10	11	102	0	0	0	0	4	4	2	2	0	4
Hungry_Donkey_bar_English_2	139	1	<?xml version="1.0"?>\n<Clock xmlns:dt="urn:schemas-microsoft-com:datatypes"><Description dt:dt="string">E-Prime Primary Realtime Clock</Description><StartTime><Timestamp dt:dt="int">0</Timestamp><DateUtc dt:dt="string">2016-03-28T22:02:59Z</DateUtc></StartTime><FrequencyChanges><FrequencyChange><Frequency dt:dt="r8">3507685</Frequency><Timestamp dt:dt="r8">7486757258</Timestamp><Current dt:dt="r8">0</Current><DateUtc dt:dt="string">2016-03-28T22:02:59Z</DateUtc></FrequencyChange></FrequencyChanges></Clock>\n	Hungry_Donkey_bar_English_2-139-1	60.017	8	1.0.0.18	1	-1102488946	Standard	2.0.10.353	2.0.10.353	03-28-2016		18:02:59	2.0.10.248	103	Bar63-37.bmp	61	3	?	10r_4g.bmp	0r_4g.bmp	2r_2g.bmp	0r_2g.bmp			2r_2g.bmp		TrialProc	TrialList	0	cvbn	-999999	16	345143	0	b	806	345949	302	-190	112	-40	124	28	0	2	11	103	-10	0	-2	0	4	4	2	2	-2	2
Hungry_Donkey_bar_English_2	139	1	<?xml version="1.0"?>\n<Clock xmlns:dt="urn:schemas-microsoft-com:datatypes"><Description dt:dt="string">E-Prime Primary Realtime Clock</Description><StartTime><Timestamp dt:dt="int">0</Timestamp><DateUtc dt:dt="string">2016-03-28T22:02:59Z</DateUtc></StartTime><FrequencyChanges><FrequencyChange><Frequency dt:dt="r8">3507685</Frequency><Timestamp dt:dt="r8">7486757258</Timestamp><Current dt:dt="r8">0</Current><DateUtc dt:dt="string">2016-03-28T22:02:59Z</DateUtc></FrequencyChange></FrequencyChanges></Clock>\n	Hungry_Donkey_bar_English_2-139-1	60.017	8	1.0.0.18	1	-1102488946	Standard	2.0.10.353	2.0.10.353	03-28-2016		18:02:59	2.0.10.248	104	Bar63-37.bmp	62	2	?	0r_4g.bmp	0r_4g.bmp	0r_2g.bmp	0r_2g.bmp		0r_4g.bmp			TrialProc	TrialList	0	cvbn	-999999	16	347976	0	v	3621	351597	306	-190	116	-40	128	28	0	8	11	104	0	0	0	0	4	4	2	2	0	4
Hungry_Donkey_bar_English_2	139	1	<?xml version="1.0"?>\n<Clock xmlns:dt="urn:schemas-microsoft-com:datatypes"><Description dt:dt="string">E-Prime Primary Realtime Clock</Description><StartTime><Timestamp dt:dt="int">0</Timestamp><DateUtc dt:dt="string">2016-03-28T22:02:59Z</DateUtc></StartTime><FrequencyChanges><FrequencyChange><Frequency dt:dt="r8">3507685</Frequency><Timestamp dt:dt="r8">7486757258</Timestamp><Current dt:dt="r8">0</Current><DateUtc dt:dt="string">2016-03-28T22:02:59Z</DateUtc></FrequencyChange></FrequencyChanges></Clock>\n	Hungry_Donkey_bar_English_2-139-1	60.017	8	1.0.0.18	1	-1102488946	Standard	2.0.10.353	2.0.10.353	03-28-2016		18:02:59	2.0.10.248	105	Bar63-37.bmp	62	3	?	0r_4g.bmp	0r_4g.bmp	0r_2g.bmp	0r_2g.bmp			0r_2g.bmp		TrialProc	TrialList	0	cvbn	-999999	16	353624	0	b	4965	358589	308	-190	118	-40	128	30	0	9	11	105	0	0	0	0	4	4	2	2	0	2
Hungry_Donkey_bar_English_2	139	1	<?xml version="1.0"?>\n<Clock xmlns:dt="urn:schemas-microsoft-com:datatypes"><Description dt:dt="string">E-Prime Primary Realtime Clock</Description><StartTime><Timestamp dt:dt="int">0</Timestamp><DateUtc dt:dt="string">2016-03-28T22:02:59Z</DateUtc></StartTime><FrequencyChanges><FrequencyChange><Frequency dt:dt="r8">3507685</Frequency><Timestamp dt:dt="r8">7486757258</Timestamp><Current dt:dt="r8">0</Current><DateUtc dt:dt="string">2016-03-28T22:02:59Z</DateUtc></FrequencyChange></FrequencyChanges></Clock>\n	Hungry_Donkey_bar_English_2-139-1	60.017	8	1.0.0.18	1	-1102488946	Standard	2.0.10.353	2.0.10.353	03-28-2016		18:02:59	2.0.10.248	106	Bar63-37.bmp	62	2	?	10r_4g.bmp	0r_4g.bmp	2r_2g.bmp	0r_2g.bmp		0r_4g.bmp			TrialProc	TrialList	0	cvbn	-999999	16	360622	0	v	494	361116	312	-190	122	-40	132	30	0	3	11	106	-10	0	-2	0	4	4	2	2	0	4
Hungry_Donkey_bar_English_2	139	1	<?xml version="1.0"?>\n<Clock xmlns:dt="urn:schemas-microsoft-com:datatypes"><Description dt:dt="string">E-Prime Primary Realtime Clock</Description><StartTime><Timestamp dt:dt="int">0</Timestamp><DateUtc dt:dt="string">2016-03-28T22:02:59Z</DateUtc></StartTime><FrequencyChanges><FrequencyChange><Frequency dt:dt="r8">3507685</Frequency><Timestamp dt:dt="r8">7486757258</Timestamp><Current dt:dt="r8">0</Current><DateUtc dt:dt="string">2016-03-28T22:02:59Z</DateUtc></FrequencyChange></FrequencyChanges></Clock>\n	Hungry_Donkey_bar_English_2-139-1	60.017	8	1.0.0.18	1	-1102488946	Standard	2.0.10.353	2.0.10.353	03-28-2016		18:02:59	2.0.10.248	107	Bar63-37.bmp	62	2	?	10r_4g.bmp	0r_4g.bmp	2r_2g.bmp	0r_2g.bmp		0r_4g.bmp			TrialProc	TrialList	0	cvbn	-999999	16	363155	0	v	10185	373340	316	-190	126	-40	136	30	0	4	11	107	-10	0	-2	0	4	4	2	2	0	4
Hungry_Donkey_bar_English_2	139	1	<?xml version="1.0"?>\n<Clock xmlns:dt="urn:schemas-microsoft-com:datatypes"><Description dt:dt="string">E-Prime Primary Realtime Clock</Description><StartTime><Timestamp dt:dt="int">0</Timestamp><DateUtc dt:dt="string">2016-03-28T22:02:59Z</DateUtc></StartTime><FrequencyChanges><FrequencyChange><Frequency dt:dt="r8">3507685</Frequency><Timestamp dt:dt="r8">7486757258</Timestamp><Current dt:dt="r8">0</Current><DateUtc dt:dt="string">2016-03-28T22:02:59Z</DateUtc></FrequencyChange></FrequencyChanges></Clock>\n	Hungry_Donkey_bar_English_2-139-1	60.017	8	1.0.0.18	1	-1102488946	Standard	2.0.10.353	2.0.10.353	03-28-2016		18:02:59	2.0.10.248	108	Bar63-37.bmp	61	4	?	8r_4g.bmp	50r_4g.bmp	1r_2g.bmp	10r_2g.bmp				10r_2g.bmp	TrialProc	TrialList	0	cvbn	-999999	16	375368	0	n	5027	380395	318	-200	118	-40	136	30	-8	1	11	108	-8	-50	-1	-10	4	4	2	2	-10	2
Hungry_Donkey_bar_English_2	139	1	<?xml version="1.0"?>\n<Clock xmlns:dt="urn:schemas-microsoft-com:datatypes"><Description dt:dt="string">E-Prime Primary Realtime Clock</Description><StartTime><Timestamp dt:dt="int">0</Timestamp><DateUtc dt:dt="string">2016-03-28T22:02:59Z</DateUtc></StartTime><FrequencyChanges><FrequencyChange><Frequency dt:dt="r8">3507685</Frequency><Timestamp dt:dt="r8">7486757258</Timestamp><Current dt:dt="r8">0</Current><DateUtc dt:dt="string">2016-03-28T22:02:59Z</DateUtc></FrequencyChange></FrequencyChanges></Clock>\n	Hungry_Donkey_bar_English_2-139-1	60.017	8	1.0.0.18	1	-1102488946	Standard	2.0.10.353	2.0.10.353	03-28-2016		18:02:59	2.0.10.248	109	Bar63-37.bmp	62	2	?	0r_4g.bmp	0r_4g.bmp	0r_2g.bmp	0r_2g.bmp		0r_4g.bmp			TrialProc	TrialList	0	cvbn	-999999	16	382433	0	v	1082	383515	322	-200	122	-40	140	30	-8	6	11	109	0	0	0	0	4	4	2	2	0	4
Hungry_Donkey_bar_English_2	139	1	<?xml version="1.0"?>\n<Clock xmlns:dt="urn:schemas-microsoft-com:datatypes"><Description dt:dt="string">E-Prime Primary Realtime Clock</Description><StartTime><Timestamp dt:dt="int">0</Timestamp><DateUtc dt:dt="string">2016-03-28T22:02:59Z</DateUtc></StartTime><FrequencyChanges><FrequencyChange><Frequency dt:dt="r8">3507685</Frequency><Timestamp dt:dt="r8">7486757258</Timestamp><Current dt:dt="r8">0</Current><DateUtc dt:dt="string">2016-03-28T22:02:59Z</DateUtc></FrequencyChange></FrequencyChanges></Clock>\n	Hungry_Donkey_bar_English_2-139-1	60.017	8	1.0.0.18	1	-1102488946	Standard	2.0.10.353	2.0.10.353	03-28-2016		18:02:59	2.0.10.248	110	Bar63-37.bmp	62	3	?	0r_4g.bmp	0r_4g.bmp	0r_2g.bmp	0r_2g.bmp			0r_2g.bmp		TrialProc	TrialList	0	cvbn	-999999	16	385548	0	b	383	385931	324	-200	124	-40	140	32	-8	7	11	110	0	0	0	0	4	4	2	2	0	2
Hungry_Donkey_bar_English_2	139	1	<?xml version="1.0"?>\n<Clock xmlns:dt="urn:schemas-microsoft-com:datatypes"><Description dt:dt="string">E-Prime Primary Realtime Clock</Description><StartTime><Timestamp dt:dt="int">0</Timestamp><DateUtc dt:dt="string">2016-03-28T22:02:59Z</DateUtc></StartTime><FrequencyChanges><FrequencyChange><Frequency dt:dt="r8">3507685</Frequency><Timestamp dt:dt="r8">7486757258</Timestamp><Current dt:dt="r8">0</Current><DateUtc dt:dt="string">2016-03-28T22:02:59Z</DateUtc></FrequencyChange></FrequencyChanges></Clock>\n	Hungry_Donkey_bar_English_2-139-1	60.017	8	1.0.0.18	1	-1102488946	Standard	2.0.10.353	2.0.10.353	03-28-2016		18:02:59	2.0.10.248	111	Bar63-37.bmp	62	4	?	0r_4g.bmp	0r_4g.bmp	0r_2g.bmp	0r_2g.bmp				0r_2g.bmp	TrialProc	TrialList	0	cvbn	-999999	16	387964	0	n	527	388491	326	-200	126	-40	140	32	-6	10	12	111	0	0	0	0	4	4	2	2	0	2
Hungry_Donkey_bar_English_2	139	1	<?xml version="1.0"?>\n<Clock xmlns:dt="urn:schemas-microsoft-com:datatypes"><Description dt:dt="string">E-Prime Primary Realtime Clock</Description><StartTime><Timestamp dt:dt="int">0</Timestamp><DateUtc dt:dt="string">2016-03-28T22:02:59Z</DateUtc></StartTime><FrequencyChanges><FrequencyChange><Frequency dt:dt="r8">3507685</Frequency><Timestamp dt:dt="r8">7486757258</Timestamp><Current dt:dt="r8">0</Current><DateUtc dt:dt="string">2016-03-28T22:02:59Z</DateUtc></FrequencyChange></FrequencyChanges></Clock>\n	Hungry_Donkey_bar_English_2-139-1	60.017	8	1.0.0.18	1	-1102488946	Standard	2.0.10.353	2.0.10.353	03-28-2016		18:02:59	2.0.10.248	112	Bar63-37.bmp	61	1	?	10r_4g.bmp	0r_4g.bmp	2r_2g.bmp	0r_2g.bmp	10r_4g.bmp				TrialProc	TrialList	0	cvbn	-999999	16	390530	0	c	393	390923	330	-210	120	-46	140	32	-6	3	12	112	-10	0	-2	0	4	4	2	2	-10	4
Hungry_Donkey_bar_English_2	139	1	<?xml version="1.0"?>\n<Clock xmlns:dt="urn:schemas-microsoft-com:datatypes"><Description dt:dt="string">E-Prime Primary Realtime Clock</Description><StartTime><Timestamp dt:dt="int">0</Timestamp><DateUtc dt:dt="string">2016-03-28T22:02:59Z</DateUtc></StartTime><FrequencyChanges><FrequencyChange><Frequency dt:dt="r8">3507685</Frequency><Timestamp dt:dt="r8">7486757258</Timestamp><Current dt:dt="r8">0</Current><DateUtc dt:dt="string">2016-03-28T22:02:59Z</DateUtc></FrequencyChange></FrequencyChanges></Clock>\n	Hungry_Donkey_bar_English_2-139-1	60.017	8	1.0.0.18	1	-1102488946	Standard	2.0.10.353	2.0.10.353	03-28-2016		18:02:59	2.0.10.248	113	Bar63-37.bmp	61	3	?	8r_4g.bmp	50r_4g.bmp	1r_2g.bmp	10r_2g.bmp			1r_2g.bmp		TrialProc	TrialList	0	cvbn	-999999	16	392946	0	b	345	393291	332	-211	121	-46	140	33	-6	1	12	113	-8	-50	-1	-10	4	4	2	2	-1	2
Hungry_Donkey_bar_English_2	139	1	<?xml version="1.0"?>\n<Clock xmlns:dt="urn:schemas-microsoft-com:datatypes"><Description dt:dt="string">E-Prime Primary Realtime Clock</Description><StartTime><Timestamp dt:dt="int">0</Timestamp><DateUtc dt:dt="string">2016-03-28T22:02:59Z</DateUtc></StartTime><FrequencyChanges><FrequencyChange><Frequency dt:dt="r8">3507685</Frequency><Timestamp dt:dt="r8">7486757258</Timestamp><Current dt:dt="r8">0</Current><DateUtc dt:dt="string">2016-03-28T22:02:59Z</DateUtc></FrequencyChange></FrequencyChanges></Clock>\n	Hungry_Donkey_bar_English_2-139-1	60.017	8	1.0.0.18	1	-1102488946	Standard	2.0.10.353	2.0.10.353	03-28-2016		18:02:59	2.0.10.248	114	Bar63-37.bmp	61	2	?	10r_4g.bmp	0r_4g.bmp	2r_2g.bmp	0r_2g.bmp		0r_4g.bmp			TrialProc	TrialList	0	cvbn	-999999	16	395329	0	v	330	395659	336	-211	125	-46	144	33	-6	4	12	114	-10	0	-2	0	4	4	2	2	0	4
