ExperimentName	Subject	Session	Clock.Information	DataFile.Basename	Display.RefreshRate	Eindtotaal[Session]	ExperimentVersion	Group	RandomSeed	RuntimeCapabilities	RuntimeVersion	RuntimeVersionExpected	SessionDate	SessionStartDateTimeUtc	SessionTime	StudioVersion	Block	BarImage	BarTotalWinst	DoorChoice	Eindtotaal[Block]	FBDoor1	FBDoor2	FBDoor3	FBDoor4	Image1	Image2	Image3	Image4	Procedure	Running	spel.ACC	spel.CRESP	spel.DurationError	spel.OnsetDelay	spel.OnsetTime	spel.OnsetToOnsetTime	spel.RESP	spel.RT	spel.RTTime	TotalGain	TotalLose	Totalsum	TotalsumD1	TotalsumD2	TotalsumD3	TotalsumD4	TrialList	TrialList.Cycle	TrialList.Sample	varV1	varV2	varV3	varV4	varW1	varW2	varW3	varW4	Verliesbedrag	Winstbedrag
Hungry_Donkey_bar_English_2	102	3	<?xml version="1.0"?>\n<Clock xmlns:dt="urn:schemas-microsoft-com:datatypes"><Description dt:dt="string">E-Prime Primary Realtime Clock</Description><StartTime><Timestamp dt:dt="int">0</Timestamp><DateUtc dt:dt="string">2015-05-19T22:34:19Z</DateUtc></StartTime><FrequencyChanges><FrequencyChange><Frequency dt:dt="r8">2597685</Frequency><Timestamp dt:dt="r8">16269795895</Timestamp><Current dt:dt="r8">0</Current><DateUtc dt:dt="string">2015-05-19T22:34:19Z</DateUtc></FrequencyChange></FrequencyChanges></Clock>\n	Hungry_Donkey_bar_English_2-102-3	59.973	-81	1.0.0.17	1	-909571970	Standard	2.0.10.353	2.0.10.353	05-19-2015		18:34:19	2.0.10.248	1	Bar13-87.bmp	7	2	?	8r_4g.bmp	50r_4g.bmp	1r_2g.bmp	10r_2g.bmp		50r_4g.bmp			TrialProc	TrialList	0	cvbn	-999999	29	8160	0	v	3331	11491	4	-50	-46	0	-46	0	0	1	1	1	-8	-50	-1	-10	4	4	2	2	-50	4
Hungry_Donkey_bar_English_2	102	3	<?xml version="1.0"?>\n<Clock xmlns:dt="urn:schemas-microsoft-com:datatypes"><Description dt:dt="string">E-Prime Primary Realtime Clock</Description><StartTime><Timestamp dt:dt="int">0</Timestamp><DateUtc dt:dt="string">2015-05-19T22:34:19Z</DateUtc></StartTime><FrequencyChanges><FrequencyChange><Frequency dt:dt="r8">2597685</Frequency><Timestamp dt:dt="r8">16269795895</Timestamp><Current dt:dt="r8">0</Current><DateUtc dt:dt="string">2015-05-19T22:34:19Z</DateUtc></FrequencyChange></FrequencyChanges></Clock>\n	Hungry_Donkey_bar_English_2-102-3	59.973	-81	1.0.0.17	1	-909571970	Standard	2.0.10.353	2.0.10.353	05-19-2015		18:34:19	2.0.10.248	2	Bar13-87.bmp	11	3	?	0r_4g.bmp	0r_4g.bmp	0r_2g.bmp	0r_2g.bmp			0r_2g.bmp		TrialProc	TrialList	0	cvbn	-999999	18	13613	0	b	2870	16483	6	-50	-44	0	-46	2	0	9	1	2	0	0	0	0	4	4	2	2	0	2
Hungry_Donkey_bar_English_2	102	3	<?xml version="1.0"?>\n<Clock xmlns:dt="urn:schemas-microsoft-com:datatypes"><Description dt:dt="string">E-Prime Primary Realtime Clock</Description><StartTime><Timestamp dt:dt="int">0</Timestamp><DateUtc dt:dt="string">2015-05-19T22:34:19Z</DateUtc></StartTime><FrequencyChanges><FrequencyChange><Frequency dt:dt="r8">2597685</Frequency><Timestamp dt:dt="r8">16269795895</Timestamp><Current dt:dt="r8">0</Current><DateUtc dt:dt="string">2015-05-19T22:34:19Z</DateUtc></FrequencyChange></FrequencyChanges></Clock>\n	Hungry_Donkey_bar_English_2-102-3	59.973	-81	1.0.0.17	1	-909571970	Standard	2.0.10.353	2.0.10.353	05-19-2015		18:34:19	2.0.10.248	3	Bar13-87.bmp	14	4	?	10r_4g.bmp	0r_4g.bmp	2r_2g.bmp	0r_2g.bmp				0r_2g.bmp	TrialProc	TrialList	0	cvbn	-999999	18	18565	0	n	1790	20355	8	-50	-42	0	-46	2	2	2	1	3	-10	0	-2	0	4	4	2	2	0	2
Hungry_Donkey_bar_English_2	102	3	<?xml version="1.0"?>\n<Clock xmlns:dt="urn:schemas-microsoft-com:datatypes"><Description dt:dt="string">E-Prime Primary Realtime Clock</Description><StartTime><Timestamp dt:dt="int">0</Timestamp><DateUtc dt:dt="string">2015-05-19T22:34:19Z</DateUtc></StartTime><FrequencyChanges><FrequencyChange><Frequency dt:dt="r8">2597685</Frequency><Timestamp dt:dt="r8">16269795895</Timestamp><Current dt:dt="r8">0</Current><DateUtc dt:dt="string">2015-05-19T22:34:19Z</DateUtc></FrequencyChange></FrequencyChanges></Clock>\n	Hungry_Donkey_bar_English_2-102-3	59.973	-81	1.0.0.17	1	-909571970	Standard	2.0.10.353	2.0.10.353	05-19-2015		18:34:19	2.0.10.248	4	Bar13-87.bmp	19	1	?	0r_4g.bmp	0r_4g.bmp	0r_2g.bmp	0r_2g.bmp	0r_4g.bmp				TrialProc	TrialList	0	cvbn	-999999	18	22400	0	c	691	23091	12	-50	-38	4	-46	2	2	7	1	4	0	0	0	0	4	4	2	2	0	4
Hungry_Donkey_bar_English_2	102	3	<?xml version="1.0"?>\n<Clock xmlns:dt="urn:schemas-microsoft-com:datatypes"><Description dt:dt="string">E-Prime Primary Realtime Clock</Description><StartTime><Timestamp dt:dt="int">0</Timestamp><DateUtc dt:dt="string">2015-05-19T22:34:19Z</DateUtc></StartTime><FrequencyChanges><FrequencyChange><Frequency dt:dt="r8">2597685</Frequency><Timestamp dt:dt="r8">16269795895</Timestamp><Current dt:dt="r8">0</Current><DateUtc dt:dt="string">2015-05-19T22:34:19Z</DateUtc></FrequencyChange></FrequencyChanges></Clock>\n	Hungry_Donkey_bar_English_2-102-3	59.973	-81	1.0.0.17	1	-909571970	Standard	2.0.10.353	2.0.10.353	05-19-2015		18:34:19	2.0.10.248	5	Bar25-75.bmp	21	3	?	10r_4g.bmp	0r_4g.bmp	2r_2g.bmp	0r_2g.bmp			2r_2g.bmp		TrialProc	TrialList	0	cvbn	-999999	18	25185	0	b	434	25619	14	-52	-38	4	-46	2	2	4	1	5	-10	0	-2	0	4	4	2	2	-2	2
Hungry_Donkey_bar_English_2	102	3	<?xml version="1.0"?>\n<Clock xmlns:dt="urn:schemas-microsoft-com:datatypes"><Description dt:dt="string">E-Prime Primary Realtime Clock</Description><StartTime><Timestamp dt:dt="int">0</Timestamp><DateUtc dt:dt="string">2015-05-19T22:34:19Z</DateUtc></StartTime><FrequencyChanges><FrequencyChange><Frequency dt:dt="r8">2597685</Frequency><Timestamp dt:dt="r8">16269795895</Timestamp><Current dt:dt="r8">0</Current><DateUtc dt:dt="string">2015-05-19T22:34:19Z</DateUtc></FrequencyChange></FrequencyChanges></Clock>\n	Hungry_Donkey_bar_English_2-102-3	59.973	-81	1.0.0.17	1	-909571970	Standard	2.0.10.353	2.0.10.353	05-19-2015		18:34:19	2.0.10.248	6	Bar25-75.bmp	26	2	?	0r_4g.bmp	0r_4g.bmp	0r_2g.bmp	0r_2g.bmp		0r_4g.bmp			TrialProc	TrialList	0	cvbn	-999999	18	27719	0	v	588	28307	18	-52	-34	4	-42	2	2	8	1	6	0	0	0	0	4	4	2	2	0	4
Hungry_Donkey_bar_English_2	102	3	<?xml version="1.0"?>\n<Clock xmlns:dt="urn:schemas-microsoft-com:datatypes"><Description dt:dt="string">E-Prime Primary Realtime Clock</Description><StartTime><Timestamp dt:dt="int">0</Timestamp><DateUtc dt:dt="string">2015-05-19T22:34:19Z</DateUtc></StartTime><FrequencyChanges><FrequencyChange><Frequency dt:dt="r8">2597685</Frequency><Timestamp dt:dt="r8">16269795895</Timestamp><Current dt:dt="r8">0</Current><DateUtc dt:dt="string">2015-05-19T22:34:19Z</DateUtc></FrequencyChange></FrequencyChanges></Clock>\n	Hungry_Donkey_bar_English_2-102-3	59.973	-81	1.0.0.17	1	-909571970	Standard	2.0.10.353	2.0.10.353	05-19-2015		18:34:19	2.0.10.248	7	Bar25-75.bmp	28	4	?	0r_4g.bmp	0r_4g.bmp	0r_2g.bmp	0r_2g.bmp				0r_2g.bmp	TrialProc	TrialList	0	cvbn	-999999	18	30337	0	n	4978	35315	20	-52	-32	4	-42	2	4	10	1	7	0	0	0	0	4	4	2	2	0	2
Hungry_Donkey_bar_English_2	102	3	<?xml version="1.0"?>\n<Clock xmlns:dt="urn:schemas-microsoft-com:datatypes"><Description dt:dt="string">E-Prime Primary Realtime Clock</Description><StartTime><Timestamp dt:dt="int">0</Timestamp><DateUtc dt:dt="string">2015-05-19T22:34:19Z</DateUtc></StartTime><FrequencyChanges><FrequencyChange><Frequency dt:dt="r8">2597685</Frequency><Timestamp dt:dt="r8">16269795895</Timestamp><Current dt:dt="r8">0</Current><DateUtc dt:dt="string">2015-05-19T22:34:19Z</DateUtc></FrequencyChange></FrequencyChanges></Clock>\n	Hungry_Donkey_bar_English_2-102-3	59.973	-81	1.0.0.17	1	-909571970	Standard	2.0.10.353	2.0.10.353	05-19-2015		18:34:19	2.0.10.248	8	Bar25-75.bmp	29	3	?	12r_4g.bmp	0r_4g.bmp	3r_2g.bmp	0r_2g.bmp			3r_2g.bmp		TrialProc	TrialList	0	cvbn	-999999	18	37357	0	b	646	38003	22	-55	-33	4	-42	1	4	5	1	8	-12	0	-3	0	4	4	2	2	-3	2
Hungry_Donkey_bar_English_2	102	3	<?xml version="1.0"?>\n<Clock xmlns:dt="urn:schemas-microsoft-com:datatypes"><Description dt:dt="string">E-Prime Primary Realtime Clock</Description><StartTime><Timestamp dt:dt="int">0</Timestamp><DateUtc dt:dt="string">2015-05-19T22:34:19Z</DateUtc></StartTime><FrequencyChanges><FrequencyChange><Frequency dt:dt="r8">2597685</Frequency><Timestamp dt:dt="r8">16269795895</Timestamp><Current dt:dt="r8">0</Current><DateUtc dt:dt="string">2015-05-19T22:34:19Z</DateUtc></FrequencyChange></FrequencyChanges></Clock>\n	Hungry_Donkey_bar_English_2-102-3	59.973	-81	1.0.0.17	1	-909571970	Standard	2.0.10.353	2.0.10.353	05-19-2015		18:34:19	2.0.10.248	9	Bar37-63.bmp	32	2	?	10r_4g.bmp	0r_4g.bmp	2r_2g.bmp	0r_2g.bmp		0r_4g.bmp			TrialProc	TrialList	0	cvbn	-999999	18	40075	0	v	552	40627	26	-55	-29	4	-38	1	4	3	1	9	-10	0	-2	0	4	4	2	2	0	4
Hungry_Donkey_bar_English_2	102	3	<?xml version="1.0"?>\n<Clock xmlns:dt="urn:schemas-microsoft-com:datatypes"><Description dt:dt="string">E-Prime Primary Realtime Clock</Description><StartTime><Timestamp dt:dt="int">0</Timestamp><DateUtc dt:dt="string">2015-05-19T22:34:19Z</DateUtc></StartTime><FrequencyChanges><FrequencyChange><Frequency dt:dt="r8">2597685</Frequency><Timestamp dt:dt="r8">16269795895</Timestamp><Current dt:dt="r8">0</Current><DateUtc dt:dt="string">2015-05-19T22:34:19Z</DateUtc></FrequencyChange></FrequencyChanges></Clock>\n	Hungry_Donkey_bar_English_2-102-3	59.973	-81	1.0.0.17	1	-909571970	Standard	2.0.10.353	2.0.10.353	05-19-2015		18:34:19	2.0.10.248	10	Bar37-63.bmp	35	1	?	0r_4g.bmp	0r_4g.bmp	0r_2g.bmp	0r_2g.bmp	0r_4g.bmp				TrialProc	TrialList	0	cvbn	-999999	17	42692	0	c	670	43362	30	-55	-25	8	-38	1	4	6	1	10	0	0	0	0	4	4	2	2	0	4
Hungry_Donkey_bar_English_2	102	3	<?xml version="1.0"?>\n<Clock xmlns:dt="urn:schemas-microsoft-com:datatypes"><Description dt:dt="string">E-Prime Primary Realtime Clock</Description><StartTime><Timestamp dt:dt="int">0</Timestamp><DateUtc dt:dt="string">2015-05-19T22:34:19Z</DateUtc></StartTime><FrequencyChanges><FrequencyChange><Frequency dt:dt="r8">2597685</Frequency><Timestamp dt:dt="r8">16269795895</Timestamp><Current dt:dt="r8">0</Current><DateUtc dt:dt="string">2015-05-19T22:34:19Z</DateUtc></FrequencyChange></FrequencyChanges></Clock>\n	Hungry_Donkey_bar_English_2-102-3	59.973	-81	1.0.0.17	1	-909571970	Standard	2.0.10.353	2.0.10.353	05-19-2015		18:34:19	2.0.10.248	11	Bar37-63.bmp	38	2	?	0r_4g.bmp	0r_4g.bmp	0r_2g.bmp	0r_2g.bmp		0r_4g.bmp			TrialProc	TrialList	0	cvbn	-999999	18	45394	0	v	880	46274	34	-55	-21	8	-34	1	4	6	2	11	0	0	0	0	4	4	2	2	0	4
Hungry_Donkey_bar_English_2	102	3	<?xml version="1.0"?>\n<Clock xmlns:dt="urn:schemas-microsoft-com:datatypes"><Description dt:dt="string">E-Prime Primary Realtime Clock</Description><StartTime><Timestamp dt:dt="int">0</Timestamp><DateUtc dt:dt="string">2015-05-19T22:34:19Z</DateUtc></StartTime><FrequencyChanges><FrequencyChange><Frequency dt:dt="r8">2597685</Frequency><Timestamp dt:dt="r8">16269795895</Timestamp><Current dt:dt="r8">0</Current><DateUtc dt:dt="string">2015-05-19T22:34:19Z</DateUtc></FrequencyChange></FrequencyChanges></Clock>\n	Hungry_Donkey_bar_English_2-102-3	59.973	-81	1.0.0.17	1	-909571970	Standard	2.0.10.353	2.0.10.353	05-19-2015		18:34:19	2.0.10.248	12	Bar37-63.bmp	40	3	?	0r_4g.bmp	0r_4g.bmp	0r_2g.bmp	0r_2g.bmp			0r_2g.bmp		TrialProc	TrialList	0	cvbn	-999999	18	48312	0	b	586	48898	36	-55	-19	8	-34	3	4	7	2	12	0	0	0	0	4	4	2	2	0	2
Hungry_Donkey_bar_English_2	102	3	<?xml version="1.0"?>\n<Clock xmlns:dt="urn:schemas-microsoft-com:datatypes"><Description dt:dt="string">E-Prime Primary Realtime Clock</Description><StartTime><Timestamp dt:dt="int">0</Timestamp><DateUtc dt:dt="string">2015-05-19T22:34:19Z</DateUtc></StartTime><FrequencyChanges><FrequencyChange><Frequency dt:dt="r8">2597685</Frequency><Timestamp dt:dt="r8">16269795895</Timestamp><Current dt:dt="r8">0</Current><DateUtc dt:dt="string">2015-05-19T22:34:19Z</DateUtc></FrequencyChange></FrequencyChanges></Clock>\n	Hungry_Donkey_bar_English_2-102-3	59.973	-81	1.0.0.17	1	-909571970	Standard	2.0.10.353	2.0.10.353	05-19-2015		18:34:19	2.0.10.248	13	Bar37-63.bmp	41	3	?	0r_4g.bmp	0r_4g.bmp	0r_2g.bmp	0r_2g.bmp			0r_2g.bmp		TrialProc	TrialList	0	cvbn	-999999	17	50929	0	b	1633	52562	38	-55	-17	8	-34	5	4	10	2	13	0	0	0	0	4	4	2	2	0	2
Hungry_Donkey_bar_English_2	102	3	<?xml version="1.0"?>\n<Clock xmlns:dt="urn:schemas-microsoft-com:datatypes"><Description dt:dt="string">E-Prime Primary Realtime Clock</Description><StartTime><Timestamp dt:dt="int">0</Timestamp><DateUtc dt:dt="string">2015-05-19T22:34:19Z</DateUtc></StartTime><FrequencyChanges><FrequencyChange><Frequency dt:dt="r8">2597685</Frequency><Timestamp dt:dt="r8">16269795895</Timestamp><Current dt:dt="r8">0</Current><DateUtc dt:dt="string">2015-05-19T22:34:19Z</DateUtc></FrequencyChange></FrequencyChanges></Clock>\n	Hungry_Donkey_bar_English_2-102-3	59.973	-81	1.0.0.17	1	-909571970	Standard	2.0.10.353	2.0.10.353	05-19-2015		18:34:19	2.0.10.248	14	Bar37-63.bmp	43	1	?	0r_4g.bmp	0r_4g.bmp	0r_2g.bmp	0r_2g.bmp	0r_4g.bmp				TrialProc	TrialList	0	cvbn	-999999	18	54598	0	c	1244	55842	42	-55	-13	12	-34	5	4	9	2	14	0	0	0	0	4	4	2	2	0	4
Hungry_Donkey_bar_English_2	102	3	<?xml version="1.0"?>\n<Clock xmlns:dt="urn:schemas-microsoft-com:datatypes"><Description dt:dt="string">E-Prime Primary Realtime Clock</Description><StartTime><Timestamp dt:dt="int">0</Timestamp><DateUtc dt:dt="string">2015-05-19T22:34:19Z</DateUtc></StartTime><FrequencyChanges><FrequencyChange><Frequency dt:dt="r8">2597685</Frequency><Timestamp dt:dt="r8">16269795895</Timestamp><Current dt:dt="r8">0</Current><DateUtc dt:dt="string">2015-05-19T22:34:19Z</DateUtc></FrequencyChange></FrequencyChanges></Clock>\n	Hungry_Donkey_bar_English_2-102-3	59.973	-81	1.0.0.17	1	-909571970	Standard	2.0.10.353	2.0.10.353	05-19-2015		18:34:19	2.0.10.248	15	Bar50-50.bmp	46	2	?	10r_4g.bmp	0r_4g.bmp	2r_2g.bmp	0r_2g.bmp		0r_4g.bmp			TrialProc	TrialList	0	cvbn	-999999	18	57883	0	v	919	58802	46	-55	-9	12	-30	5	4	3	2	15	-10	0	-2	0	4	4	2	2	0	4
Hungry_Donkey_bar_English_2	102	3	<?xml version="1.0"?>\n<Clock xmlns:dt="urn:schemas-microsoft-com:datatypes"><Description dt:dt="string">E-Prime Primary Realtime Clock</Description><StartTime><Timestamp dt:dt="int">0</Timestamp><DateUtc dt:dt="string">2015-05-19T22:34:19Z</DateUtc></StartTime><FrequencyChanges><FrequencyChange><Frequency dt:dt="r8">2597685</Frequency><Timestamp dt:dt="r8">16269795895</Timestamp><Current dt:dt="r8">0</Current><DateUtc dt:dt="string">2015-05-19T22:34:19Z</DateUtc></FrequencyChange></FrequencyChanges></Clock>\n	Hungry_Donkey_bar_English_2-102-3	59.973	-81	1.0.0.17	1	-909571970	Standard	2.0.10.353	2.0.10.353	05-19-2015		18:34:19	2.0.10.248	16	Bar50-50.bmp	47	4	?	0r_4g.bmp	0r_4g.bmp	0r_2g.bmp	0r_2g.bmp				0r_2g.bmp	TrialProc	TrialList	0	cvbn	-999999	17	60867	0	n	2063	62930	48	-55	-7	12	-30	5	6	8	2	16	0	0	0	0	4	4	2	2	0	2
Hungry_Donkey_bar_English_2	102	3	<?xml version="1.0"?>\n<Clock xmlns:dt="urn:schemas-microsoft-com:datatypes"><Description dt:dt="string">E-Prime Primary Realtime Clock</Description><StartTime><Timestamp dt:dt="int">0</Timestamp><DateUtc dt:dt="string">2015-05-19T22:34:19Z</DateUtc></StartTime><FrequencyChanges><FrequencyChange><Frequency dt:dt="r8">2597685</Frequency><Timestamp dt:dt="r8">16269795895</Timestamp><Current dt:dt="r8">0</Current><DateUtc dt:dt="string">2015-05-19T22:34:19Z</DateUtc></FrequencyChange></FrequencyChanges></Clock>\n	Hungry_Donkey_bar_English_2-102-3	59.973	-81	1.0.0.17	1	-909571970	Standard	2.0.10.353	2.0.10.353	05-19-2015		18:34:19	2.0.10.248	17	Bar37-63.bmp	33	2	?	8r_4g.bmp	50r_4g.bmp	1r_2g.bmp	10r_2g.bmp		50r_4g.bmp			TrialProc	TrialList	0	cvbn	-999999	18	64969	0	v	425	65394	52	-105	-53	12	-76	5	6	1	2	17	-8	-50	-1	-10	4	4	2	2	-50	4
Hungry_Donkey_bar_English_2	102	3	<?xml version="1.0"?>\n<Clock xmlns:dt="urn:schemas-microsoft-com:datatypes"><Description dt:dt="string">E-Prime Primary Realtime Clock</Description><StartTime><Timestamp dt:dt="int">0</Timestamp><DateUtc dt:dt="string">2015-05-19T22:34:19Z</DateUtc></StartTime><FrequencyChanges><FrequencyChange><Frequency dt:dt="r8">2597685</Frequency><Timestamp dt:dt="r8">16269795895</Timestamp><Current dt:dt="r8">0</Current><DateUtc dt:dt="string">2015-05-19T22:34:19Z</DateUtc></FrequencyChange></FrequencyChanges></Clock>\n	Hungry_Donkey_bar_English_2-102-3	59.973	-81	1.0.0.17	1	-909571970	Standard	2.0.10.353	2.0.10.353	05-19-2015		18:34:19	2.0.10.248	18	Bar37-63.bmp	32	1	?	12r_4g.bmp	0r_4g.bmp	3r_2g.bmp	0r_2g.bmp	12r_4g.bmp				TrialProc	TrialList	0	cvbn	-999999	18	67437	0	c	1461	68898	56	-117	-61	4	-76	5	6	5	2	18	-12	0	-3	0	4	4	2	2	-12	4
Hungry_Donkey_bar_English_2	102	3	<?xml version="1.0"?>\n<Clock xmlns:dt="urn:schemas-microsoft-com:datatypes"><Description dt:dt="string">E-Prime Primary Realtime Clock</Description><StartTime><Timestamp dt:dt="int">0</Timestamp><DateUtc dt:dt="string">2015-05-19T22:34:19Z</DateUtc></StartTime><FrequencyChanges><FrequencyChange><Frequency dt:dt="r8">2597685</Frequency><Timestamp dt:dt="r8">16269795895</Timestamp><Current dt:dt="r8">0</Current><DateUtc dt:dt="string">2015-05-19T22:34:19Z</DateUtc></FrequencyChange></FrequencyChanges></Clock>\n	Hungry_Donkey_bar_English_2-102-3	59.973	-81	1.0.0.17	1	-909571970	Standard	2.0.10.353	2.0.10.353	05-19-2015		18:34:19	2.0.10.248	19	Bar37-63.bmp	33	4	?	10r_4g.bmp	0r_4g.bmp	2r_2g.bmp	0r_2g.bmp				0r_2g.bmp	TrialProc	TrialList	0	cvbn	-999999	18	70972	0	n	1142	72114	58	-117	-59	4	-76	5	8	2	2	19	-10	0	-2	0	4	4	2	2	0	2
Hungry_Donkey_bar_English_2	102	3	<?xml version="1.0"?>\n<Clock xmlns:dt="urn:schemas-microsoft-com:datatypes"><Description dt:dt="string">E-Prime Primary Realtime Clock</Description><StartTime><Timestamp dt:dt="int">0</Timestamp><DateUtc dt:dt="string">2015-05-19T22:34:19Z</DateUtc></StartTime><FrequencyChanges><FrequencyChange><Frequency dt:dt="r8">2597685</Frequency><Timestamp dt:dt="r8">16269795895</Timestamp><Current dt:dt="r8">0</Current><DateUtc dt:dt="string">2015-05-19T22:34:19Z</DateUtc></FrequencyChange></FrequencyChanges></Clock>\n	Hungry_Donkey_bar_English_2-102-3	59.973	-81	1.0.0.17	1	-909571970	Standard	2.0.10.353	2.0.10.353	05-19-2015		18:34:19	2.0.10.248	20	Bar37-63.bmp	34	3	?	10r_4g.bmp	0r_4g.bmp	2r_2g.bmp	0r_2g.bmp			2r_2g.bmp		TrialProc	TrialList	0	cvbn	-999999	17	74156	0	b	1126	75282	60	-119	-59	4	-76	5	8	4	2	20	-10	0	-2	0	4	4	2	2	-2	2
Hungry_Donkey_bar_English_2	102	3	<?xml version="1.0"?>\n<Clock xmlns:dt="urn:schemas-microsoft-com:datatypes"><Description dt:dt="string">E-Prime Primary Realtime Clock</Description><StartTime><Timestamp dt:dt="int">0</Timestamp><DateUtc dt:dt="string">2015-05-19T22:34:19Z</DateUtc></StartTime><FrequencyChanges><FrequencyChange><Frequency dt:dt="r8">2597685</Frequency><Timestamp dt:dt="r8">16269795895</Timestamp><Current dt:dt="r8">0</Current><DateUtc dt:dt="string">2015-05-19T22:34:19Z</DateUtc></FrequencyChange></FrequencyChanges></Clock>\n	Hungry_Donkey_bar_English_2-102-3	59.973	-81	1.0.0.17	1	-909571970	Standard	2.0.10.353	2.0.10.353	05-19-2015		18:34:19	2.0.10.248	21	Bar37-63.bmp	34	4	?	12r_4g.bmp	0r_4g.bmp	3r_2g.bmp	0r_2g.bmp				0r_2g.bmp	TrialProc	TrialList	0	cvbn	-999999	18	77325	0	n	261	77586	62	-119	-57	4	-76	5	10	5	3	21	-12	0	-3	0	4	4	2	2	0	2
Hungry_Donkey_bar_English_2	102	3	<?xml version="1.0"?>\n<Clock xmlns:dt="urn:schemas-microsoft-com:datatypes"><Description dt:dt="string">E-Prime Primary Realtime Clock</Description><StartTime><Timestamp dt:dt="int">0</Timestamp><DateUtc dt:dt="string">2015-05-19T22:34:19Z</DateUtc></StartTime><FrequencyChanges><FrequencyChange><Frequency dt:dt="r8">2597685</Frequency><Timestamp dt:dt="r8">16269795895</Timestamp><Current dt:dt="r8">0</Current><DateUtc dt:dt="string">2015-05-19T22:34:19Z</DateUtc></FrequencyChange></FrequencyChanges></Clock>\n	Hungry_Donkey_bar_English_2-102-3	59.973	-81	1.0.0.17	1	-909571970	Standard	2.0.10.353	2.0.10.353	05-19-2015		18:34:19	2.0.10.248	22	Bar37-63.bmp	35	4	?	10r_4g.bmp	0r_4g.bmp	2r_2g.bmp	0r_2g.bmp				0r_2g.bmp	TrialProc	TrialList	0	cvbn	-999999	18	79626	0	n	472	80098	64	-119	-55	4	-76	5	12	2	3	22	-10	0	-2	0	4	4	2	2	0	2
Hungry_Donkey_bar_English_2	102	3	<?xml version="1.0"?>\n<Clock xmlns:dt="urn:schemas-microsoft-com:datatypes"><Description dt:dt="string">E-Prime Primary Realtime Clock</Description><StartTime><Timestamp dt:dt="int">0</Timestamp><DateUtc dt:dt="string">2015-05-19T22:34:19Z</DateUtc></StartTime><FrequencyChanges><FrequencyChange><Frequency dt:dt="r8">2597685</Frequency><Timestamp dt:dt="r8">16269795895</Timestamp><Current dt:dt="r8">0</Current><DateUtc dt:dt="string">2015-05-19T22:34:19Z</DateUtc></FrequencyChange></FrequencyChanges></Clock>\n	Hungry_Donkey_bar_English_2-102-3	59.973	-81	1.0.0.17	1	-909571970	Standard	2.0.10.353	2.0.10.353	05-19-2015		18:34:19	2.0.10.248	23	Bar37-63.bmp	36	4	?	0r_4g.bmp	0r_4g.bmp	0r_2g.bmp	0r_2g.bmp				0r_2g.bmp	TrialProc	TrialList	0	cvbn	-999999	18	82127	0	n	419	82546	66	-119	-53	4	-76	5	14	6	3	23	0	0	0	0	4	4	2	2	0	2
Hungry_Donkey_bar_English_2	102	3	<?xml version="1.0"?>\n<Clock xmlns:dt="urn:schemas-microsoft-com:datatypes"><Description dt:dt="string">E-Prime Primary Realtime Clock</Description><StartTime><Timestamp dt:dt="int">0</Timestamp><DateUtc dt:dt="string">2015-05-19T22:34:19Z</DateUtc></StartTime><FrequencyChanges><FrequencyChange><Frequency dt:dt="r8">2597685</Frequency><Timestamp dt:dt="r8">16269795895</Timestamp><Current dt:dt="r8">0</Current><DateUtc dt:dt="string">2015-05-19T22:34:19Z</DateUtc></FrequencyChange></FrequencyChanges></Clock>\n	Hungry_Donkey_bar_English_2-102-3	59.973	-81	1.0.0.17	1	-909571970	Standard	2.0.10.353	2.0.10.353	05-19-2015		18:34:19	2.0.10.248	24	Bar37-63.bmp	36	4	?	0r_4g.bmp	0r_4g.bmp	0r_2g.bmp	0r_2g.bmp				0r_2g.bmp	TrialProc	TrialList	0	cvbn	-999999	18	84578	0	n	384	84962	68	-119	-51	4	-76	5	16	10	3	24	0	0	0	0	4	4	2	2	0	2
Hungry_Donkey_bar_English_2	102	3	<?xml version="1.0"?>\n<Clock xmlns:dt="urn:schemas-microsoft-com:datatypes"><Description dt:dt="string">E-Prime Primary Realtime Clock</Description><StartTime><Timestamp dt:dt="int">0</Timestamp><DateUtc dt:dt="string">2015-05-19T22:34:19Z</DateUtc></StartTime><FrequencyChanges><FrequencyChange><Frequency dt:dt="r8">2597685</Frequency><Timestamp dt:dt="r8">16269795895</Timestamp><Current dt:dt="r8">0</Current><DateUtc dt:dt="string">2015-05-19T22:34:19Z</DateUtc></FrequencyChange></FrequencyChanges></Clock>\n	Hungry_Donkey_bar_English_2-102-3	59.973	-81	1.0.0.17	1	-909571970	Standard	2.0.10.353	2.0.10.353	05-19-2015		18:34:19	2.0.10.248	25	Bar37-63.bmp	37	4	?	0r_4g.bmp	0r_4g.bmp	0r_2g.bmp	0r_2g.bmp				0r_2g.bmp	TrialProc	TrialList	0	cvbn	-999999	18	86996	0	n	350	87346	70	-119	-49	4	-76	5	18	8	3	25	0	0	0	0	4	4	2	2	0	2
Hungry_Donkey_bar_English_2	102	3	<?xml version="1.0"?>\n<Clock xmlns:dt="urn:schemas-microsoft-com:datatypes"><Description dt:dt="string">E-Prime Primary Realtime Clock</Description><StartTime><Timestamp dt:dt="int">0</Timestamp><DateUtc dt:dt="string">2015-05-19T22:34:19Z</DateUtc></StartTime><FrequencyChanges><FrequencyChange><Frequency dt:dt="r8">2597685</Frequency><Timestamp dt:dt="r8">16269795895</Timestamp><Current dt:dt="r8">0</Current><DateUtc dt:dt="string">2015-05-19T22:34:19Z</DateUtc></FrequencyChange></FrequencyChanges></Clock>\n	Hungry_Donkey_bar_English_2-102-3	59.973	-81	1.0.0.17	1	-909571970	Standard	2.0.10.353	2.0.10.353	05-19-2015		18:34:19	2.0.10.248	26	Bar37-63.bmp	38	3	?	0r_4g.bmp	0r_4g.bmp	0r_2g.bmp	0r_2g.bmp			0r_2g.bmp		TrialProc	TrialList	0	cvbn	-999999	18	89380	0	b	174	89554	72	-119	-47	4	-76	7	18	9	3	26	0	0	0	0	4	4	2	2	0	2
Hungry_Donkey_bar_English_2	102	3	<?xml version="1.0"?>\n<Clock xmlns:dt="urn:schemas-microsoft-com:datatypes"><Description dt:dt="string">E-Prime Primary Realtime Clock</Description><StartTime><Timestamp dt:dt="int">0</Timestamp><DateUtc dt:dt="string">2015-05-19T22:34:19Z</DateUtc></StartTime><FrequencyChanges><FrequencyChange><Frequency dt:dt="r8">2597685</Frequency><Timestamp dt:dt="r8">16269795895</Timestamp><Current dt:dt="r8">0</Current><DateUtc dt:dt="string">2015-05-19T22:34:19Z</DateUtc></FrequencyChange></FrequencyChanges></Clock>\n	Hungry_Donkey_bar_English_2-102-3	59.973	-81	1.0.0.17	1	-909571970	Standard	2.0.10.353	2.0.10.353	05-19-2015		18:34:19	2.0.10.248	27	Bar37-63.bmp	39	1	?	0r_4g.bmp	0r_4g.bmp	0r_2g.bmp	0r_2g.bmp	0r_4g.bmp				TrialProc	TrialList	0	cvbn	-999999	17	91581	0	c	437	92018	76	-119	-43	8	-76	7	18	7	3	27	0	0	0	0	4	4	2	2	0	4
Hungry_Donkey_bar_English_2	102	3	<?xml version="1.0"?>\n<Clock xmlns:dt="urn:schemas-microsoft-com:datatypes"><Description dt:dt="string">E-Prime Primary Realtime Clock</Description><StartTime><Timestamp dt:dt="int">0</Timestamp><DateUtc dt:dt="string">2015-05-19T22:34:19Z</DateUtc></StartTime><FrequencyChanges><FrequencyChange><Frequency dt:dt="r8">2597685</Frequency><Timestamp dt:dt="r8">16269795895</Timestamp><Current dt:dt="r8">0</Current><DateUtc dt:dt="string">2015-05-19T22:34:19Z</DateUtc></FrequencyChange></FrequencyChanges></Clock>\n	Hungry_Donkey_bar_English_2-102-3	59.973	-81	1.0.0.17	1	-909571970	Standard	2.0.10.353	2.0.10.353	05-19-2015		18:34:19	2.0.10.248	28	Bar37-63.bmp	40	2	?	10r_4g.bmp	0r_4g.bmp	2r_2g.bmp	0r_2g.bmp		0r_4g.bmp			TrialProc	TrialList	0	cvbn	-999999	18	94049	0	v	305	94354	80	-119	-39	8	-72	7	18	4	3	28	-10	0	-2	0	4	4	2	2	0	4
Hungry_Donkey_bar_English_2	102	3	<?xml version="1.0"?>\n<Clock xmlns:dt="urn:schemas-microsoft-com:datatypes"><Description dt:dt="string">E-Prime Primary Realtime Clock</Description><StartTime><Timestamp dt:dt="int">0</Timestamp><DateUtc dt:dt="string">2015-05-19T22:34:19Z</DateUtc></StartTime><FrequencyChanges><FrequencyChange><Frequency dt:dt="r8">2597685</Frequency><Timestamp dt:dt="r8">16269795895</Timestamp><Current dt:dt="r8">0</Current><DateUtc dt:dt="string">2015-05-19T22:34:19Z</DateUtc></FrequencyChange></FrequencyChanges></Clock>\n	Hungry_Donkey_bar_English_2-102-3	59.973	-81	1.0.0.17	1	-909571970	Standard	2.0.10.353	2.0.10.353	05-19-2015		18:34:19	2.0.10.248	29	Bar37-63.bmp	40	3	?	10r_4g.bmp	0r_4g.bmp	2r_2g.bmp	0r_2g.bmp			2r_2g.bmp		TrialProc	TrialList	0	cvbn	-999999	17	96383	0	b	435	96818	82	-121	-39	8	-72	7	18	3	3	29	-10	0	-2	0	4	4	2	2	-2	2
Hungry_Donkey_bar_English_2	102	3	<?xml version="1.0"?>\n<Clock xmlns:dt="urn:schemas-microsoft-com:datatypes"><Description dt:dt="string">E-Prime Primary Realtime Clock</Description><StartTime><Timestamp dt:dt="int">0</Timestamp><DateUtc dt:dt="string">2015-05-19T22:34:19Z</DateUtc></StartTime><FrequencyChanges><FrequencyChange><Frequency dt:dt="r8">2597685</Frequency><Timestamp dt:dt="r8">16269795895</Timestamp><Current dt:dt="r8">0</Current><DateUtc dt:dt="string">2015-05-19T22:34:19Z</DateUtc></FrequencyChange></FrequencyChanges></Clock>\n	Hungry_Donkey_bar_English_2-102-3	59.973	-81	1.0.0.17	1	-909571970	Standard	2.0.10.353	2.0.10.353	05-19-2015		18:34:19	2.0.10.248	30	Bar37-63.bmp	39	4	?	8r_4g.bmp	50r_4g.bmp	1r_2g.bmp	10r_2g.bmp				10r_2g.bmp	TrialProc	TrialList	0	cvbn	-999999	18	98851	0	n	735	99586	84	-131	-47	8	-72	7	10	1	3	30	-8	-50	-1	-10	4	4	2	2	-10	2
Hungry_Donkey_bar_English_2	102	3	<?xml version="1.0"?>\n<Clock xmlns:dt="urn:schemas-microsoft-com:datatypes"><Description dt:dt="string">E-Prime Primary Realtime Clock</Description><StartTime><Timestamp dt:dt="int">0</Timestamp><DateUtc dt:dt="string">2015-05-19T22:34:19Z</DateUtc></StartTime><FrequencyChanges><FrequencyChange><Frequency dt:dt="r8">2597685</Frequency><Timestamp dt:dt="r8">16269795895</Timestamp><Current dt:dt="r8">0</Current><DateUtc dt:dt="string">2015-05-19T22:34:19Z</DateUtc></FrequencyChange></FrequencyChanges></Clock>\n	Hungry_Donkey_bar_English_2-102-3	59.973	-81	1.0.0.17	1	-909571970	Standard	2.0.10.353	2.0.10.353	05-19-2015		18:34:19	2.0.10.248	31	Bar37-63.bmp	40	2	?	0r_4g.bmp	0r_4g.bmp	0r_2g.bmp	0r_2g.bmp		0r_4g.bmp			TrialProc	TrialList	0	cvbn	-999999	18	101669	0	v	2460	104129	88	-131	-43	8	-68	7	10	7	4	31	0	0	0	0	4	4	2	2	0	4
Hungry_Donkey_bar_English_2	102	3	<?xml version="1.0"?>\n<Clock xmlns:dt="urn:schemas-microsoft-com:datatypes"><Description dt:dt="string">E-Prime Primary Realtime Clock</Description><StartTime><Timestamp dt:dt="int">0</Timestamp><DateUtc dt:dt="string">2015-05-19T22:34:19Z</DateUtc></StartTime><FrequencyChanges><FrequencyChange><Frequency dt:dt="r8">2597685</Frequency><Timestamp dt:dt="r8">16269795895</Timestamp><Current dt:dt="r8">0</Current><DateUtc dt:dt="string">2015-05-19T22:34:19Z</DateUtc></FrequencyChange></FrequencyChanges></Clock>\n	Hungry_Donkey_bar_English_2-102-3	59.973	-81	1.0.0.17	1	-909571970	Standard	2.0.10.353	2.0.10.353	05-19-2015		18:34:19	2.0.10.248	32	Bar37-63.bmp	41	3	?	0r_4g.bmp	0r_4g.bmp	0r_2g.bmp	0r_2g.bmp			0r_2g.bmp		TrialProc	TrialList	0	cvbn	-999999	18	106171	0	b	934	107105	90	-131	-41	8	-68	9	10	6	4	32	0	0	0	0	4	4	2	2	0	2
Hungry_Donkey_bar_English_2	102	3	<?xml version="1.0"?>\n<Clock xmlns:dt="urn:schemas-microsoft-com:datatypes"><Description dt:dt="string">E-Prime Primary Realtime Clock</Description><StartTime><Timestamp dt:dt="int">0</Timestamp><DateUtc dt:dt="string">2015-05-19T22:34:19Z</DateUtc></StartTime><FrequencyChanges><FrequencyChange><Frequency dt:dt="r8">2597685</Frequency><Timestamp dt:dt="r8">16269795895</Timestamp><Current dt:dt="r8">0</Current><DateUtc dt:dt="string">2015-05-19T22:34:19Z</DateUtc></FrequencyChange></FrequencyChanges></Clock>\n	Hungry_Donkey_bar_English_2-102-3	59.973	-81	1.0.0.17	1	-909571970	Standard	2.0.10.353	2.0.10.353	05-19-2015		18:34:19	2.0.10.248	33	Bar37-63.bmp	41	3	?	10r_4g.bmp	0r_4g.bmp	2r_2g.bmp	0r_2g.bmp			2r_2g.bmp		TrialProc	TrialList	0	cvbn	-999999	18	109139	0	b	526	109665	92	-133	-41	8	-68	9	10	4	4	33	-10	0	-2	0	4	4	2	2	-2	2
Hungry_Donkey_bar_English_2	102	3	<?xml version="1.0"?>\n<Clock xmlns:dt="urn:schemas-microsoft-com:datatypes"><Description dt:dt="string">E-Prime Primary Realtime Clock</Description><StartTime><Timestamp dt:dt="int">0</Timestamp><DateUtc dt:dt="string">2015-05-19T22:34:19Z</DateUtc></StartTime><FrequencyChanges><FrequencyChange><Frequency dt:dt="r8">2597685</Frequency><Timestamp dt:dt="r8">16269795895</Timestamp><Current dt:dt="r8">0</Current><DateUtc dt:dt="string">2015-05-19T22:34:19Z</DateUtc></FrequencyChange></FrequencyChanges></Clock>\n	Hungry_Donkey_bar_English_2-102-3	59.973	-81	1.0.0.17	1	-909571970	Standard	2.0.10.353	2.0.10.353	05-19-2015		18:34:19	2.0.10.248	34	Bar37-63.bmp	41	4	?	10r_4g.bmp	0r_4g.bmp	2r_2g.bmp	0r_2g.bmp				0r_2g.bmp	TrialProc	TrialList	0	cvbn	-999999	18	111707	0	n	2134	113841	94	-133	-39	8	-68	9	12	2	4	34	-10	0	-2	0	4	4	2	2	0	2
Hungry_Donkey_bar_English_2	102	3	<?xml version="1.0"?>\n<Clock xmlns:dt="urn:schemas-microsoft-com:datatypes"><Description dt:dt="string">E-Prime Primary Realtime Clock</Description><StartTime><Timestamp dt:dt="int">0</Timestamp><DateUtc dt:dt="string">2015-05-19T22:34:19Z</DateUtc></StartTime><FrequencyChanges><FrequencyChange><Frequency dt:dt="r8">2597685</Frequency><Timestamp dt:dt="r8">16269795895</Timestamp><Current dt:dt="r8">0</Current><DateUtc dt:dt="string">2015-05-19T22:34:19Z</DateUtc></FrequencyChange></FrequencyChanges></Clock>\n	Hungry_Donkey_bar_English_2-102-3	59.973	-81	1.0.0.17	1	-909571970	Standard	2.0.10.353	2.0.10.353	05-19-2015		18:34:19	2.0.10.248	35	Bar37-63.bmp	42	1	?	0r_4g.bmp	0r_4g.bmp	0r_2g.bmp	0r_2g.bmp	0r_4g.bmp				TrialProc	TrialList	0	cvbn	-999999	17	115875	0	c	622	116497	98	-133	-35	12	-68	9	12	10	4	35	0	0	0	0	4	4	2	2	0	4
Hungry_Donkey_bar_English_2	102	3	<?xml version="1.0"?>\n<Clock xmlns:dt="urn:schemas-microsoft-com:datatypes"><Description dt:dt="string">E-Prime Primary Realtime Clock</Description><StartTime><Timestamp dt:dt="int">0</Timestamp><DateUtc dt:dt="string">2015-05-19T22:34:19Z</DateUtc></StartTime><FrequencyChanges><FrequencyChange><Frequency dt:dt="r8">2597685</Frequency><Timestamp dt:dt="r8">16269795895</Timestamp><Current dt:dt="r8">0</Current><DateUtc dt:dt="string">2015-05-19T22:34:19Z</DateUtc></FrequencyChange></FrequencyChanges></Clock>\n	Hungry_Donkey_bar_English_2-102-3	59.973	-81	1.0.0.17	1	-909571970	Standard	2.0.10.353	2.0.10.353	05-19-2015		18:34:19	2.0.10.248	36	Bar37-63.bmp	43	2	?	0r_4g.bmp	0r_4g.bmp	0r_2g.bmp	0r_2g.bmp		0r_4g.bmp			TrialProc	TrialList	0	cvbn	-999999	17	118526	0	v	355	118881	102	-133	-31	12	-64	9	12	9	4	36	0	0	0	0	4	4	2	2	0	4
Hungry_Donkey_bar_English_2	102	3	<?xml version="1.0"?>\n<Clock xmlns:dt="urn:schemas-microsoft-com:datatypes"><Description dt:dt="string">E-Prime Primary Realtime Clock</Description><StartTime><Timestamp dt:dt="int">0</Timestamp><DateUtc dt:dt="string">2015-05-19T22:34:19Z</DateUtc></StartTime><FrequencyChanges><FrequencyChange><Frequency dt:dt="r8">2597685</Frequency><Timestamp dt:dt="r8">16269795895</Timestamp><Current dt:dt="r8">0</Current><DateUtc dt:dt="string">2015-05-19T22:34:19Z</DateUtc></FrequencyChange></FrequencyChanges></Clock>\n	Hungry_Donkey_bar_English_2-102-3	59.973	-81	1.0.0.17	1	-909571970	Standard	2.0.10.353	2.0.10.353	05-19-2015		18:34:19	2.0.10.248	37	Bar50-50.bmp	44	3	?	8r_4g.bmp	50r_4g.bmp	1r_2g.bmp	10r_2g.bmp			1r_2g.bmp		TrialProc	TrialList	0	cvbn	-999999	18	120911	0	b	146	121057	104	-134	-30	12	-64	10	12	1	4	37	-8	-50	-1	-10	4	4	2	2	-1	2
Hungry_Donkey_bar_English_2	102	3	<?xml version="1.0"?>\n<Clock xmlns:dt="urn:schemas-microsoft-com:datatypes"><Description dt:dt="string">E-Prime Primary Realtime Clock</Description><StartTime><Timestamp dt:dt="int">0</Timestamp><DateUtc dt:dt="string">2015-05-19T22:34:19Z</DateUtc></StartTime><FrequencyChanges><FrequencyChange><Frequency dt:dt="r8">2597685</Frequency><Timestamp dt:dt="r8">16269795895</Timestamp><Current dt:dt="r8">0</Current><DateUtc dt:dt="string">2015-05-19T22:34:19Z</DateUtc></FrequencyChange></FrequencyChanges></Clock>\n	Hungry_Donkey_bar_English_2-102-3	59.973	-81	1.0.0.17	1	-909571970	Standard	2.0.10.353	2.0.10.353	05-19-2015		18:34:19	2.0.10.248	38	Bar50-50.bmp	44	3	?	12r_4g.bmp	0r_4g.bmp	3r_2g.bmp	0r_2g.bmp			3r_2g.bmp		TrialProc	TrialList	0	cvbn	-999999	17	123128	0	b	1033	124161	106	-137	-31	12	-64	9	12	5	4	38	-12	0	-3	0	4	4	2	2	-3	2
Hungry_Donkey_bar_English_2	102	3	<?xml version="1.0"?>\n<Clock xmlns:dt="urn:schemas-microsoft-com:datatypes"><Description dt:dt="string">E-Prime Primary Realtime Clock</Description><StartTime><Timestamp dt:dt="int">0</Timestamp><DateUtc dt:dt="string">2015-05-19T22:34:19Z</DateUtc></StartTime><FrequencyChanges><FrequencyChange><Frequency dt:dt="r8">2597685</Frequency><Timestamp dt:dt="r8">16269795895</Timestamp><Current dt:dt="r8">0</Current><DateUtc dt:dt="string">2015-05-19T22:34:19Z</DateUtc></FrequencyChange></FrequencyChanges></Clock>\n	Hungry_Donkey_bar_English_2-102-3	59.973	-81	1.0.0.17	1	-909571970	Standard	2.0.10.353	2.0.10.353	05-19-2015		18:34:19	2.0.10.248	39	Bar50-50.bmp	44	4	?	10r_4g.bmp	0r_4g.bmp	2r_2g.bmp	0r_2g.bmp				0r_2g.bmp	TrialProc	TrialList	0	cvbn	-999999	17	126196	0	n	477	126673	108	-137	-29	12	-64	9	14	3	4	39	-10	0	-2	0	4	4	2	2	0	2
Hungry_Donkey_bar_English_2	102	3	<?xml version="1.0"?>\n<Clock xmlns:dt="urn:schemas-microsoft-com:datatypes"><Description dt:dt="string">E-Prime Primary Realtime Clock</Description><StartTime><Timestamp dt:dt="int">0</Timestamp><DateUtc dt:dt="string">2015-05-19T22:34:19Z</DateUtc></StartTime><FrequencyChanges><FrequencyChange><Frequency dt:dt="r8">2597685</Frequency><Timestamp dt:dt="r8">16269795895</Timestamp><Current dt:dt="r8">0</Current><DateUtc dt:dt="string">2015-05-19T22:34:19Z</DateUtc></FrequencyChange></FrequencyChanges></Clock>\n	Hungry_Donkey_bar_English_2-102-3	59.973	-81	1.0.0.17	1	-909571970	Standard	2.0.10.353	2.0.10.353	05-19-2015		18:34:19	2.0.10.248	40	Bar50-50.bmp	45	1	?	0r_4g.bmp	0r_4g.bmp	0r_2g.bmp	0r_2g.bmp	0r_4g.bmp				TrialProc	TrialList	0	cvbn	-999999	17	128714	0	c	1063	129777	112	-137	-25	16	-64	9	14	8	4	40	0	0	0	0	4	4	2	2	0	4
Hungry_Donkey_bar_English_2	102	3	<?xml version="1.0"?>\n<Clock xmlns:dt="urn:schemas-microsoft-com:datatypes"><Description dt:dt="string">E-Prime Primary Realtime Clock</Description><StartTime><Timestamp dt:dt="int">0</Timestamp><DateUtc dt:dt="string">2015-05-19T22:34:19Z</DateUtc></StartTime><FrequencyChanges><FrequencyChange><Frequency dt:dt="r8">2597685</Frequency><Timestamp dt:dt="r8">16269795895</Timestamp><Current dt:dt="r8">0</Current><DateUtc dt:dt="string">2015-05-19T22:34:19Z</DateUtc></FrequencyChange></FrequencyChanges></Clock>\n	Hungry_Donkey_bar_English_2-102-3	59.973	-81	1.0.0.17	1	-909571970	Standard	2.0.10.353	2.0.10.353	05-19-2015		18:34:19	2.0.10.248	41	Bar50-50.bmp	46	2	?	10r_4g.bmp	0r_4g.bmp	2r_2g.bmp	0r_2g.bmp		0r_4g.bmp			TrialProc	TrialList	0	cvbn	-999999	18	131816	0	v	361	132177	116	-137	-21	16	-60	9	14	4	5	41	-10	0	-2	0	4	4	2	2	0	4
Hungry_Donkey_bar_English_2	102	3	<?xml version="1.0"?>\n<Clock xmlns:dt="urn:schemas-microsoft-com:datatypes"><Description dt:dt="string">E-Prime Primary Realtime Clock</Description><StartTime><Timestamp dt:dt="int">0</Timestamp><DateUtc dt:dt="string">2015-05-19T22:34:19Z</DateUtc></StartTime><FrequencyChanges><FrequencyChange><Frequency dt:dt="r8">2597685</Frequency><Timestamp dt:dt="r8">16269795895</Timestamp><Current dt:dt="r8">0</Current><DateUtc dt:dt="string">2015-05-19T22:34:19Z</DateUtc></FrequencyChange></FrequencyChanges></Clock>\n	Hungry_Donkey_bar_English_2-102-3	59.973	-81	1.0.0.17	1	-909571970	Standard	2.0.10.353	2.0.10.353	05-19-2015		18:34:19	2.0.10.248	42	Bar50-50.bmp	46	3	?	10r_4g.bmp	0r_4g.bmp	2r_2g.bmp	0r_2g.bmp			2r_2g.bmp		TrialProc	TrialList	0	cvbn	-999999	18	134217	0	b	328	134545	118	-139	-21	16	-60	9	14	3	5	42	-10	0	-2	0	4	4	2	2	-2	2
Hungry_Donkey_bar_English_2	102	3	<?xml version="1.0"?>\n<Clock xmlns:dt="urn:schemas-microsoft-com:datatypes"><Description dt:dt="string">E-Prime Primary Realtime Clock</Description><StartTime><Timestamp dt:dt="int">0</Timestamp><DateUtc dt:dt="string">2015-05-19T22:34:19Z</DateUtc></StartTime><FrequencyChanges><FrequencyChange><Frequency dt:dt="r8">2597685</Frequency><Timestamp dt:dt="r8">16269795895</Timestamp><Current dt:dt="r8">0</Current><DateUtc dt:dt="string">2015-05-19T22:34:19Z</DateUtc></FrequencyChange></FrequencyChanges></Clock>\n	Hungry_Donkey_bar_English_2-102-3	59.973	-81	1.0.0.17	1	-909571970	Standard	2.0.10.353	2.0.10.353	05-19-2015		18:34:19	2.0.10.248	43	Bar50-50.bmp	46	4	?	10r_4g.bmp	0r_4g.bmp	2r_2g.bmp	0r_2g.bmp				0r_2g.bmp	TrialProc	TrialList	0	cvbn	-999999	17	136584	0	n	761	137345	120	-139	-19	16	-60	9	16	2	5	43	-10	0	-2	0	4	4	2	2	0	2
Hungry_Donkey_bar_English_2	102	3	<?xml version="1.0"?>\n<Clock xmlns:dt="urn:schemas-microsoft-com:datatypes"><Description dt:dt="string">E-Prime Primary Realtime Clock</Description><StartTime><Timestamp dt:dt="int">0</Timestamp><DateUtc dt:dt="string">2015-05-19T22:34:19Z</DateUtc></StartTime><FrequencyChanges><FrequencyChange><Frequency dt:dt="r8">2597685</Frequency><Timestamp dt:dt="r8">16269795895</Timestamp><Current dt:dt="r8">0</Current><DateUtc dt:dt="string">2015-05-19T22:34:19Z</DateUtc></FrequencyChange></FrequencyChanges></Clock>\n	Hungry_Donkey_bar_English_2-102-3	59.973	-81	1.0.0.17	1	-909571970	Standard	2.0.10.353	2.0.10.353	05-19-2015		18:34:19	2.0.10.248	44	Bar50-50.bmp	47	3	?	0r_4g.bmp	0r_4g.bmp	0r_2g.bmp	0r_2g.bmp			0r_2g.bmp		TrialProc	TrialList	0	cvbn	-999999	18	139386	0	b	887	140273	122	-139	-17	16	-60	11	16	10	5	44	0	0	0	0	4	4	2	2	0	2
Hungry_Donkey_bar_English_2	102	3	<?xml version="1.0"?>\n<Clock xmlns:dt="urn:schemas-microsoft-com:datatypes"><Description dt:dt="string">E-Prime Primary Realtime Clock</Description><StartTime><Timestamp dt:dt="int">0</Timestamp><DateUtc dt:dt="string">2015-05-19T22:34:19Z</DateUtc></StartTime><FrequencyChanges><FrequencyChange><Frequency dt:dt="r8">2597685</Frequency><Timestamp dt:dt="r8">16269795895</Timestamp><Current dt:dt="r8">0</Current><DateUtc dt:dt="string">2015-05-19T22:34:19Z</DateUtc></FrequencyChange></FrequencyChanges></Clock>\n	Hungry_Donkey_bar_English_2-102-3	59.973	-81	1.0.0.17	1	-909571970	Standard	2.0.10.353	2.0.10.353	05-19-2015		18:34:19	2.0.10.248	45	Bar50-50.bmp	48	2	?	0r_4g.bmp	0r_4g.bmp	0r_2g.bmp	0r_2g.bmp		0r_4g.bmp			TrialProc	TrialList	0	cvbn	-999999	18	142304	0	v	593	142897	126	-139	-13	16	-56	11	16	9	5	45	0	0	0	0	4	4	2	2	0	4
Hungry_Donkey_bar_English_2	102	3	<?xml version="1.0"?>\n<Clock xmlns:dt="urn:schemas-microsoft-com:datatypes"><Description dt:dt="string">E-Prime Primary Realtime Clock</Description><StartTime><Timestamp dt:dt="int">0</Timestamp><DateUtc dt:dt="string">2015-05-19T22:34:19Z</DateUtc></StartTime><FrequencyChanges><FrequencyChange><Frequency dt:dt="r8">2597685</Frequency><Timestamp dt:dt="r8">16269795895</Timestamp><Current dt:dt="r8">0</Current><DateUtc dt:dt="string">2015-05-19T22:34:19Z</DateUtc></FrequencyChange></FrequencyChanges></Clock>\n	Hungry_Donkey_bar_English_2-102-3	59.973	-81	1.0.0.17	1	-909571970	Standard	2.0.10.353	2.0.10.353	05-19-2015		18:34:19	2.0.10.248	46	Bar50-50.bmp	48	1	?	0r_4g.bmp	0r_4g.bmp	0r_2g.bmp	0r_2g.bmp	0r_4g.bmp				TrialProc	TrialList	0	cvbn	-999999	17	144938	0	c	1095	146033	130	-139	-9	20	-56	11	16	6	5	46	0	0	0	0	4	4	2	2	0	4
Hungry_Donkey_bar_English_2	102	3	<?xml version="1.0"?>\n<Clock xmlns:dt="urn:schemas-microsoft-com:datatypes"><Description dt:dt="string">E-Prime Primary Realtime Clock</Description><StartTime><Timestamp dt:dt="int">0</Timestamp><DateUtc dt:dt="string">2015-05-19T22:34:19Z</DateUtc></StartTime><FrequencyChanges><FrequencyChange><Frequency dt:dt="r8">2597685</Frequency><Timestamp dt:dt="r8">16269795895</Timestamp><Current dt:dt="r8">0</Current><DateUtc dt:dt="string">2015-05-19T22:34:19Z</DateUtc></FrequencyChange></FrequencyChanges></Clock>\n	Hungry_Donkey_bar_English_2-102-3	59.973	-81	1.0.0.17	1	-909571970	Standard	2.0.10.353	2.0.10.353	05-19-2015		18:34:19	2.0.10.248	47	Bar50-50.bmp	49	2	?	0r_4g.bmp	0r_4g.bmp	0r_2g.bmp	0r_2g.bmp		0r_4g.bmp			TrialProc	TrialList	0	cvbn	-999999	18	148073	0	v	296	148369	134	-139	-5	20	-52	11	16	8	5	47	0	0	0	0	4	4	2	2	0	4
Hungry_Donkey_bar_English_2	102	3	<?xml version="1.0"?>\n<Clock xmlns:dt="urn:schemas-microsoft-com:datatypes"><Description dt:dt="string">E-Prime Primary Realtime Clock</Description><StartTime><Timestamp dt:dt="int">0</Timestamp><DateUtc dt:dt="string">2015-05-19T22:34:19Z</DateUtc></StartTime><FrequencyChanges><FrequencyChange><Frequency dt:dt="r8">2597685</Frequency><Timestamp dt:dt="r8">16269795895</Timestamp><Current dt:dt="r8">0</Current><DateUtc dt:dt="string">2015-05-19T22:34:19Z</DateUtc></FrequencyChange></FrequencyChanges></Clock>\n	Hungry_Donkey_bar_English_2-102-3	59.973	-81	1.0.0.17	1	-909571970	Standard	2.0.10.353	2.0.10.353	05-19-2015		18:34:19	2.0.10.248	48	Bar50-50.bmp	49	4	?	12r_4g.bmp	0r_4g.bmp	3r_2g.bmp	0r_2g.bmp				0r_2g.bmp	TrialProc	TrialList	0	cvbn	-999999	17	150407	0	n	298	150705	136	-139	-3	20	-52	11	18	5	5	48	-12	0	-3	0	4	4	2	2	0	2
Hungry_Donkey_bar_English_2	102	3	<?xml version="1.0"?>\n<Clock xmlns:dt="urn:schemas-microsoft-com:datatypes"><Description dt:dt="string">E-Prime Primary Realtime Clock</Description><StartTime><Timestamp dt:dt="int">0</Timestamp><DateUtc dt:dt="string">2015-05-19T22:34:19Z</DateUtc></StartTime><FrequencyChanges><FrequencyChange><Frequency dt:dt="r8">2597685</Frequency><Timestamp dt:dt="r8">16269795895</Timestamp><Current dt:dt="r8">0</Current><DateUtc dt:dt="string">2015-05-19T22:34:19Z</DateUtc></FrequencyChange></FrequencyChanges></Clock>\n	Hungry_Donkey_bar_English_2-102-3	59.973	-81	1.0.0.17	1	-909571970	Standard	2.0.10.353	2.0.10.353	05-19-2015		18:34:19	2.0.10.248	49	Bar37-63.bmp	43	2	?	8r_4g.bmp	50r_4g.bmp	1r_2g.bmp	10r_2g.bmp		50r_4g.bmp			TrialProc	TrialList	0	cvbn	-999999	18	152742	0	v	1435	154177	140	-189	-49	20	-98	11	18	1	5	49	-8	-50	-1	-10	4	4	2	2	-50	4
Hungry_Donkey_bar_English_2	102	3	<?xml version="1.0"?>\n<Clock xmlns:dt="urn:schemas-microsoft-com:datatypes"><Description dt:dt="string">E-Prime Primary Realtime Clock</Description><StartTime><Timestamp dt:dt="int">0</Timestamp><DateUtc dt:dt="string">2015-05-19T22:34:19Z</DateUtc></StartTime><FrequencyChanges><FrequencyChange><Frequency dt:dt="r8">2597685</Frequency><Timestamp dt:dt="r8">16269795895</Timestamp><Current dt:dt="r8">0</Current><DateUtc dt:dt="string">2015-05-19T22:34:19Z</DateUtc></FrequencyChange></FrequencyChanges></Clock>\n	Hungry_Donkey_bar_English_2-102-3	59.973	-81	1.0.0.17	1	-909571970	Standard	2.0.10.353	2.0.10.353	05-19-2015		18:34:19	2.0.10.248	50	Bar37-63.bmp	43	4	?	0r_4g.bmp	0r_4g.bmp	0r_2g.bmp	0r_2g.bmp				0r_2g.bmp	TrialProc	TrialList	0	cvbn	-999999	18	156210	0	n	3806	160016	142	-189	-47	20	-98	11	20	7	5	50	0	0	0	0	4	4	2	2	0	2
Hungry_Donkey_bar_English_2	102	3	<?xml version="1.0"?>\n<Clock xmlns:dt="urn:schemas-microsoft-com:datatypes"><Description dt:dt="string">E-Prime Primary Realtime Clock</Description><StartTime><Timestamp dt:dt="int">0</Timestamp><DateUtc dt:dt="string">2015-05-19T22:34:19Z</DateUtc></StartTime><FrequencyChanges><FrequencyChange><Frequency dt:dt="r8">2597685</Frequency><Timestamp dt:dt="r8">16269795895</Timestamp><Current dt:dt="r8">0</Current><DateUtc dt:dt="string">2015-05-19T22:34:19Z</DateUtc></FrequencyChange></FrequencyChanges></Clock>\n	Hungry_Donkey_bar_English_2-102-3	59.973	-81	1.0.0.17	1	-909571970	Standard	2.0.10.353	2.0.10.353	05-19-2015		18:34:19	2.0.10.248	51	Bar37-63.bmp	43	3	?	10r_4g.bmp	0r_4g.bmp	2r_2g.bmp	0r_2g.bmp			2r_2g.bmp		TrialProc	TrialList	0	cvbn	-999999	18	162046	0	b	2786	164832	144	-191	-47	20	-98	11	20	3	6	51	-10	0	-2	0	4	4	2	2	-2	2
Hungry_Donkey_bar_English_2	102	3	<?xml version="1.0"?>\n<Clock xmlns:dt="urn:schemas-microsoft-com:datatypes"><Description dt:dt="string">E-Prime Primary Realtime Clock</Description><StartTime><Timestamp dt:dt="int">0</Timestamp><DateUtc dt:dt="string">2015-05-19T22:34:19Z</DateUtc></StartTime><FrequencyChanges><FrequencyChange><Frequency dt:dt="r8">2597685</Frequency><Timestamp dt:dt="r8">16269795895</Timestamp><Current dt:dt="r8">0</Current><DateUtc dt:dt="string">2015-05-19T22:34:19Z</DateUtc></FrequencyChange></FrequencyChanges></Clock>\n	Hungry_Donkey_bar_English_2-102-3	59.973	-81	1.0.0.17	1	-909571970	Standard	2.0.10.353	2.0.10.353	05-19-2015		18:34:19	2.0.10.248	52	Bar50-50.bmp	44	1	?	0r_4g.bmp	0r_4g.bmp	0r_2g.bmp	0r_2g.bmp	0r_4g.bmp				TrialProc	TrialList	0	cvbn	-999999	18	166865	0	c	1231	168096	148	-191	-43	24	-98	11	20	9	6	52	0	0	0	0	4	4	2	2	0	4
Hungry_Donkey_bar_English_2	102	3	<?xml version="1.0"?>\n<Clock xmlns:dt="urn:schemas-microsoft-com:datatypes"><Description dt:dt="string">E-Prime Primary Realtime Clock</Description><StartTime><Timestamp dt:dt="int">0</Timestamp><DateUtc dt:dt="string">2015-05-19T22:34:19Z</DateUtc></StartTime><FrequencyChanges><FrequencyChange><Frequency dt:dt="r8">2597685</Frequency><Timestamp dt:dt="r8">16269795895</Timestamp><Current dt:dt="r8">0</Current><DateUtc dt:dt="string">2015-05-19T22:34:19Z</DateUtc></FrequencyChange></FrequencyChanges></Clock>\n	Hungry_Donkey_bar_English_2-102-3	59.973	-81	1.0.0.17	1	-909571970	Standard	2.0.10.353	2.0.10.353	05-19-2015		18:34:19	2.0.10.248	53	Bar50-50.bmp	44	1	?	0r_4g.bmp	0r_4g.bmp	0r_2g.bmp	0r_2g.bmp	0r_4g.bmp				TrialProc	TrialList	0	cvbn	-999999	18	170133	0	c	619	170752	152	-191	-39	28	-98	11	20	7	6	53	0	0	0	0	4	4	2	2	0	4
Hungry_Donkey_bar_English_2	102	3	<?xml version="1.0"?>\n<Clock xmlns:dt="urn:schemas-microsoft-com:datatypes"><Description dt:dt="string">E-Prime Primary Realtime Clock</Description><StartTime><Timestamp dt:dt="int">0</Timestamp><DateUtc dt:dt="string">2015-05-19T22:34:19Z</DateUtc></StartTime><FrequencyChanges><FrequencyChange><Frequency dt:dt="r8">2597685</Frequency><Timestamp dt:dt="r8">16269795895</Timestamp><Current dt:dt="r8">0</Current><DateUtc dt:dt="string">2015-05-19T22:34:19Z</DateUtc></FrequencyChange></FrequencyChanges></Clock>\n	Hungry_Donkey_bar_English_2-102-3	59.973	-81	1.0.0.17	1	-909571970	Standard	2.0.10.353	2.0.10.353	05-19-2015		18:34:19	2.0.10.248	54	Bar50-50.bmp	45	1	?	0r_4g.bmp	0r_4g.bmp	0r_2g.bmp	0r_2g.bmp	0r_4g.bmp				TrialProc	TrialList	0	cvbn	-999999	18	172784	0	c	544	173328	156	-191	-35	32	-98	11	20	8	6	54	0	0	0	0	4	4	2	2	0	4
Hungry_Donkey_bar_English_2	102	3	<?xml version="1.0"?>\n<Clock xmlns:dt="urn:schemas-microsoft-com:datatypes"><Description dt:dt="string">E-Prime Primary Realtime Clock</Description><StartTime><Timestamp dt:dt="int">0</Timestamp><DateUtc dt:dt="string">2015-05-19T22:34:19Z</DateUtc></StartTime><FrequencyChanges><FrequencyChange><Frequency dt:dt="r8">2597685</Frequency><Timestamp dt:dt="r8">16269795895</Timestamp><Current dt:dt="r8">0</Current><DateUtc dt:dt="string">2015-05-19T22:34:19Z</DateUtc></FrequencyChange></FrequencyChanges></Clock>\n	Hungry_Donkey_bar_English_2-102-3	59.973	-81	1.0.0.17	1	-909571970	Standard	2.0.10.353	2.0.10.353	05-19-2015		18:34:19	2.0.10.248	55	Bar50-50.bmp	44	1	?	12r_4g.bmp	0r_4g.bmp	3r_2g.bmp	0r_2g.bmp	12r_4g.bmp				TrialProc	TrialList	0	cvbn	-999999	18	175369	0	c	375	175744	160	-203	-43	24	-98	11	20	5	6	55	-12	0	-3	0	4	4	2	2	-12	4
Hungry_Donkey_bar_English_2	102	3	<?xml version="1.0"?>\n<Clock xmlns:dt="urn:schemas-microsoft-com:datatypes"><Description dt:dt="string">E-Prime Primary Realtime Clock</Description><StartTime><Timestamp dt:dt="int">0</Timestamp><DateUtc dt:dt="string">2015-05-19T22:34:19Z</DateUtc></StartTime><FrequencyChanges><FrequencyChange><Frequency dt:dt="r8">2597685</Frequency><Timestamp dt:dt="r8">16269795895</Timestamp><Current dt:dt="r8">0</Current><DateUtc dt:dt="string">2015-05-19T22:34:19Z</DateUtc></FrequencyChange></FrequencyChanges></Clock>\n	Hungry_Donkey_bar_English_2-102-3	59.973	-81	1.0.0.17	1	-909571970	Standard	2.0.10.353	2.0.10.353	05-19-2015		18:34:19	2.0.10.248	56	Bar50-50.bmp	45	2	?	0r_4g.bmp	0r_4g.bmp	0r_2g.bmp	0r_2g.bmp		0r_4g.bmp			TrialProc	TrialList	0	cvbn	-999999	17	177786	0	v	918	178704	164	-203	-39	24	-94	11	20	10	6	56	0	0	0	0	4	4	2	2	0	4
Hungry_Donkey_bar_English_2	102	3	<?xml version="1.0"?>\n<Clock xmlns:dt="urn:schemas-microsoft-com:datatypes"><Description dt:dt="string">E-Prime Primary Realtime Clock</Description><StartTime><Timestamp dt:dt="int">0</Timestamp><DateUtc dt:dt="string">2015-05-19T22:34:19Z</DateUtc></StartTime><FrequencyChanges><FrequencyChange><Frequency dt:dt="r8">2597685</Frequency><Timestamp dt:dt="r8">16269795895</Timestamp><Current dt:dt="r8">0</Current><DateUtc dt:dt="string">2015-05-19T22:34:19Z</DateUtc></FrequencyChange></FrequencyChanges></Clock>\n	Hungry_Donkey_bar_English_2-102-3	59.973	-81	1.0.0.17	1	-909571970	Standard	2.0.10.353	2.0.10.353	05-19-2015		18:34:19	2.0.10.248	57	Bar50-50.bmp	45	2	?	10r_4g.bmp	0r_4g.bmp	2r_2g.bmp	0r_2g.bmp		0r_4g.bmp			TrialProc	TrialList	0	cvbn	-999999	18	180738	0	v	734	181472	168	-203	-35	24	-90	11	20	2	6	57	-10	0	-2	0	4	4	2	2	0	4
Hungry_Donkey_bar_English_2	102	3	<?xml version="1.0"?>\n<Clock xmlns:dt="urn:schemas-microsoft-com:datatypes"><Description dt:dt="string">E-Prime Primary Realtime Clock</Description><StartTime><Timestamp dt:dt="int">0</Timestamp><DateUtc dt:dt="string">2015-05-19T22:34:19Z</DateUtc></StartTime><FrequencyChanges><FrequencyChange><Frequency dt:dt="r8">2597685</Frequency><Timestamp dt:dt="r8">16269795895</Timestamp><Current dt:dt="r8">0</Current><DateUtc dt:dt="string">2015-05-19T22:34:19Z</DateUtc></FrequencyChange></FrequencyChanges></Clock>\n	Hungry_Donkey_bar_English_2-102-3	59.973	-81	1.0.0.17	1	-909571970	Standard	2.0.10.353	2.0.10.353	05-19-2015		18:34:19	2.0.10.248	58	Bar50-50.bmp	45	1	?	8r_4g.bmp	50r_4g.bmp	1r_2g.bmp	10r_2g.bmp	8r_4g.bmp				TrialProc	TrialList	0	cvbn	-999999	17	183505	0	c	223	183728	172	-211	-39	20	-90	11	20	1	6	58	-8	-50	-1	-10	4	4	2	2	-8	4
Hungry_Donkey_bar_English_2	102	3	<?xml version="1.0"?>\n<Clock xmlns:dt="urn:schemas-microsoft-com:datatypes"><Description dt:dt="string">E-Prime Primary Realtime Clock</Description><StartTime><Timestamp dt:dt="int">0</Timestamp><DateUtc dt:dt="string">2015-05-19T22:34:19Z</DateUtc></StartTime><FrequencyChanges><FrequencyChange><Frequency dt:dt="r8">2597685</Frequency><Timestamp dt:dt="r8">16269795895</Timestamp><Current dt:dt="r8">0</Current><DateUtc dt:dt="string">2015-05-19T22:34:19Z</DateUtc></FrequencyChange></FrequencyChanges></Clock>\n	Hungry_Donkey_bar_English_2-102-3	59.973	-81	1.0.0.17	1	-909571970	Standard	2.0.10.353	2.0.10.353	05-19-2015		18:34:19	2.0.10.248	59	Bar50-50.bmp	45	2	?	0r_4g.bmp	0r_4g.bmp	0r_2g.bmp	0r_2g.bmp		0r_4g.bmp			TrialProc	TrialList	0	cvbn	-999999	18	185790	0	v	626	186416	176	-211	-35	20	-86	11	20	6	6	59	0	0	0	0	4	4	2	2	0	4
Hungry_Donkey_bar_English_2	102	3	<?xml version="1.0"?>\n<Clock xmlns:dt="urn:schemas-microsoft-com:datatypes"><Description dt:dt="string">E-Prime Primary Realtime Clock</Description><StartTime><Timestamp dt:dt="int">0</Timestamp><DateUtc dt:dt="string">2015-05-19T22:34:19Z</DateUtc></StartTime><FrequencyChanges><FrequencyChange><Frequency dt:dt="r8">2597685</Frequency><Timestamp dt:dt="r8">16269795895</Timestamp><Current dt:dt="r8">0</Current><DateUtc dt:dt="string">2015-05-19T22:34:19Z</DateUtc></FrequencyChange></FrequencyChanges></Clock>\n	Hungry_Donkey_bar_English_2-102-3	59.973	-81	1.0.0.17	1	-909571970	Standard	2.0.10.353	2.0.10.353	05-19-2015		18:34:19	2.0.10.248	60	Bar50-50.bmp	46	2	?	10r_4g.bmp	0r_4g.bmp	2r_2g.bmp	0r_2g.bmp		0r_4g.bmp			TrialProc	TrialList	0	cvbn	-999999	18	188458	0	v	342	188800	180	-211	-31	20	-82	11	20	4	6	60	-10	0	-2	0	4	4	2	2	0	4
Hungry_Donkey_bar_English_2	102	3	<?xml version="1.0"?>\n<Clock xmlns:dt="urn:schemas-microsoft-com:datatypes"><Description dt:dt="string">E-Prime Primary Realtime Clock</Description><StartTime><Timestamp dt:dt="int">0</Timestamp><DateUtc dt:dt="string">2015-05-19T22:34:19Z</DateUtc></StartTime><FrequencyChanges><FrequencyChange><Frequency dt:dt="r8">2597685</Frequency><Timestamp dt:dt="r8">16269795895</Timestamp><Current dt:dt="r8">0</Current><DateUtc dt:dt="string">2015-05-19T22:34:19Z</DateUtc></FrequencyChange></FrequencyChanges></Clock>\n	Hungry_Donkey_bar_English_2-102-3	59.973	-81	1.0.0.17	1	-909571970	Standard	2.0.10.353	2.0.10.353	05-19-2015		18:34:19	2.0.10.248	61	Bar50-50.bmp	47	2	?	0r_4g.bmp	0r_4g.bmp	0r_2g.bmp	0r_2g.bmp		0r_4g.bmp			TrialProc	TrialList	0	cvbn	-999999	17	190842	0	v	278	191120	184	-211	-27	20	-78	11	20	8	7	61	0	0	0	0	4	4	2	2	0	4
Hungry_Donkey_bar_English_2	102	3	<?xml version="1.0"?>\n<Clock xmlns:dt="urn:schemas-microsoft-com:datatypes"><Description dt:dt="string">E-Prime Primary Realtime Clock</Description><StartTime><Timestamp dt:dt="int">0</Timestamp><DateUtc dt:dt="string">2015-05-19T22:34:19Z</DateUtc></StartTime><FrequencyChanges><FrequencyChange><Frequency dt:dt="r8">2597685</Frequency><Timestamp dt:dt="r8">16269795895</Timestamp><Current dt:dt="r8">0</Current><DateUtc dt:dt="string">2015-05-19T22:34:19Z</DateUtc></FrequencyChange></FrequencyChanges></Clock>\n	Hungry_Donkey_bar_English_2-102-3	59.973	-81	1.0.0.17	1	-909571970	Standard	2.0.10.353	2.0.10.353	05-19-2015		18:34:19	2.0.10.248	62	Bar50-50.bmp	47	2	?	12r_4g.bmp	0r_4g.bmp	3r_2g.bmp	0r_2g.bmp		0r_4g.bmp			TrialProc	TrialList	0	cvbn	-999999	18	193160	0	v	312	193472	188	-211	-23	20	-74	11	20	5	7	62	-12	0	-3	0	4	4	2	2	0	4
Hungry_Donkey_bar_English_2	102	3	<?xml version="1.0"?>\n<Clock xmlns:dt="urn:schemas-microsoft-com:datatypes"><Description dt:dt="string">E-Prime Primary Realtime Clock</Description><StartTime><Timestamp dt:dt="int">0</Timestamp><DateUtc dt:dt="string">2015-05-19T22:34:19Z</DateUtc></StartTime><FrequencyChanges><FrequencyChange><Frequency dt:dt="r8">2597685</Frequency><Timestamp dt:dt="r8">16269795895</Timestamp><Current dt:dt="r8">0</Current><DateUtc dt:dt="string">2015-05-19T22:34:19Z</DateUtc></FrequencyChange></FrequencyChanges></Clock>\n	Hungry_Donkey_bar_English_2-102-3	59.973	-81	1.0.0.17	1	-909571970	Standard	2.0.10.353	2.0.10.353	05-19-2015		18:34:19	2.0.10.248	63	Bar50-50.bmp	48	2	?	10r_4g.bmp	0r_4g.bmp	2r_2g.bmp	0r_2g.bmp		0r_4g.bmp			TrialProc	TrialList	0	cvbn	-999999	18	195511	0	v	313	195824	192	-211	-19	20	-70	11	20	3	7	63	-10	0	-2	0	4	4	2	2	0	4
Hungry_Donkey_bar_English_2	102	3	<?xml version="1.0"?>\n<Clock xmlns:dt="urn:schemas-microsoft-com:datatypes"><Description dt:dt="string">E-Prime Primary Realtime Clock</Description><StartTime><Timestamp dt:dt="int">0</Timestamp><DateUtc dt:dt="string">2015-05-19T22:34:19Z</DateUtc></StartTime><FrequencyChanges><FrequencyChange><Frequency dt:dt="r8">2597685</Frequency><Timestamp dt:dt="r8">16269795895</Timestamp><Current dt:dt="r8">0</Current><DateUtc dt:dt="string">2015-05-19T22:34:19Z</DateUtc></FrequencyChange></FrequencyChanges></Clock>\n	Hungry_Donkey_bar_English_2-102-3	59.973	-81	1.0.0.17	1	-909571970	Standard	2.0.10.353	2.0.10.353	05-19-2015		18:34:19	2.0.10.248	64	Bar50-50.bmp	48	2	?	0r_4g.bmp	0r_4g.bmp	0r_2g.bmp	0r_2g.bmp		0r_4g.bmp			TrialProc	TrialList	0	cvbn	-999999	18	197862	0	v	138	198000	196	-211	-15	20	-66	11	20	10	7	64	0	0	0	0	4	4	2	2	0	4
Hungry_Donkey_bar_English_2	102	3	<?xml version="1.0"?>\n<Clock xmlns:dt="urn:schemas-microsoft-com:datatypes"><Description dt:dt="string">E-Prime Primary Realtime Clock</Description><StartTime><Timestamp dt:dt="int">0</Timestamp><DateUtc dt:dt="string">2015-05-19T22:34:19Z</DateUtc></StartTime><FrequencyChanges><FrequencyChange><Frequency dt:dt="r8">2597685</Frequency><Timestamp dt:dt="r8">16269795895</Timestamp><Current dt:dt="r8">0</Current><DateUtc dt:dt="string">2015-05-19T22:34:19Z</DateUtc></FrequencyChange></FrequencyChanges></Clock>\n	Hungry_Donkey_bar_English_2-102-3	59.973	-81	1.0.0.17	1	-909571970	Standard	2.0.10.353	2.0.10.353	05-19-2015		18:34:19	2.0.10.248	65	Bar50-50.bmp	49	2	?	10r_4g.bmp	0r_4g.bmp	2r_2g.bmp	0r_2g.bmp		0r_4g.bmp			TrialProc	TrialList	0	cvbn	-999999	18	200030	0	v	418	200448	200	-211	-11	20	-62	11	20	2	7	65	-10	0	-2	0	4	4	2	2	0	4
Hungry_Donkey_bar_English_2	102	3	<?xml version="1.0"?>\n<Clock xmlns:dt="urn:schemas-microsoft-com:datatypes"><Description dt:dt="string">E-Prime Primary Realtime Clock</Description><StartTime><Timestamp dt:dt="int">0</Timestamp><DateUtc dt:dt="string">2015-05-19T22:34:19Z</DateUtc></StartTime><FrequencyChanges><FrequencyChange><Frequency dt:dt="r8">2597685</Frequency><Timestamp dt:dt="r8">16269795895</Timestamp><Current dt:dt="r8">0</Current><DateUtc dt:dt="string">2015-05-19T22:34:19Z</DateUtc></FrequencyChange></FrequencyChanges></Clock>\n	Hungry_Donkey_bar_English_2-102-3	59.973	-81	1.0.0.17	1	-909571970	Standard	2.0.10.353	2.0.10.353	05-19-2015		18:34:19	2.0.10.248	66	Bar50-50.bmp	44	2	?	8r_4g.bmp	50r_4g.bmp	1r_2g.bmp	10r_2g.bmp		50r_4g.bmp			TrialProc	TrialList	0	cvbn	-999999	18	202481	0	v	303	202784	204	-261	-57	20	-108	11	20	1	7	66	-8	-50	-1	-10	4	4	2	2	-50	4
Hungry_Donkey_bar_English_2	102	3	<?xml version="1.0"?>\n<Clock xmlns:dt="urn:schemas-microsoft-com:datatypes"><Description dt:dt="string">E-Prime Primary Realtime Clock</Description><StartTime><Timestamp dt:dt="int">0</Timestamp><DateUtc dt:dt="string">2015-05-19T22:34:19Z</DateUtc></StartTime><FrequencyChanges><FrequencyChange><Frequency dt:dt="r8">2597685</Frequency><Timestamp dt:dt="r8">16269795895</Timestamp><Current dt:dt="r8">0</Current><DateUtc dt:dt="string">2015-05-19T22:34:19Z</DateUtc></FrequencyChange></FrequencyChanges></Clock>\n	Hungry_Donkey_bar_English_2-102-3	59.973	-81	1.0.0.17	1	-909571970	Standard	2.0.10.353	2.0.10.353	05-19-2015		18:34:19	2.0.10.248	67	Bar50-50.bmp	44	4	?	0r_4g.bmp	0r_4g.bmp	0r_2g.bmp	0r_2g.bmp				0r_2g.bmp	TrialProc	TrialList	0	cvbn	-999999	18	204815	0	n	2241	207056	206	-261	-55	20	-108	11	22	7	7	67	0	0	0	0	4	4	2	2	0	2
Hungry_Donkey_bar_English_2	102	3	<?xml version="1.0"?>\n<Clock xmlns:dt="urn:schemas-microsoft-com:datatypes"><Description dt:dt="string">E-Prime Primary Realtime Clock</Description><StartTime><Timestamp dt:dt="int">0</Timestamp><DateUtc dt:dt="string">2015-05-19T22:34:19Z</DateUtc></StartTime><FrequencyChanges><FrequencyChange><Frequency dt:dt="r8">2597685</Frequency><Timestamp dt:dt="r8">16269795895</Timestamp><Current dt:dt="r8">0</Current><DateUtc dt:dt="string">2015-05-19T22:34:19Z</DateUtc></FrequencyChange></FrequencyChanges></Clock>\n	Hungry_Donkey_bar_English_2-102-3	59.973	-81	1.0.0.17	1	-909571970	Standard	2.0.10.353	2.0.10.353	05-19-2015		18:34:19	2.0.10.248	68	Bar50-50.bmp	44	3	?	10r_4g.bmp	0r_4g.bmp	2r_2g.bmp	0r_2g.bmp			2r_2g.bmp		TrialProc	TrialList	0	cvbn	-999999	18	209084	0	b	612	209696	208	-263	-55	20	-108	11	22	4	7	68	-10	0	-2	0	4	4	2	2	-2	2
Hungry_Donkey_bar_English_2	102	3	<?xml version="1.0"?>\n<Clock xmlns:dt="urn:schemas-microsoft-com:datatypes"><Description dt:dt="string">E-Prime Primary Realtime Clock</Description><StartTime><Timestamp dt:dt="int">0</Timestamp><DateUtc dt:dt="string">2015-05-19T22:34:19Z</DateUtc></StartTime><FrequencyChanges><FrequencyChange><Frequency dt:dt="r8">2597685</Frequency><Timestamp dt:dt="r8">16269795895</Timestamp><Current dt:dt="r8">0</Current><DateUtc dt:dt="string">2015-05-19T22:34:19Z</DateUtc></FrequencyChange></FrequencyChanges></Clock>\n	Hungry_Donkey_bar_English_2-102-3	59.973	-81	1.0.0.17	1	-909571970	Standard	2.0.10.353	2.0.10.353	05-19-2015		18:34:19	2.0.10.248	69	Bar50-50.bmp	45	2	?	0r_4g.bmp	0r_4g.bmp	0r_2g.bmp	0r_2g.bmp		0r_4g.bmp			TrialProc	TrialList	0	cvbn	-999999	18	211735	0	v	489	212224	212	-263	-51	20	-104	11	22	9	7	69	0	0	0	0	4	4	2	2	0	4
Hungry_Donkey_bar_English_2	102	3	<?xml version="1.0"?>\n<Clock xmlns:dt="urn:schemas-microsoft-com:datatypes"><Description dt:dt="string">E-Prime Primary Realtime Clock</Description><StartTime><Timestamp dt:dt="int">0</Timestamp><DateUtc dt:dt="string">2015-05-19T22:34:19Z</DateUtc></StartTime><FrequencyChanges><FrequencyChange><Frequency dt:dt="r8">2597685</Frequency><Timestamp dt:dt="r8">16269795895</Timestamp><Current dt:dt="r8">0</Current><DateUtc dt:dt="string">2015-05-19T22:34:19Z</DateUtc></FrequencyChange></FrequencyChanges></Clock>\n	Hungry_Donkey_bar_English_2-102-3	59.973	-81	1.0.0.17	1	-909571970	Standard	2.0.10.353	2.0.10.353	05-19-2015		18:34:19	2.0.10.248	70	Bar50-50.bmp	45	1	?	0r_4g.bmp	0r_4g.bmp	0r_2g.bmp	0r_2g.bmp	0r_4g.bmp				TrialProc	TrialList	0	cvbn	-999999	18	214253	0	c	307	214560	216	-263	-47	24	-104	11	22	6	7	70	0	0	0	0	4	4	2	2	0	4
Hungry_Donkey_bar_English_2	102	3	<?xml version="1.0"?>\n<Clock xmlns:dt="urn:schemas-microsoft-com:datatypes"><Description dt:dt="string">E-Prime Primary Realtime Clock</Description><StartTime><Timestamp dt:dt="int">0</Timestamp><DateUtc dt:dt="string">2015-05-19T22:34:19Z</DateUtc></StartTime><FrequencyChanges><FrequencyChange><Frequency dt:dt="r8">2597685</Frequency><Timestamp dt:dt="r8">16269795895</Timestamp><Current dt:dt="r8">0</Current><DateUtc dt:dt="string">2015-05-19T22:34:19Z</DateUtc></FrequencyChange></FrequencyChanges></Clock>\n	Hungry_Donkey_bar_English_2-102-3	59.973	-81	1.0.0.17	1	-909571970	Standard	2.0.10.353	2.0.10.353	05-19-2015		18:34:19	2.0.10.248	71	Bar50-50.bmp	46	2	?	0r_4g.bmp	0r_4g.bmp	0r_2g.bmp	0r_2g.bmp		0r_4g.bmp			TrialProc	TrialList	0	cvbn	-999999	17	216587	0	v	356	216943	220	-263	-43	24	-100	11	22	10	8	71	0	0	0	0	4	4	2	2	0	4
Hungry_Donkey_bar_English_2	102	3	<?xml version="1.0"?>\n<Clock xmlns:dt="urn:schemas-microsoft-com:datatypes"><Description dt:dt="string">E-Prime Primary Realtime Clock</Description><StartTime><Timestamp dt:dt="int">0</Timestamp><DateUtc dt:dt="string">2015-05-19T22:34:19Z</DateUtc></StartTime><FrequencyChanges><FrequencyChange><Frequency dt:dt="r8">2597685</Frequency><Timestamp dt:dt="r8">16269795895</Timestamp><Current dt:dt="r8">0</Current><DateUtc dt:dt="string">2015-05-19T22:34:19Z</DateUtc></FrequencyChange></FrequencyChanges></Clock>\n	Hungry_Donkey_bar_English_2-102-3	59.973	-81	1.0.0.17	1	-909571970	Standard	2.0.10.353	2.0.10.353	05-19-2015		18:34:19	2.0.10.248	72	Bar50-50.bmp	46	3	?	0r_4g.bmp	0r_4g.bmp	0r_2g.bmp	0r_2g.bmp			0r_2g.bmp		TrialProc	TrialList	0	cvbn	-999999	17	218971	0	b	468	219439	222	-263	-41	24	-100	13	22	9	8	72	0	0	0	0	4	4	2	2	0	2
Hungry_Donkey_bar_English_2	102	3	<?xml version="1.0"?>\n<Clock xmlns:dt="urn:schemas-microsoft-com:datatypes"><Description dt:dt="string">E-Prime Primary Realtime Clock</Description><StartTime><Timestamp dt:dt="int">0</Timestamp><DateUtc dt:dt="string">2015-05-19T22:34:19Z</DateUtc></StartTime><FrequencyChanges><FrequencyChange><Frequency dt:dt="r8">2597685</Frequency><Timestamp dt:dt="r8">16269795895</Timestamp><Current dt:dt="r8">0</Current><DateUtc dt:dt="string">2015-05-19T22:34:19Z</DateUtc></FrequencyChange></FrequencyChanges></Clock>\n	Hungry_Donkey_bar_English_2-102-3	59.973	-81	1.0.0.17	1	-909571970	Standard	2.0.10.353	2.0.10.353	05-19-2015		18:34:19	2.0.10.248	73	Bar50-50.bmp	45	4	?	8r_4g.bmp	50r_4g.bmp	1r_2g.bmp	10r_2g.bmp				10r_2g.bmp	TrialProc	TrialList	0	cvbn	-999999	18	221473	0	n	1278	222751	224	-273	-49	24	-100	13	14	1	8	73	-8	-50	-1	-10	4	4	2	2	-10	2
Hungry_Donkey_bar_English_2	102	3	<?xml version="1.0"?>\n<Clock xmlns:dt="urn:schemas-microsoft-com:datatypes"><Description dt:dt="string">E-Prime Primary Realtime Clock</Description><StartTime><Timestamp dt:dt="int">0</Timestamp><DateUtc dt:dt="string">2015-05-19T22:34:19Z</DateUtc></StartTime><FrequencyChanges><FrequencyChange><Frequency dt:dt="r8">2597685</Frequency><Timestamp dt:dt="r8">16269795895</Timestamp><Current dt:dt="r8">0</Current><DateUtc dt:dt="string">2015-05-19T22:34:19Z</DateUtc></FrequencyChange></FrequencyChanges></Clock>\n	Hungry_Donkey_bar_English_2-102-3	59.973	-81	1.0.0.17	1	-909571970	Standard	2.0.10.353	2.0.10.353	05-19-2015		18:34:19	2.0.10.248	74	Bar50-50.bmp	45	3	?	0r_4g.bmp	0r_4g.bmp	0r_2g.bmp	0r_2g.bmp			0r_2g.bmp		TrialProc	TrialList	0	cvbn	-999999	18	224791	0	b	1240	226031	226	-273	-47	24	-100	15	14	8	8	74	0	0	0	0	4	4	2	2	0	2
Hungry_Donkey_bar_English_2	102	3	<?xml version="1.0"?>\n<Clock xmlns:dt="urn:schemas-microsoft-com:datatypes"><Description dt:dt="string">E-Prime Primary Realtime Clock</Description><StartTime><Timestamp dt:dt="int">0</Timestamp><DateUtc dt:dt="string">2015-05-19T22:34:19Z</DateUtc></StartTime><FrequencyChanges><FrequencyChange><Frequency dt:dt="r8">2597685</Frequency><Timestamp dt:dt="r8">16269795895</Timestamp><Current dt:dt="r8">0</Current><DateUtc dt:dt="string">2015-05-19T22:34:19Z</DateUtc></FrequencyChange></FrequencyChanges></Clock>\n	Hungry_Donkey_bar_English_2-102-3	59.973	-81	1.0.0.17	1	-909571970	Standard	2.0.10.353	2.0.10.353	05-19-2015		18:34:19	2.0.10.248	75	Bar50-50.bmp	46	2	?	0r_4g.bmp	0r_4g.bmp	0r_2g.bmp	0r_2g.bmp		0r_4g.bmp			TrialProc	TrialList	0	cvbn	-999999	17	228075	0	v	852	228927	230	-273	-43	24	-96	15	14	6	8	75	0	0	0	0	4	4	2	2	0	4
Hungry_Donkey_bar_English_2	102	3	<?xml version="1.0"?>\n<Clock xmlns:dt="urn:schemas-microsoft-com:datatypes"><Description dt:dt="string">E-Prime Primary Realtime Clock</Description><StartTime><Timestamp dt:dt="int">0</Timestamp><DateUtc dt:dt="string">2015-05-19T22:34:19Z</DateUtc></StartTime><FrequencyChanges><FrequencyChange><Frequency dt:dt="r8">2597685</Frequency><Timestamp dt:dt="r8">16269795895</Timestamp><Current dt:dt="r8">0</Current><DateUtc dt:dt="string">2015-05-19T22:34:19Z</DateUtc></FrequencyChange></FrequencyChanges></Clock>\n	Hungry_Donkey_bar_English_2-102-3	59.973	-81	1.0.0.17	1	-909571970	Standard	2.0.10.353	2.0.10.353	05-19-2015		18:34:19	2.0.10.248	76	Bar50-50.bmp	45	1	?	12r_4g.bmp	0r_4g.bmp	3r_2g.bmp	0r_2g.bmp	12r_4g.bmp				TrialProc	TrialList	0	cvbn	-999999	34	230977	0	c	1998	232975	234	-285	-51	16	-96	15	14	5	8	76	-12	0	-3	0	4	4	2	2	-12	4
Hungry_Donkey_bar_English_2	102	3	<?xml version="1.0"?>\n<Clock xmlns:dt="urn:schemas-microsoft-com:datatypes"><Description dt:dt="string">E-Prime Primary Realtime Clock</Description><StartTime><Timestamp dt:dt="int">0</Timestamp><DateUtc dt:dt="string">2015-05-19T22:34:19Z</DateUtc></StartTime><FrequencyChanges><FrequencyChange><Frequency dt:dt="r8">2597685</Frequency><Timestamp dt:dt="r8">16269795895</Timestamp><Current dt:dt="r8">0</Current><DateUtc dt:dt="string">2015-05-19T22:34:19Z</DateUtc></FrequencyChange></FrequencyChanges></Clock>\n	Hungry_Donkey_bar_English_2-102-3	59.973	-81	1.0.0.17	1	-909571970	Standard	2.0.10.353	2.0.10.353	05-19-2015		18:34:19	2.0.10.248	77	Bar50-50.bmp	45	3	?	10r_4g.bmp	0r_4g.bmp	2r_2g.bmp	0r_2g.bmp			2r_2g.bmp		TrialProc	TrialList	0	cvbn	-999999	18	235012	0	b	1067	236079	236	-287	-51	16	-96	15	14	3	8	77	-10	0	-2	0	4	4	2	2	-2	2
Hungry_Donkey_bar_English_2	102	3	<?xml version="1.0"?>\n<Clock xmlns:dt="urn:schemas-microsoft-com:datatypes"><Description dt:dt="string">E-Prime Primary Realtime Clock</Description><StartTime><Timestamp dt:dt="int">0</Timestamp><DateUtc dt:dt="string">2015-05-19T22:34:19Z</DateUtc></StartTime><FrequencyChanges><FrequencyChange><Frequency dt:dt="r8">2597685</Frequency><Timestamp dt:dt="r8">16269795895</Timestamp><Current dt:dt="r8">0</Current><DateUtc dt:dt="string">2015-05-19T22:34:19Z</DateUtc></FrequencyChange></FrequencyChanges></Clock>\n	Hungry_Donkey_bar_English_2-102-3	59.973	-81	1.0.0.17	1	-909571970	Standard	2.0.10.353	2.0.10.353	05-19-2015		18:34:19	2.0.10.248	78	Bar50-50.bmp	46	2	?	10r_4g.bmp	0r_4g.bmp	2r_2g.bmp	0r_2g.bmp		0r_4g.bmp			TrialProc	TrialList	0	cvbn	-999999	17	238113	0	v	430	238543	240	-287	-47	16	-92	15	14	4	8	78	-10	0	-2	0	4	4	2	2	0	4
Hungry_Donkey_bar_English_2	102	3	<?xml version="1.0"?>\n<Clock xmlns:dt="urn:schemas-microsoft-com:datatypes"><Description dt:dt="string">E-Prime Primary Realtime Clock</Description><StartTime><Timestamp dt:dt="int">0</Timestamp><DateUtc dt:dt="string">2015-05-19T22:34:19Z</DateUtc></StartTime><FrequencyChanges><FrequencyChange><Frequency dt:dt="r8">2597685</Frequency><Timestamp dt:dt="r8">16269795895</Timestamp><Current dt:dt="r8">0</Current><DateUtc dt:dt="string">2015-05-19T22:34:19Z</DateUtc></FrequencyChange></FrequencyChanges></Clock>\n	Hungry_Donkey_bar_English_2-102-3	59.973	-81	1.0.0.17	1	-909571970	Standard	2.0.10.353	2.0.10.353	05-19-2015		18:34:19	2.0.10.248	79	Bar50-50.bmp	46	4	?	0r_4g.bmp	0r_4g.bmp	0r_2g.bmp	0r_2g.bmp				0r_2g.bmp	TrialProc	TrialList	0	cvbn	-999999	17	240581	0	n	1914	242495	242	-287	-45	16	-92	15	16	7	8	79	0	0	0	0	4	4	2	2	0	2
Hungry_Donkey_bar_English_2	102	3	<?xml version="1.0"?>\n<Clock xmlns:dt="urn:schemas-microsoft-com:datatypes"><Description dt:dt="string">E-Prime Primary Realtime Clock</Description><StartTime><Timestamp dt:dt="int">0</Timestamp><DateUtc dt:dt="string">2015-05-19T22:34:19Z</DateUtc></StartTime><FrequencyChanges><FrequencyChange><Frequency dt:dt="r8">2597685</Frequency><Timestamp dt:dt="r8">16269795895</Timestamp><Current dt:dt="r8">0</Current><DateUtc dt:dt="string">2015-05-19T22:34:19Z</DateUtc></FrequencyChange></FrequencyChanges></Clock>\n	Hungry_Donkey_bar_English_2-102-3	59.973	-81	1.0.0.17	1	-909571970	Standard	2.0.10.353	2.0.10.353	05-19-2015		18:34:19	2.0.10.248	80	Bar50-50.bmp	46	3	?	10r_4g.bmp	0r_4g.bmp	2r_2g.bmp	0r_2g.bmp			2r_2g.bmp		TrialProc	TrialList	0	cvbn	-999999	18	244533	0	b	746	245279	244	-289	-45	16	-92	15	16	2	8	80	-10	0	-2	0	4	4	2	2	-2	2
Hungry_Donkey_bar_English_2	102	3	<?xml version="1.0"?>\n<Clock xmlns:dt="urn:schemas-microsoft-com:datatypes"><Description dt:dt="string">E-Prime Primary Realtime Clock</Description><StartTime><Timestamp dt:dt="int">0</Timestamp><DateUtc dt:dt="string">2015-05-19T22:34:19Z</DateUtc></StartTime><FrequencyChanges><FrequencyChange><Frequency dt:dt="r8">2597685</Frequency><Timestamp dt:dt="r8">16269795895</Timestamp><Current dt:dt="r8">0</Current><DateUtc dt:dt="string">2015-05-19T22:34:19Z</DateUtc></FrequencyChange></FrequencyChanges></Clock>\n	Hungry_Donkey_bar_English_2-102-3	59.973	-81	1.0.0.17	1	-909571970	Standard	2.0.10.353	2.0.10.353	05-19-2015		18:34:19	2.0.10.248	81	Bar50-50.bmp	46	2	?	12r_4g.bmp	0r_4g.bmp	3r_2g.bmp	0r_2g.bmp		0r_4g.bmp			TrialProc	TrialList	0	cvbn	-999999	17	247317	0	v	458	247775	248	-289	-41	16	-88	15	16	5	9	81	-12	0	-3	0	4	4	2	2	0	4
Hungry_Donkey_bar_English_2	102	3	<?xml version="1.0"?>\n<Clock xmlns:dt="urn:schemas-microsoft-com:datatypes"><Description dt:dt="string">E-Prime Primary Realtime Clock</Description><StartTime><Timestamp dt:dt="int">0</Timestamp><DateUtc dt:dt="string">2015-05-19T22:34:19Z</DateUtc></StartTime><FrequencyChanges><FrequencyChange><Frequency dt:dt="r8">2597685</Frequency><Timestamp dt:dt="r8">16269795895</Timestamp><Current dt:dt="r8">0</Current><DateUtc dt:dt="string">2015-05-19T22:34:19Z</DateUtc></FrequencyChange></FrequencyChanges></Clock>\n	Hungry_Donkey_bar_English_2-102-3	59.973	-81	1.0.0.17	1	-909571970	Standard	2.0.10.353	2.0.10.353	05-19-2015		18:34:19	2.0.10.248	82	Bar50-50.bmp	46	1	?	10r_4g.bmp	0r_4g.bmp	2r_2g.bmp	0r_2g.bmp	10r_4g.bmp				TrialProc	TrialList	0	cvbn	-999999	18	249819	0	c	340	250159	252	-299	-47	10	-88	15	16	4	9	82	-10	0	-2	0	4	4	2	2	-10	4
Hungry_Donkey_bar_English_2	102	3	<?xml version="1.0"?>\n<Clock xmlns:dt="urn:schemas-microsoft-com:datatypes"><Description dt:dt="string">E-Prime Primary Realtime Clock</Description><StartTime><Timestamp dt:dt="int">0</Timestamp><DateUtc dt:dt="string">2015-05-19T22:34:19Z</DateUtc></StartTime><FrequencyChanges><FrequencyChange><Frequency dt:dt="r8">2597685</Frequency><Timestamp dt:dt="r8">16269795895</Timestamp><Current dt:dt="r8">0</Current><DateUtc dt:dt="string">2015-05-19T22:34:19Z</DateUtc></FrequencyChange></FrequencyChanges></Clock>\n	Hungry_Donkey_bar_English_2-102-3	59.973	-81	1.0.0.17	1	-909571970	Standard	2.0.10.353	2.0.10.353	05-19-2015		18:34:19	2.0.10.248	83	Bar50-50.bmp	46	2	?	0r_4g.bmp	0r_4g.bmp	0r_2g.bmp	0r_2g.bmp		0r_4g.bmp			TrialProc	TrialList	0	cvbn	-999999	17	252236	0	v	707	252943	256	-299	-43	10	-84	15	16	7	9	83	0	0	0	0	4	4	2	2	0	4
Hungry_Donkey_bar_English_2	102	3	<?xml version="1.0"?>\n<Clock xmlns:dt="urn:schemas-microsoft-com:datatypes"><Description dt:dt="string">E-Prime Primary Realtime Clock</Description><StartTime><Timestamp dt:dt="int">0</Timestamp><DateUtc dt:dt="string">2015-05-19T22:34:19Z</DateUtc></StartTime><FrequencyChanges><FrequencyChange><Frequency dt:dt="r8">2597685</Frequency><Timestamp dt:dt="r8">16269795895</Timestamp><Current dt:dt="r8">0</Current><DateUtc dt:dt="string">2015-05-19T22:34:19Z</DateUtc></FrequencyChange></FrequencyChanges></Clock>\n	Hungry_Donkey_bar_English_2-102-3	59.973	-81	1.0.0.17	1	-909571970	Standard	2.0.10.353	2.0.10.353	05-19-2015		18:34:19	2.0.10.248	84	Bar50-50.bmp	46	3	?	8r_4g.bmp	50r_4g.bmp	1r_2g.bmp	10r_2g.bmp			1r_2g.bmp		TrialProc	TrialList	0	cvbn	-999999	18	254971	0	b	356	255327	258	-300	-42	10	-84	16	16	1	9	84	-8	-50	-1	-10	4	4	2	2	-1	2
Hungry_Donkey_bar_English_2	102	3	<?xml version="1.0"?>\n<Clock xmlns:dt="urn:schemas-microsoft-com:datatypes"><Description dt:dt="string">E-Prime Primary Realtime Clock</Description><StartTime><Timestamp dt:dt="int">0</Timestamp><DateUtc dt:dt="string">2015-05-19T22:34:19Z</DateUtc></StartTime><FrequencyChanges><FrequencyChange><Frequency dt:dt="r8">2597685</Frequency><Timestamp dt:dt="r8">16269795895</Timestamp><Current dt:dt="r8">0</Current><DateUtc dt:dt="string">2015-05-19T22:34:19Z</DateUtc></FrequencyChange></FrequencyChanges></Clock>\n	Hungry_Donkey_bar_English_2-102-3	59.973	-81	1.0.0.17	1	-909571970	Standard	2.0.10.353	2.0.10.353	05-19-2015		18:34:19	2.0.10.248	85	Bar50-50.bmp	46	4	?	0r_4g.bmp	0r_4g.bmp	0r_2g.bmp	0r_2g.bmp				0r_2g.bmp	TrialProc	TrialList	0	cvbn	-999999	17	257355	0	n	596	257951	260	-300	-40	10	-84	16	18	9	9	85	0	0	0	0	4	4	2	2	0	2
Hungry_Donkey_bar_English_2	102	3	<?xml version="1.0"?>\n<Clock xmlns:dt="urn:schemas-microsoft-com:datatypes"><Description dt:dt="string">E-Prime Primary Realtime Clock</Description><StartTime><Timestamp dt:dt="int">0</Timestamp><DateUtc dt:dt="string">2015-05-19T22:34:19Z</DateUtc></StartTime><FrequencyChanges><FrequencyChange><Frequency dt:dt="r8">2597685</Frequency><Timestamp dt:dt="r8">16269795895</Timestamp><Current dt:dt="r8">0</Current><DateUtc dt:dt="string">2015-05-19T22:34:19Z</DateUtc></FrequencyChange></FrequencyChanges></Clock>\n	Hungry_Donkey_bar_English_2-102-3	59.973	-81	1.0.0.17	1	-909571970	Standard	2.0.10.353	2.0.10.353	05-19-2015		18:34:19	2.0.10.248	86	Bar50-50.bmp	46	3	?	10r_4g.bmp	0r_4g.bmp	2r_2g.bmp	0r_2g.bmp			2r_2g.bmp		TrialProc	TrialList	0	cvbn	-999999	18	259990	0	b	553	260543	262	-302	-40	10	-84	16	18	2	9	86	-10	0	-2	0	4	4	2	2	-2	2
Hungry_Donkey_bar_English_2	102	3	<?xml version="1.0"?>\n<Clock xmlns:dt="urn:schemas-microsoft-com:datatypes"><Description dt:dt="string">E-Prime Primary Realtime Clock</Description><StartTime><Timestamp dt:dt="int">0</Timestamp><DateUtc dt:dt="string">2015-05-19T22:34:19Z</DateUtc></StartTime><FrequencyChanges><FrequencyChange><Frequency dt:dt="r8">2597685</Frequency><Timestamp dt:dt="r8">16269795895</Timestamp><Current dt:dt="r8">0</Current><DateUtc dt:dt="string">2015-05-19T22:34:19Z</DateUtc></FrequencyChange></FrequencyChanges></Clock>\n	Hungry_Donkey_bar_English_2-102-3	59.973	-81	1.0.0.17	1	-909571970	Standard	2.0.10.353	2.0.10.353	05-19-2015		18:34:19	2.0.10.248	87	Bar50-50.bmp	47	2	?	0r_4g.bmp	0r_4g.bmp	0r_2g.bmp	0r_2g.bmp		0r_4g.bmp			TrialProc	TrialList	0	cvbn	-999999	17	262574	0	v	161	262735	266	-302	-36	10	-80	16	18	10	9	87	0	0	0	0	4	4	2	2	0	4
Hungry_Donkey_bar_English_2	102	3	<?xml version="1.0"?>\n<Clock xmlns:dt="urn:schemas-microsoft-com:datatypes"><Description dt:dt="string">E-Prime Primary Realtime Clock</Description><StartTime><Timestamp dt:dt="int">0</Timestamp><DateUtc dt:dt="string">2015-05-19T22:34:19Z</DateUtc></StartTime><FrequencyChanges><FrequencyChange><Frequency dt:dt="r8">2597685</Frequency><Timestamp dt:dt="r8">16269795895</Timestamp><Current dt:dt="r8">0</Current><DateUtc dt:dt="string">2015-05-19T22:34:19Z</DateUtc></FrequencyChange></FrequencyChanges></Clock>\n	Hungry_Donkey_bar_English_2-102-3	59.973	-81	1.0.0.17	1	-909571970	Standard	2.0.10.353	2.0.10.353	05-19-2015		18:34:19	2.0.10.248	88	Bar50-50.bmp	47	1	?	0r_4g.bmp	0r_4g.bmp	0r_2g.bmp	0r_2g.bmp	0r_4g.bmp				TrialProc	TrialList	0	cvbn	-999999	17	264775	0	c	376	265151	270	-302	-32	14	-80	16	18	8	9	88	0	0	0	0	4	4	2	2	0	4
Hungry_Donkey_bar_English_2	102	3	<?xml version="1.0"?>\n<Clock xmlns:dt="urn:schemas-microsoft-com:datatypes"><Description dt:dt="string">E-Prime Primary Realtime Clock</Description><StartTime><Timestamp dt:dt="int">0</Timestamp><DateUtc dt:dt="string">2015-05-19T22:34:19Z</DateUtc></StartTime><FrequencyChanges><FrequencyChange><Frequency dt:dt="r8">2597685</Frequency><Timestamp dt:dt="r8">16269795895</Timestamp><Current dt:dt="r8">0</Current><DateUtc dt:dt="string">2015-05-19T22:34:19Z</DateUtc></FrequencyChange></FrequencyChanges></Clock>\n	Hungry_Donkey_bar_English_2-102-3	59.973	-81	1.0.0.17	1	-909571970	Standard	2.0.10.353	2.0.10.353	05-19-2015		18:34:19	2.0.10.248	89	Bar50-50.bmp	48	2	?	0r_4g.bmp	0r_4g.bmp	0r_2g.bmp	0r_2g.bmp		0r_4g.bmp			TrialProc	TrialList	0	cvbn	-999999	18	267193	0	v	486	267679	274	-302	-28	14	-76	16	18	6	9	89	0	0	0	0	4	4	2	2	0	4
Hungry_Donkey_bar_English_2	102	3	<?xml version="1.0"?>\n<Clock xmlns:dt="urn:schemas-microsoft-com:datatypes"><Description dt:dt="string">E-Prime Primary Realtime Clock</Description><StartTime><Timestamp dt:dt="int">0</Timestamp><DateUtc dt:dt="string">2015-05-19T22:34:19Z</DateUtc></StartTime><FrequencyChanges><FrequencyChange><Frequency dt:dt="r8">2597685</Frequency><Timestamp dt:dt="r8">16269795895</Timestamp><Current dt:dt="r8">0</Current><DateUtc dt:dt="string">2015-05-19T22:34:19Z</DateUtc></FrequencyChange></FrequencyChanges></Clock>\n	Hungry_Donkey_bar_English_2-102-3	59.973	-81	1.0.0.17	1	-909571970	Standard	2.0.10.353	2.0.10.353	05-19-2015		18:34:19	2.0.10.248	90	Bar50-50.bmp	48	3	?	10r_4g.bmp	0r_4g.bmp	2r_2g.bmp	0r_2g.bmp			2r_2g.bmp		TrialProc	TrialList	0	cvbn	-999999	18	269711	0	b	192	269903	276	-304	-28	14	-76	16	18	3	9	90	-10	0	-2	0	4	4	2	2	-2	2
Hungry_Donkey_bar_English_2	102	3	<?xml version="1.0"?>\n<Clock xmlns:dt="urn:schemas-microsoft-com:datatypes"><Description dt:dt="string">E-Prime Primary Realtime Clock</Description><StartTime><Timestamp dt:dt="int">0</Timestamp><DateUtc dt:dt="string">2015-05-19T22:34:19Z</DateUtc></StartTime><FrequencyChanges><FrequencyChange><Frequency dt:dt="r8">2597685</Frequency><Timestamp dt:dt="r8">16269795895</Timestamp><Current dt:dt="r8">0</Current><DateUtc dt:dt="string">2015-05-19T22:34:19Z</DateUtc></FrequencyChange></FrequencyChanges></Clock>\n	Hungry_Donkey_bar_English_2-102-3	59.973	-81	1.0.0.17	1	-909571970	Standard	2.0.10.353	2.0.10.353	05-19-2015		18:34:19	2.0.10.248	91	Bar50-50.bmp	48	4	?	0r_4g.bmp	0r_4g.bmp	0r_2g.bmp	0r_2g.bmp				0r_2g.bmp	TrialProc	TrialList	0	cvbn	-999999	17	271945	0	n	550	272495	278	-304	-26	14	-76	16	20	9	10	91	0	0	0	0	4	4	2	2	0	2
Hungry_Donkey_bar_English_2	102	3	<?xml version="1.0"?>\n<Clock xmlns:dt="urn:schemas-microsoft-com:datatypes"><Description dt:dt="string">E-Prime Primary Realtime Clock</Description><StartTime><Timestamp dt:dt="int">0</Timestamp><DateUtc dt:dt="string">2015-05-19T22:34:19Z</DateUtc></StartTime><FrequencyChanges><FrequencyChange><Frequency dt:dt="r8">2597685</Frequency><Timestamp dt:dt="r8">16269795895</Timestamp><Current dt:dt="r8">0</Current><DateUtc dt:dt="string">2015-05-19T22:34:19Z</DateUtc></FrequencyChange></FrequencyChanges></Clock>\n	Hungry_Donkey_bar_English_2-102-3	59.973	-81	1.0.0.17	1	-909571970	Standard	2.0.10.353	2.0.10.353	05-19-2015		18:34:19	2.0.10.248	92	Bar50-50.bmp	48	4	?	10r_4g.bmp	0r_4g.bmp	2r_2g.bmp	0r_2g.bmp				0r_2g.bmp	TrialProc	TrialList	0	cvbn	-999999	18	274530	0	n	877	275407	280	-304	-24	14	-76	16	22	2	10	92	-10	0	-2	0	4	4	2	2	0	2
Hungry_Donkey_bar_English_2	102	3	<?xml version="1.0"?>\n<Clock xmlns:dt="urn:schemas-microsoft-com:datatypes"><Description dt:dt="string">E-Prime Primary Realtime Clock</Description><StartTime><Timestamp dt:dt="int">0</Timestamp><DateUtc dt:dt="string">2015-05-19T22:34:19Z</DateUtc></StartTime><FrequencyChanges><FrequencyChange><Frequency dt:dt="r8">2597685</Frequency><Timestamp dt:dt="r8">16269795895</Timestamp><Current dt:dt="r8">0</Current><DateUtc dt:dt="string">2015-05-19T22:34:19Z</DateUtc></FrequencyChange></FrequencyChanges></Clock>\n	Hungry_Donkey_bar_English_2-102-3	59.973	-81	1.0.0.17	1	-909571970	Standard	2.0.10.353	2.0.10.353	05-19-2015		18:34:19	2.0.10.248	93	Bar50-50.bmp	48	3	?	12r_4g.bmp	0r_4g.bmp	3r_2g.bmp	0r_2g.bmp			3r_2g.bmp		TrialProc	TrialList	0	cvbn	-999999	18	277448	0	b	550	277998	282	-307	-25	14	-76	15	22	5	10	93	-12	0	-3	0	4	4	2	2	-3	2
Hungry_Donkey_bar_English_2	102	3	<?xml version="1.0"?>\n<Clock xmlns:dt="urn:schemas-microsoft-com:datatypes"><Description dt:dt="string">E-Prime Primary Realtime Clock</Description><StartTime><Timestamp dt:dt="int">0</Timestamp><DateUtc dt:dt="string">2015-05-19T22:34:19Z</DateUtc></StartTime><FrequencyChanges><FrequencyChange><Frequency dt:dt="r8">2597685</Frequency><Timestamp dt:dt="r8">16269795895</Timestamp><Current dt:dt="r8">0</Current><DateUtc dt:dt="string">2015-05-19T22:34:19Z</DateUtc></FrequencyChange></FrequencyChanges></Clock>\n	Hungry_Donkey_bar_English_2-102-3	59.973	-81	1.0.0.17	1	-909571970	Standard	2.0.10.353	2.0.10.353	05-19-2015		18:34:19	2.0.10.248	94	Bar50-50.bmp	44	2	?	8r_4g.bmp	50r_4g.bmp	1r_2g.bmp	10r_2g.bmp		50r_4g.bmp			TrialProc	TrialList	0	cvbn	-999999	17	280032	0	v	670	280702	286	-357	-71	14	-122	15	22	1	10	94	-8	-50	-1	-10	4	4	2	2	-50	4
Hungry_Donkey_bar_English_2	102	3	<?xml version="1.0"?>\n<Clock xmlns:dt="urn:schemas-microsoft-com:datatypes"><Description dt:dt="string">E-Prime Primary Realtime Clock</Description><StartTime><Timestamp dt:dt="int">0</Timestamp><DateUtc dt:dt="string">2015-05-19T22:34:19Z</DateUtc></StartTime><FrequencyChanges><FrequencyChange><Frequency dt:dt="r8">2597685</Frequency><Timestamp dt:dt="r8">16269795895</Timestamp><Current dt:dt="r8">0</Current><DateUtc dt:dt="string">2015-05-19T22:34:19Z</DateUtc></FrequencyChange></FrequencyChanges></Clock>\n	Hungry_Donkey_bar_English_2-102-3	59.973	-81	1.0.0.17	1	-909571970	Standard	2.0.10.353	2.0.10.353	05-19-2015		18:34:19	2.0.10.248	95	Bar50-50.bmp	45	1	?	0r_4g.bmp	0r_4g.bmp	0r_2g.bmp	0r_2g.bmp	0r_4g.bmp				TrialProc	TrialList	0	cvbn	-999999	17	282733	0	c	1713	284446	290	-357	-67	18	-122	15	22	8	10	95	0	0	0	0	4	4	2	2	0	4
Hungry_Donkey_bar_English_2	102	3	<?xml version="1.0"?>\n<Clock xmlns:dt="urn:schemas-microsoft-com:datatypes"><Description dt:dt="string">E-Prime Primary Realtime Clock</Description><StartTime><Timestamp dt:dt="int">0</Timestamp><DateUtc dt:dt="string">2015-05-19T22:34:19Z</DateUtc></StartTime><FrequencyChanges><FrequencyChange><Frequency dt:dt="r8">2597685</Frequency><Timestamp dt:dt="r8">16269795895</Timestamp><Current dt:dt="r8">0</Current><DateUtc dt:dt="string">2015-05-19T22:34:19Z</DateUtc></FrequencyChange></FrequencyChanges></Clock>\n	Hungry_Donkey_bar_English_2-102-3	59.973	-81	1.0.0.17	1	-909571970	Standard	2.0.10.353	2.0.10.353	05-19-2015		18:34:19	2.0.10.248	96	Bar50-50.bmp	45	2	?	0r_4g.bmp	0r_4g.bmp	0r_2g.bmp	0r_2g.bmp		0r_4g.bmp			TrialProc	TrialList	0	cvbn	-999999	18	286485	0	v	329	286814	294	-357	-63	18	-118	15	22	6	10	96	0	0	0	0	4	4	2	2	0	4
Hungry_Donkey_bar_English_2	102	3	<?xml version="1.0"?>\n<Clock xmlns:dt="urn:schemas-microsoft-com:datatypes"><Description dt:dt="string">E-Prime Primary Realtime Clock</Description><StartTime><Timestamp dt:dt="int">0</Timestamp><DateUtc dt:dt="string">2015-05-19T22:34:19Z</DateUtc></StartTime><FrequencyChanges><FrequencyChange><Frequency dt:dt="r8">2597685</Frequency><Timestamp dt:dt="r8">16269795895</Timestamp><Current dt:dt="r8">0</Current><DateUtc dt:dt="string">2015-05-19T22:34:19Z</DateUtc></FrequencyChange></FrequencyChanges></Clock>\n	Hungry_Donkey_bar_English_2-102-3	59.973	-81	1.0.0.17	1	-909571970	Standard	2.0.10.353	2.0.10.353	05-19-2015		18:34:19	2.0.10.248	97	Bar50-50.bmp	45	3	?	10r_4g.bmp	0r_4g.bmp	2r_2g.bmp	0r_2g.bmp			2r_2g.bmp		TrialProc	TrialList	0	cvbn	-999999	18	288853	0	b	409	289262	296	-359	-63	18	-118	15	22	4	10	97	-10	0	-2	0	4	4	2	2	-2	2
Hungry_Donkey_bar_English_2	102	3	<?xml version="1.0"?>\n<Clock xmlns:dt="urn:schemas-microsoft-com:datatypes"><Description dt:dt="string">E-Prime Primary Realtime Clock</Description><StartTime><Timestamp dt:dt="int">0</Timestamp><DateUtc dt:dt="string">2015-05-19T22:34:19Z</DateUtc></StartTime><FrequencyChanges><FrequencyChange><Frequency dt:dt="r8">2597685</Frequency><Timestamp dt:dt="r8">16269795895</Timestamp><Current dt:dt="r8">0</Current><DateUtc dt:dt="string">2015-05-19T22:34:19Z</DateUtc></FrequencyChange></FrequencyChanges></Clock>\n	Hungry_Donkey_bar_English_2-102-3	59.973	-81	1.0.0.17	1	-909571970	Standard	2.0.10.353	2.0.10.353	05-19-2015		18:34:19	2.0.10.248	98	Bar50-50.bmp	45	4	?	10r_4g.bmp	0r_4g.bmp	2r_2g.bmp	0r_2g.bmp				0r_2g.bmp	TrialProc	TrialList	0	cvbn	-999999	18	291304	0	n	70	291374	298	-359	-61	18	-118	15	24	3	10	98	-10	0	-2	0	4	4	2	2	0	2
Hungry_Donkey_bar_English_2	102	3	<?xml version="1.0"?>\n<Clock xmlns:dt="urn:schemas-microsoft-com:datatypes"><Description dt:dt="string">E-Prime Primary Realtime Clock</Description><StartTime><Timestamp dt:dt="int">0</Timestamp><DateUtc dt:dt="string">2015-05-19T22:34:19Z</DateUtc></StartTime><FrequencyChanges><FrequencyChange><Frequency dt:dt="r8">2597685</Frequency><Timestamp dt:dt="r8">16269795895</Timestamp><Current dt:dt="r8">0</Current><DateUtc dt:dt="string">2015-05-19T22:34:19Z</DateUtc></FrequencyChange></FrequencyChanges></Clock>\n	Hungry_Donkey_bar_English_2-102-3	59.973	-81	1.0.0.17	1	-909571970	Standard	2.0.10.353	2.0.10.353	05-19-2015		18:34:19	2.0.10.248	99	Bar50-50.bmp	46	1	?	0r_4g.bmp	0r_4g.bmp	0r_2g.bmp	0r_2g.bmp	0r_4g.bmp				TrialProc	TrialList	0	cvbn	-999999	18	293405	0	c	849	294254	302	-359	-57	22	-118	15	24	7	10	99	0	0	0	0	4	4	2	2	0	4
Hungry_Donkey_bar_English_2	102	3	<?xml version="1.0"?>\n<Clock xmlns:dt="urn:schemas-microsoft-com:datatypes"><Description dt:dt="string">E-Prime Primary Realtime Clock</Description><StartTime><Timestamp dt:dt="int">0</Timestamp><DateUtc dt:dt="string">2015-05-19T22:34:19Z</DateUtc></StartTime><FrequencyChanges><FrequencyChange><Frequency dt:dt="r8">2597685</Frequency><Timestamp dt:dt="r8">16269795895</Timestamp><Current dt:dt="r8">0</Current><DateUtc dt:dt="string">2015-05-19T22:34:19Z</DateUtc></FrequencyChange></FrequencyChanges></Clock>\n	Hungry_Donkey_bar_English_2-102-3	59.973	-81	1.0.0.17	1	-909571970	Standard	2.0.10.353	2.0.10.353	05-19-2015		18:34:19	2.0.10.248	100	Bar50-50.bmp	46	2	?	0r_4g.bmp	0r_4g.bmp	0r_2g.bmp	0r_2g.bmp		0r_4g.bmp			TrialProc	TrialList	0	cvbn	-999999	17	296289	0	v	429	296718	306	-359	-53	22	-114	15	24	10	10	100	0	0	0	0	4	4	2	2	0	4
Hungry_Donkey_bar_English_2	102	3	<?xml version="1.0"?>\n<Clock xmlns:dt="urn:schemas-microsoft-com:datatypes"><Description dt:dt="string">E-Prime Primary Realtime Clock</Description><StartTime><Timestamp dt:dt="int">0</Timestamp><DateUtc dt:dt="string">2015-05-19T22:34:19Z</DateUtc></StartTime><FrequencyChanges><FrequencyChange><Frequency dt:dt="r8">2597685</Frequency><Timestamp dt:dt="r8">16269795895</Timestamp><Current dt:dt="r8">0</Current><DateUtc dt:dt="string">2015-05-19T22:34:19Z</DateUtc></FrequencyChange></FrequencyChanges></Clock>\n	Hungry_Donkey_bar_English_2-102-3	59.973	-81	1.0.0.17	1	-909571970	Standard	2.0.10.353	2.0.10.353	05-19-2015		18:34:19	2.0.10.248	101	Bar50-50.bmp	46	4	?	0r_4g.bmp	0r_4g.bmp	0r_2g.bmp	0r_2g.bmp				0r_2g.bmp	TrialProc	TrialList	0	cvbn	-999999	17	298757	0	n	185	298942	308	-359	-51	22	-114	15	26	9	11	101	0	0	0	0	4	4	2	2	0	2
Hungry_Donkey_bar_English_2	102	3	<?xml version="1.0"?>\n<Clock xmlns:dt="urn:schemas-microsoft-com:datatypes"><Description dt:dt="string">E-Prime Primary Realtime Clock</Description><StartTime><Timestamp dt:dt="int">0</Timestamp><DateUtc dt:dt="string">2015-05-19T22:34:19Z</DateUtc></StartTime><FrequencyChanges><FrequencyChange><Frequency dt:dt="r8">2597685</Frequency><Timestamp dt:dt="r8">16269795895</Timestamp><Current dt:dt="r8">0</Current><DateUtc dt:dt="string">2015-05-19T22:34:19Z</DateUtc></FrequencyChange></FrequencyChanges></Clock>\n	Hungry_Donkey_bar_English_2-102-3	59.973	-81	1.0.0.17	1	-909571970	Standard	2.0.10.353	2.0.10.353	05-19-2015		18:34:19	2.0.10.248	102	Bar50-50.bmp	46	1	?	10r_4g.bmp	0r_4g.bmp	2r_2g.bmp	0r_2g.bmp	10r_4g.bmp				TrialProc	TrialList	0	cvbn	-999999	18	300975	0	c	351	301326	312	-369	-57	16	-114	15	26	4	11	102	-10	0	-2	0	4	4	2	2	-10	4
Hungry_Donkey_bar_English_2	102	3	<?xml version="1.0"?>\n<Clock xmlns:dt="urn:schemas-microsoft-com:datatypes"><Description dt:dt="string">E-Prime Primary Realtime Clock</Description><StartTime><Timestamp dt:dt="int">0</Timestamp><DateUtc dt:dt="string">2015-05-19T22:34:19Z</DateUtc></StartTime><FrequencyChanges><FrequencyChange><Frequency dt:dt="r8">2597685</Frequency><Timestamp dt:dt="r8">16269795895</Timestamp><Current dt:dt="r8">0</Current><DateUtc dt:dt="string">2015-05-19T22:34:19Z</DateUtc></FrequencyChange></FrequencyChanges></Clock>\n	Hungry_Donkey_bar_English_2-102-3	59.973	-81	1.0.0.17	1	-909571970	Standard	2.0.10.353	2.0.10.353	05-19-2015		18:34:19	2.0.10.248	103	Bar50-50.bmp	46	2	?	0r_4g.bmp	0r_4g.bmp	0r_2g.bmp	0r_2g.bmp		0r_4g.bmp			TrialProc	TrialList	0	cvbn	-999999	17	303359	0	v	975	304334	316	-369	-53	16	-110	15	26	6	11	103	0	0	0	0	4	4	2	2	0	4
Hungry_Donkey_bar_English_2	102	3	<?xml version="1.0"?>\n<Clock xmlns:dt="urn:schemas-microsoft-com:datatypes"><Description dt:dt="string">E-Prime Primary Realtime Clock</Description><StartTime><Timestamp dt:dt="int">0</Timestamp><DateUtc dt:dt="string">2015-05-19T22:34:19Z</DateUtc></StartTime><FrequencyChanges><FrequencyChange><Frequency dt:dt="r8">2597685</Frequency><Timestamp dt:dt="r8">16269795895</Timestamp><Current dt:dt="r8">0</Current><DateUtc dt:dt="string">2015-05-19T22:34:19Z</DateUtc></FrequencyChange></FrequencyChanges></Clock>\n	Hungry_Donkey_bar_English_2-102-3	59.973	-81	1.0.0.17	1	-909571970	Standard	2.0.10.353	2.0.10.353	05-19-2015		18:34:19	2.0.10.248	104	Bar50-50.bmp	46	4	?	0r_4g.bmp	0r_4g.bmp	0r_2g.bmp	0r_2g.bmp				0r_2g.bmp	TrialProc	TrialList	0	cvbn	-999999	17	306377	0	n	373	306750	318	-369	-51	16	-110	15	28	8	11	104	0	0	0	0	4	4	2	2	0	2
Hungry_Donkey_bar_English_2	102	3	<?xml version="1.0"?>\n<Clock xmlns:dt="urn:schemas-microsoft-com:datatypes"><Description dt:dt="string">E-Prime Primary Realtime Clock</Description><StartTime><Timestamp dt:dt="int">0</Timestamp><DateUtc dt:dt="string">2015-05-19T22:34:19Z</DateUtc></StartTime><FrequencyChanges><FrequencyChange><Frequency dt:dt="r8">2597685</Frequency><Timestamp dt:dt="r8">16269795895</Timestamp><Current dt:dt="r8">0</Current><DateUtc dt:dt="string">2015-05-19T22:34:19Z</DateUtc></FrequencyChange></FrequencyChanges></Clock>\n	Hungry_Donkey_bar_English_2-102-3	59.973	-81	1.0.0.17	1	-909571970	Standard	2.0.10.353	2.0.10.353	05-19-2015		18:34:19	2.0.10.248	105	Bar50-50.bmp	47	2	?	12r_4g.bmp	0r_4g.bmp	3r_2g.bmp	0r_2g.bmp		0r_4g.bmp			TrialProc	TrialList	0	cvbn	-999999	17	308778	0	v	20	308798	322	-369	-47	16	-106	15	28	5	11	105	-12	0	-3	0	4	4	2	2	0	4
Hungry_Donkey_bar_English_2	102	3	<?xml version="1.0"?>\n<Clock xmlns:dt="urn:schemas-microsoft-com:datatypes"><Description dt:dt="string">E-Prime Primary Realtime Clock</Description><StartTime><Timestamp dt:dt="int">0</Timestamp><DateUtc dt:dt="string">2015-05-19T22:34:19Z</DateUtc></StartTime><FrequencyChanges><FrequencyChange><Frequency dt:dt="r8">2597685</Frequency><Timestamp dt:dt="r8">16269795895</Timestamp><Current dt:dt="r8">0</Current><DateUtc dt:dt="string">2015-05-19T22:34:19Z</DateUtc></FrequencyChange></FrequencyChanges></Clock>\n	Hungry_Donkey_bar_English_2-102-3	59.973	-81	1.0.0.17	1	-909571970	Standard	2.0.10.353	2.0.10.353	05-19-2015		18:34:19	2.0.10.248	106	Bar50-50.bmp	47	3	?	0r_4g.bmp	0r_4g.bmp	0r_2g.bmp	0r_2g.bmp			0r_2g.bmp		TrialProc	TrialList	0	cvbn	-999999	17	310829	0	b	1537	312366	324	-369	-45	16	-106	17	28	10	11	106	0	0	0	0	4	4	2	2	0	2
Hungry_Donkey_bar_English_2	102	3	<?xml version="1.0"?>\n<Clock xmlns:dt="urn:schemas-microsoft-com:datatypes"><Description dt:dt="string">E-Prime Primary Realtime Clock</Description><StartTime><Timestamp dt:dt="int">0</Timestamp><DateUtc dt:dt="string">2015-05-19T22:34:19Z</DateUtc></StartTime><FrequencyChanges><FrequencyChange><Frequency dt:dt="r8">2597685</Frequency><Timestamp dt:dt="r8">16269795895</Timestamp><Current dt:dt="r8">0</Current><DateUtc dt:dt="string">2015-05-19T22:34:19Z</DateUtc></FrequencyChange></FrequencyChanges></Clock>\n	Hungry_Donkey_bar_English_2-102-3	59.973	-81	1.0.0.17	1	-909571970	Standard	2.0.10.353	2.0.10.353	05-19-2015		18:34:19	2.0.10.248	107	Bar50-50.bmp	47	4	?	10r_4g.bmp	0r_4g.bmp	2r_2g.bmp	0r_2g.bmp				0r_2g.bmp	TrialProc	TrialList	0	cvbn	-999999	17	314397	0	n	337	314734	326	-369	-43	16	-106	17	30	2	11	107	-10	0	-2	0	4	4	2	2	0	2
Hungry_Donkey_bar_English_2	102	3	<?xml version="1.0"?>\n<Clock xmlns:dt="urn:schemas-microsoft-com:datatypes"><Description dt:dt="string">E-Prime Primary Realtime Clock</Description><StartTime><Timestamp dt:dt="int">0</Timestamp><DateUtc dt:dt="string">2015-05-19T22:34:19Z</DateUtc></StartTime><FrequencyChanges><FrequencyChange><Frequency dt:dt="r8">2597685</Frequency><Timestamp dt:dt="r8">16269795895</Timestamp><Current dt:dt="r8">0</Current><DateUtc dt:dt="string">2015-05-19T22:34:19Z</DateUtc></FrequencyChange></FrequencyChanges></Clock>\n	Hungry_Donkey_bar_English_2-102-3	59.973	-81	1.0.0.17	1	-909571970	Standard	2.0.10.353	2.0.10.353	05-19-2015		18:34:19	2.0.10.248	108	Bar50-50.bmp	44	2	?	8r_4g.bmp	50r_4g.bmp	1r_2g.bmp	10r_2g.bmp		50r_4g.bmp			TrialProc	TrialList	0	cvbn	-999999	17	316765	0	v	401	317166	330	-419	-89	16	-152	17	30	1	11	108	-8	-50	-1	-10	4	4	2	2	-50	4
Hungry_Donkey_bar_English_2	102	3	<?xml version="1.0"?>\n<Clock xmlns:dt="urn:schemas-microsoft-com:datatypes"><Description dt:dt="string">E-Prime Primary Realtime Clock</Description><StartTime><Timestamp dt:dt="int">0</Timestamp><DateUtc dt:dt="string">2015-05-19T22:34:19Z</DateUtc></StartTime><FrequencyChanges><FrequencyChange><Frequency dt:dt="r8">2597685</Frequency><Timestamp dt:dt="r8">16269795895</Timestamp><Current dt:dt="r8">0</Current><DateUtc dt:dt="string">2015-05-19T22:34:19Z</DateUtc></FrequencyChange></FrequencyChanges></Clock>\n	Hungry_Donkey_bar_English_2-102-3	59.973	-81	1.0.0.17	1	-909571970	Standard	2.0.10.353	2.0.10.353	05-19-2015		18:34:19	2.0.10.248	109	Bar50-50.bmp	44	3	?	10r_4g.bmp	0r_4g.bmp	2r_2g.bmp	0r_2g.bmp			2r_2g.bmp		TrialProc	TrialList	0	cvbn	-999999	18	319200	0	b	5342	324542	332	-421	-89	16	-152	17	30	3	11	109	-10	0	-2	0	4	4	2	2	-2	2
Hungry_Donkey_bar_English_2	102	3	<?xml version="1.0"?>\n<Clock xmlns:dt="urn:schemas-microsoft-com:datatypes"><Description dt:dt="string">E-Prime Primary Realtime Clock</Description><StartTime><Timestamp dt:dt="int">0</Timestamp><DateUtc dt:dt="string">2015-05-19T22:34:19Z</DateUtc></StartTime><FrequencyChanges><FrequencyChange><Frequency dt:dt="r8">2597685</Frequency><Timestamp dt:dt="r8">16269795895</Timestamp><Current dt:dt="r8">0</Current><DateUtc dt:dt="string">2015-05-19T22:34:19Z</DateUtc></FrequencyChange></FrequencyChanges></Clock>\n	Hungry_Donkey_bar_English_2-102-3	59.973	-81	1.0.0.17	1	-909571970	Standard	2.0.10.353	2.0.10.353	05-19-2015		18:34:19	2.0.10.248	110	Bar50-50.bmp	44	4	?	0r_4g.bmp	0r_4g.bmp	0r_2g.bmp	0r_2g.bmp				0r_2g.bmp	TrialProc	TrialList	0	cvbn	-999999	18	326570	0	n	628	327198	334	-421	-87	16	-152	17	32	7	11	110	0	0	0	0	4	4	2	2	0	2
Hungry_Donkey_bar_English_2	102	3	<?xml version="1.0"?>\n<Clock xmlns:dt="urn:schemas-microsoft-com:datatypes"><Description dt:dt="string">E-Prime Primary Realtime Clock</Description><StartTime><Timestamp dt:dt="int">0</Timestamp><DateUtc dt:dt="string">2015-05-19T22:34:19Z</DateUtc></StartTime><FrequencyChanges><FrequencyChange><Frequency dt:dt="r8">2597685</Frequency><Timestamp dt:dt="r8">16269795895</Timestamp><Current dt:dt="r8">0</Current><DateUtc dt:dt="string">2015-05-19T22:34:19Z</DateUtc></FrequencyChange></FrequencyChanges></Clock>\n	Hungry_Donkey_bar_English_2-102-3	59.973	-81	1.0.0.17	1	-909571970	Standard	2.0.10.353	2.0.10.353	05-19-2015		18:34:19	2.0.10.248	111	Bar50-50.bmp	45	2	?	0r_4g.bmp	0r_4g.bmp	0r_2g.bmp	0r_2g.bmp		0r_4g.bmp			TrialProc	TrialList	0	cvbn	-999999	17	329237	0	v	809	330046	338	-421	-83	16	-148	17	32	6	12	111	0	0	0	0	4	4	2	2	0	4
Hungry_Donkey_bar_English_2	102	3	<?xml version="1.0"?>\n<Clock xmlns:dt="urn:schemas-microsoft-com:datatypes"><Description dt:dt="string">E-Prime Primary Realtime Clock</Description><StartTime><Timestamp dt:dt="int">0</Timestamp><DateUtc dt:dt="string">2015-05-19T22:34:19Z</DateUtc></StartTime><FrequencyChanges><FrequencyChange><Frequency dt:dt="r8">2597685</Frequency><Timestamp dt:dt="r8">16269795895</Timestamp><Current dt:dt="r8">0</Current><DateUtc dt:dt="string">2015-05-19T22:34:19Z</DateUtc></FrequencyChange></FrequencyChanges></Clock>\n	Hungry_Donkey_bar_English_2-102-3	59.973	-81	1.0.0.17	1	-909571970	Standard	2.0.10.353	2.0.10.353	05-19-2015		18:34:19	2.0.10.248	112	Bar50-50.bmp	45	2	?	0r_4g.bmp	0r_4g.bmp	0r_2g.bmp	0r_2g.bmp		0r_4g.bmp			TrialProc	TrialList	0	cvbn	-999999	18	332089	0	v	644	332733	342	-421	-79	16	-144	17	32	7	12	112	0	0	0	0	4	4	2	2	0	4
Hungry_Donkey_bar_English_2	102	3	<?xml version="1.0"?>\n<Clock xmlns:dt="urn:schemas-microsoft-com:datatypes"><Description dt:dt="string">E-Prime Primary Realtime Clock</Description><StartTime><Timestamp dt:dt="int">0</Timestamp><DateUtc dt:dt="string">2015-05-19T22:34:19Z</DateUtc></StartTime><FrequencyChanges><FrequencyChange><Frequency dt:dt="r8">2597685</Frequency><Timestamp dt:dt="r8">16269795895</Timestamp><Current dt:dt="r8">0</Current><DateUtc dt:dt="string">2015-05-19T22:34:19Z</DateUtc></FrequencyChange></FrequencyChanges></Clock>\n	Hungry_Donkey_bar_English_2-102-3	59.973	-81	1.0.0.17	1	-909571970	Standard	2.0.10.353	2.0.10.353	05-19-2015		18:34:19	2.0.10.248	113	Bar50-50.bmp	45	1	?	0r_4g.bmp	0r_4g.bmp	0r_2g.bmp	0r_2g.bmp	0r_4g.bmp				TrialProc	TrialList	0	cvbn	-999999	17	334773	0	c	776	335549	346	-421	-75	20	-144	17	32	8	12	113	0	0	0	0	4	4	2	2	0	4
