ExperimentName	Subject	Session	Clock.Information	DataFile.Basename	Display.RefreshRate	Eindtotaal[Session]	ExperimentVersion	Group	RandomSeed	RuntimeCapabilities	RuntimeVersion	RuntimeVersionExpected	SessionDate	SessionStartDateTimeUtc	SessionTime	StudioVersion	Block	BarImage	BarTotalWinst	DoorChoice	Eindtotaal[Block]	FBDoor1	FBDoor2	FBDoor3	FBDoor4	Image1	Image2	Image3	Image4	Procedure	Running	spel.ACC	spel.CRESP	spel.DurationError	spel.OnsetDelay	spel.OnsetTime	spel.OnsetToOnsetTime	spel.RESP	spel.RT	spel.RTTime	TotalGain	TotalLose	Totalsum	TotalsumD1	TotalsumD2	TotalsumD3	TotalsumD4	TrialList	TrialList.Cycle	TrialList.Sample	varV1	varV2	varV3	varV4	varW1	varW2	varW3	varW4	Verliesbedrag	Winstbedrag
Hungry_Donkey_bar_English_2	113	1	<?xml version="1.0"?>\n<Clock xmlns:dt="urn:schemas-microsoft-com:datatypes"><Description dt:dt="string">E-Prime Primary Realtime Clock</Description><StartTime><Timestamp dt:dt="int">0</Timestamp><DateUtc dt:dt="string">2015-06-18T19:32:18Z</DateUtc></StartTime><FrequencyChanges><FrequencyChange><Frequency dt:dt="r8">3507685</Frequency><Timestamp dt:dt="r8">340174181078</Timestamp><Current dt:dt="r8">0</Current><DateUtc dt:dt="string">2015-06-18T19:32:18Z</DateUtc></FrequencyChange></FrequencyChanges></Clock>\n	Hungry_Donkey_bar_English_2-113-1	60.017	-188	1.0.0.18	1	872442275	Standard	2.0.10.353	2.0.10.353	06-18-2015	6/18/2015 7:32:18 PM	15:32:18	2.0.10.248	1	Bar50-50.bmp	50	3	?	10r_4g.bmp	0r_4g.bmp	2r_2g.bmp	0r_2g.bmp			2r_2g.bmp		TrialProc	TrialList	0	cvbn	-999999	19	93866	0	b	15084	108950	2	-2	0	0	0	0	0	4	1	1	-10	0	-2	0	4	4	2	2	-2	2
Hungry_Donkey_bar_English_2	113	1	<?xml version="1.0"?>\n<Clock xmlns:dt="urn:schemas-microsoft-com:datatypes"><Description dt:dt="string">E-Prime Primary Realtime Clock</Description><StartTime><Timestamp dt:dt="int">0</Timestamp><DateUtc dt:dt="string">2015-06-18T19:32:18Z</DateUtc></StartTime><FrequencyChanges><FrequencyChange><Frequency dt:dt="r8">3507685</Frequency><Timestamp dt:dt="r8">340174181078</Timestamp><Current dt:dt="r8">0</Current><DateUtc dt:dt="string">2015-06-18T19:32:18Z</DateUtc></FrequencyChange></FrequencyChanges></Clock>\n	Hungry_Donkey_bar_English_2-113-1	60.017	-188	1.0.0.18	1	872442275	Standard	2.0.10.353	2.0.10.353	06-18-2015	6/18/2015 7:32:18 PM	15:32:18	2.0.10.248	2	Bar75-25.bmp	75	2	?	10r_4g.bmp	0r_4g.bmp	2r_2g.bmp	0r_2g.bmp		0r_4g.bmp			TrialProc	TrialList	0	cvbn	-999999	16	110978	0	v	2772	113750	6	-2	4	0	4	0	0	2	1	2	-10	0	-2	0	4	4	2	2	0	4
Hungry_Donkey_bar_English_2	113	1	<?xml version="1.0"?>\n<Clock xmlns:dt="urn:schemas-microsoft-com:datatypes"><Description dt:dt="string">E-Prime Primary Realtime Clock</Description><StartTime><Timestamp dt:dt="int">0</Timestamp><DateUtc dt:dt="string">2015-06-18T19:32:18Z</DateUtc></StartTime><FrequencyChanges><FrequencyChange><Frequency dt:dt="r8">3507685</Frequency><Timestamp dt:dt="r8">340174181078</Timestamp><Current dt:dt="r8">0</Current><DateUtc dt:dt="string">2015-06-18T19:32:18Z</DateUtc></FrequencyChange></FrequencyChanges></Clock>\n	Hungry_Donkey_bar_English_2-113-1	60.017	-188	1.0.0.18	1	872442275	Standard	2.0.10.353	2.0.10.353	06-18-2015	6/18/2015 7:32:18 PM	15:32:18	2.0.10.248	3	Bar75-25.bmp	80	3	?	0r_4g.bmp	0r_4g.bmp	0r_2g.bmp	0r_2g.bmp			0r_2g.bmp		TrialProc	TrialList	0	cvbn	-999999	17	115777	0	b	2388	118165	8	-2	6	0	4	2	0	7	1	3	0	0	0	0	4	4	2	2	0	2
Hungry_Donkey_bar_English_2	113	1	<?xml version="1.0"?>\n<Clock xmlns:dt="urn:schemas-microsoft-com:datatypes"><Description dt:dt="string">E-Prime Primary Realtime Clock</Description><StartTime><Timestamp dt:dt="int">0</Timestamp><DateUtc dt:dt="string">2015-06-18T19:32:18Z</DateUtc></StartTime><FrequencyChanges><FrequencyChange><Frequency dt:dt="r8">3507685</Frequency><Timestamp dt:dt="r8">340174181078</Timestamp><Current dt:dt="r8">0</Current><DateUtc dt:dt="string">2015-06-18T19:32:18Z</DateUtc></FrequencyChange></FrequencyChanges></Clock>\n	Hungry_Donkey_bar_English_2-113-1	60.017	-188	1.0.0.18	1	872442275	Standard	2.0.10.353	2.0.10.353	06-18-2015	6/18/2015 7:32:18 PM	15:32:18	2.0.10.248	4	Bar87-13.bmp	86	1	?	0r_4g.bmp	0r_4g.bmp	0r_2g.bmp	0r_2g.bmp	0r_4g.bmp				TrialProc	TrialList	0	cvbn	-999999	16	120192	0	c	1653	121845	12	-2	10	4	4	2	0	6	1	4	0	0	0	0	4	4	2	2	0	4
Hungry_Donkey_bar_English_2	113	1	<?xml version="1.0"?>\n<Clock xmlns:dt="urn:schemas-microsoft-com:datatypes"><Description dt:dt="string">E-Prime Primary Realtime Clock</Description><StartTime><Timestamp dt:dt="int">0</Timestamp><DateUtc dt:dt="string">2015-06-18T19:32:18Z</DateUtc></StartTime><FrequencyChanges><FrequencyChange><Frequency dt:dt="r8">3507685</Frequency><Timestamp dt:dt="r8">340174181078</Timestamp><Current dt:dt="r8">0</Current><DateUtc dt:dt="string">2015-06-18T19:32:18Z</DateUtc></FrequencyChange></FrequencyChanges></Clock>\n	Hungry_Donkey_bar_English_2-113-1	60.017	-188	1.0.0.18	1	872442275	Standard	2.0.10.353	2.0.10.353	06-18-2015	6/18/2015 7:32:18 PM	15:32:18	2.0.10.248	5	Bar87-13.bmp	89	2	?	0r_4g.bmp	0r_4g.bmp	0r_2g.bmp	0r_2g.bmp		0r_4g.bmp			TrialProc	TrialList	0	cvbn	-999999	16	123874	0	v	3827	127701	16	-2	14	4	8	2	0	9	1	5	0	0	0	0	4	4	2	2	0	4
Hungry_Donkey_bar_English_2	113	1	<?xml version="1.0"?>\n<Clock xmlns:dt="urn:schemas-microsoft-com:datatypes"><Description dt:dt="string">E-Prime Primary Realtime Clock</Description><StartTime><Timestamp dt:dt="int">0</Timestamp><DateUtc dt:dt="string">2015-06-18T19:32:18Z</DateUtc></StartTime><FrequencyChanges><FrequencyChange><Frequency dt:dt="r8">3507685</Frequency><Timestamp dt:dt="r8">340174181078</Timestamp><Current dt:dt="r8">0</Current><DateUtc dt:dt="string">2015-06-18T19:32:18Z</DateUtc></FrequencyChange></FrequencyChanges></Clock>\n	Hungry_Donkey_bar_English_2-113-1	60.017	-188	1.0.0.18	1	872442275	Standard	2.0.10.353	2.0.10.353	06-18-2015	6/18/2015 7:32:18 PM	15:32:18	2.0.10.248	6	Bar87-13.bmp	82	3	?	10r_4g.bmp	0r_4g.bmp	2r_2g.bmp	0r_2g.bmp			2r_2g.bmp		TrialProc	TrialList	0	cvbn	-999999	16	129739	0	b	634	130373	18	-4	14	4	8	2	0	3	1	6	-10	0	-2	0	4	4	2	2	-2	2
Hungry_Donkey_bar_English_2	113	1	<?xml version="1.0"?>\n<Clock xmlns:dt="urn:schemas-microsoft-com:datatypes"><Description dt:dt="string">E-Prime Primary Realtime Clock</Description><StartTime><Timestamp dt:dt="int">0</Timestamp><DateUtc dt:dt="string">2015-06-18T19:32:18Z</DateUtc></StartTime><FrequencyChanges><FrequencyChange><Frequency dt:dt="r8">3507685</Frequency><Timestamp dt:dt="r8">340174181078</Timestamp><Current dt:dt="r8">0</Current><DateUtc dt:dt="string">2015-06-18T19:32:18Z</DateUtc></FrequencyChange></FrequencyChanges></Clock>\n	Hungry_Donkey_bar_English_2-113-1	60.017	-188	1.0.0.18	1	872442275	Standard	2.0.10.353	2.0.10.353	06-18-2015	6/18/2015 7:32:18 PM	15:32:18	2.0.10.248	7	Bar87-13.bmp	85	1	?	0r_4g.bmp	0r_4g.bmp	0r_2g.bmp	0r_2g.bmp	0r_4g.bmp				TrialProc	TrialList	0	cvbn	-999999	16	132405	0	c	2640	135045	22	-4	18	8	8	2	0	8	1	7	0	0	0	0	4	4	2	2	0	4
Hungry_Donkey_bar_English_2	113	1	<?xml version="1.0"?>\n<Clock xmlns:dt="urn:schemas-microsoft-com:datatypes"><Description dt:dt="string">E-Prime Primary Realtime Clock</Description><StartTime><Timestamp dt:dt="int">0</Timestamp><DateUtc dt:dt="string">2015-06-18T19:32:18Z</DateUtc></StartTime><FrequencyChanges><FrequencyChange><Frequency dt:dt="r8">3507685</Frequency><Timestamp dt:dt="r8">340174181078</Timestamp><Current dt:dt="r8">0</Current><DateUtc dt:dt="string">2015-06-18T19:32:18Z</DateUtc></FrequencyChange></FrequencyChanges></Clock>\n	Hungry_Donkey_bar_English_2-113-1	60.017	-188	1.0.0.18	1	872442275	Standard	2.0.10.353	2.0.10.353	06-18-2015	6/18/2015 7:32:18 PM	15:32:18	2.0.10.248	8	Bar87-13.bmp	87	2	?	12r_4g.bmp	0r_4g.bmp	3r_2g.bmp	0r_2g.bmp		0r_4g.bmp			TrialProc	TrialList	0	cvbn	-999999	16	137070	0	v	1254	138324	26	-4	22	8	12	2	0	5	1	8	-12	0	-3	0	4	4	2	2	0	4
Hungry_Donkey_bar_English_2	113	1	<?xml version="1.0"?>\n<Clock xmlns:dt="urn:schemas-microsoft-com:datatypes"><Description dt:dt="string">E-Prime Primary Realtime Clock</Description><StartTime><Timestamp dt:dt="int">0</Timestamp><DateUtc dt:dt="string">2015-06-18T19:32:18Z</DateUtc></StartTime><FrequencyChanges><FrequencyChange><Frequency dt:dt="r8">3507685</Frequency><Timestamp dt:dt="r8">340174181078</Timestamp><Current dt:dt="r8">0</Current><DateUtc dt:dt="string">2015-06-18T19:32:18Z</DateUtc></FrequencyChange></FrequencyChanges></Clock>\n	Hungry_Donkey_bar_English_2-113-1	60.017	-188	1.0.0.18	1	872442275	Standard	2.0.10.353	2.0.10.353	06-18-2015	6/18/2015 7:32:18 PM	15:32:18	2.0.10.248	9	Bar75-25.bmp	71	1	?	8r_4g.bmp	50r_4g.bmp	1r_2g.bmp	10r_2g.bmp	8r_4g.bmp				TrialProc	TrialList	0	cvbn	-999999	16	140353	0	c	931	141284	30	-12	18	4	12	2	0	1	1	9	-8	-50	-1	-10	4	4	2	2	-8	4
Hungry_Donkey_bar_English_2	113	1	<?xml version="1.0"?>\n<Clock xmlns:dt="urn:schemas-microsoft-com:datatypes"><Description dt:dt="string">E-Prime Primary Realtime Clock</Description><StartTime><Timestamp dt:dt="int">0</Timestamp><DateUtc dt:dt="string">2015-06-18T19:32:18Z</DateUtc></StartTime><FrequencyChanges><FrequencyChange><Frequency dt:dt="r8">3507685</Frequency><Timestamp dt:dt="r8">340174181078</Timestamp><Current dt:dt="r8">0</Current><DateUtc dt:dt="string">2015-06-18T19:32:18Z</DateUtc></FrequencyChange></FrequencyChanges></Clock>\n	Hungry_Donkey_bar_English_2-113-1	60.017	-188	1.0.0.18	1	872442275	Standard	2.0.10.353	2.0.10.353	06-18-2015	6/18/2015 7:32:18 PM	15:32:18	2.0.10.248	10	Bar75-25.bmp	74	2	?	0r_4g.bmp	0r_4g.bmp	0r_2g.bmp	0r_2g.bmp		0r_4g.bmp			TrialProc	TrialList	0	cvbn	-999999	16	143319	0	v	1821	145140	34	-12	22	4	16	2	0	10	1	10	0	0	0	0	4	4	2	2	0	4
Hungry_Donkey_bar_English_2	113	1	<?xml version="1.0"?>\n<Clock xmlns:dt="urn:schemas-microsoft-com:datatypes"><Description dt:dt="string">E-Prime Primary Realtime Clock</Description><StartTime><Timestamp dt:dt="int">0</Timestamp><DateUtc dt:dt="string">2015-06-18T19:32:18Z</DateUtc></StartTime><FrequencyChanges><FrequencyChange><Frequency dt:dt="r8">3507685</Frequency><Timestamp dt:dt="r8">340174181078</Timestamp><Current dt:dt="r8">0</Current><DateUtc dt:dt="string">2015-06-18T19:32:18Z</DateUtc></FrequencyChange></FrequencyChanges></Clock>\n	Hungry_Donkey_bar_English_2-113-1	60.017	-188	1.0.0.18	1	872442275	Standard	2.0.10.353	2.0.10.353	06-18-2015	6/18/2015 7:32:18 PM	15:32:18	2.0.10.248	11	Bar75-25.bmp	75	4	?	0r_4g.bmp	0r_4g.bmp	0r_2g.bmp	0r_2g.bmp				0r_2g.bmp	TrialProc	TrialList	0	cvbn	-999999	17	147168	0	n	1428	148596	36	-12	24	4	16	2	2	7	2	11	0	0	0	0	4	4	2	2	0	2
Hungry_Donkey_bar_English_2	113	1	<?xml version="1.0"?>\n<Clock xmlns:dt="urn:schemas-microsoft-com:datatypes"><Description dt:dt="string">E-Prime Primary Realtime Clock</Description><StartTime><Timestamp dt:dt="int">0</Timestamp><DateUtc dt:dt="string">2015-06-18T19:32:18Z</DateUtc></StartTime><FrequencyChanges><FrequencyChange><Frequency dt:dt="r8">3507685</Frequency><Timestamp dt:dt="r8">340174181078</Timestamp><Current dt:dt="r8">0</Current><DateUtc dt:dt="string">2015-06-18T19:32:18Z</DateUtc></FrequencyChange></FrequencyChanges></Clock>\n	Hungry_Donkey_bar_English_2-113-1	60.017	-188	1.0.0.18	1	872442275	Standard	2.0.10.353	2.0.10.353	06-18-2015	6/18/2015 7:32:18 PM	15:32:18	2.0.10.248	12	Bar75-25.bmp	76	3	?	0r_4g.bmp	0r_4g.bmp	0r_2g.bmp	0r_2g.bmp			0r_2g.bmp		TrialProc	TrialList	0	cvbn	-999999	16	150633	0	b	2203	152836	38	-12	26	4	16	4	2	9	2	12	0	0	0	0	4	4	2	2	0	2
Hungry_Donkey_bar_English_2	113	1	<?xml version="1.0"?>\n<Clock xmlns:dt="urn:schemas-microsoft-com:datatypes"><Description dt:dt="string">E-Prime Primary Realtime Clock</Description><StartTime><Timestamp dt:dt="int">0</Timestamp><DateUtc dt:dt="string">2015-06-18T19:32:18Z</DateUtc></StartTime><FrequencyChanges><FrequencyChange><Frequency dt:dt="r8">3507685</Frequency><Timestamp dt:dt="r8">340174181078</Timestamp><Current dt:dt="r8">0</Current><DateUtc dt:dt="string">2015-06-18T19:32:18Z</DateUtc></FrequencyChange></FrequencyChanges></Clock>\n	Hungry_Donkey_bar_English_2-113-1	60.017	-188	1.0.0.18	1	872442275	Standard	2.0.10.353	2.0.10.353	06-18-2015	6/18/2015 7:32:18 PM	15:32:18	2.0.10.248	13	Bar63-37.bmp	66	1	?	10r_4g.bmp	0r_4g.bmp	2r_2g.bmp	0r_2g.bmp	10r_4g.bmp				TrialProc	TrialList	0	cvbn	-999999	16	154865	0	c	1010	155875	42	-22	20	-2	16	4	2	3	2	13	-10	0	-2	0	4	4	2	2	-10	4
Hungry_Donkey_bar_English_2	113	1	<?xml version="1.0"?>\n<Clock xmlns:dt="urn:schemas-microsoft-com:datatypes"><Description dt:dt="string">E-Prime Primary Realtime Clock</Description><StartTime><Timestamp dt:dt="int">0</Timestamp><DateUtc dt:dt="string">2015-06-18T19:32:18Z</DateUtc></StartTime><FrequencyChanges><FrequencyChange><Frequency dt:dt="r8">3507685</Frequency><Timestamp dt:dt="r8">340174181078</Timestamp><Current dt:dt="r8">0</Current><DateUtc dt:dt="string">2015-06-18T19:32:18Z</DateUtc></FrequencyChange></FrequencyChanges></Clock>\n	Hungry_Donkey_bar_English_2-113-1	60.017	-188	1.0.0.18	1	872442275	Standard	2.0.10.353	2.0.10.353	06-18-2015	6/18/2015 7:32:18 PM	15:32:18	2.0.10.248	14	Bar37-63.bmp	39	2	?	8r_4g.bmp	50r_4g.bmp	1r_2g.bmp	10r_2g.bmp		50r_4g.bmp			TrialProc	TrialList	0	cvbn	-999999	16	157914	0	v	1353	159267	46	-72	-26	-2	-30	4	2	1	2	14	-8	-50	-1	-10	4	4	2	2	-50	4
Hungry_Donkey_bar_English_2	113	1	<?xml version="1.0"?>\n<Clock xmlns:dt="urn:schemas-microsoft-com:datatypes"><Description dt:dt="string">E-Prime Primary Realtime Clock</Description><StartTime><Timestamp dt:dt="int">0</Timestamp><DateUtc dt:dt="string">2015-06-18T19:32:18Z</DateUtc></StartTime><FrequencyChanges><FrequencyChange><Frequency dt:dt="r8">3507685</Frequency><Timestamp dt:dt="r8">340174181078</Timestamp><Current dt:dt="r8">0</Current><DateUtc dt:dt="string">2015-06-18T19:32:18Z</DateUtc></FrequencyChange></FrequencyChanges></Clock>\n	Hungry_Donkey_bar_English_2-113-1	60.017	-188	1.0.0.18	1	872442275	Standard	2.0.10.353	2.0.10.353	06-18-2015	6/18/2015 7:32:18 PM	15:32:18	2.0.10.248	15	Bar37-63.bmp	40	4	?	12r_4g.bmp	0r_4g.bmp	3r_2g.bmp	0r_2g.bmp				0r_2g.bmp	TrialProc	TrialList	0	cvbn	-999999	16	161297	0	n	994	162291	48	-72	-24	-2	-30	4	4	5	2	15	-12	0	-3	0	4	4	2	2	0	2
Hungry_Donkey_bar_English_2	113	1	<?xml version="1.0"?>\n<Clock xmlns:dt="urn:schemas-microsoft-com:datatypes"><Description dt:dt="string">E-Prime Primary Realtime Clock</Description><StartTime><Timestamp dt:dt="int">0</Timestamp><DateUtc dt:dt="string">2015-06-18T19:32:18Z</DateUtc></StartTime><FrequencyChanges><FrequencyChange><Frequency dt:dt="r8">3507685</Frequency><Timestamp dt:dt="r8">340174181078</Timestamp><Current dt:dt="r8">0</Current><DateUtc dt:dt="string">2015-06-18T19:32:18Z</DateUtc></FrequencyChange></FrequencyChanges></Clock>\n	Hungry_Donkey_bar_English_2-113-1	60.017	-188	1.0.0.18	1	872442275	Standard	2.0.10.353	2.0.10.353	06-18-2015	6/18/2015 7:32:18 PM	15:32:18	2.0.10.248	16	Bar37-63.bmp	42	2	?	0r_4g.bmp	0r_4g.bmp	0r_2g.bmp	0r_2g.bmp		0r_4g.bmp			TrialProc	TrialList	0	cvbn	-999999	16	164329	0	v	2010	166339	52	-72	-20	-2	-26	4	4	10	2	16	0	0	0	0	4	4	2	2	0	4
Hungry_Donkey_bar_English_2	113	1	<?xml version="1.0"?>\n<Clock xmlns:dt="urn:schemas-microsoft-com:datatypes"><Description dt:dt="string">E-Prime Primary Realtime Clock</Description><StartTime><Timestamp dt:dt="int">0</Timestamp><DateUtc dt:dt="string">2015-06-18T19:32:18Z</DateUtc></StartTime><FrequencyChanges><FrequencyChange><Frequency dt:dt="r8">3507685</Frequency><Timestamp dt:dt="r8">340174181078</Timestamp><Current dt:dt="r8">0</Current><DateUtc dt:dt="string">2015-06-18T19:32:18Z</DateUtc></FrequencyChange></FrequencyChanges></Clock>\n	Hungry_Donkey_bar_English_2-113-1	60.017	-188	1.0.0.18	1	872442275	Standard	2.0.10.353	2.0.10.353	06-18-2015	6/18/2015 7:32:18 PM	15:32:18	2.0.10.248	17	Bar37-63.bmp	43	4	?	10r_4g.bmp	0r_4g.bmp	2r_2g.bmp	0r_2g.bmp				0r_2g.bmp	TrialProc	TrialList	0	cvbn	-999999	16	168378	0	n	1321	169699	54	-72	-18	-2	-26	4	6	4	2	17	-10	0	-2	0	4	4	2	2	0	2
Hungry_Donkey_bar_English_2	113	1	<?xml version="1.0"?>\n<Clock xmlns:dt="urn:schemas-microsoft-com:datatypes"><Description dt:dt="string">E-Prime Primary Realtime Clock</Description><StartTime><Timestamp dt:dt="int">0</Timestamp><DateUtc dt:dt="string">2015-06-18T19:32:18Z</DateUtc></StartTime><FrequencyChanges><FrequencyChange><Frequency dt:dt="r8">3507685</Frequency><Timestamp dt:dt="r8">340174181078</Timestamp><Current dt:dt="r8">0</Current><DateUtc dt:dt="string">2015-06-18T19:32:18Z</DateUtc></FrequencyChange></FrequencyChanges></Clock>\n	Hungry_Donkey_bar_English_2-113-1	60.017	-188	1.0.0.18	1	872442275	Standard	2.0.10.353	2.0.10.353	06-18-2015	6/18/2015 7:32:18 PM	15:32:18	2.0.10.248	18	Bar50-50.bmp	45	1	?	0r_4g.bmp	0r_4g.bmp	0r_2g.bmp	0r_2g.bmp	0r_4g.bmp				TrialProc	TrialList	0	cvbn	-999999	16	171727	0	c	1332	173059	58	-72	-14	2	-26	4	6	6	2	18	0	0	0	0	4	4	2	2	0	4
Hungry_Donkey_bar_English_2	113	1	<?xml version="1.0"?>\n<Clock xmlns:dt="urn:schemas-microsoft-com:datatypes"><Description dt:dt="string">E-Prime Primary Realtime Clock</Description><StartTime><Timestamp dt:dt="int">0</Timestamp><DateUtc dt:dt="string">2015-06-18T19:32:18Z</DateUtc></StartTime><FrequencyChanges><FrequencyChange><Frequency dt:dt="r8">3507685</Frequency><Timestamp dt:dt="r8">340174181078</Timestamp><Current dt:dt="r8">0</Current><DateUtc dt:dt="string">2015-06-18T19:32:18Z</DateUtc></FrequencyChange></FrequencyChanges></Clock>\n	Hungry_Donkey_bar_English_2-113-1	60.017	-188	1.0.0.18	1	872442275	Standard	2.0.10.353	2.0.10.353	06-18-2015	6/18/2015 7:32:18 PM	15:32:18	2.0.10.248	19	Bar50-50.bmp	46	2	?	10r_4g.bmp	0r_4g.bmp	2r_2g.bmp	0r_2g.bmp		0r_4g.bmp			TrialProc	TrialList	0	cvbn	-999999	16	175093	0	v	701	175794	62	-72	-10	2	-22	4	6	2	2	19	-10	0	-2	0	4	4	2	2	0	4
Hungry_Donkey_bar_English_2	113	1	<?xml version="1.0"?>\n<Clock xmlns:dt="urn:schemas-microsoft-com:datatypes"><Description dt:dt="string">E-Prime Primary Realtime Clock</Description><StartTime><Timestamp dt:dt="int">0</Timestamp><DateUtc dt:dt="string">2015-06-18T19:32:18Z</DateUtc></StartTime><FrequencyChanges><FrequencyChange><Frequency dt:dt="r8">3507685</Frequency><Timestamp dt:dt="r8">340174181078</Timestamp><Current dt:dt="r8">0</Current><DateUtc dt:dt="string">2015-06-18T19:32:18Z</DateUtc></FrequencyChange></FrequencyChanges></Clock>\n	Hungry_Donkey_bar_English_2-113-1	60.017	-188	1.0.0.18	1	872442275	Standard	2.0.10.353	2.0.10.353	06-18-2015	6/18/2015 7:32:18 PM	15:32:18	2.0.10.248	20	Bar50-50.bmp	47	3	?	0r_4g.bmp	0r_4g.bmp	0r_2g.bmp	0r_2g.bmp			0r_2g.bmp		TrialProc	TrialList	0	cvbn	-999999	16	177825	0	b	1793	179618	64	-72	-8	2	-22	6	6	8	2	20	0	0	0	0	4	4	2	2	0	2
Hungry_Donkey_bar_English_2	113	1	<?xml version="1.0"?>\n<Clock xmlns:dt="urn:schemas-microsoft-com:datatypes"><Description dt:dt="string">E-Prime Primary Realtime Clock</Description><StartTime><Timestamp dt:dt="int">0</Timestamp><DateUtc dt:dt="string">2015-06-18T19:32:18Z</DateUtc></StartTime><FrequencyChanges><FrequencyChange><Frequency dt:dt="r8">3507685</Frequency><Timestamp dt:dt="r8">340174181078</Timestamp><Current dt:dt="r8">0</Current><DateUtc dt:dt="string">2015-06-18T19:32:18Z</DateUtc></FrequencyChange></FrequencyChanges></Clock>\n	Hungry_Donkey_bar_English_2-113-1	60.017	-188	1.0.0.18	1	872442275	Standard	2.0.10.353	2.0.10.353	06-18-2015	6/18/2015 7:32:18 PM	15:32:18	2.0.10.248	21	Bar50-50.bmp	46	1	?	8r_4g.bmp	50r_4g.bmp	1r_2g.bmp	10r_2g.bmp	8r_4g.bmp				TrialProc	TrialList	0	cvbn	-999999	15	181641	0	c	1289	182930	68	-80	-12	-2	-22	6	6	1	3	21	-8	-50	-1	-10	4	4	2	2	-8	4
Hungry_Donkey_bar_English_2	113	1	<?xml version="1.0"?>\n<Clock xmlns:dt="urn:schemas-microsoft-com:datatypes"><Description dt:dt="string">E-Prime Primary Realtime Clock</Description><StartTime><Timestamp dt:dt="int">0</Timestamp><DateUtc dt:dt="string">2015-06-18T19:32:18Z</DateUtc></StartTime><FrequencyChanges><FrequencyChange><Frequency dt:dt="r8">3507685</Frequency><Timestamp dt:dt="r8">340174181078</Timestamp><Current dt:dt="r8">0</Current><DateUtc dt:dt="string">2015-06-18T19:32:18Z</DateUtc></FrequencyChange></FrequencyChanges></Clock>\n	Hungry_Donkey_bar_English_2-113-1	60.017	-188	1.0.0.18	1	872442275	Standard	2.0.10.353	2.0.10.353	06-18-2015	6/18/2015 7:32:18 PM	15:32:18	2.0.10.248	22	Bar50-50.bmp	47	2	?	0r_4g.bmp	0r_4g.bmp	0r_2g.bmp	0r_2g.bmp		0r_4g.bmp			TrialProc	TrialList	0	cvbn	-999999	16	184957	0	v	549	185506	72	-80	-8	-2	-18	6	6	6	3	22	0	0	0	0	4	4	2	2	0	4
Hungry_Donkey_bar_English_2	113	1	<?xml version="1.0"?>\n<Clock xmlns:dt="urn:schemas-microsoft-com:datatypes"><Description dt:dt="string">E-Prime Primary Realtime Clock</Description><StartTime><Timestamp dt:dt="int">0</Timestamp><DateUtc dt:dt="string">2015-06-18T19:32:18Z</DateUtc></StartTime><FrequencyChanges><FrequencyChange><Frequency dt:dt="r8">3507685</Frequency><Timestamp dt:dt="r8">340174181078</Timestamp><Current dt:dt="r8">0</Current><DateUtc dt:dt="string">2015-06-18T19:32:18Z</DateUtc></FrequencyChange></FrequencyChanges></Clock>\n	Hungry_Donkey_bar_English_2-113-1	60.017	-188	1.0.0.18	1	872442275	Standard	2.0.10.353	2.0.10.353	06-18-2015	6/18/2015 7:32:18 PM	15:32:18	2.0.10.248	23	Bar50-50.bmp	48	4	?	10r_4g.bmp	0r_4g.bmp	2r_2g.bmp	0r_2g.bmp				0r_2g.bmp	TrialProc	TrialList	0	cvbn	-999999	16	187539	0	n	1007	188546	74	-80	-6	-2	-18	6	8	4	3	23	-10	0	-2	0	4	4	2	2	0	2
Hungry_Donkey_bar_English_2	113	1	<?xml version="1.0"?>\n<Clock xmlns:dt="urn:schemas-microsoft-com:datatypes"><Description dt:dt="string">E-Prime Primary Realtime Clock</Description><StartTime><Timestamp dt:dt="int">0</Timestamp><DateUtc dt:dt="string">2015-06-18T19:32:18Z</DateUtc></StartTime><FrequencyChanges><FrequencyChange><Frequency dt:dt="r8">3507685</Frequency><Timestamp dt:dt="r8">340174181078</Timestamp><Current dt:dt="r8">0</Current><DateUtc dt:dt="string">2015-06-18T19:32:18Z</DateUtc></FrequencyChange></FrequencyChanges></Clock>\n	Hungry_Donkey_bar_English_2-113-1	60.017	-188	1.0.0.18	1	872442275	Standard	2.0.10.353	2.0.10.353	06-18-2015	6/18/2015 7:32:18 PM	15:32:18	2.0.10.248	24	Bar50-50.bmp	49	4	?	0r_4g.bmp	0r_4g.bmp	0r_2g.bmp	0r_2g.bmp				0r_2g.bmp	TrialProc	TrialList	0	cvbn	-999999	16	190572	0	n	1238	191810	76	-80	-4	-2	-18	6	10	7	3	24	0	0	0	0	4	4	2	2	0	2
Hungry_Donkey_bar_English_2	113	1	<?xml version="1.0"?>\n<Clock xmlns:dt="urn:schemas-microsoft-com:datatypes"><Description dt:dt="string">E-Prime Primary Realtime Clock</Description><StartTime><Timestamp dt:dt="int">0</Timestamp><DateUtc dt:dt="string">2015-06-18T19:32:18Z</DateUtc></StartTime><FrequencyChanges><FrequencyChange><Frequency dt:dt="r8">3507685</Frequency><Timestamp dt:dt="r8">340174181078</Timestamp><Current dt:dt="r8">0</Current><DateUtc dt:dt="string">2015-06-18T19:32:18Z</DateUtc></FrequencyChange></FrequencyChanges></Clock>\n	Hungry_Donkey_bar_English_2-113-1	60.017	-188	1.0.0.18	1	872442275	Standard	2.0.10.353	2.0.10.353	06-18-2015	6/18/2015 7:32:18 PM	15:32:18	2.0.10.248	25	Bar50-50.bmp	50	2	?	10r_4g.bmp	0r_4g.bmp	2r_2g.bmp	0r_2g.bmp		0r_4g.bmp			TrialProc	TrialList	0	cvbn	-999999	16	193837	0	v	1172	195009	80	-80	0	-2	-14	6	10	2	3	25	-10	0	-2	0	4	4	2	2	0	4
Hungry_Donkey_bar_English_2	113	1	<?xml version="1.0"?>\n<Clock xmlns:dt="urn:schemas-microsoft-com:datatypes"><Description dt:dt="string">E-Prime Primary Realtime Clock</Description><StartTime><Timestamp dt:dt="int">0</Timestamp><DateUtc dt:dt="string">2015-06-18T19:32:18Z</DateUtc></StartTime><FrequencyChanges><FrequencyChange><Frequency dt:dt="r8">3507685</Frequency><Timestamp dt:dt="r8">340174181078</Timestamp><Current dt:dt="r8">0</Current><DateUtc dt:dt="string">2015-06-18T19:32:18Z</DateUtc></FrequencyChange></FrequencyChanges></Clock>\n	Hungry_Donkey_bar_English_2-113-1	60.017	-188	1.0.0.18	1	872442275	Standard	2.0.10.353	2.0.10.353	06-18-2015	6/18/2015 7:32:18 PM	15:32:18	2.0.10.248	26	Bar50-50.bmp	51	1	?	0r_4g.bmp	0r_4g.bmp	0r_2g.bmp	0r_2g.bmp	0r_4g.bmp				TrialProc	TrialList	0	cvbn	-999999	16	197036	0	c	1445	198481	84	-80	4	2	-14	6	10	9	3	26	0	0	0	0	4	4	2	2	0	4
Hungry_Donkey_bar_English_2	113	1	<?xml version="1.0"?>\n<Clock xmlns:dt="urn:schemas-microsoft-com:datatypes"><Description dt:dt="string">E-Prime Primary Realtime Clock</Description><StartTime><Timestamp dt:dt="int">0</Timestamp><DateUtc dt:dt="string">2015-06-18T19:32:18Z</DateUtc></StartTime><FrequencyChanges><FrequencyChange><Frequency dt:dt="r8">3507685</Frequency><Timestamp dt:dt="r8">340174181078</Timestamp><Current dt:dt="r8">0</Current><DateUtc dt:dt="string">2015-06-18T19:32:18Z</DateUtc></FrequencyChange></FrequencyChanges></Clock>\n	Hungry_Donkey_bar_English_2-113-1	60.017	-188	1.0.0.18	1	872442275	Standard	2.0.10.353	2.0.10.353	06-18-2015	6/18/2015 7:32:18 PM	15:32:18	2.0.10.248	27	Bar50-50.bmp	52	4	?	12r_4g.bmp	0r_4g.bmp	3r_2g.bmp	0r_2g.bmp				0r_2g.bmp	TrialProc	TrialList	0	cvbn	-999999	16	200519	0	n	1738	202257	86	-80	6	2	-14	6	12	5	3	27	-12	0	-3	0	4	4	2	2	0	2
Hungry_Donkey_bar_English_2	113	1	<?xml version="1.0"?>\n<Clock xmlns:dt="urn:schemas-microsoft-com:datatypes"><Description dt:dt="string">E-Prime Primary Realtime Clock</Description><StartTime><Timestamp dt:dt="int">0</Timestamp><DateUtc dt:dt="string">2015-06-18T19:32:18Z</DateUtc></StartTime><FrequencyChanges><FrequencyChange><Frequency dt:dt="r8">3507685</Frequency><Timestamp dt:dt="r8">340174181078</Timestamp><Current dt:dt="r8">0</Current><DateUtc dt:dt="string">2015-06-18T19:32:18Z</DateUtc></FrequencyChange></FrequencyChanges></Clock>\n	Hungry_Donkey_bar_English_2-113-1	60.017	-188	1.0.0.18	1	872442275	Standard	2.0.10.353	2.0.10.353	06-18-2015	6/18/2015 7:32:18 PM	15:32:18	2.0.10.248	28	Bar50-50.bmp	53	2	?	0r_4g.bmp	0r_4g.bmp	0r_2g.bmp	0r_2g.bmp		0r_4g.bmp			TrialProc	TrialList	0	cvbn	-999999	16	204284	0	v	1253	205537	90	-80	10	2	-10	6	12	8	3	28	0	0	0	0	4	4	2	2	0	4
Hungry_Donkey_bar_English_2	113	1	<?xml version="1.0"?>\n<Clock xmlns:dt="urn:schemas-microsoft-com:datatypes"><Description dt:dt="string">E-Prime Primary Realtime Clock</Description><StartTime><Timestamp dt:dt="int">0</Timestamp><DateUtc dt:dt="string">2015-06-18T19:32:18Z</DateUtc></StartTime><FrequencyChanges><FrequencyChange><Frequency dt:dt="r8">3507685</Frequency><Timestamp dt:dt="r8">340174181078</Timestamp><Current dt:dt="r8">0</Current><DateUtc dt:dt="string">2015-06-18T19:32:18Z</DateUtc></FrequencyChange></FrequencyChanges></Clock>\n	Hungry_Donkey_bar_English_2-113-1	60.017	-188	1.0.0.18	1	872442275	Standard	2.0.10.353	2.0.10.353	06-18-2015	6/18/2015 7:32:18 PM	15:32:18	2.0.10.248	29	Bar50-50.bmp	53	4	?	0r_4g.bmp	0r_4g.bmp	0r_2g.bmp	0r_2g.bmp				0r_2g.bmp	TrialProc	TrialList	0	cvbn	-999999	16	207567	0	n	1762	209329	92	-80	12	2	-10	6	14	10	3	29	0	0	0	0	4	4	2	2	0	2
Hungry_Donkey_bar_English_2	113	1	<?xml version="1.0"?>\n<Clock xmlns:dt="urn:schemas-microsoft-com:datatypes"><Description dt:dt="string">E-Prime Primary Realtime Clock</Description><StartTime><Timestamp dt:dt="int">0</Timestamp><DateUtc dt:dt="string">2015-06-18T19:32:18Z</DateUtc></StartTime><FrequencyChanges><FrequencyChange><Frequency dt:dt="r8">3507685</Frequency><Timestamp dt:dt="r8">340174181078</Timestamp><Current dt:dt="r8">0</Current><DateUtc dt:dt="string">2015-06-18T19:32:18Z</DateUtc></FrequencyChange></FrequencyChanges></Clock>\n	Hungry_Donkey_bar_English_2-113-1	60.017	-188	1.0.0.18	1	872442275	Standard	2.0.10.353	2.0.10.353	06-18-2015	6/18/2015 7:32:18 PM	15:32:18	2.0.10.248	30	Bar50-50.bmp	52	1	?	10r_4g.bmp	0r_4g.bmp	2r_2g.bmp	0r_2g.bmp	10r_4g.bmp				TrialProc	TrialList	0	cvbn	-999999	16	211366	0	c	1179	212545	96	-90	6	-4	-10	6	14	3	3	30	-10	0	-2	0	4	4	2	2	-10	4
Hungry_Donkey_bar_English_2	113	1	<?xml version="1.0"?>\n<Clock xmlns:dt="urn:schemas-microsoft-com:datatypes"><Description dt:dt="string">E-Prime Primary Realtime Clock</Description><StartTime><Timestamp dt:dt="int">0</Timestamp><DateUtc dt:dt="string">2015-06-18T19:32:18Z</DateUtc></StartTime><FrequencyChanges><FrequencyChange><Frequency dt:dt="r8">3507685</Frequency><Timestamp dt:dt="r8">340174181078</Timestamp><Current dt:dt="r8">0</Current><DateUtc dt:dt="string">2015-06-18T19:32:18Z</DateUtc></FrequencyChange></FrequencyChanges></Clock>\n	Hungry_Donkey_bar_English_2-113-1	60.017	-188	1.0.0.18	1	872442275	Standard	2.0.10.353	2.0.10.353	06-18-2015	6/18/2015 7:32:18 PM	15:32:18	2.0.10.248	31	Bar50-50.bmp	51	3	?	12r_4g.bmp	0r_4g.bmp	3r_2g.bmp	0r_2g.bmp			3r_2g.bmp		TrialProc	TrialList	0	cvbn	-999999	16	214581	0	b	971	215552	98	-93	5	-4	-10	5	14	5	4	31	-12	0	-3	0	4	4	2	2	-3	2
Hungry_Donkey_bar_English_2	113	1	<?xml version="1.0"?>\n<Clock xmlns:dt="urn:schemas-microsoft-com:datatypes"><Description dt:dt="string">E-Prime Primary Realtime Clock</Description><StartTime><Timestamp dt:dt="int">0</Timestamp><DateUtc dt:dt="string">2015-06-18T19:32:18Z</DateUtc></StartTime><FrequencyChanges><FrequencyChange><Frequency dt:dt="r8">3507685</Frequency><Timestamp dt:dt="r8">340174181078</Timestamp><Current dt:dt="r8">0</Current><DateUtc dt:dt="string">2015-06-18T19:32:18Z</DateUtc></FrequencyChange></FrequencyChanges></Clock>\n	Hungry_Donkey_bar_English_2-113-1	60.017	-188	1.0.0.18	1	872442275	Standard	2.0.10.353	2.0.10.353	06-18-2015	6/18/2015 7:32:18 PM	15:32:18	2.0.10.248	32	Bar50-50.bmp	52	2	?	10r_4g.bmp	0r_4g.bmp	2r_2g.bmp	0r_2g.bmp		0r_4g.bmp			TrialProc	TrialList	0	cvbn	-999999	17	217581	0	v	899	218480	102	-93	9	-4	-6	5	14	4	4	32	-10	0	-2	0	4	4	2	2	0	4
Hungry_Donkey_bar_English_2	113	1	<?xml version="1.0"?>\n<Clock xmlns:dt="urn:schemas-microsoft-com:datatypes"><Description dt:dt="string">E-Prime Primary Realtime Clock</Description><StartTime><Timestamp dt:dt="int">0</Timestamp><DateUtc dt:dt="string">2015-06-18T19:32:18Z</DateUtc></StartTime><FrequencyChanges><FrequencyChange><Frequency dt:dt="r8">3507685</Frequency><Timestamp dt:dt="r8">340174181078</Timestamp><Current dt:dt="r8">0</Current><DateUtc dt:dt="string">2015-06-18T19:32:18Z</DateUtc></FrequencyChange></FrequencyChanges></Clock>\n	Hungry_Donkey_bar_English_2-113-1	60.017	-188	1.0.0.18	1	872442275	Standard	2.0.10.353	2.0.10.353	06-18-2015	6/18/2015 7:32:18 PM	15:32:18	2.0.10.248	33	Bar50-50.bmp	53	4	?	10r_4g.bmp	0r_4g.bmp	2r_2g.bmp	0r_2g.bmp				0r_2g.bmp	TrialProc	TrialList	0	cvbn	-999999	16	220513	0	n	2111	222624	104	-93	11	-4	-6	5	16	2	4	33	-10	0	-2	0	4	4	2	2	0	2
Hungry_Donkey_bar_English_2	113	1	<?xml version="1.0"?>\n<Clock xmlns:dt="urn:schemas-microsoft-com:datatypes"><Description dt:dt="string">E-Prime Primary Realtime Clock</Description><StartTime><Timestamp dt:dt="int">0</Timestamp><DateUtc dt:dt="string">2015-06-18T19:32:18Z</DateUtc></StartTime><FrequencyChanges><FrequencyChange><Frequency dt:dt="r8">3507685</Frequency><Timestamp dt:dt="r8">340174181078</Timestamp><Current dt:dt="r8">0</Current><DateUtc dt:dt="string">2015-06-18T19:32:18Z</DateUtc></FrequencyChange></FrequencyChanges></Clock>\n	Hungry_Donkey_bar_English_2-113-1	60.017	-188	1.0.0.18	1	872442275	Standard	2.0.10.353	2.0.10.353	06-18-2015	6/18/2015 7:32:18 PM	15:32:18	2.0.10.248	34	Bar37-63.bmp	43	2	?	8r_4g.bmp	50r_4g.bmp	1r_2g.bmp	10r_2g.bmp		50r_4g.bmp			TrialProc	TrialList	0	cvbn	-999999	16	224662	0	v	2410	227072	108	-143	-35	-4	-52	5	16	1	4	34	-8	-50	-1	-10	4	4	2	2	-50	4
Hungry_Donkey_bar_English_2	113	1	<?xml version="1.0"?>\n<Clock xmlns:dt="urn:schemas-microsoft-com:datatypes"><Description dt:dt="string">E-Prime Primary Realtime Clock</Description><StartTime><Timestamp dt:dt="int">0</Timestamp><DateUtc dt:dt="string">2015-06-18T19:32:18Z</DateUtc></StartTime><FrequencyChanges><FrequencyChange><Frequency dt:dt="r8">3507685</Frequency><Timestamp dt:dt="r8">340174181078</Timestamp><Current dt:dt="r8">0</Current><DateUtc dt:dt="string">2015-06-18T19:32:18Z</DateUtc></FrequencyChange></FrequencyChanges></Clock>\n	Hungry_Donkey_bar_English_2-113-1	60.017	-188	1.0.0.18	1	872442275	Standard	2.0.10.353	2.0.10.353	06-18-2015	6/18/2015 7:32:18 PM	15:32:18	2.0.10.248	35	Bar37-63.bmp	43	3	?	0r_4g.bmp	0r_4g.bmp	0r_2g.bmp	0r_2g.bmp			0r_2g.bmp		TrialProc	TrialList	0	cvbn	-999999	17	229111	0	b	1705	230816	110	-143	-33	-4	-52	7	16	10	4	35	0	0	0	0	4	4	2	2	0	2
Hungry_Donkey_bar_English_2	113	1	<?xml version="1.0"?>\n<Clock xmlns:dt="urn:schemas-microsoft-com:datatypes"><Description dt:dt="string">E-Prime Primary Realtime Clock</Description><StartTime><Timestamp dt:dt="int">0</Timestamp><DateUtc dt:dt="string">2015-06-18T19:32:18Z</DateUtc></StartTime><FrequencyChanges><FrequencyChange><Frequency dt:dt="r8">3507685</Frequency><Timestamp dt:dt="r8">340174181078</Timestamp><Current dt:dt="r8">0</Current><DateUtc dt:dt="string">2015-06-18T19:32:18Z</DateUtc></FrequencyChange></FrequencyChanges></Clock>\n	Hungry_Donkey_bar_English_2-113-1	60.017	-188	1.0.0.18	1	872442275	Standard	2.0.10.353	2.0.10.353	06-18-2015	6/18/2015 7:32:18 PM	15:32:18	2.0.10.248	36	Bar50-50.bmp	44	4	?	0r_4g.bmp	0r_4g.bmp	0r_2g.bmp	0r_2g.bmp				0r_2g.bmp	TrialProc	TrialList	0	cvbn	-999999	16	232843	0	n	1348	234191	112	-143	-31	-4	-52	7	18	9	4	36	0	0	0	0	4	4	2	2	0	2
Hungry_Donkey_bar_English_2	113	1	<?xml version="1.0"?>\n<Clock xmlns:dt="urn:schemas-microsoft-com:datatypes"><Description dt:dt="string">E-Prime Primary Realtime Clock</Description><StartTime><Timestamp dt:dt="int">0</Timestamp><DateUtc dt:dt="string">2015-06-18T19:32:18Z</DateUtc></StartTime><FrequencyChanges><FrequencyChange><Frequency dt:dt="r8">3507685</Frequency><Timestamp dt:dt="r8">340174181078</Timestamp><Current dt:dt="r8">0</Current><DateUtc dt:dt="string">2015-06-18T19:32:18Z</DateUtc></FrequencyChange></FrequencyChanges></Clock>\n	Hungry_Donkey_bar_English_2-113-1	60.017	-188	1.0.0.18	1	872442275	Standard	2.0.10.353	2.0.10.353	06-18-2015	6/18/2015 7:32:18 PM	15:32:18	2.0.10.248	37	Bar37-63.bmp	43	1	?	10r_4g.bmp	0r_4g.bmp	2r_2g.bmp	0r_2g.bmp	10r_4g.bmp				TrialProc	TrialList	0	cvbn	-999999	16	236225	0	c	1294	237519	116	-153	-37	-10	-52	7	18	3	4	37	-10	0	-2	0	4	4	2	2	-10	4
Hungry_Donkey_bar_English_2	113	1	<?xml version="1.0"?>\n<Clock xmlns:dt="urn:schemas-microsoft-com:datatypes"><Description dt:dt="string">E-Prime Primary Realtime Clock</Description><StartTime><Timestamp dt:dt="int">0</Timestamp><DateUtc dt:dt="string">2015-06-18T19:32:18Z</DateUtc></StartTime><FrequencyChanges><FrequencyChange><Frequency dt:dt="r8">3507685</Frequency><Timestamp dt:dt="r8">340174181078</Timestamp><Current dt:dt="r8">0</Current><DateUtc dt:dt="string">2015-06-18T19:32:18Z</DateUtc></FrequencyChange></FrequencyChanges></Clock>\n	Hungry_Donkey_bar_English_2-113-1	60.017	-188	1.0.0.18	1	872442275	Standard	2.0.10.353	2.0.10.353	06-18-2015	6/18/2015 7:32:18 PM	15:32:18	2.0.10.248	38	Bar50-50.bmp	44	2	?	0r_4g.bmp	0r_4g.bmp	0r_2g.bmp	0r_2g.bmp		0r_4g.bmp			TrialProc	TrialList	0	cvbn	-999999	17	239558	0	v	649	240207	120	-153	-33	-10	-48	7	18	8	4	38	0	0	0	0	4	4	2	2	0	4
Hungry_Donkey_bar_English_2	113	1	<?xml version="1.0"?>\n<Clock xmlns:dt="urn:schemas-microsoft-com:datatypes"><Description dt:dt="string">E-Prime Primary Realtime Clock</Description><StartTime><Timestamp dt:dt="int">0</Timestamp><DateUtc dt:dt="string">2015-06-18T19:32:18Z</DateUtc></StartTime><FrequencyChanges><FrequencyChange><Frequency dt:dt="r8">3507685</Frequency><Timestamp dt:dt="r8">340174181078</Timestamp><Current dt:dt="r8">0</Current><DateUtc dt:dt="string">2015-06-18T19:32:18Z</DateUtc></FrequencyChange></FrequencyChanges></Clock>\n	Hungry_Donkey_bar_English_2-113-1	60.017	-188	1.0.0.18	1	872442275	Standard	2.0.10.353	2.0.10.353	06-18-2015	6/18/2015 7:32:18 PM	15:32:18	2.0.10.248	39	Bar50-50.bmp	44	4	?	0r_4g.bmp	0r_4g.bmp	0r_2g.bmp	0r_2g.bmp				0r_2g.bmp	TrialProc	TrialList	0	cvbn	-999999	16	242240	0	n	1967	244207	122	-153	-31	-10	-48	7	20	7	4	39	0	0	0	0	4	4	2	2	0	2
Hungry_Donkey_bar_English_2	113	1	<?xml version="1.0"?>\n<Clock xmlns:dt="urn:schemas-microsoft-com:datatypes"><Description dt:dt="string">E-Prime Primary Realtime Clock</Description><StartTime><Timestamp dt:dt="int">0</Timestamp><DateUtc dt:dt="string">2015-06-18T19:32:18Z</DateUtc></StartTime><FrequencyChanges><FrequencyChange><Frequency dt:dt="r8">3507685</Frequency><Timestamp dt:dt="r8">340174181078</Timestamp><Current dt:dt="r8">0</Current><DateUtc dt:dt="string">2015-06-18T19:32:18Z</DateUtc></FrequencyChange></FrequencyChanges></Clock>\n	Hungry_Donkey_bar_English_2-113-1	60.017	-188	1.0.0.18	1	872442275	Standard	2.0.10.353	2.0.10.353	06-18-2015	6/18/2015 7:32:18 PM	15:32:18	2.0.10.248	40	Bar50-50.bmp	45	3	?	0r_4g.bmp	0r_4g.bmp	0r_2g.bmp	0r_2g.bmp			0r_2g.bmp		TrialProc	TrialList	0	cvbn	-999999	16	246239	0	b	1360	247599	124	-153	-29	-10	-48	9	20	6	4	40	0	0	0	0	4	4	2	2	0	2
Hungry_Donkey_bar_English_2	113	1	<?xml version="1.0"?>\n<Clock xmlns:dt="urn:schemas-microsoft-com:datatypes"><Description dt:dt="string">E-Prime Primary Realtime Clock</Description><StartTime><Timestamp dt:dt="int">0</Timestamp><DateUtc dt:dt="string">2015-06-18T19:32:18Z</DateUtc></StartTime><FrequencyChanges><FrequencyChange><Frequency dt:dt="r8">3507685</Frequency><Timestamp dt:dt="r8">340174181078</Timestamp><Current dt:dt="r8">0</Current><DateUtc dt:dt="string">2015-06-18T19:32:18Z</DateUtc></FrequencyChange></FrequencyChanges></Clock>\n	Hungry_Donkey_bar_English_2-113-1	60.017	-188	1.0.0.18	1	872442275	Standard	2.0.10.353	2.0.10.353	06-18-2015	6/18/2015 7:32:18 PM	15:32:18	2.0.10.248	41	Bar50-50.bmp	46	2	?	0r_4g.bmp	0r_4g.bmp	0r_2g.bmp	0r_2g.bmp		0r_4g.bmp			TrialProc	TrialList	0	cvbn	-999999	15	249621	0	v	1738	251359	128	-153	-25	-10	-44	9	20	6	5	41	0	0	0	0	4	4	2	2	0	4
Hungry_Donkey_bar_English_2	113	1	<?xml version="1.0"?>\n<Clock xmlns:dt="urn:schemas-microsoft-com:datatypes"><Description dt:dt="string">E-Prime Primary Realtime Clock</Description><StartTime><Timestamp dt:dt="int">0</Timestamp><DateUtc dt:dt="string">2015-06-18T19:32:18Z</DateUtc></StartTime><FrequencyChanges><FrequencyChange><Frequency dt:dt="r8">3507685</Frequency><Timestamp dt:dt="r8">340174181078</Timestamp><Current dt:dt="r8">0</Current><DateUtc dt:dt="string">2015-06-18T19:32:18Z</DateUtc></FrequencyChange></FrequencyChanges></Clock>\n	Hungry_Donkey_bar_English_2-113-1	60.017	-188	1.0.0.18	1	872442275	Standard	2.0.10.353	2.0.10.353	06-18-2015	6/18/2015 7:32:18 PM	15:32:18	2.0.10.248	42	Bar50-50.bmp	45	1	?	10r_4g.bmp	0r_4g.bmp	2r_2g.bmp	0r_2g.bmp	10r_4g.bmp				TrialProc	TrialList	0	cvbn	-999999	16	253387	0	c	2883	256270	132	-163	-31	-16	-44	9	20	2	5	42	-10	0	-2	0	4	4	2	2	-10	4
Hungry_Donkey_bar_English_2	113	1	<?xml version="1.0"?>\n<Clock xmlns:dt="urn:schemas-microsoft-com:datatypes"><Description dt:dt="string">E-Prime Primary Realtime Clock</Description><StartTime><Timestamp dt:dt="int">0</Timestamp><DateUtc dt:dt="string">2015-06-18T19:32:18Z</DateUtc></StartTime><FrequencyChanges><FrequencyChange><Frequency dt:dt="r8">3507685</Frequency><Timestamp dt:dt="r8">340174181078</Timestamp><Current dt:dt="r8">0</Current><DateUtc dt:dt="string">2015-06-18T19:32:18Z</DateUtc></FrequencyChange></FrequencyChanges></Clock>\n	Hungry_Donkey_bar_English_2-113-1	60.017	-188	1.0.0.18	1	872442275	Standard	2.0.10.353	2.0.10.353	06-18-2015	6/18/2015 7:32:18 PM	15:32:18	2.0.10.248	43	Bar50-50.bmp	45	4	?	0r_4g.bmp	0r_4g.bmp	0r_2g.bmp	0r_2g.bmp				0r_2g.bmp	TrialProc	TrialList	0	cvbn	-999999	16	258302	0	n	1792	260094	134	-163	-29	-16	-44	9	22	7	5	43	0	0	0	0	4	4	2	2	0	2
Hungry_Donkey_bar_English_2	113	1	<?xml version="1.0"?>\n<Clock xmlns:dt="urn:schemas-microsoft-com:datatypes"><Description dt:dt="string">E-Prime Primary Realtime Clock</Description><StartTime><Timestamp dt:dt="int">0</Timestamp><DateUtc dt:dt="string">2015-06-18T19:32:18Z</DateUtc></StartTime><FrequencyChanges><FrequencyChange><Frequency dt:dt="r8">3507685</Frequency><Timestamp dt:dt="r8">340174181078</Timestamp><Current dt:dt="r8">0</Current><DateUtc dt:dt="string">2015-06-18T19:32:18Z</DateUtc></FrequencyChange></FrequencyChanges></Clock>\n	Hungry_Donkey_bar_English_2-113-1	60.017	-188	1.0.0.18	1	872442275	Standard	2.0.10.353	2.0.10.353	06-18-2015	6/18/2015 7:32:18 PM	15:32:18	2.0.10.248	44	Bar50-50.bmp	46	2	?	0r_4g.bmp	0r_4g.bmp	0r_2g.bmp	0r_2g.bmp		0r_4g.bmp			TrialProc	TrialList	0	cvbn	-999999	16	262134	0	v	376	262510	138	-163	-25	-16	-40	9	22	10	5	44	0	0	0	0	4	4	2	2	0	4
Hungry_Donkey_bar_English_2	113	1	<?xml version="1.0"?>\n<Clock xmlns:dt="urn:schemas-microsoft-com:datatypes"><Description dt:dt="string">E-Prime Primary Realtime Clock</Description><StartTime><Timestamp dt:dt="int">0</Timestamp><DateUtc dt:dt="string">2015-06-18T19:32:18Z</DateUtc></StartTime><FrequencyChanges><FrequencyChange><Frequency dt:dt="r8">3507685</Frequency><Timestamp dt:dt="r8">340174181078</Timestamp><Current dt:dt="r8">0</Current><DateUtc dt:dt="string">2015-06-18T19:32:18Z</DateUtc></FrequencyChange></FrequencyChanges></Clock>\n	Hungry_Donkey_bar_English_2-113-1	60.017	-188	1.0.0.18	1	872442275	Standard	2.0.10.353	2.0.10.353	06-18-2015	6/18/2015 7:32:18 PM	15:32:18	2.0.10.248	45	Bar50-50.bmp	46	4	?	10r_4g.bmp	0r_4g.bmp	2r_2g.bmp	0r_2g.bmp				0r_2g.bmp	TrialProc	TrialList	0	cvbn	-999999	16	264534	0	n	312	264846	140	-163	-23	-16	-40	9	24	3	5	45	-10	0	-2	0	4	4	2	2	0	2
Hungry_Donkey_bar_English_2	113	1	<?xml version="1.0"?>\n<Clock xmlns:dt="urn:schemas-microsoft-com:datatypes"><Description dt:dt="string">E-Prime Primary Realtime Clock</Description><StartTime><Timestamp dt:dt="int">0</Timestamp><DateUtc dt:dt="string">2015-06-18T19:32:18Z</DateUtc></StartTime><FrequencyChanges><FrequencyChange><Frequency dt:dt="r8">3507685</Frequency><Timestamp dt:dt="r8">340174181078</Timestamp><Current dt:dt="r8">0</Current><DateUtc dt:dt="string">2015-06-18T19:32:18Z</DateUtc></FrequencyChange></FrequencyChanges></Clock>\n	Hungry_Donkey_bar_English_2-113-1	60.017	-188	1.0.0.18	1	872442275	Standard	2.0.10.353	2.0.10.353	06-18-2015	6/18/2015 7:32:18 PM	15:32:18	2.0.10.248	46	Bar50-50.bmp	47	1	?	0r_4g.bmp	0r_4g.bmp	0r_2g.bmp	0r_2g.bmp	0r_4g.bmp				TrialProc	TrialList	0	cvbn	-999999	16	266883	0	c	347	267230	144	-163	-19	-12	-40	9	24	9	5	46	0	0	0	0	4	4	2	2	0	4
Hungry_Donkey_bar_English_2	113	1	<?xml version="1.0"?>\n<Clock xmlns:dt="urn:schemas-microsoft-com:datatypes"><Description dt:dt="string">E-Prime Primary Realtime Clock</Description><StartTime><Timestamp dt:dt="int">0</Timestamp><DateUtc dt:dt="string">2015-06-18T19:32:18Z</DateUtc></StartTime><FrequencyChanges><FrequencyChange><Frequency dt:dt="r8">3507685</Frequency><Timestamp dt:dt="r8">340174181078</Timestamp><Current dt:dt="r8">0</Current><DateUtc dt:dt="string">2015-06-18T19:32:18Z</DateUtc></FrequencyChange></FrequencyChanges></Clock>\n	Hungry_Donkey_bar_English_2-113-1	60.017	-188	1.0.0.18	1	872442275	Standard	2.0.10.353	2.0.10.353	06-18-2015	6/18/2015 7:32:18 PM	15:32:18	2.0.10.248	47	Bar50-50.bmp	47	4	?	0r_4g.bmp	0r_4g.bmp	0r_2g.bmp	0r_2g.bmp				0r_2g.bmp	TrialProc	TrialList	0	cvbn	-999999	16	269266	0	n	348	269614	146	-163	-17	-12	-40	9	26	8	5	47	0	0	0	0	4	4	2	2	0	2
Hungry_Donkey_bar_English_2	113	1	<?xml version="1.0"?>\n<Clock xmlns:dt="urn:schemas-microsoft-com:datatypes"><Description dt:dt="string">E-Prime Primary Realtime Clock</Description><StartTime><Timestamp dt:dt="int">0</Timestamp><DateUtc dt:dt="string">2015-06-18T19:32:18Z</DateUtc></StartTime><FrequencyChanges><FrequencyChange><Frequency dt:dt="r8">3507685</Frequency><Timestamp dt:dt="r8">340174181078</Timestamp><Current dt:dt="r8">0</Current><DateUtc dt:dt="string">2015-06-18T19:32:18Z</DateUtc></FrequencyChange></FrequencyChanges></Clock>\n	Hungry_Donkey_bar_English_2-113-1	60.017	-188	1.0.0.18	1	872442275	Standard	2.0.10.353	2.0.10.353	06-18-2015	6/18/2015 7:32:18 PM	15:32:18	2.0.10.248	48	Bar50-50.bmp	48	2	?	10r_4g.bmp	0r_4g.bmp	2r_2g.bmp	0r_2g.bmp		0r_4g.bmp			TrialProc	TrialList	0	cvbn	-999999	16	271648	0	v	430	272078	150	-163	-13	-12	-36	9	26	4	5	48	-10	0	-2	0	4	4	2	2	0	4
Hungry_Donkey_bar_English_2	113	1	<?xml version="1.0"?>\n<Clock xmlns:dt="urn:schemas-microsoft-com:datatypes"><Description dt:dt="string">E-Prime Primary Realtime Clock</Description><StartTime><Timestamp dt:dt="int">0</Timestamp><DateUtc dt:dt="string">2015-06-18T19:32:18Z</DateUtc></StartTime><FrequencyChanges><FrequencyChange><Frequency dt:dt="r8">3507685</Frequency><Timestamp dt:dt="r8">340174181078</Timestamp><Current dt:dt="r8">0</Current><DateUtc dt:dt="string">2015-06-18T19:32:18Z</DateUtc></FrequencyChange></FrequencyChanges></Clock>\n	Hungry_Donkey_bar_English_2-113-1	60.017	-188	1.0.0.18	1	872442275	Standard	2.0.10.353	2.0.10.353	06-18-2015	6/18/2015 7:32:18 PM	15:32:18	2.0.10.248	49	Bar50-50.bmp	48	4	?	12r_4g.bmp	0r_4g.bmp	3r_2g.bmp	0r_2g.bmp				0r_2g.bmp	TrialProc	TrialList	0	cvbn	-999999	16	274114	0	n	475	274589	152	-163	-11	-12	-36	9	28	5	5	49	-12	0	-3	0	4	4	2	2	0	2
Hungry_Donkey_bar_English_2	113	1	<?xml version="1.0"?>\n<Clock xmlns:dt="urn:schemas-microsoft-com:datatypes"><Description dt:dt="string">E-Prime Primary Realtime Clock</Description><StartTime><Timestamp dt:dt="int">0</Timestamp><DateUtc dt:dt="string">2015-06-18T19:32:18Z</DateUtc></StartTime><FrequencyChanges><FrequencyChange><Frequency dt:dt="r8">3507685</Frequency><Timestamp dt:dt="r8">340174181078</Timestamp><Current dt:dt="r8">0</Current><DateUtc dt:dt="string">2015-06-18T19:32:18Z</DateUtc></FrequencyChange></FrequencyChanges></Clock>\n	Hungry_Donkey_bar_English_2-113-1	60.017	-188	1.0.0.18	1	872442275	Standard	2.0.10.353	2.0.10.353	06-18-2015	6/18/2015 7:32:18 PM	15:32:18	2.0.10.248	50	Bar50-50.bmp	48	1	?	8r_4g.bmp	50r_4g.bmp	1r_2g.bmp	10r_2g.bmp	8r_4g.bmp				TrialProc	TrialList	0	cvbn	-999999	16	276613	0	c	408	277021	156	-171	-15	-16	-36	9	28	1	5	50	-8	-50	-1	-10	4	4	2	2	-8	4
Hungry_Donkey_bar_English_2	113	1	<?xml version="1.0"?>\n<Clock xmlns:dt="urn:schemas-microsoft-com:datatypes"><Description dt:dt="string">E-Prime Primary Realtime Clock</Description><StartTime><Timestamp dt:dt="int">0</Timestamp><DateUtc dt:dt="string">2015-06-18T19:32:18Z</DateUtc></StartTime><FrequencyChanges><FrequencyChange><Frequency dt:dt="r8">3507685</Frequency><Timestamp dt:dt="r8">340174181078</Timestamp><Current dt:dt="r8">0</Current><DateUtc dt:dt="string">2015-06-18T19:32:18Z</DateUtc></FrequencyChange></FrequencyChanges></Clock>\n	Hungry_Donkey_bar_English_2-113-1	60.017	-188	1.0.0.18	1	872442275	Standard	2.0.10.353	2.0.10.353	06-18-2015	6/18/2015 7:32:18 PM	15:32:18	2.0.10.248	51	Bar50-50.bmp	48	3	?	0r_4g.bmp	0r_4g.bmp	0r_2g.bmp	0r_2g.bmp			0r_2g.bmp		TrialProc	TrialList	0	cvbn	-999999	16	279046	0	b	551	279597	158	-171	-13	-16	-36	11	28	8	6	51	0	0	0	0	4	4	2	2	0	2
Hungry_Donkey_bar_English_2	113	1	<?xml version="1.0"?>\n<Clock xmlns:dt="urn:schemas-microsoft-com:datatypes"><Description dt:dt="string">E-Prime Primary Realtime Clock</Description><StartTime><Timestamp dt:dt="int">0</Timestamp><DateUtc dt:dt="string">2015-06-18T19:32:18Z</DateUtc></StartTime><FrequencyChanges><FrequencyChange><Frequency dt:dt="r8">3507685</Frequency><Timestamp dt:dt="r8">340174181078</Timestamp><Current dt:dt="r8">0</Current><DateUtc dt:dt="string">2015-06-18T19:32:18Z</DateUtc></FrequencyChange></FrequencyChanges></Clock>\n	Hungry_Donkey_bar_English_2-113-1	60.017	-188	1.0.0.18	1	872442275	Standard	2.0.10.353	2.0.10.353	06-18-2015	6/18/2015 7:32:18 PM	15:32:18	2.0.10.248	52	Bar50-50.bmp	48	4	?	0r_4g.bmp	0r_4g.bmp	0r_2g.bmp	0r_2g.bmp				0r_2g.bmp	TrialProc	TrialList	0	cvbn	-999999	16	281629	0	n	624	282253	160	-171	-11	-16	-36	11	30	6	6	52	0	0	0	0	4	4	2	2	0	2
Hungry_Donkey_bar_English_2	113	1	<?xml version="1.0"?>\n<Clock xmlns:dt="urn:schemas-microsoft-com:datatypes"><Description dt:dt="string">E-Prime Primary Realtime Clock</Description><StartTime><Timestamp dt:dt="int">0</Timestamp><DateUtc dt:dt="string">2015-06-18T19:32:18Z</DateUtc></StartTime><FrequencyChanges><FrequencyChange><Frequency dt:dt="r8">3507685</Frequency><Timestamp dt:dt="r8">340174181078</Timestamp><Current dt:dt="r8">0</Current><DateUtc dt:dt="string">2015-06-18T19:32:18Z</DateUtc></FrequencyChange></FrequencyChanges></Clock>\n	Hungry_Donkey_bar_English_2-113-1	60.017	-188	1.0.0.18	1	872442275	Standard	2.0.10.353	2.0.10.353	06-18-2015	6/18/2015 7:32:18 PM	15:32:18	2.0.10.248	53	Bar50-50.bmp	49	2	?	0r_4g.bmp	0r_4g.bmp	0r_2g.bmp	0r_2g.bmp		0r_4g.bmp			TrialProc	TrialList	0	cvbn	-999999	16	284278	0	v	1479	285757	164	-171	-7	-16	-32	11	30	10	6	53	0	0	0	0	4	4	2	2	0	4
Hungry_Donkey_bar_English_2	113	1	<?xml version="1.0"?>\n<Clock xmlns:dt="urn:schemas-microsoft-com:datatypes"><Description dt:dt="string">E-Prime Primary Realtime Clock</Description><StartTime><Timestamp dt:dt="int">0</Timestamp><DateUtc dt:dt="string">2015-06-18T19:32:18Z</DateUtc></StartTime><FrequencyChanges><FrequencyChange><Frequency dt:dt="r8">3507685</Frequency><Timestamp dt:dt="r8">340174181078</Timestamp><Current dt:dt="r8">0</Current><DateUtc dt:dt="string">2015-06-18T19:32:18Z</DateUtc></FrequencyChange></FrequencyChanges></Clock>\n	Hungry_Donkey_bar_English_2-113-1	60.017	-188	1.0.0.18	1	872442275	Standard	2.0.10.353	2.0.10.353	06-18-2015	6/18/2015 7:32:18 PM	15:32:18	2.0.10.248	54	Bar50-50.bmp	49	4	?	10r_4g.bmp	0r_4g.bmp	2r_2g.bmp	0r_2g.bmp				0r_2g.bmp	TrialProc	TrialList	0	cvbn	-999999	17	287794	0	n	1515	289309	166	-171	-5	-16	-32	11	32	4	6	54	-10	0	-2	0	4	4	2	2	0	2
Hungry_Donkey_bar_English_2	113	1	<?xml version="1.0"?>\n<Clock xmlns:dt="urn:schemas-microsoft-com:datatypes"><Description dt:dt="string">E-Prime Primary Realtime Clock</Description><StartTime><Timestamp dt:dt="int">0</Timestamp><DateUtc dt:dt="string">2015-06-18T19:32:18Z</DateUtc></StartTime><FrequencyChanges><FrequencyChange><Frequency dt:dt="r8">3507685</Frequency><Timestamp dt:dt="r8">340174181078</Timestamp><Current dt:dt="r8">0</Current><DateUtc dt:dt="string">2015-06-18T19:32:18Z</DateUtc></FrequencyChange></FrequencyChanges></Clock>\n	Hungry_Donkey_bar_English_2-113-1	60.017	-188	1.0.0.18	1	872442275	Standard	2.0.10.353	2.0.10.353	06-18-2015	6/18/2015 7:32:18 PM	15:32:18	2.0.10.248	55	Bar50-50.bmp	50	3	?	0r_4g.bmp	0r_4g.bmp	0r_2g.bmp	0r_2g.bmp			0r_2g.bmp		TrialProc	TrialList	0	cvbn	-999999	17	291343	0	b	637	291980	168	-171	-3	-16	-32	13	32	9	6	55	0	0	0	0	4	4	2	2	0	2
Hungry_Donkey_bar_English_2	113	1	<?xml version="1.0"?>\n<Clock xmlns:dt="urn:schemas-microsoft-com:datatypes"><Description dt:dt="string">E-Prime Primary Realtime Clock</Description><StartTime><Timestamp dt:dt="int">0</Timestamp><DateUtc dt:dt="string">2015-06-18T19:32:18Z</DateUtc></StartTime><FrequencyChanges><FrequencyChange><Frequency dt:dt="r8">3507685</Frequency><Timestamp dt:dt="r8">340174181078</Timestamp><Current dt:dt="r8">0</Current><DateUtc dt:dt="string">2015-06-18T19:32:18Z</DateUtc></FrequencyChange></FrequencyChanges></Clock>\n	Hungry_Donkey_bar_English_2-113-1	60.017	-188	1.0.0.18	1	872442275	Standard	2.0.10.353	2.0.10.353	06-18-2015	6/18/2015 7:32:18 PM	15:32:18	2.0.10.248	56	Bar50-50.bmp	49	1	?	10r_4g.bmp	0r_4g.bmp	2r_2g.bmp	0r_2g.bmp	10r_4g.bmp				TrialProc	TrialList	0	cvbn	-999999	16	294008	0	c	740	294748	172	-181	-9	-22	-32	13	32	2	6	56	-10	0	-2	0	4	4	2	2	-10	4
Hungry_Donkey_bar_English_2	113	1	<?xml version="1.0"?>\n<Clock xmlns:dt="urn:schemas-microsoft-com:datatypes"><Description dt:dt="string">E-Prime Primary Realtime Clock</Description><StartTime><Timestamp dt:dt="int">0</Timestamp><DateUtc dt:dt="string">2015-06-18T19:32:18Z</DateUtc></StartTime><FrequencyChanges><FrequencyChange><Frequency dt:dt="r8">3507685</Frequency><Timestamp dt:dt="r8">340174181078</Timestamp><Current dt:dt="r8">0</Current><DateUtc dt:dt="string">2015-06-18T19:32:18Z</DateUtc></FrequencyChange></FrequencyChanges></Clock>\n	Hungry_Donkey_bar_English_2-113-1	60.017	-188	1.0.0.18	1	872442275	Standard	2.0.10.353	2.0.10.353	06-18-2015	6/18/2015 7:32:18 PM	15:32:18	2.0.10.248	57	Bar37-63.bmp	43	2	?	8r_4g.bmp	50r_4g.bmp	1r_2g.bmp	10r_2g.bmp		50r_4g.bmp			TrialProc	TrialList	0	cvbn	-999999	16	296774	0	v	390	297164	176	-231	-55	-22	-78	13	32	1	6	57	-8	-50	-1	-10	4	4	2	2	-50	4
Hungry_Donkey_bar_English_2	113	1	<?xml version="1.0"?>\n<Clock xmlns:dt="urn:schemas-microsoft-com:datatypes"><Description dt:dt="string">E-Prime Primary Realtime Clock</Description><StartTime><Timestamp dt:dt="int">0</Timestamp><DateUtc dt:dt="string">2015-06-18T19:32:18Z</DateUtc></StartTime><FrequencyChanges><FrequencyChange><Frequency dt:dt="r8">3507685</Frequency><Timestamp dt:dt="r8">340174181078</Timestamp><Current dt:dt="r8">0</Current><DateUtc dt:dt="string">2015-06-18T19:32:18Z</DateUtc></FrequencyChange></FrequencyChanges></Clock>\n	Hungry_Donkey_bar_English_2-113-1	60.017	-188	1.0.0.18	1	872442275	Standard	2.0.10.353	2.0.10.353	06-18-2015	6/18/2015 7:32:18 PM	15:32:18	2.0.10.248	58	Bar50-50.bmp	44	4	?	0r_4g.bmp	0r_4g.bmp	0r_2g.bmp	0r_2g.bmp				0r_2g.bmp	TrialProc	TrialList	0	cvbn	-999999	16	299190	0	n	2134	301324	178	-231	-53	-22	-78	13	34	7	6	58	0	0	0	0	4	4	2	2	0	2
Hungry_Donkey_bar_English_2	113	1	<?xml version="1.0"?>\n<Clock xmlns:dt="urn:schemas-microsoft-com:datatypes"><Description dt:dt="string">E-Prime Primary Realtime Clock</Description><StartTime><Timestamp dt:dt="int">0</Timestamp><DateUtc dt:dt="string">2015-06-18T19:32:18Z</DateUtc></StartTime><FrequencyChanges><FrequencyChange><Frequency dt:dt="r8">3507685</Frequency><Timestamp dt:dt="r8">340174181078</Timestamp><Current dt:dt="r8">0</Current><DateUtc dt:dt="string">2015-06-18T19:32:18Z</DateUtc></FrequencyChange></FrequencyChanges></Clock>\n	Hungry_Donkey_bar_English_2-113-1	60.017	-188	1.0.0.18	1	872442275	Standard	2.0.10.353	2.0.10.353	06-18-2015	6/18/2015 7:32:18 PM	15:32:18	2.0.10.248	59	Bar37-63.bmp	43	1	?	10r_4g.bmp	0r_4g.bmp	2r_2g.bmp	0r_2g.bmp	10r_4g.bmp				TrialProc	TrialList	0	cvbn	-999999	16	303356	0	c	688	304044	182	-241	-59	-28	-78	13	34	3	6	59	-10	0	-2	0	4	4	2	2	-10	4
Hungry_Donkey_bar_English_2	113	1	<?xml version="1.0"?>\n<Clock xmlns:dt="urn:schemas-microsoft-com:datatypes"><Description dt:dt="string">E-Prime Primary Realtime Clock</Description><StartTime><Timestamp dt:dt="int">0</Timestamp><DateUtc dt:dt="string">2015-06-18T19:32:18Z</DateUtc></StartTime><FrequencyChanges><FrequencyChange><Frequency dt:dt="r8">3507685</Frequency><Timestamp dt:dt="r8">340174181078</Timestamp><Current dt:dt="r8">0</Current><DateUtc dt:dt="string">2015-06-18T19:32:18Z</DateUtc></FrequencyChange></FrequencyChanges></Clock>\n	Hungry_Donkey_bar_English_2-113-1	60.017	-188	1.0.0.18	1	872442275	Standard	2.0.10.353	2.0.10.353	06-18-2015	6/18/2015 7:32:18 PM	15:32:18	2.0.10.248	60	Bar37-63.bmp	43	3	?	12r_4g.bmp	0r_4g.bmp	3r_2g.bmp	0r_2g.bmp			3r_2g.bmp		TrialProc	TrialList	0	cvbn	-999999	16	306072	0	b	884	306956	184	-244	-60	-28	-78	12	34	5	6	60	-12	0	-3	0	4	4	2	2	-3	2
Hungry_Donkey_bar_English_2	113	1	<?xml version="1.0"?>\n<Clock xmlns:dt="urn:schemas-microsoft-com:datatypes"><Description dt:dt="string">E-Prime Primary Realtime Clock</Description><StartTime><Timestamp dt:dt="int">0</Timestamp><DateUtc dt:dt="string">2015-06-18T19:32:18Z</DateUtc></StartTime><FrequencyChanges><FrequencyChange><Frequency dt:dt="r8">3507685</Frequency><Timestamp dt:dt="r8">340174181078</Timestamp><Current dt:dt="r8">0</Current><DateUtc dt:dt="string">2015-06-18T19:32:18Z</DateUtc></FrequencyChange></FrequencyChanges></Clock>\n	Hungry_Donkey_bar_English_2-113-1	60.017	-188	1.0.0.18	1	872442275	Standard	2.0.10.353	2.0.10.353	06-18-2015	6/18/2015 7:32:18 PM	15:32:18	2.0.10.248	61	Bar37-63.bmp	43	3	?	0r_4g.bmp	0r_4g.bmp	0r_2g.bmp	0r_2g.bmp			0r_2g.bmp		TrialProc	TrialList	0	cvbn	-999999	16	308987	0	b	481	309468	186	-244	-58	-28	-78	14	34	6	7	61	0	0	0	0	4	4	2	2	0	2
Hungry_Donkey_bar_English_2	113	1	<?xml version="1.0"?>\n<Clock xmlns:dt="urn:schemas-microsoft-com:datatypes"><Description dt:dt="string">E-Prime Primary Realtime Clock</Description><StartTime><Timestamp dt:dt="int">0</Timestamp><DateUtc dt:dt="string">2015-06-18T19:32:18Z</DateUtc></StartTime><FrequencyChanges><FrequencyChange><Frequency dt:dt="r8">3507685</Frequency><Timestamp dt:dt="r8">340174181078</Timestamp><Current dt:dt="r8">0</Current><DateUtc dt:dt="string">2015-06-18T19:32:18Z</DateUtc></FrequencyChange></FrequencyChanges></Clock>\n	Hungry_Donkey_bar_English_2-113-1	60.017	-188	1.0.0.18	1	872442275	Standard	2.0.10.353	2.0.10.353	06-18-2015	6/18/2015 7:32:18 PM	15:32:18	2.0.10.248	62	Bar50-50.bmp	44	3	?	0r_4g.bmp	0r_4g.bmp	0r_2g.bmp	0r_2g.bmp			0r_2g.bmp		TrialProc	TrialList	0	cvbn	-999999	16	311503	0	b	540	312043	188	-244	-56	-28	-78	16	34	8	7	62	0	0	0	0	4	4	2	2	0	2
Hungry_Donkey_bar_English_2	113	1	<?xml version="1.0"?>\n<Clock xmlns:dt="urn:schemas-microsoft-com:datatypes"><Description dt:dt="string">E-Prime Primary Realtime Clock</Description><StartTime><Timestamp dt:dt="int">0</Timestamp><DateUtc dt:dt="string">2015-06-18T19:32:18Z</DateUtc></StartTime><FrequencyChanges><FrequencyChange><Frequency dt:dt="r8">3507685</Frequency><Timestamp dt:dt="r8">340174181078</Timestamp><Current dt:dt="r8">0</Current><DateUtc dt:dt="string">2015-06-18T19:32:18Z</DateUtc></FrequencyChange></FrequencyChanges></Clock>\n	Hungry_Donkey_bar_English_2-113-1	60.017	-188	1.0.0.18	1	872442275	Standard	2.0.10.353	2.0.10.353	06-18-2015	6/18/2015 7:32:18 PM	15:32:18	2.0.10.248	63	Bar50-50.bmp	44	3	?	10r_4g.bmp	0r_4g.bmp	2r_2g.bmp	0r_2g.bmp			2r_2g.bmp		TrialProc	TrialList	0	cvbn	-999999	16	314069	0	b	438	314507	190	-246	-56	-28	-78	16	34	2	7	63	-10	0	-2	0	4	4	2	2	-2	2
Hungry_Donkey_bar_English_2	113	1	<?xml version="1.0"?>\n<Clock xmlns:dt="urn:schemas-microsoft-com:datatypes"><Description dt:dt="string">E-Prime Primary Realtime Clock</Description><StartTime><Timestamp dt:dt="int">0</Timestamp><DateUtc dt:dt="string">2015-06-18T19:32:18Z</DateUtc></StartTime><FrequencyChanges><FrequencyChange><Frequency dt:dt="r8">3507685</Frequency><Timestamp dt:dt="r8">340174181078</Timestamp><Current dt:dt="r8">0</Current><DateUtc dt:dt="string">2015-06-18T19:32:18Z</DateUtc></FrequencyChange></FrequencyChanges></Clock>\n	Hungry_Donkey_bar_English_2-113-1	60.017	-188	1.0.0.18	1	872442275	Standard	2.0.10.353	2.0.10.353	06-18-2015	6/18/2015 7:32:18 PM	15:32:18	2.0.10.248	64	Bar50-50.bmp	44	2	?	10r_4g.bmp	0r_4g.bmp	2r_2g.bmp	0r_2g.bmp		0r_4g.bmp			TrialProc	TrialList	0	cvbn	-999999	16	316535	0	v	548	317083	194	-246	-52	-28	-74	16	34	3	7	64	-10	0	-2	0	4	4	2	2	0	4
Hungry_Donkey_bar_English_2	113	1	<?xml version="1.0"?>\n<Clock xmlns:dt="urn:schemas-microsoft-com:datatypes"><Description dt:dt="string">E-Prime Primary Realtime Clock</Description><StartTime><Timestamp dt:dt="int">0</Timestamp><DateUtc dt:dt="string">2015-06-18T19:32:18Z</DateUtc></StartTime><FrequencyChanges><FrequencyChange><Frequency dt:dt="r8">3507685</Frequency><Timestamp dt:dt="r8">340174181078</Timestamp><Current dt:dt="r8">0</Current><DateUtc dt:dt="string">2015-06-18T19:32:18Z</DateUtc></FrequencyChange></FrequencyChanges></Clock>\n	Hungry_Donkey_bar_English_2-113-1	60.017	-188	1.0.0.18	1	872442275	Standard	2.0.10.353	2.0.10.353	06-18-2015	6/18/2015 7:32:18 PM	15:32:18	2.0.10.248	65	Bar50-50.bmp	44	4	?	10r_4g.bmp	0r_4g.bmp	2r_2g.bmp	0r_2g.bmp				0r_2g.bmp	TrialProc	TrialList	0	cvbn	-999999	16	319118	0	n	1389	320507	196	-246	-50	-28	-74	16	36	4	7	65	-10	0	-2	0	4	4	2	2	0	2
Hungry_Donkey_bar_English_2	113	1	<?xml version="1.0"?>\n<Clock xmlns:dt="urn:schemas-microsoft-com:datatypes"><Description dt:dt="string">E-Prime Primary Realtime Clock</Description><StartTime><Timestamp dt:dt="int">0</Timestamp><DateUtc dt:dt="string">2015-06-18T19:32:18Z</DateUtc></StartTime><FrequencyChanges><FrequencyChange><Frequency dt:dt="r8">3507685</Frequency><Timestamp dt:dt="r8">340174181078</Timestamp><Current dt:dt="r8">0</Current><DateUtc dt:dt="string">2015-06-18T19:32:18Z</DateUtc></FrequencyChange></FrequencyChanges></Clock>\n	Hungry_Donkey_bar_English_2-113-1	60.017	-188	1.0.0.18	1	872442275	Standard	2.0.10.353	2.0.10.353	06-18-2015	6/18/2015 7:32:18 PM	15:32:18	2.0.10.248	66	Bar50-50.bmp	45	1	?	0r_4g.bmp	0r_4g.bmp	0r_2g.bmp	0r_2g.bmp	0r_4g.bmp				TrialProc	TrialList	0	cvbn	-999999	17	322534	0	c	837	323371	200	-246	-46	-24	-74	16	36	7	7	66	0	0	0	0	4	4	2	2	0	4
Hungry_Donkey_bar_English_2	113	1	<?xml version="1.0"?>\n<Clock xmlns:dt="urn:schemas-microsoft-com:datatypes"><Description dt:dt="string">E-Prime Primary Realtime Clock</Description><StartTime><Timestamp dt:dt="int">0</Timestamp><DateUtc dt:dt="string">2015-06-18T19:32:18Z</DateUtc></StartTime><FrequencyChanges><FrequencyChange><Frequency dt:dt="r8">3507685</Frequency><Timestamp dt:dt="r8">340174181078</Timestamp><Current dt:dt="r8">0</Current><DateUtc dt:dt="string">2015-06-18T19:32:18Z</DateUtc></FrequencyChange></FrequencyChanges></Clock>\n	Hungry_Donkey_bar_English_2-113-1	60.017	-188	1.0.0.18	1	872442275	Standard	2.0.10.353	2.0.10.353	06-18-2015	6/18/2015 7:32:18 PM	15:32:18	2.0.10.248	67	Bar50-50.bmp	45	3	?	12r_4g.bmp	0r_4g.bmp	3r_2g.bmp	0r_2g.bmp			3r_2g.bmp		TrialProc	TrialList	0	cvbn	-999999	16	325399	0	b	420	325819	202	-249	-47	-24	-74	15	36	5	7	67	-12	0	-3	0	4	4	2	2	-3	2
Hungry_Donkey_bar_English_2	113	1	<?xml version="1.0"?>\n<Clock xmlns:dt="urn:schemas-microsoft-com:datatypes"><Description dt:dt="string">E-Prime Primary Realtime Clock</Description><StartTime><Timestamp dt:dt="int">0</Timestamp><DateUtc dt:dt="string">2015-06-18T19:32:18Z</DateUtc></StartTime><FrequencyChanges><FrequencyChange><Frequency dt:dt="r8">3507685</Frequency><Timestamp dt:dt="r8">340174181078</Timestamp><Current dt:dt="r8">0</Current><DateUtc dt:dt="string">2015-06-18T19:32:18Z</DateUtc></FrequencyChange></FrequencyChanges></Clock>\n	Hungry_Donkey_bar_English_2-113-1	60.017	-188	1.0.0.18	1	872442275	Standard	2.0.10.353	2.0.10.353	06-18-2015	6/18/2015 7:32:18 PM	15:32:18	2.0.10.248	68	Bar37-63.bmp	41	2	?	8r_4g.bmp	50r_4g.bmp	1r_2g.bmp	10r_2g.bmp		50r_4g.bmp			TrialProc	TrialList	0	cvbn	-999999	16	327849	0	v	450	328299	206	-299	-93	-24	-120	15	36	1	7	68	-8	-50	-1	-10	4	4	2	2	-50	4
Hungry_Donkey_bar_English_2	113	1	<?xml version="1.0"?>\n<Clock xmlns:dt="urn:schemas-microsoft-com:datatypes"><Description dt:dt="string">E-Prime Primary Realtime Clock</Description><StartTime><Timestamp dt:dt="int">0</Timestamp><DateUtc dt:dt="string">2015-06-18T19:32:18Z</DateUtc></StartTime><FrequencyChanges><FrequencyChange><Frequency dt:dt="r8">3507685</Frequency><Timestamp dt:dt="r8">340174181078</Timestamp><Current dt:dt="r8">0</Current><DateUtc dt:dt="string">2015-06-18T19:32:18Z</DateUtc></FrequencyChange></FrequencyChanges></Clock>\n	Hungry_Donkey_bar_English_2-113-1	60.017	-188	1.0.0.18	1	872442275	Standard	2.0.10.353	2.0.10.353	06-18-2015	6/18/2015 7:32:18 PM	15:32:18	2.0.10.248	69	Bar37-63.bmp	41	4	?	0r_4g.bmp	0r_4g.bmp	0r_2g.bmp	0r_2g.bmp				0r_2g.bmp	TrialProc	TrialList	0	cvbn	-999999	16	330331	0	n	3039	333370	208	-299	-91	-24	-120	15	38	10	7	69	0	0	0	0	4	4	2	2	0	2
Hungry_Donkey_bar_English_2	113	1	<?xml version="1.0"?>\n<Clock xmlns:dt="urn:schemas-microsoft-com:datatypes"><Description dt:dt="string">E-Prime Primary Realtime Clock</Description><StartTime><Timestamp dt:dt="int">0</Timestamp><DateUtc dt:dt="string">2015-06-18T19:32:18Z</DateUtc></StartTime><FrequencyChanges><FrequencyChange><Frequency dt:dt="r8">3507685</Frequency><Timestamp dt:dt="r8">340174181078</Timestamp><Current dt:dt="r8">0</Current><DateUtc dt:dt="string">2015-06-18T19:32:18Z</DateUtc></FrequencyChange></FrequencyChanges></Clock>\n	Hungry_Donkey_bar_English_2-113-1	60.017	-188	1.0.0.18	1	872442275	Standard	2.0.10.353	2.0.10.353	06-18-2015	6/18/2015 7:32:18 PM	15:32:18	2.0.10.248	70	Bar37-63.bmp	41	4	?	0r_4g.bmp	0r_4g.bmp	0r_2g.bmp	0r_2g.bmp				0r_2g.bmp	TrialProc	TrialList	0	cvbn	-999999	16	335396	0	n	1158	336554	210	-299	-89	-24	-120	15	40	9	7	70	0	0	0	0	4	4	2	2	0	2
Hungry_Donkey_bar_English_2	113	1	<?xml version="1.0"?>\n<Clock xmlns:dt="urn:schemas-microsoft-com:datatypes"><Description dt:dt="string">E-Prime Primary Realtime Clock</Description><StartTime><Timestamp dt:dt="int">0</Timestamp><DateUtc dt:dt="string">2015-06-18T19:32:18Z</DateUtc></StartTime><FrequencyChanges><FrequencyChange><Frequency dt:dt="r8">3507685</Frequency><Timestamp dt:dt="r8">340174181078</Timestamp><Current dt:dt="r8">0</Current><DateUtc dt:dt="string">2015-06-18T19:32:18Z</DateUtc></FrequencyChange></FrequencyChanges></Clock>\n	Hungry_Donkey_bar_English_2-113-1	60.017	-188	1.0.0.18	1	872442275	Standard	2.0.10.353	2.0.10.353	06-18-2015	6/18/2015 7:32:18 PM	15:32:18	2.0.10.248	71	Bar37-63.bmp	41	1	?	10r_4g.bmp	0r_4g.bmp	2r_2g.bmp	0r_2g.bmp	10r_4g.bmp				TrialProc	TrialList	0	cvbn	-999999	16	338579	0	c	743	339322	214	-309	-95	-30	-120	15	40	4	8	71	-10	0	-2	0	4	4	2	2	-10	4
Hungry_Donkey_bar_English_2	113	1	<?xml version="1.0"?>\n<Clock xmlns:dt="urn:schemas-microsoft-com:datatypes"><Description dt:dt="string">E-Prime Primary Realtime Clock</Description><StartTime><Timestamp dt:dt="int">0</Timestamp><DateUtc dt:dt="string">2015-06-18T19:32:18Z</DateUtc></StartTime><FrequencyChanges><FrequencyChange><Frequency dt:dt="r8">3507685</Frequency><Timestamp dt:dt="r8">340174181078</Timestamp><Current dt:dt="r8">0</Current><DateUtc dt:dt="string">2015-06-18T19:32:18Z</DateUtc></FrequencyChange></FrequencyChanges></Clock>\n	Hungry_Donkey_bar_English_2-113-1	60.017	-188	1.0.0.18	1	872442275	Standard	2.0.10.353	2.0.10.353	06-18-2015	6/18/2015 7:32:18 PM	15:32:18	2.0.10.248	72	Bar37-63.bmp	41	2	?	10r_4g.bmp	0r_4g.bmp	2r_2g.bmp	0r_2g.bmp		0r_4g.bmp			TrialProc	TrialList	0	cvbn	-999999	16	341361	0	v	537	341898	218	-309	-91	-30	-116	15	40	2	8	72	-10	0	-2	0	4	4	2	2	0	4
Hungry_Donkey_bar_English_2	113	1	<?xml version="1.0"?>\n<Clock xmlns:dt="urn:schemas-microsoft-com:datatypes"><Description dt:dt="string">E-Prime Primary Realtime Clock</Description><StartTime><Timestamp dt:dt="int">0</Timestamp><DateUtc dt:dt="string">2015-06-18T19:32:18Z</DateUtc></StartTime><FrequencyChanges><FrequencyChange><Frequency dt:dt="r8">3507685</Frequency><Timestamp dt:dt="r8">340174181078</Timestamp><Current dt:dt="r8">0</Current><DateUtc dt:dt="string">2015-06-18T19:32:18Z</DateUtc></FrequencyChange></FrequencyChanges></Clock>\n	Hungry_Donkey_bar_English_2-113-1	60.017	-188	1.0.0.18	1	872442275	Standard	2.0.10.353	2.0.10.353	06-18-2015	6/18/2015 7:32:18 PM	15:32:18	2.0.10.248	73	Bar37-63.bmp	42	3	?	0r_4g.bmp	0r_4g.bmp	0r_2g.bmp	0r_2g.bmp			0r_2g.bmp		TrialProc	TrialList	0	cvbn	-999999	16	343927	0	b	787	344714	220	-309	-89	-30	-116	17	40	6	8	73	0	0	0	0	4	4	2	2	0	2
Hungry_Donkey_bar_English_2	113	1	<?xml version="1.0"?>\n<Clock xmlns:dt="urn:schemas-microsoft-com:datatypes"><Description dt:dt="string">E-Prime Primary Realtime Clock</Description><StartTime><Timestamp dt:dt="int">0</Timestamp><DateUtc dt:dt="string">2015-06-18T19:32:18Z</DateUtc></StartTime><FrequencyChanges><FrequencyChange><Frequency dt:dt="r8">3507685</Frequency><Timestamp dt:dt="r8">340174181078</Timestamp><Current dt:dt="r8">0</Current><DateUtc dt:dt="string">2015-06-18T19:32:18Z</DateUtc></FrequencyChange></FrequencyChanges></Clock>\n	Hungry_Donkey_bar_English_2-113-1	60.017	-188	1.0.0.18	1	872442275	Standard	2.0.10.353	2.0.10.353	06-18-2015	6/18/2015 7:32:18 PM	15:32:18	2.0.10.248	74	Bar37-63.bmp	42	4	?	12r_4g.bmp	0r_4g.bmp	3r_2g.bmp	0r_2g.bmp				0r_2g.bmp	TrialProc	TrialList	0	cvbn	-999999	16	346743	0	n	947	347690	222	-309	-87	-30	-116	17	42	5	8	74	-12	0	-3	0	4	4	2	2	0	2
Hungry_Donkey_bar_English_2	113	1	<?xml version="1.0"?>\n<Clock xmlns:dt="urn:schemas-microsoft-com:datatypes"><Description dt:dt="string">E-Prime Primary Realtime Clock</Description><StartTime><Timestamp dt:dt="int">0</Timestamp><DateUtc dt:dt="string">2015-06-18T19:32:18Z</DateUtc></StartTime><FrequencyChanges><FrequencyChange><Frequency dt:dt="r8">3507685</Frequency><Timestamp dt:dt="r8">340174181078</Timestamp><Current dt:dt="r8">0</Current><DateUtc dt:dt="string">2015-06-18T19:32:18Z</DateUtc></FrequencyChange></FrequencyChanges></Clock>\n	Hungry_Donkey_bar_English_2-113-1	60.017	-188	1.0.0.18	1	872442275	Standard	2.0.10.353	2.0.10.353	06-18-2015	6/18/2015 7:32:18 PM	15:32:18	2.0.10.248	75	Bar37-63.bmp	42	1	?	0r_4g.bmp	0r_4g.bmp	0r_2g.bmp	0r_2g.bmp	0r_4g.bmp				TrialProc	TrialList	0	cvbn	-999999	16	349726	0	c	364	350090	226	-309	-83	-26	-116	17	42	7	8	75	0	0	0	0	4	4	2	2	0	4
Hungry_Donkey_bar_English_2	113	1	<?xml version="1.0"?>\n<Clock xmlns:dt="urn:schemas-microsoft-com:datatypes"><Description dt:dt="string">E-Prime Primary Realtime Clock</Description><StartTime><Timestamp dt:dt="int">0</Timestamp><DateUtc dt:dt="string">2015-06-18T19:32:18Z</DateUtc></StartTime><FrequencyChanges><FrequencyChange><Frequency dt:dt="r8">3507685</Frequency><Timestamp dt:dt="r8">340174181078</Timestamp><Current dt:dt="r8">0</Current><DateUtc dt:dt="string">2015-06-18T19:32:18Z</DateUtc></FrequencyChange></FrequencyChanges></Clock>\n	Hungry_Donkey_bar_English_2-113-1	60.017	-188	1.0.0.18	1	872442275	Standard	2.0.10.353	2.0.10.353	06-18-2015	6/18/2015 7:32:18 PM	15:32:18	2.0.10.248	76	Bar37-63.bmp	42	3	?	0r_4g.bmp	0r_4g.bmp	0r_2g.bmp	0r_2g.bmp			0r_2g.bmp		TrialProc	TrialList	0	cvbn	-999999	16	352125	0	b	444	352569	228	-309	-81	-26	-116	19	42	8	8	76	0	0	0	0	4	4	2	2	0	2
Hungry_Donkey_bar_English_2	113	1	<?xml version="1.0"?>\n<Clock xmlns:dt="urn:schemas-microsoft-com:datatypes"><Description dt:dt="string">E-Prime Primary Realtime Clock</Description><StartTime><Timestamp dt:dt="int">0</Timestamp><DateUtc dt:dt="string">2015-06-18T19:32:18Z</DateUtc></StartTime><FrequencyChanges><FrequencyChange><Frequency dt:dt="r8">3507685</Frequency><Timestamp dt:dt="r8">340174181078</Timestamp><Current dt:dt="r8">0</Current><DateUtc dt:dt="string">2015-06-18T19:32:18Z</DateUtc></FrequencyChange></FrequencyChanges></Clock>\n	Hungry_Donkey_bar_English_2-113-1	60.017	-188	1.0.0.18	1	872442275	Standard	2.0.10.353	2.0.10.353	06-18-2015	6/18/2015 7:32:18 PM	15:32:18	2.0.10.248	77	Bar37-63.bmp	43	2	?	10r_4g.bmp	0r_4g.bmp	2r_2g.bmp	0r_2g.bmp		0r_4g.bmp			TrialProc	TrialList	0	cvbn	-999999	16	354608	0	v	409	355017	232	-309	-77	-26	-112	19	42	3	8	77	-10	0	-2	0	4	4	2	2	0	4
Hungry_Donkey_bar_English_2	113	1	<?xml version="1.0"?>\n<Clock xmlns:dt="urn:schemas-microsoft-com:datatypes"><Description dt:dt="string">E-Prime Primary Realtime Clock</Description><StartTime><Timestamp dt:dt="int">0</Timestamp><DateUtc dt:dt="string">2015-06-18T19:32:18Z</DateUtc></StartTime><FrequencyChanges><FrequencyChange><Frequency dt:dt="r8">3507685</Frequency><Timestamp dt:dt="r8">340174181078</Timestamp><Current dt:dt="r8">0</Current><DateUtc dt:dt="string">2015-06-18T19:32:18Z</DateUtc></FrequencyChange></FrequencyChanges></Clock>\n	Hungry_Donkey_bar_English_2-113-1	60.017	-188	1.0.0.18	1	872442275	Standard	2.0.10.353	2.0.10.353	06-18-2015	6/18/2015 7:32:18 PM	15:32:18	2.0.10.248	78	Bar37-63.bmp	43	4	?	0r_4g.bmp	0r_4g.bmp	0r_2g.bmp	0r_2g.bmp				0r_2g.bmp	TrialProc	TrialList	0	cvbn	-999999	16	357057	0	n	568	357625	234	-309	-75	-26	-112	19	44	10	8	78	0	0	0	0	4	4	2	2	0	2
Hungry_Donkey_bar_English_2	113	1	<?xml version="1.0"?>\n<Clock xmlns:dt="urn:schemas-microsoft-com:datatypes"><Description dt:dt="string">E-Prime Primary Realtime Clock</Description><StartTime><Timestamp dt:dt="int">0</Timestamp><DateUtc dt:dt="string">2015-06-18T19:32:18Z</DateUtc></StartTime><FrequencyChanges><FrequencyChange><Frequency dt:dt="r8">3507685</Frequency><Timestamp dt:dt="r8">340174181078</Timestamp><Current dt:dt="r8">0</Current><DateUtc dt:dt="string">2015-06-18T19:32:18Z</DateUtc></FrequencyChange></FrequencyChanges></Clock>\n	Hungry_Donkey_bar_English_2-113-1	60.017	-188	1.0.0.18	1	872442275	Standard	2.0.10.353	2.0.10.353	06-18-2015	6/18/2015 7:32:18 PM	15:32:18	2.0.10.248	79	Bar50-50.bmp	44	2	?	0r_4g.bmp	0r_4g.bmp	0r_2g.bmp	0r_2g.bmp		0r_4g.bmp			TrialProc	TrialList	0	cvbn	-999999	16	359656	0	v	753	360409	238	-309	-71	-26	-108	19	44	9	8	79	0	0	0	0	4	4	2	2	0	4
Hungry_Donkey_bar_English_2	113	1	<?xml version="1.0"?>\n<Clock xmlns:dt="urn:schemas-microsoft-com:datatypes"><Description dt:dt="string">E-Prime Primary Realtime Clock</Description><StartTime><Timestamp dt:dt="int">0</Timestamp><DateUtc dt:dt="string">2015-06-18T19:32:18Z</DateUtc></StartTime><FrequencyChanges><FrequencyChange><Frequency dt:dt="r8">3507685</Frequency><Timestamp dt:dt="r8">340174181078</Timestamp><Current dt:dt="r8">0</Current><DateUtc dt:dt="string">2015-06-18T19:32:18Z</DateUtc></FrequencyChange></FrequencyChanges></Clock>\n	Hungry_Donkey_bar_English_2-113-1	60.017	-188	1.0.0.18	1	872442275	Standard	2.0.10.353	2.0.10.353	06-18-2015	6/18/2015 7:32:18 PM	15:32:18	2.0.10.248	80	Bar37-63.bmp	40	2	?	8r_4g.bmp	50r_4g.bmp	1r_2g.bmp	10r_2g.bmp		50r_4g.bmp			TrialProc	TrialList	0	cvbn	-999999	16	362439	0	v	370	362809	242	-359	-117	-26	-154	19	44	1	8	80	-8	-50	-1	-10	4	4	2	2	-50	4
Hungry_Donkey_bar_English_2	113	1	<?xml version="1.0"?>\n<Clock xmlns:dt="urn:schemas-microsoft-com:datatypes"><Description dt:dt="string">E-Prime Primary Realtime Clock</Description><StartTime><Timestamp dt:dt="int">0</Timestamp><DateUtc dt:dt="string">2015-06-18T19:32:18Z</DateUtc></StartTime><FrequencyChanges><FrequencyChange><Frequency dt:dt="r8">3507685</Frequency><Timestamp dt:dt="r8">340174181078</Timestamp><Current dt:dt="r8">0</Current><DateUtc dt:dt="string">2015-06-18T19:32:18Z</DateUtc></FrequencyChange></FrequencyChanges></Clock>\n	Hungry_Donkey_bar_English_2-113-1	60.017	-188	1.0.0.18	1	872442275	Standard	2.0.10.353	2.0.10.353	06-18-2015	6/18/2015 7:32:18 PM	15:32:18	2.0.10.248	81	Bar37-63.bmp	40	1	?	10r_4g.bmp	0r_4g.bmp	2r_2g.bmp	0r_2g.bmp	10r_4g.bmp				TrialProc	TrialList	0	cvbn	-999999	16	364838	0	c	2499	367337	246	-369	-123	-32	-154	19	44	2	9	81	-10	0	-2	0	4	4	2	2	-10	4
Hungry_Donkey_bar_English_2	113	1	<?xml version="1.0"?>\n<Clock xmlns:dt="urn:schemas-microsoft-com:datatypes"><Description dt:dt="string">E-Prime Primary Realtime Clock</Description><StartTime><Timestamp dt:dt="int">0</Timestamp><DateUtc dt:dt="string">2015-06-18T19:32:18Z</DateUtc></StartTime><FrequencyChanges><FrequencyChange><Frequency dt:dt="r8">3507685</Frequency><Timestamp dt:dt="r8">340174181078</Timestamp><Current dt:dt="r8">0</Current><DateUtc dt:dt="string">2015-06-18T19:32:18Z</DateUtc></FrequencyChange></FrequencyChanges></Clock>\n	Hungry_Donkey_bar_English_2-113-1	60.017	-188	1.0.0.18	1	872442275	Standard	2.0.10.353	2.0.10.353	06-18-2015	6/18/2015 7:32:18 PM	15:32:18	2.0.10.248	82	Bar37-63.bmp	40	2	?	0r_4g.bmp	0r_4g.bmp	0r_2g.bmp	0r_2g.bmp		0r_4g.bmp			TrialProc	TrialList	0	cvbn	-999999	16	369370	0	v	511	369881	250	-369	-119	-32	-150	19	44	7	9	82	0	0	0	0	4	4	2	2	0	4
Hungry_Donkey_bar_English_2	113	1	<?xml version="1.0"?>\n<Clock xmlns:dt="urn:schemas-microsoft-com:datatypes"><Description dt:dt="string">E-Prime Primary Realtime Clock</Description><StartTime><Timestamp dt:dt="int">0</Timestamp><DateUtc dt:dt="string">2015-06-18T19:32:18Z</DateUtc></StartTime><FrequencyChanges><FrequencyChange><Frequency dt:dt="r8">3507685</Frequency><Timestamp dt:dt="r8">340174181078</Timestamp><Current dt:dt="r8">0</Current><DateUtc dt:dt="string">2015-06-18T19:32:18Z</DateUtc></FrequencyChange></FrequencyChanges></Clock>\n	Hungry_Donkey_bar_English_2-113-1	60.017	-188	1.0.0.18	1	872442275	Standard	2.0.10.353	2.0.10.353	06-18-2015	6/18/2015 7:32:18 PM	15:32:18	2.0.10.248	83	Bar37-63.bmp	40	3	?	10r_4g.bmp	0r_4g.bmp	2r_2g.bmp	0r_2g.bmp			2r_2g.bmp		TrialProc	TrialList	0	cvbn	-999999	16	371919	0	b	761	372680	252	-371	-119	-32	-150	19	44	4	9	83	-10	0	-2	0	4	4	2	2	-2	2
Hungry_Donkey_bar_English_2	113	1	<?xml version="1.0"?>\n<Clock xmlns:dt="urn:schemas-microsoft-com:datatypes"><Description dt:dt="string">E-Prime Primary Realtime Clock</Description><StartTime><Timestamp dt:dt="int">0</Timestamp><DateUtc dt:dt="string">2015-06-18T19:32:18Z</DateUtc></StartTime><FrequencyChanges><FrequencyChange><Frequency dt:dt="r8">3507685</Frequency><Timestamp dt:dt="r8">340174181078</Timestamp><Current dt:dt="r8">0</Current><DateUtc dt:dt="string">2015-06-18T19:32:18Z</DateUtc></FrequencyChange></FrequencyChanges></Clock>\n	Hungry_Donkey_bar_English_2-113-1	60.017	-188	1.0.0.18	1	872442275	Standard	2.0.10.353	2.0.10.353	06-18-2015	6/18/2015 7:32:18 PM	15:32:18	2.0.10.248	84	Bar37-63.bmp	41	4	?	0r_4g.bmp	0r_4g.bmp	0r_2g.bmp	0r_2g.bmp				0r_2g.bmp	TrialProc	TrialList	0	cvbn	-999999	16	374718	0	n	298	375016	254	-371	-117	-32	-150	19	46	8	9	84	0	0	0	0	4	4	2	2	0	2
Hungry_Donkey_bar_English_2	113	1	<?xml version="1.0"?>\n<Clock xmlns:dt="urn:schemas-microsoft-com:datatypes"><Description dt:dt="string">E-Prime Primary Realtime Clock</Description><StartTime><Timestamp dt:dt="int">0</Timestamp><DateUtc dt:dt="string">2015-06-18T19:32:18Z</DateUtc></StartTime><FrequencyChanges><FrequencyChange><Frequency dt:dt="r8">3507685</Frequency><Timestamp dt:dt="r8">340174181078</Timestamp><Current dt:dt="r8">0</Current><DateUtc dt:dt="string">2015-06-18T19:32:18Z</DateUtc></FrequencyChange></FrequencyChanges></Clock>\n	Hungry_Donkey_bar_English_2-113-1	60.017	-188	1.0.0.18	1	872442275	Standard	2.0.10.353	2.0.10.353	06-18-2015	6/18/2015 7:32:18 PM	15:32:18	2.0.10.248	85	Bar37-63.bmp	40	1	?	10r_4g.bmp	0r_4g.bmp	2r_2g.bmp	0r_2g.bmp	10r_4g.bmp				TrialProc	TrialList	0	cvbn	-999999	16	377051	0	c	381	377432	258	-381	-123	-38	-150	19	46	3	9	85	-10	0	-2	0	4	4	2	2	-10	4
Hungry_Donkey_bar_English_2	113	1	<?xml version="1.0"?>\n<Clock xmlns:dt="urn:schemas-microsoft-com:datatypes"><Description dt:dt="string">E-Prime Primary Realtime Clock</Description><StartTime><Timestamp dt:dt="int">0</Timestamp><DateUtc dt:dt="string">2015-06-18T19:32:18Z</DateUtc></StartTime><FrequencyChanges><FrequencyChange><Frequency dt:dt="r8">3507685</Frequency><Timestamp dt:dt="r8">340174181078</Timestamp><Current dt:dt="r8">0</Current><DateUtc dt:dt="string">2015-06-18T19:32:18Z</DateUtc></FrequencyChange></FrequencyChanges></Clock>\n	Hungry_Donkey_bar_English_2-113-1	60.017	-188	1.0.0.18	1	872442275	Standard	2.0.10.353	2.0.10.353	06-18-2015	6/18/2015 7:32:18 PM	15:32:18	2.0.10.248	86	Bar37-63.bmp	41	4	?	0r_4g.bmp	0r_4g.bmp	0r_2g.bmp	0r_2g.bmp				0r_2g.bmp	TrialProc	TrialList	0	cvbn	-999999	16	379467	0	n	1325	380792	260	-381	-121	-38	-150	19	48	10	9	86	0	0	0	0	4	4	2	2	0	2
Hungry_Donkey_bar_English_2	113	1	<?xml version="1.0"?>\n<Clock xmlns:dt="urn:schemas-microsoft-com:datatypes"><Description dt:dt="string">E-Prime Primary Realtime Clock</Description><StartTime><Timestamp dt:dt="int">0</Timestamp><DateUtc dt:dt="string">2015-06-18T19:32:18Z</DateUtc></StartTime><FrequencyChanges><FrequencyChange><Frequency dt:dt="r8">3507685</Frequency><Timestamp dt:dt="r8">340174181078</Timestamp><Current dt:dt="r8">0</Current><DateUtc dt:dt="string">2015-06-18T19:32:18Z</DateUtc></FrequencyChange></FrequencyChanges></Clock>\n	Hungry_Donkey_bar_English_2-113-1	60.017	-188	1.0.0.18	1	872442275	Standard	2.0.10.353	2.0.10.353	06-18-2015	6/18/2015 7:32:18 PM	15:32:18	2.0.10.248	87	Bar37-63.bmp	41	3	?	0r_4g.bmp	0r_4g.bmp	0r_2g.bmp	0r_2g.bmp			0r_2g.bmp		TrialProc	TrialList	0	cvbn	-999999	16	382816	0	b	488	383304	262	-381	-119	-38	-150	21	48	9	9	87	0	0	0	0	4	4	2	2	0	2
Hungry_Donkey_bar_English_2	113	1	<?xml version="1.0"?>\n<Clock xmlns:dt="urn:schemas-microsoft-com:datatypes"><Description dt:dt="string">E-Prime Primary Realtime Clock</Description><StartTime><Timestamp dt:dt="int">0</Timestamp><DateUtc dt:dt="string">2015-06-18T19:32:18Z</DateUtc></StartTime><FrequencyChanges><FrequencyChange><Frequency dt:dt="r8">3507685</Frequency><Timestamp dt:dt="r8">340174181078</Timestamp><Current dt:dt="r8">0</Current><DateUtc dt:dt="string">2015-06-18T19:32:18Z</DateUtc></FrequencyChange></FrequencyChanges></Clock>\n	Hungry_Donkey_bar_English_2-113-1	60.017	-188	1.0.0.18	1	872442275	Standard	2.0.10.353	2.0.10.353	06-18-2015	6/18/2015 7:32:18 PM	15:32:18	2.0.10.248	88	Bar37-63.bmp	41	2	?	12r_4g.bmp	0r_4g.bmp	3r_2g.bmp	0r_2g.bmp		0r_4g.bmp			TrialProc	TrialList	0	cvbn	-999999	16	385332	0	v	436	385768	266	-381	-115	-38	-146	21	48	5	9	88	-12	0	-3	0	4	4	2	2	0	4
Hungry_Donkey_bar_English_2	113	1	<?xml version="1.0"?>\n<Clock xmlns:dt="urn:schemas-microsoft-com:datatypes"><Description dt:dt="string">E-Prime Primary Realtime Clock</Description><StartTime><Timestamp dt:dt="int">0</Timestamp><DateUtc dt:dt="string">2015-06-18T19:32:18Z</DateUtc></StartTime><FrequencyChanges><FrequencyChange><Frequency dt:dt="r8">3507685</Frequency><Timestamp dt:dt="r8">340174181078</Timestamp><Current dt:dt="r8">0</Current><DateUtc dt:dt="string">2015-06-18T19:32:18Z</DateUtc></FrequencyChange></FrequencyChanges></Clock>\n	Hungry_Donkey_bar_English_2-113-1	60.017	-188	1.0.0.18	1	872442275	Standard	2.0.10.353	2.0.10.353	06-18-2015	6/18/2015 7:32:18 PM	15:32:18	2.0.10.248	89	Bar37-63.bmp	41	1	?	0r_4g.bmp	0r_4g.bmp	0r_2g.bmp	0r_2g.bmp	0r_4g.bmp				TrialProc	TrialList	0	cvbn	-999999	16	387798	0	c	434	388232	270	-381	-111	-34	-146	21	48	6	9	89	0	0	0	0	4	4	2	2	0	4
Hungry_Donkey_bar_English_2	113	1	<?xml version="1.0"?>\n<Clock xmlns:dt="urn:schemas-microsoft-com:datatypes"><Description dt:dt="string">E-Prime Primary Realtime Clock</Description><StartTime><Timestamp dt:dt="int">0</Timestamp><DateUtc dt:dt="string">2015-06-18T19:32:18Z</DateUtc></StartTime><FrequencyChanges><FrequencyChange><Frequency dt:dt="r8">3507685</Frequency><Timestamp dt:dt="r8">340174181078</Timestamp><Current dt:dt="r8">0</Current><DateUtc dt:dt="string">2015-06-18T19:32:18Z</DateUtc></FrequencyChange></FrequencyChanges></Clock>\n	Hungry_Donkey_bar_English_2-113-1	60.017	-188	1.0.0.18	1	872442275	Standard	2.0.10.353	2.0.10.353	06-18-2015	6/18/2015 7:32:18 PM	15:32:18	2.0.10.248	90	Bar37-63.bmp	39	2	?	8r_4g.bmp	50r_4g.bmp	1r_2g.bmp	10r_2g.bmp		50r_4g.bmp			TrialProc	TrialList	0	cvbn	-999999	16	390264	0	v	799	391063	274	-431	-157	-34	-192	21	48	1	9	90	-8	-50	-1	-10	4	4	2	2	-50	4
Hungry_Donkey_bar_English_2	113	1	<?xml version="1.0"?>\n<Clock xmlns:dt="urn:schemas-microsoft-com:datatypes"><Description dt:dt="string">E-Prime Primary Realtime Clock</Description><StartTime><Timestamp dt:dt="int">0</Timestamp><DateUtc dt:dt="string">2015-06-18T19:32:18Z</DateUtc></StartTime><FrequencyChanges><FrequencyChange><Frequency dt:dt="r8">3507685</Frequency><Timestamp dt:dt="r8">340174181078</Timestamp><Current dt:dt="r8">0</Current><DateUtc dt:dt="string">2015-06-18T19:32:18Z</DateUtc></FrequencyChange></FrequencyChanges></Clock>\n	Hungry_Donkey_bar_English_2-113-1	60.017	-188	1.0.0.18	1	872442275	Standard	2.0.10.353	2.0.10.353	06-18-2015	6/18/2015 7:32:18 PM	15:32:18	2.0.10.248	91	Bar37-63.bmp	39	4	?	10r_4g.bmp	0r_4g.bmp	2r_2g.bmp	0r_2g.bmp				0r_2g.bmp	TrialProc	TrialList	0	cvbn	-999999	16	393096	0	n	1439	394535	276	-431	-155	-34	-192	21	50	2	10	91	-10	0	-2	0	4	4	2	2	0	2
Hungry_Donkey_bar_English_2	113	1	<?xml version="1.0"?>\n<Clock xmlns:dt="urn:schemas-microsoft-com:datatypes"><Description dt:dt="string">E-Prime Primary Realtime Clock</Description><StartTime><Timestamp dt:dt="int">0</Timestamp><DateUtc dt:dt="string">2015-06-18T19:32:18Z</DateUtc></StartTime><FrequencyChanges><FrequencyChange><Frequency dt:dt="r8">3507685</Frequency><Timestamp dt:dt="r8">340174181078</Timestamp><Current dt:dt="r8">0</Current><DateUtc dt:dt="string">2015-06-18T19:32:18Z</DateUtc></FrequencyChange></FrequencyChanges></Clock>\n	Hungry_Donkey_bar_English_2-113-1	60.017	-188	1.0.0.18	1	872442275	Standard	2.0.10.353	2.0.10.353	06-18-2015	6/18/2015 7:32:18 PM	15:32:18	2.0.10.248	92	Bar37-63.bmp	39	3	?	0r_4g.bmp	0r_4g.bmp	0r_2g.bmp	0r_2g.bmp			0r_2g.bmp		TrialProc	TrialList	0	cvbn	-999999	16	396562	0	b	213	396775	278	-431	-153	-34	-192	23	50	8	10	92	0	0	0	0	4	4	2	2	0	2
Hungry_Donkey_bar_English_2	113	1	<?xml version="1.0"?>\n<Clock xmlns:dt="urn:schemas-microsoft-com:datatypes"><Description dt:dt="string">E-Prime Primary Realtime Clock</Description><StartTime><Timestamp dt:dt="int">0</Timestamp><DateUtc dt:dt="string">2015-06-18T19:32:18Z</DateUtc></StartTime><FrequencyChanges><FrequencyChange><Frequency dt:dt="r8">3507685</Frequency><Timestamp dt:dt="r8">340174181078</Timestamp><Current dt:dt="r8">0</Current><DateUtc dt:dt="string">2015-06-18T19:32:18Z</DateUtc></FrequencyChange></FrequencyChanges></Clock>\n	Hungry_Donkey_bar_English_2-113-1	60.017	-188	1.0.0.18	1	872442275	Standard	2.0.10.353	2.0.10.353	06-18-2015	6/18/2015 7:32:18 PM	15:32:18	2.0.10.248	93	Bar37-63.bmp	39	4	?	0r_4g.bmp	0r_4g.bmp	0r_2g.bmp	0r_2g.bmp				0r_2g.bmp	TrialProc	TrialList	0	cvbn	-999999	17	398812	0	n	811	399623	280	-431	-151	-34	-192	23	52	9	10	93	0	0	0	0	4	4	2	2	0	2
Hungry_Donkey_bar_English_2	113	1	<?xml version="1.0"?>\n<Clock xmlns:dt="urn:schemas-microsoft-com:datatypes"><Description dt:dt="string">E-Prime Primary Realtime Clock</Description><StartTime><Timestamp dt:dt="int">0</Timestamp><DateUtc dt:dt="string">2015-06-18T19:32:18Z</DateUtc></StartTime><FrequencyChanges><FrequencyChange><Frequency dt:dt="r8">3507685</Frequency><Timestamp dt:dt="r8">340174181078</Timestamp><Current dt:dt="r8">0</Current><DateUtc dt:dt="string">2015-06-18T19:32:18Z</DateUtc></FrequencyChange></FrequencyChanges></Clock>\n	Hungry_Donkey_bar_English_2-113-1	60.017	-188	1.0.0.18	1	872442275	Standard	2.0.10.353	2.0.10.353	06-18-2015	6/18/2015 7:32:18 PM	15:32:18	2.0.10.248	94	Bar37-63.bmp	37	2	?	8r_4g.bmp	50r_4g.bmp	1r_2g.bmp	10r_2g.bmp		50r_4g.bmp			TrialProc	TrialList	0	cvbn	-999999	16	401661	0	v	586	402247	284	-481	-197	-34	-238	23	52	1	10	94	-8	-50	-1	-10	4	4	2	2	-50	4
Hungry_Donkey_bar_English_2	113	1	<?xml version="1.0"?>\n<Clock xmlns:dt="urn:schemas-microsoft-com:datatypes"><Description dt:dt="string">E-Prime Primary Realtime Clock</Description><StartTime><Timestamp dt:dt="int">0</Timestamp><DateUtc dt:dt="string">2015-06-18T19:32:18Z</DateUtc></StartTime><FrequencyChanges><FrequencyChange><Frequency dt:dt="r8">3507685</Frequency><Timestamp dt:dt="r8">340174181078</Timestamp><Current dt:dt="r8">0</Current><DateUtc dt:dt="string">2015-06-18T19:32:18Z</DateUtc></FrequencyChange></FrequencyChanges></Clock>\n	Hungry_Donkey_bar_English_2-113-1	60.017	-188	1.0.0.18	1	872442275	Standard	2.0.10.353	2.0.10.353	06-18-2015	6/18/2015 7:32:18 PM	15:32:18	2.0.10.248	95	Bar37-63.bmp	37	3	?	0r_4g.bmp	0r_4g.bmp	0r_2g.bmp	0r_2g.bmp			0r_2g.bmp		TrialProc	TrialList	0	cvbn	-999999	16	404277	0	b	402	404679	286	-481	-195	-34	-238	25	52	6	10	95	0	0	0	0	4	4	2	2	0	2
Hungry_Donkey_bar_English_2	113	1	<?xml version="1.0"?>\n<Clock xmlns:dt="urn:schemas-microsoft-com:datatypes"><Description dt:dt="string">E-Prime Primary Realtime Clock</Description><StartTime><Timestamp dt:dt="int">0</Timestamp><DateUtc dt:dt="string">2015-06-18T19:32:18Z</DateUtc></StartTime><FrequencyChanges><FrequencyChange><Frequency dt:dt="r8">3507685</Frequency><Timestamp dt:dt="r8">340174181078</Timestamp><Current dt:dt="r8">0</Current><DateUtc dt:dt="string">2015-06-18T19:32:18Z</DateUtc></FrequencyChange></FrequencyChanges></Clock>\n	Hungry_Donkey_bar_English_2-113-1	60.017	-188	1.0.0.18	1	872442275	Standard	2.0.10.353	2.0.10.353	06-18-2015	6/18/2015 7:32:18 PM	15:32:18	2.0.10.248	96	Bar37-63.bmp	38	1	?	0r_4g.bmp	0r_4g.bmp	0r_2g.bmp	0r_2g.bmp	0r_4g.bmp				TrialProc	TrialList	0	cvbn	-999999	16	406709	0	c	818	407527	290	-481	-191	-30	-238	25	52	7	10	96	0	0	0	0	4	4	2	2	0	4
Hungry_Donkey_bar_English_2	113	1	<?xml version="1.0"?>\n<Clock xmlns:dt="urn:schemas-microsoft-com:datatypes"><Description dt:dt="string">E-Prime Primary Realtime Clock</Description><StartTime><Timestamp dt:dt="int">0</Timestamp><DateUtc dt:dt="string">2015-06-18T19:32:18Z</DateUtc></StartTime><FrequencyChanges><FrequencyChange><Frequency dt:dt="r8">3507685</Frequency><Timestamp dt:dt="r8">340174181078</Timestamp><Current dt:dt="r8">0</Current><DateUtc dt:dt="string">2015-06-18T19:32:18Z</DateUtc></FrequencyChange></FrequencyChanges></Clock>\n	Hungry_Donkey_bar_English_2-113-1	60.017	-188	1.0.0.18	1	872442275	Standard	2.0.10.353	2.0.10.353	06-18-2015	6/18/2015 7:32:18 PM	15:32:18	2.0.10.248	97	Bar37-63.bmp	38	2	?	10r_4g.bmp	0r_4g.bmp	2r_2g.bmp	0r_2g.bmp		0r_4g.bmp			TrialProc	TrialList	0	cvbn	-999999	16	409558	0	v	384	409942	294	-481	-187	-30	-234	25	52	3	10	97	-10	0	-2	0	4	4	2	2	0	4
Hungry_Donkey_bar_English_2	113	1	<?xml version="1.0"?>\n<Clock xmlns:dt="urn:schemas-microsoft-com:datatypes"><Description dt:dt="string">E-Prime Primary Realtime Clock</Description><StartTime><Timestamp dt:dt="int">0</Timestamp><DateUtc dt:dt="string">2015-06-18T19:32:18Z</DateUtc></StartTime><FrequencyChanges><FrequencyChange><Frequency dt:dt="r8">3507685</Frequency><Timestamp dt:dt="r8">340174181078</Timestamp><Current dt:dt="r8">0</Current><DateUtc dt:dt="string">2015-06-18T19:32:18Z</DateUtc></FrequencyChange></FrequencyChanges></Clock>\n	Hungry_Donkey_bar_English_2-113-1	60.017	-188	1.0.0.18	1	872442275	Standard	2.0.10.353	2.0.10.353	06-18-2015	6/18/2015 7:32:18 PM	15:32:18	2.0.10.248	98	Bar37-63.bmp	38	3	?	12r_4g.bmp	0r_4g.bmp	3r_2g.bmp	0r_2g.bmp			3r_2g.bmp		TrialProc	TrialList	0	cvbn	-999999	16	411974	0	b	368	412342	296	-484	-188	-30	-234	24	52	5	10	98	-12	0	-3	0	4	4	2	2	-3	2
Hungry_Donkey_bar_English_2	113	1	<?xml version="1.0"?>\n<Clock xmlns:dt="urn:schemas-microsoft-com:datatypes"><Description dt:dt="string">E-Prime Primary Realtime Clock</Description><StartTime><Timestamp dt:dt="int">0</Timestamp><DateUtc dt:dt="string">2015-06-18T19:32:18Z</DateUtc></StartTime><FrequencyChanges><FrequencyChange><Frequency dt:dt="r8">3507685</Frequency><Timestamp dt:dt="r8">340174181078</Timestamp><Current dt:dt="r8">0</Current><DateUtc dt:dt="string">2015-06-18T19:32:18Z</DateUtc></FrequencyChange></FrequencyChanges></Clock>\n	Hungry_Donkey_bar_English_2-113-1	60.017	-188	1.0.0.18	1	872442275	Standard	2.0.10.353	2.0.10.353	06-18-2015	6/18/2015 7:32:18 PM	15:32:18	2.0.10.248	99	Bar37-63.bmp	38	4	?	0r_4g.bmp	0r_4g.bmp	0r_2g.bmp	0r_2g.bmp				0r_2g.bmp	TrialProc	TrialList	0	cvbn	-999999	16	414374	0	n	560	414934	298	-484	-186	-30	-234	24	54	10	10	99	0	0	0	0	4	4	2	2	0	2
Hungry_Donkey_bar_English_2	113	1	<?xml version="1.0"?>\n<Clock xmlns:dt="urn:schemas-microsoft-com:datatypes"><Description dt:dt="string">E-Prime Primary Realtime Clock</Description><StartTime><Timestamp dt:dt="int">0</Timestamp><DateUtc dt:dt="string">2015-06-18T19:32:18Z</DateUtc></StartTime><FrequencyChanges><FrequencyChange><Frequency dt:dt="r8">3507685</Frequency><Timestamp dt:dt="r8">340174181078</Timestamp><Current dt:dt="r8">0</Current><DateUtc dt:dt="string">2015-06-18T19:32:18Z</DateUtc></FrequencyChange></FrequencyChanges></Clock>\n	Hungry_Donkey_bar_English_2-113-1	60.017	-188	1.0.0.18	1	872442275	Standard	2.0.10.353	2.0.10.353	06-18-2015	6/18/2015 7:32:18 PM	15:32:18	2.0.10.248	100	Bar37-63.bmp	38	3	?	10r_4g.bmp	0r_4g.bmp	2r_2g.bmp	0r_2g.bmp			2r_2g.bmp		TrialProc	TrialList	0	cvbn	-999999	16	416973	0	b	1753	418726	300	-486	-186	-30	-234	24	54	4	10	100	-10	0	-2	0	4	4	2	2	-2	2
Hungry_Donkey_bar_English_2	113	1	<?xml version="1.0"?>\n<Clock xmlns:dt="urn:schemas-microsoft-com:datatypes"><Description dt:dt="string">E-Prime Primary Realtime Clock</Description><StartTime><Timestamp dt:dt="int">0</Timestamp><DateUtc dt:dt="string">2015-06-18T19:32:18Z</DateUtc></StartTime><FrequencyChanges><FrequencyChange><Frequency dt:dt="r8">3507685</Frequency><Timestamp dt:dt="r8">340174181078</Timestamp><Current dt:dt="r8">0</Current><DateUtc dt:dt="string">2015-06-18T19:32:18Z</DateUtc></FrequencyChange></FrequencyChanges></Clock>\n	Hungry_Donkey_bar_English_2-113-1	60.017	-188	1.0.0.18	1	872442275	Standard	2.0.10.353	2.0.10.353	06-18-2015	6/18/2015 7:32:18 PM	15:32:18	2.0.10.248	101	Bar37-63.bmp	38	2	?	12r_4g.bmp	0r_4g.bmp	3r_2g.bmp	0r_2g.bmp		0r_4g.bmp			TrialProc	TrialList	0	cvbn	-999999	16	420755	0	v	579	421334	304	-486	-182	-30	-230	24	54	5	11	101	-12	0	-3	0	4	4	2	2	0	4
Hungry_Donkey_bar_English_2	113	1	<?xml version="1.0"?>\n<Clock xmlns:dt="urn:schemas-microsoft-com:datatypes"><Description dt:dt="string">E-Prime Primary Realtime Clock</Description><StartTime><Timestamp dt:dt="int">0</Timestamp><DateUtc dt:dt="string">2015-06-18T19:32:18Z</DateUtc></StartTime><FrequencyChanges><FrequencyChange><Frequency dt:dt="r8">3507685</Frequency><Timestamp dt:dt="r8">340174181078</Timestamp><Current dt:dt="r8">0</Current><DateUtc dt:dt="string">2015-06-18T19:32:18Z</DateUtc></FrequencyChange></FrequencyChanges></Clock>\n	Hungry_Donkey_bar_English_2-113-1	60.017	-188	1.0.0.18	1	872442275	Standard	2.0.10.353	2.0.10.353	06-18-2015	6/18/2015 7:32:18 PM	15:32:18	2.0.10.248	102	Bar37-63.bmp	38	1	?	10r_4g.bmp	0r_4g.bmp	2r_2g.bmp	0r_2g.bmp	10r_4g.bmp				TrialProc	TrialList	0	cvbn	-999999	16	423371	0	c	1339	424710	308	-496	-188	-36	-230	24	54	3	11	102	-10	0	-2	0	4	4	2	2	-10	4
Hungry_Donkey_bar_English_2	113	1	<?xml version="1.0"?>\n<Clock xmlns:dt="urn:schemas-microsoft-com:datatypes"><Description dt:dt="string">E-Prime Primary Realtime Clock</Description><StartTime><Timestamp dt:dt="int">0</Timestamp><DateUtc dt:dt="string">2015-06-18T19:32:18Z</DateUtc></StartTime><FrequencyChanges><FrequencyChange><Frequency dt:dt="r8">3507685</Frequency><Timestamp dt:dt="r8">340174181078</Timestamp><Current dt:dt="r8">0</Current><DateUtc dt:dt="string">2015-06-18T19:32:18Z</DateUtc></FrequencyChange></FrequencyChanges></Clock>\n	Hungry_Donkey_bar_English_2-113-1	60.017	-188	1.0.0.18	1	872442275	Standard	2.0.10.353	2.0.10.353	06-18-2015	6/18/2015 7:32:18 PM	15:32:18	2.0.10.248	103	Bar37-63.bmp	39	2	?	0r_4g.bmp	0r_4g.bmp	0r_2g.bmp	0r_2g.bmp		0r_4g.bmp			TrialProc	TrialList	0	cvbn	-999999	16	426737	0	v	917	427654	312	-496	-184	-36	-226	24	54	9	11	103	0	0	0	0	4	4	2	2	0	4
Hungry_Donkey_bar_English_2	113	1	<?xml version="1.0"?>\n<Clock xmlns:dt="urn:schemas-microsoft-com:datatypes"><Description dt:dt="string">E-Prime Primary Realtime Clock</Description><StartTime><Timestamp dt:dt="int">0</Timestamp><DateUtc dt:dt="string">2015-06-18T19:32:18Z</DateUtc></StartTime><FrequencyChanges><FrequencyChange><Frequency dt:dt="r8">3507685</Frequency><Timestamp dt:dt="r8">340174181078</Timestamp><Current dt:dt="r8">0</Current><DateUtc dt:dt="string">2015-06-18T19:32:18Z</DateUtc></FrequencyChange></FrequencyChanges></Clock>\n	Hungry_Donkey_bar_English_2-113-1	60.017	-188	1.0.0.18	1	872442275	Standard	2.0.10.353	2.0.10.353	06-18-2015	6/18/2015 7:32:18 PM	15:32:18	2.0.10.248	104	Bar37-63.bmp	39	3	?	8r_4g.bmp	50r_4g.bmp	1r_2g.bmp	10r_2g.bmp			1r_2g.bmp		TrialProc	TrialList	0	cvbn	-999999	16	429686	0	b	239	429925	314	-497	-183	-36	-226	25	54	1	11	104	-8	-50	-1	-10	4	4	2	2	-1	2
Hungry_Donkey_bar_English_2	113	1	<?xml version="1.0"?>\n<Clock xmlns:dt="urn:schemas-microsoft-com:datatypes"><Description dt:dt="string">E-Prime Primary Realtime Clock</Description><StartTime><Timestamp dt:dt="int">0</Timestamp><DateUtc dt:dt="string">2015-06-18T19:32:18Z</DateUtc></StartTime><FrequencyChanges><FrequencyChange><Frequency dt:dt="r8">3507685</Frequency><Timestamp dt:dt="r8">340174181078</Timestamp><Current dt:dt="r8">0</Current><DateUtc dt:dt="string">2015-06-18T19:32:18Z</DateUtc></FrequencyChange></FrequencyChanges></Clock>\n	Hungry_Donkey_bar_English_2-113-1	60.017	-188	1.0.0.18	1	872442275	Standard	2.0.10.353	2.0.10.353	06-18-2015	6/18/2015 7:32:18 PM	15:32:18	2.0.10.248	105	Bar37-63.bmp	39	4	?	0r_4g.bmp	0r_4g.bmp	0r_2g.bmp	0r_2g.bmp				0r_2g.bmp	TrialProc	TrialList	0	cvbn	-999999	16	431952	0	n	501	432453	316	-497	-181	-36	-226	25	56	6	11	105	0	0	0	0	4	4	2	2	0	2
Hungry_Donkey_bar_English_2	113	1	<?xml version="1.0"?>\n<Clock xmlns:dt="urn:schemas-microsoft-com:datatypes"><Description dt:dt="string">E-Prime Primary Realtime Clock</Description><StartTime><Timestamp dt:dt="int">0</Timestamp><DateUtc dt:dt="string">2015-06-18T19:32:18Z</DateUtc></StartTime><FrequencyChanges><FrequencyChange><Frequency dt:dt="r8">3507685</Frequency><Timestamp dt:dt="r8">340174181078</Timestamp><Current dt:dt="r8">0</Current><DateUtc dt:dt="string">2015-06-18T19:32:18Z</DateUtc></FrequencyChange></FrequencyChanges></Clock>\n	Hungry_Donkey_bar_English_2-113-1	60.017	-188	1.0.0.18	1	872442275	Standard	2.0.10.353	2.0.10.353	06-18-2015	6/18/2015 7:32:18 PM	15:32:18	2.0.10.248	106	Bar37-63.bmp	39	2	?	0r_4g.bmp	0r_4g.bmp	0r_2g.bmp	0r_2g.bmp		0r_4g.bmp			TrialProc	TrialList	0	cvbn	-999999	17	434485	0	v	400	434885	320	-497	-177	-36	-222	25	56	10	11	106	0	0	0	0	4	4	2	2	0	4
Hungry_Donkey_bar_English_2	113	1	<?xml version="1.0"?>\n<Clock xmlns:dt="urn:schemas-microsoft-com:datatypes"><Description dt:dt="string">E-Prime Primary Realtime Clock</Description><StartTime><Timestamp dt:dt="int">0</Timestamp><DateUtc dt:dt="string">2015-06-18T19:32:18Z</DateUtc></StartTime><FrequencyChanges><FrequencyChange><Frequency dt:dt="r8">3507685</Frequency><Timestamp dt:dt="r8">340174181078</Timestamp><Current dt:dt="r8">0</Current><DateUtc dt:dt="string">2015-06-18T19:32:18Z</DateUtc></FrequencyChange></FrequencyChanges></Clock>\n	Hungry_Donkey_bar_English_2-113-1	60.017	-188	1.0.0.18	1	872442275	Standard	2.0.10.353	2.0.10.353	06-18-2015	6/18/2015 7:32:18 PM	15:32:18	2.0.10.248	107	Bar37-63.bmp	39	4	?	10r_4g.bmp	0r_4g.bmp	2r_2g.bmp	0r_2g.bmp				0r_2g.bmp	TrialProc	TrialList	0	cvbn	-999999	16	436917	0	n	640	437557	322	-497	-175	-36	-222	25	58	4	11	107	-10	0	-2	0	4	4	2	2	0	2
Hungry_Donkey_bar_English_2	113	1	<?xml version="1.0"?>\n<Clock xmlns:dt="urn:schemas-microsoft-com:datatypes"><Description dt:dt="string">E-Prime Primary Realtime Clock</Description><StartTime><Timestamp dt:dt="int">0</Timestamp><DateUtc dt:dt="string">2015-06-18T19:32:18Z</DateUtc></StartTime><FrequencyChanges><FrequencyChange><Frequency dt:dt="r8">3507685</Frequency><Timestamp dt:dt="r8">340174181078</Timestamp><Current dt:dt="r8">0</Current><DateUtc dt:dt="string">2015-06-18T19:32:18Z</DateUtc></FrequencyChange></FrequencyChanges></Clock>\n	Hungry_Donkey_bar_English_2-113-1	60.017	-188	1.0.0.18	1	872442275	Standard	2.0.10.353	2.0.10.353	06-18-2015	6/18/2015 7:32:18 PM	15:32:18	2.0.10.248	108	Bar37-63.bmp	39	3	?	0r_4g.bmp	0r_4g.bmp	0r_2g.bmp	0r_2g.bmp			0r_2g.bmp		TrialProc	TrialList	0	cvbn	-999999	16	439583	0	b	470	440053	324	-497	-173	-36	-222	27	58	8	11	108	0	0	0	0	4	4	2	2	0	2
Hungry_Donkey_bar_English_2	113	1	<?xml version="1.0"?>\n<Clock xmlns:dt="urn:schemas-microsoft-com:datatypes"><Description dt:dt="string">E-Prime Primary Realtime Clock</Description><StartTime><Timestamp dt:dt="int">0</Timestamp><DateUtc dt:dt="string">2015-06-18T19:32:18Z</DateUtc></StartTime><FrequencyChanges><FrequencyChange><Frequency dt:dt="r8">3507685</Frequency><Timestamp dt:dt="r8">340174181078</Timestamp><Current dt:dt="r8">0</Current><DateUtc dt:dt="string">2015-06-18T19:32:18Z</DateUtc></FrequencyChange></FrequencyChanges></Clock>\n	Hungry_Donkey_bar_English_2-113-1	60.017	-188	1.0.0.18	1	872442275	Standard	2.0.10.353	2.0.10.353	06-18-2015	6/18/2015 7:32:18 PM	15:32:18	2.0.10.248	109	Bar37-63.bmp	39	1	?	10r_4g.bmp	0r_4g.bmp	2r_2g.bmp	0r_2g.bmp	10r_4g.bmp				TrialProc	TrialList	0	cvbn	-999999	16	442082	0	c	515	442597	328	-507	-179	-42	-222	27	58	2	11	109	-10	0	-2	0	4	4	2	2	-10	4
Hungry_Donkey_bar_English_2	113	1	<?xml version="1.0"?>\n<Clock xmlns:dt="urn:schemas-microsoft-com:datatypes"><Description dt:dt="string">E-Prime Primary Realtime Clock</Description><StartTime><Timestamp dt:dt="int">0</Timestamp><DateUtc dt:dt="string">2015-06-18T19:32:18Z</DateUtc></StartTime><FrequencyChanges><FrequencyChange><Frequency dt:dt="r8">3507685</Frequency><Timestamp dt:dt="r8">340174181078</Timestamp><Current dt:dt="r8">0</Current><DateUtc dt:dt="string">2015-06-18T19:32:18Z</DateUtc></FrequencyChange></FrequencyChanges></Clock>\n	Hungry_Donkey_bar_English_2-113-1	60.017	-188	1.0.0.18	1	872442275	Standard	2.0.10.353	2.0.10.353	06-18-2015	6/18/2015 7:32:18 PM	15:32:18	2.0.10.248	110	Bar37-63.bmp	39	4	?	0r_4g.bmp	0r_4g.bmp	0r_2g.bmp	0r_2g.bmp				0r_2g.bmp	TrialProc	TrialList	0	cvbn	-999999	16	444632	0	n	845	445477	330	-507	-177	-42	-222	27	60	7	11	110	0	0	0	0	4	4	2	2	0	2
Hungry_Donkey_bar_English_2	113	1	<?xml version="1.0"?>\n<Clock xmlns:dt="urn:schemas-microsoft-com:datatypes"><Description dt:dt="string">E-Prime Primary Realtime Clock</Description><StartTime><Timestamp dt:dt="int">0</Timestamp><DateUtc dt:dt="string">2015-06-18T19:32:18Z</DateUtc></StartTime><FrequencyChanges><FrequencyChange><Frequency dt:dt="r8">3507685</Frequency><Timestamp dt:dt="r8">340174181078</Timestamp><Current dt:dt="r8">0</Current><DateUtc dt:dt="string">2015-06-18T19:32:18Z</DateUtc></FrequencyChange></FrequencyChanges></Clock>\n	Hungry_Donkey_bar_English_2-113-1	60.017	-188	1.0.0.18	1	872442275	Standard	2.0.10.353	2.0.10.353	06-18-2015	6/18/2015 7:32:18 PM	15:32:18	2.0.10.248	111	Bar37-63.bmp	40	3	?	0r_4g.bmp	0r_4g.bmp	0r_2g.bmp	0r_2g.bmp			0r_2g.bmp		TrialProc	TrialList	0	cvbn	-999999	16	447514	0	b	507	448021	332	-507	-175	-42	-222	29	60	7	12	111	0	0	0	0	4	4	2	2	0	2
