ExperimentName	Subject	Session	Clock.Information	DataFile.Basename	Display.RefreshRate	Eindtotaal[Session]	ExperimentVersion	Group	RandomSeed	RuntimeCapabilities	RuntimeVersion	RuntimeVersionExpected	SessionDate	SessionStartDateTimeUtc	SessionTime	StudioVersion	Block	BarImage	BarTotalWinst	DoorChoice	Eindtotaal[Block]	FBDoor1	FBDoor2	FBDoor3	FBDoor4	Image1	Image2	Image3	Image4	Procedure	Running	spel.ACC	spel.CRESP	spel.DurationError	spel.OnsetDelay	spel.OnsetTime	spel.OnsetToOnsetTime	spel.RESP	spel.RT	spel.RTTime	TotalGain	TotalLose	Totalsum	TotalsumD1	TotalsumD2	TotalsumD3	TotalsumD4	TrialList	TrialList.Cycle	TrialList.Sample	varV1	varV2	varV3	varV4	varW1	varW2	varW3	varW4	Verliesbedrag	Winstbedrag
Hungry_Donkey_bar_English_2	156	1	<?xml version="1.0"?>\n<Clock xmlns:dt="urn:schemas-microsoft-com:datatypes"><Description dt:dt="string">E-Prime Primary Realtime Clock</Description><StartTime><Timestamp dt:dt="int">0</Timestamp><DateUtc dt:dt="string">2016-06-09T20:59:51Z</DateUtc></StartTime><FrequencyChanges><FrequencyChange><Frequency dt:dt="r8">3507724</Frequency><Timestamp dt:dt="r8">57649893470</Timestamp><Current dt:dt="r8">0</Current><DateUtc dt:dt="string">2016-06-09T20:59:51Z</DateUtc></FrequencyChange></FrequencyChanges></Clock>\n	Hungry_Donkey_bar_English_2-156-1	60.018	25	1.0.0.18	1	1816005888	Standard	2.0.10.353	2.0.10.353	06-09-2016	6/9/2016 8:59:51 PM	16:59:51	2.0.10.248	1	Bar100-0.bmp	100	4	?	0r_4g.bmp	0r_4g.bmp	0r_2g.bmp	0r_2g.bmp				0r_2g.bmp	TrialProc	TrialList	0	cvbn	-999999	37	74061	0	n	5802	79863	2	0	2	0	0	0	2	7	1	1	0	0	0	0	4	4	2	2	0	2
Hungry_Donkey_bar_English_2	156	1	<?xml version="1.0"?>\n<Clock xmlns:dt="urn:schemas-microsoft-com:datatypes"><Description dt:dt="string">E-Prime Primary Realtime Clock</Description><StartTime><Timestamp dt:dt="int">0</Timestamp><DateUtc dt:dt="string">2016-06-09T20:59:51Z</DateUtc></StartTime><FrequencyChanges><FrequencyChange><Frequency dt:dt="r8">3507724</Frequency><Timestamp dt:dt="r8">57649893470</Timestamp><Current dt:dt="r8">0</Current><DateUtc dt:dt="string">2016-06-09T20:59:51Z</DateUtc></FrequencyChange></FrequencyChanges></Clock>\n	Hungry_Donkey_bar_English_2-156-1	60.018	25	1.0.0.18	1	1816005888	Standard	2.0.10.353	2.0.10.353	06-09-2016	6/9/2016 8:59:51 PM	16:59:51	2.0.10.248	2	Bar100-0.bmp	100	2	?	10r_4g.bmp	0r_4g.bmp	2r_2g.bmp	0r_2g.bmp		0r_4g.bmp			TrialProc	TrialList	0	cvbn	-999999	16	81908	0	v	2675	84583	6	0	6	0	4	0	2	3	1	2	-10	0	-2	0	4	4	2	2	0	4
Hungry_Donkey_bar_English_2	156	1	<?xml version="1.0"?>\n<Clock xmlns:dt="urn:schemas-microsoft-com:datatypes"><Description dt:dt="string">E-Prime Primary Realtime Clock</Description><StartTime><Timestamp dt:dt="int">0</Timestamp><DateUtc dt:dt="string">2016-06-09T20:59:51Z</DateUtc></StartTime><FrequencyChanges><FrequencyChange><Frequency dt:dt="r8">3507724</Frequency><Timestamp dt:dt="r8">57649893470</Timestamp><Current dt:dt="r8">0</Current><DateUtc dt:dt="string">2016-06-09T20:59:51Z</DateUtc></FrequencyChange></FrequencyChanges></Clock>\n	Hungry_Donkey_bar_English_2-156-1	60.018	25	1.0.0.18	1	1816005888	Standard	2.0.10.353	2.0.10.353	06-09-2016	6/9/2016 8:59:51 PM	16:59:51	2.0.10.248	3	Bar50-50.bmp	50	1	?	10r_4g.bmp	0r_4g.bmp	2r_2g.bmp	0r_2g.bmp	10r_4g.bmp				TrialProc	TrialList	0	cvbn	-999999	16	86623	0	c	2104	88727	10	-10	0	-6	4	0	2	2	1	3	-10	0	-2	0	4	4	2	2	-10	4
Hungry_Donkey_bar_English_2	156	1	<?xml version="1.0"?>\n<Clock xmlns:dt="urn:schemas-microsoft-com:datatypes"><Description dt:dt="string">E-Prime Primary Realtime Clock</Description><StartTime><Timestamp dt:dt="int">0</Timestamp><DateUtc dt:dt="string">2016-06-09T20:59:51Z</DateUtc></StartTime><FrequencyChanges><FrequencyChange><Frequency dt:dt="r8">3507724</Frequency><Timestamp dt:dt="r8">57649893470</Timestamp><Current dt:dt="r8">0</Current><DateUtc dt:dt="string">2016-06-09T20:59:51Z</DateUtc></FrequencyChange></FrequencyChanges></Clock>\n	Hungry_Donkey_bar_English_2-156-1	60.018	25	1.0.0.18	1	1816005888	Standard	2.0.10.353	2.0.10.353	06-09-2016	6/9/2016 8:59:51 PM	16:59:51	2.0.10.248	4	Bar50-50.bmp	55	3	?	0r_4g.bmp	0r_4g.bmp	0r_2g.bmp	0r_2g.bmp			0r_2g.bmp		TrialProc	TrialList	0	cvbn	-999999	16	90756	0	b	546	91302	12	-10	2	-6	4	2	2	9	1	4	0	0	0	0	4	4	2	2	0	2
Hungry_Donkey_bar_English_2	156	1	<?xml version="1.0"?>\n<Clock xmlns:dt="urn:schemas-microsoft-com:datatypes"><Description dt:dt="string">E-Prime Primary Realtime Clock</Description><StartTime><Timestamp dt:dt="int">0</Timestamp><DateUtc dt:dt="string">2016-06-09T20:59:51Z</DateUtc></StartTime><FrequencyChanges><FrequencyChange><Frequency dt:dt="r8">3507724</Frequency><Timestamp dt:dt="r8">57649893470</Timestamp><Current dt:dt="r8">0</Current><DateUtc dt:dt="string">2016-06-09T20:59:51Z</DateUtc></FrequencyChange></FrequencyChanges></Clock>\n	Hungry_Donkey_bar_English_2-156-1	60.018	25	1.0.0.18	1	1816005888	Standard	2.0.10.353	2.0.10.353	06-09-2016	6/9/2016 8:59:51 PM	16:59:51	2.0.10.248	5	Bar37-63.bmp	41	4	?	8r_4g.bmp	50r_4g.bmp	1r_2g.bmp	10r_2g.bmp				10r_2g.bmp	TrialProc	TrialList	0	cvbn	-999999	16	93338	0	n	1644	94982	14	-20	-6	-6	4	2	-6	1	1	5	-8	-50	-1	-10	4	4	2	2	-10	2
Hungry_Donkey_bar_English_2	156	1	<?xml version="1.0"?>\n<Clock xmlns:dt="urn:schemas-microsoft-com:datatypes"><Description dt:dt="string">E-Prime Primary Realtime Clock</Description><StartTime><Timestamp dt:dt="int">0</Timestamp><DateUtc dt:dt="string">2016-06-09T20:59:51Z</DateUtc></StartTime><FrequencyChanges><FrequencyChange><Frequency dt:dt="r8">3507724</Frequency><Timestamp dt:dt="r8">57649893470</Timestamp><Current dt:dt="r8">0</Current><DateUtc dt:dt="string">2016-06-09T20:59:51Z</DateUtc></FrequencyChange></FrequencyChanges></Clock>\n	Hungry_Donkey_bar_English_2-156-1	60.018	25	1.0.0.18	1	1816005888	Standard	2.0.10.353	2.0.10.353	06-09-2016	6/9/2016 8:59:51 PM	16:59:51	2.0.10.248	6	Bar50-50.bmp	47	2	?	0r_4g.bmp	0r_4g.bmp	0r_2g.bmp	0r_2g.bmp		0r_4g.bmp			TrialProc	TrialList	0	cvbn	-999999	16	97020	0	v	394	97414	18	-20	-2	-6	8	2	-6	8	1	6	0	0	0	0	4	4	2	2	0	4
Hungry_Donkey_bar_English_2	156	1	<?xml version="1.0"?>\n<Clock xmlns:dt="urn:schemas-microsoft-com:datatypes"><Description dt:dt="string">E-Prime Primary Realtime Clock</Description><StartTime><Timestamp dt:dt="int">0</Timestamp><DateUtc dt:dt="string">2016-06-09T20:59:51Z</DateUtc></StartTime><FrequencyChanges><FrequencyChange><Frequency dt:dt="r8">3507724</Frequency><Timestamp dt:dt="r8">57649893470</Timestamp><Current dt:dt="r8">0</Current><DateUtc dt:dt="string">2016-06-09T20:59:51Z</DateUtc></FrequencyChange></FrequencyChanges></Clock>\n	Hungry_Donkey_bar_English_2-156-1	60.018	25	1.0.0.18	1	1816005888	Standard	2.0.10.353	2.0.10.353	06-09-2016	6/9/2016 8:59:51 PM	16:59:51	2.0.10.248	7	Bar37-63.bmp	41	1	?	12r_4g.bmp	0r_4g.bmp	3r_2g.bmp	0r_2g.bmp	12r_4g.bmp				TrialProc	TrialList	0	cvbn	-999999	16	99453	0	c	1961	101414	22	-32	-10	-14	8	2	-6	5	1	7	-12	0	-3	0	4	4	2	2	-12	4
Hungry_Donkey_bar_English_2	156	1	<?xml version="1.0"?>\n<Clock xmlns:dt="urn:schemas-microsoft-com:datatypes"><Description dt:dt="string">E-Prime Primary Realtime Clock</Description><StartTime><Timestamp dt:dt="int">0</Timestamp><DateUtc dt:dt="string">2016-06-09T20:59:51Z</DateUtc></StartTime><FrequencyChanges><FrequencyChange><Frequency dt:dt="r8">3507724</Frequency><Timestamp dt:dt="r8">57649893470</Timestamp><Current dt:dt="r8">0</Current><DateUtc dt:dt="string">2016-06-09T20:59:51Z</DateUtc></FrequencyChange></FrequencyChanges></Clock>\n	Hungry_Donkey_bar_English_2-156-1	60.018	25	1.0.0.18	1	1816005888	Standard	2.0.10.353	2.0.10.353	06-09-2016	6/9/2016 8:59:51 PM	16:59:51	2.0.10.248	8	Bar37-63.bmp	43	3	?	0r_4g.bmp	0r_4g.bmp	0r_2g.bmp	0r_2g.bmp			0r_2g.bmp		TrialProc	TrialList	0	cvbn	-999999	16	103452	0	b	666	104118	24	-32	-8	-14	8	4	-6	10	1	8	0	0	0	0	4	4	2	2	0	2
Hungry_Donkey_bar_English_2	156	1	<?xml version="1.0"?>\n<Clock xmlns:dt="urn:schemas-microsoft-com:datatypes"><Description dt:dt="string">E-Prime Primary Realtime Clock</Description><StartTime><Timestamp dt:dt="int">0</Timestamp><DateUtc dt:dt="string">2016-06-09T20:59:51Z</DateUtc></StartTime><FrequencyChanges><FrequencyChange><Frequency dt:dt="r8">3507724</Frequency><Timestamp dt:dt="r8">57649893470</Timestamp><Current dt:dt="r8">0</Current><DateUtc dt:dt="string">2016-06-09T20:59:51Z</DateUtc></FrequencyChange></FrequencyChanges></Clock>\n	Hungry_Donkey_bar_English_2-156-1	60.018	25	1.0.0.18	1	1816005888	Standard	2.0.10.353	2.0.10.353	06-09-2016	6/9/2016 8:59:51 PM	16:59:51	2.0.10.248	9	Bar50-50.bmp	45	4	?	0r_4g.bmp	0r_4g.bmp	0r_2g.bmp	0r_2g.bmp				0r_2g.bmp	TrialProc	TrialList	0	cvbn	-999999	16	106151	0	n	814	106965	26	-32	-6	-14	8	4	-4	6	1	9	0	0	0	0	4	4	2	2	0	2
Hungry_Donkey_bar_English_2	156	1	<?xml version="1.0"?>\n<Clock xmlns:dt="urn:schemas-microsoft-com:datatypes"><Description dt:dt="string">E-Prime Primary Realtime Clock</Description><StartTime><Timestamp dt:dt="int">0</Timestamp><DateUtc dt:dt="string">2016-06-09T20:59:51Z</DateUtc></StartTime><FrequencyChanges><FrequencyChange><Frequency dt:dt="r8">3507724</Frequency><Timestamp dt:dt="r8">57649893470</Timestamp><Current dt:dt="r8">0</Current><DateUtc dt:dt="string">2016-06-09T20:59:51Z</DateUtc></FrequencyChange></FrequencyChanges></Clock>\n	Hungry_Donkey_bar_English_2-156-1	60.018	25	1.0.0.18	1	1816005888	Standard	2.0.10.353	2.0.10.353	06-09-2016	6/9/2016 8:59:51 PM	16:59:51	2.0.10.248	10	Bar50-50.bmp	45	3	?	10r_4g.bmp	0r_4g.bmp	2r_2g.bmp	0r_2g.bmp			2r_2g.bmp		TrialProc	TrialList	0	cvbn	-999999	16	109000	0	b	509	109509	28	-34	-6	-14	8	4	-4	4	1	10	-10	0	-2	0	4	4	2	2	-2	2
Hungry_Donkey_bar_English_2	156	1	<?xml version="1.0"?>\n<Clock xmlns:dt="urn:schemas-microsoft-com:datatypes"><Description dt:dt="string">E-Prime Primary Realtime Clock</Description><StartTime><Timestamp dt:dt="int">0</Timestamp><DateUtc dt:dt="string">2016-06-09T20:59:51Z</DateUtc></StartTime><FrequencyChanges><FrequencyChange><Frequency dt:dt="r8">3507724</Frequency><Timestamp dt:dt="r8">57649893470</Timestamp><Current dt:dt="r8">0</Current><DateUtc dt:dt="string">2016-06-09T20:59:51Z</DateUtc></FrequencyChange></FrequencyChanges></Clock>\n	Hungry_Donkey_bar_English_2-156-1	60.018	25	1.0.0.18	1	1816005888	Standard	2.0.10.353	2.0.10.353	06-09-2016	6/9/2016 8:59:51 PM	16:59:51	2.0.10.248	11	Bar50-50.bmp	48	2	?	10r_4g.bmp	0r_4g.bmp	2r_2g.bmp	0r_2g.bmp		0r_4g.bmp			TrialProc	TrialList	0	cvbn	-999999	16	111549	0	v	488	112037	32	-34	-2	-14	12	4	-4	2	2	11	-10	0	-2	0	4	4	2	2	0	4
Hungry_Donkey_bar_English_2	156	1	<?xml version="1.0"?>\n<Clock xmlns:dt="urn:schemas-microsoft-com:datatypes"><Description dt:dt="string">E-Prime Primary Realtime Clock</Description><StartTime><Timestamp dt:dt="int">0</Timestamp><DateUtc dt:dt="string">2016-06-09T20:59:51Z</DateUtc></StartTime><FrequencyChanges><FrequencyChange><Frequency dt:dt="r8">3507724</Frequency><Timestamp dt:dt="r8">57649893470</Timestamp><Current dt:dt="r8">0</Current><DateUtc dt:dt="string">2016-06-09T20:59:51Z</DateUtc></FrequencyChange></FrequencyChanges></Clock>\n	Hungry_Donkey_bar_English_2-156-1	60.018	25	1.0.0.18	1	1816005888	Standard	2.0.10.353	2.0.10.353	06-09-2016	6/9/2016 8:59:51 PM	16:59:51	2.0.10.248	12	Bar50-50.bmp	49	3	?	8r_4g.bmp	50r_4g.bmp	1r_2g.bmp	10r_2g.bmp			1r_2g.bmp		TrialProc	TrialList	0	cvbn	-999999	16	114065	0	b	772	114837	34	-35	-1	-14	12	5	-4	1	2	12	-8	-50	-1	-10	4	4	2	2	-1	2
Hungry_Donkey_bar_English_2	156	1	<?xml version="1.0"?>\n<Clock xmlns:dt="urn:schemas-microsoft-com:datatypes"><Description dt:dt="string">E-Prime Primary Realtime Clock</Description><StartTime><Timestamp dt:dt="int">0</Timestamp><DateUtc dt:dt="string">2016-06-09T20:59:51Z</DateUtc></StartTime><FrequencyChanges><FrequencyChange><Frequency dt:dt="r8">3507724</Frequency><Timestamp dt:dt="r8">57649893470</Timestamp><Current dt:dt="r8">0</Current><DateUtc dt:dt="string">2016-06-09T20:59:51Z</DateUtc></FrequencyChange></FrequencyChanges></Clock>\n	Hungry_Donkey_bar_English_2-156-1	60.018	25	1.0.0.18	1	1816005888	Standard	2.0.10.353	2.0.10.353	06-09-2016	6/9/2016 8:59:51 PM	16:59:51	2.0.10.248	13	Bar50-50.bmp	52	1	?	0r_4g.bmp	0r_4g.bmp	0r_2g.bmp	0r_2g.bmp	0r_4g.bmp				TrialProc	TrialList	0	cvbn	-999999	16	116881	0	c	1012	117893	38	-35	3	-10	12	5	-4	8	2	13	0	0	0	0	4	4	2	2	0	4
Hungry_Donkey_bar_English_2	156	1	<?xml version="1.0"?>\n<Clock xmlns:dt="urn:schemas-microsoft-com:datatypes"><Description dt:dt="string">E-Prime Primary Realtime Clock</Description><StartTime><Timestamp dt:dt="int">0</Timestamp><DateUtc dt:dt="string">2016-06-09T20:59:51Z</DateUtc></StartTime><FrequencyChanges><FrequencyChange><Frequency dt:dt="r8">3507724</Frequency><Timestamp dt:dt="r8">57649893470</Timestamp><Current dt:dt="r8">0</Current><DateUtc dt:dt="string">2016-06-09T20:59:51Z</DateUtc></FrequencyChange></FrequencyChanges></Clock>\n	Hungry_Donkey_bar_English_2-156-1	60.018	25	1.0.0.18	1	1816005888	Standard	2.0.10.353	2.0.10.353	06-09-2016	6/9/2016 8:59:51 PM	16:59:51	2.0.10.248	14	Bar50-50.bmp	53	4	?	0r_4g.bmp	0r_4g.bmp	0r_2g.bmp	0r_2g.bmp				0r_2g.bmp	TrialProc	TrialList	0	cvbn	-999999	16	119930	0	n	379	120309	40	-35	5	-10	12	5	-2	6	2	14	0	0	0	0	4	4	2	2	0	2
Hungry_Donkey_bar_English_2	156	1	<?xml version="1.0"?>\n<Clock xmlns:dt="urn:schemas-microsoft-com:datatypes"><Description dt:dt="string">E-Prime Primary Realtime Clock</Description><StartTime><Timestamp dt:dt="int">0</Timestamp><DateUtc dt:dt="string">2016-06-09T20:59:51Z</DateUtc></StartTime><FrequencyChanges><FrequencyChange><Frequency dt:dt="r8">3507724</Frequency><Timestamp dt:dt="r8">57649893470</Timestamp><Current dt:dt="r8">0</Current><DateUtc dt:dt="string">2016-06-09T20:59:51Z</DateUtc></FrequencyChange></FrequencyChanges></Clock>\n	Hungry_Donkey_bar_English_2-156-1	60.018	25	1.0.0.18	1	1816005888	Standard	2.0.10.353	2.0.10.353	06-09-2016	6/9/2016 8:59:51 PM	16:59:51	2.0.10.248	15	Bar50-50.bmp	52	3	?	12r_4g.bmp	0r_4g.bmp	3r_2g.bmp	0r_2g.bmp			3r_2g.bmp		TrialProc	TrialList	0	cvbn	-999999	16	122346	0	b	378	122724	42	-38	4	-10	12	4	-2	5	2	15	-12	0	-3	0	4	4	2	2	-3	2
Hungry_Donkey_bar_English_2	156	1	<?xml version="1.0"?>\n<Clock xmlns:dt="urn:schemas-microsoft-com:datatypes"><Description dt:dt="string">E-Prime Primary Realtime Clock</Description><StartTime><Timestamp dt:dt="int">0</Timestamp><DateUtc dt:dt="string">2016-06-09T20:59:51Z</DateUtc></StartTime><FrequencyChanges><FrequencyChange><Frequency dt:dt="r8">3507724</Frequency><Timestamp dt:dt="r8">57649893470</Timestamp><Current dt:dt="r8">0</Current><DateUtc dt:dt="string">2016-06-09T20:59:51Z</DateUtc></FrequencyChange></FrequencyChanges></Clock>\n	Hungry_Donkey_bar_English_2-156-1	60.018	25	1.0.0.18	1	1816005888	Standard	2.0.10.353	2.0.10.353	06-09-2016	6/9/2016 8:59:51 PM	16:59:51	2.0.10.248	16	Bar50-50.bmp	55	2	?	0r_4g.bmp	0r_4g.bmp	0r_2g.bmp	0r_2g.bmp		0r_4g.bmp			TrialProc	TrialList	0	cvbn	-999999	16	124762	0	v	474	125236	46	-38	8	-10	16	4	-2	10	2	16	0	0	0	0	4	4	2	2	0	4
Hungry_Donkey_bar_English_2	156	1	<?xml version="1.0"?>\n<Clock xmlns:dt="urn:schemas-microsoft-com:datatypes"><Description dt:dt="string">E-Prime Primary Realtime Clock</Description><StartTime><Timestamp dt:dt="int">0</Timestamp><DateUtc dt:dt="string">2016-06-09T20:59:51Z</DateUtc></StartTime><FrequencyChanges><FrequencyChange><Frequency dt:dt="r8">3507724</Frequency><Timestamp dt:dt="r8">57649893470</Timestamp><Current dt:dt="r8">0</Current><DateUtc dt:dt="string">2016-06-09T20:59:51Z</DateUtc></FrequencyChange></FrequencyChanges></Clock>\n	Hungry_Donkey_bar_English_2-156-1	60.018	25	1.0.0.18	1	1816005888	Standard	2.0.10.353	2.0.10.353	06-09-2016	6/9/2016 8:59:51 PM	16:59:51	2.0.10.248	17	Bar50-50.bmp	56	4	?	10r_4g.bmp	0r_4g.bmp	2r_2g.bmp	0r_2g.bmp				0r_2g.bmp	TrialProc	TrialList	0	cvbn	-999999	16	127261	0	n	327	127588	48	-38	10	-10	16	4	0	4	2	17	-10	0	-2	0	4	4	2	2	0	2
Hungry_Donkey_bar_English_2	156	1	<?xml version="1.0"?>\n<Clock xmlns:dt="urn:schemas-microsoft-com:datatypes"><Description dt:dt="string">E-Prime Primary Realtime Clock</Description><StartTime><Timestamp dt:dt="int">0</Timestamp><DateUtc dt:dt="string">2016-06-09T20:59:51Z</DateUtc></StartTime><FrequencyChanges><FrequencyChange><Frequency dt:dt="r8">3507724</Frequency><Timestamp dt:dt="r8">57649893470</Timestamp><Current dt:dt="r8">0</Current><DateUtc dt:dt="string">2016-06-09T20:59:51Z</DateUtc></FrequencyChange></FrequencyChanges></Clock>\n	Hungry_Donkey_bar_English_2-156-1	60.018	25	1.0.0.18	1	1816005888	Standard	2.0.10.353	2.0.10.353	06-09-2016	6/9/2016 8:59:51 PM	16:59:51	2.0.10.248	18	Bar63-37.bmp	57	3	?	0r_4g.bmp	0r_4g.bmp	0r_2g.bmp	0r_2g.bmp			0r_2g.bmp		TrialProc	TrialList	0	cvbn	-999999	16	129627	0	b	441	130068	50	-38	12	-10	16	6	0	7	2	18	0	0	0	0	4	4	2	2	0	2
Hungry_Donkey_bar_English_2	156	1	<?xml version="1.0"?>\n<Clock xmlns:dt="urn:schemas-microsoft-com:datatypes"><Description dt:dt="string">E-Prime Primary Realtime Clock</Description><StartTime><Timestamp dt:dt="int">0</Timestamp><DateUtc dt:dt="string">2016-06-09T20:59:51Z</DateUtc></StartTime><FrequencyChanges><FrequencyChange><Frequency dt:dt="r8">3507724</Frequency><Timestamp dt:dt="r8">57649893470</Timestamp><Current dt:dt="r8">0</Current><DateUtc dt:dt="string">2016-06-09T20:59:51Z</DateUtc></FrequencyChange></FrequencyChanges></Clock>\n	Hungry_Donkey_bar_English_2-156-1	60.018	25	1.0.0.18	1	1816005888	Standard	2.0.10.353	2.0.10.353	06-09-2016	6/9/2016 8:59:51 PM	16:59:51	2.0.10.248	19	Bar63-37.bmp	59	2	?	10r_4g.bmp	0r_4g.bmp	2r_2g.bmp	0r_2g.bmp		0r_4g.bmp			TrialProc	TrialList	0	cvbn	-999999	16	132110	0	v	374	132484	54	-38	16	-10	20	6	0	3	2	19	-10	0	-2	0	4	4	2	2	0	4
Hungry_Donkey_bar_English_2	156	1	<?xml version="1.0"?>\n<Clock xmlns:dt="urn:schemas-microsoft-com:datatypes"><Description dt:dt="string">E-Prime Primary Realtime Clock</Description><StartTime><Timestamp dt:dt="int">0</Timestamp><DateUtc dt:dt="string">2016-06-09T20:59:51Z</DateUtc></StartTime><FrequencyChanges><FrequencyChange><Frequency dt:dt="r8">3507724</Frequency><Timestamp dt:dt="r8">57649893470</Timestamp><Current dt:dt="r8">0</Current><DateUtc dt:dt="string">2016-06-09T20:59:51Z</DateUtc></FrequencyChange></FrequencyChanges></Clock>\n	Hungry_Donkey_bar_English_2-156-1	60.018	25	1.0.0.18	1	1816005888	Standard	2.0.10.353	2.0.10.353	06-09-2016	6/9/2016 8:59:51 PM	16:59:51	2.0.10.248	20	Bar63-37.bmp	60	2	?	0r_4g.bmp	0r_4g.bmp	0r_2g.bmp	0r_2g.bmp		0r_4g.bmp			TrialProc	TrialList	0	cvbn	-999999	16	134509	0	v	615	135124	58	-38	20	-10	24	6	0	9	2	20	0	0	0	0	4	4	2	2	0	4
Hungry_Donkey_bar_English_2	156	1	<?xml version="1.0"?>\n<Clock xmlns:dt="urn:schemas-microsoft-com:datatypes"><Description dt:dt="string">E-Prime Primary Realtime Clock</Description><StartTime><Timestamp dt:dt="int">0</Timestamp><DateUtc dt:dt="string">2016-06-09T20:59:51Z</DateUtc></StartTime><FrequencyChanges><FrequencyChange><Frequency dt:dt="r8">3507724</Frequency><Timestamp dt:dt="r8">57649893470</Timestamp><Current dt:dt="r8">0</Current><DateUtc dt:dt="string">2016-06-09T20:59:51Z</DateUtc></FrequencyChange></FrequencyChanges></Clock>\n	Hungry_Donkey_bar_English_2-156-1	60.018	25	1.0.0.18	1	1816005888	Standard	2.0.10.353	2.0.10.353	06-09-2016	6/9/2016 8:59:51 PM	16:59:51	2.0.10.248	21	Bar63-37.bmp	61	4	?	0r_4g.bmp	0r_4g.bmp	0r_2g.bmp	0r_2g.bmp				0r_2g.bmp	TrialProc	TrialList	0	cvbn	-999999	16	137158	0	n	414	137572	60	-38	22	-10	24	6	2	6	3	21	0	0	0	0	4	4	2	2	0	2
Hungry_Donkey_bar_English_2	156	1	<?xml version="1.0"?>\n<Clock xmlns:dt="urn:schemas-microsoft-com:datatypes"><Description dt:dt="string">E-Prime Primary Realtime Clock</Description><StartTime><Timestamp dt:dt="int">0</Timestamp><DateUtc dt:dt="string">2016-06-09T20:59:51Z</DateUtc></StartTime><FrequencyChanges><FrequencyChange><Frequency dt:dt="r8">3507724</Frequency><Timestamp dt:dt="r8">57649893470</Timestamp><Current dt:dt="r8">0</Current><DateUtc dt:dt="string">2016-06-09T20:59:51Z</DateUtc></FrequencyChange></FrequencyChanges></Clock>\n	Hungry_Donkey_bar_English_2-156-1	60.018	25	1.0.0.18	1	1816005888	Standard	2.0.10.353	2.0.10.353	06-09-2016	6/9/2016 8:59:51 PM	16:59:51	2.0.10.248	22	Bar63-37.bmp	61	3	?	10r_4g.bmp	0r_4g.bmp	2r_2g.bmp	0r_2g.bmp			2r_2g.bmp		TrialProc	TrialList	0	cvbn	-999999	17	139608	0	b	395	140003	62	-40	22	-10	24	6	2	2	3	22	-10	0	-2	0	4	4	2	2	-2	2
Hungry_Donkey_bar_English_2	156	1	<?xml version="1.0"?>\n<Clock xmlns:dt="urn:schemas-microsoft-com:datatypes"><Description dt:dt="string">E-Prime Primary Realtime Clock</Description><StartTime><Timestamp dt:dt="int">0</Timestamp><DateUtc dt:dt="string">2016-06-09T20:59:51Z</DateUtc></StartTime><FrequencyChanges><FrequencyChange><Frequency dt:dt="r8">3507724</Frequency><Timestamp dt:dt="r8">57649893470</Timestamp><Current dt:dt="r8">0</Current><DateUtc dt:dt="string">2016-06-09T20:59:51Z</DateUtc></FrequencyChange></FrequencyChanges></Clock>\n	Hungry_Donkey_bar_English_2-156-1	60.018	25	1.0.0.18	1	1816005888	Standard	2.0.10.353	2.0.10.353	06-09-2016	6/9/2016 8:59:51 PM	16:59:51	2.0.10.248	23	Bar37-63.bmp	42	2	?	8r_4g.bmp	50r_4g.bmp	1r_2g.bmp	10r_2g.bmp		50r_4g.bmp			TrialProc	TrialList	0	cvbn	-999999	16	142040	0	v	379	142419	66	-90	-24	-10	-22	6	2	1	3	23	-8	-50	-1	-10	4	4	2	2	-50	4
Hungry_Donkey_bar_English_2	156	1	<?xml version="1.0"?>\n<Clock xmlns:dt="urn:schemas-microsoft-com:datatypes"><Description dt:dt="string">E-Prime Primary Realtime Clock</Description><StartTime><Timestamp dt:dt="int">0</Timestamp><DateUtc dt:dt="string">2016-06-09T20:59:51Z</DateUtc></StartTime><FrequencyChanges><FrequencyChange><Frequency dt:dt="r8">3507724</Frequency><Timestamp dt:dt="r8">57649893470</Timestamp><Current dt:dt="r8">0</Current><DateUtc dt:dt="string">2016-06-09T20:59:51Z</DateUtc></FrequencyChange></FrequencyChanges></Clock>\n	Hungry_Donkey_bar_English_2-156-1	60.018	25	1.0.0.18	1	1816005888	Standard	2.0.10.353	2.0.10.353	06-09-2016	6/9/2016 8:59:51 PM	16:59:51	2.0.10.248	24	Bar37-63.bmp	43	4	?	10r_4g.bmp	0r_4g.bmp	2r_2g.bmp	0r_2g.bmp				0r_2g.bmp	TrialProc	TrialList	0	cvbn	-999999	16	144456	0	n	443	144899	68	-90	-22	-10	-22	6	4	4	3	24	-10	0	-2	0	4	4	2	2	0	2
Hungry_Donkey_bar_English_2	156	1	<?xml version="1.0"?>\n<Clock xmlns:dt="urn:schemas-microsoft-com:datatypes"><Description dt:dt="string">E-Prime Primary Realtime Clock</Description><StartTime><Timestamp dt:dt="int">0</Timestamp><DateUtc dt:dt="string">2016-06-09T20:59:51Z</DateUtc></StartTime><FrequencyChanges><FrequencyChange><Frequency dt:dt="r8">3507724</Frequency><Timestamp dt:dt="r8">57649893470</Timestamp><Current dt:dt="r8">0</Current><DateUtc dt:dt="string">2016-06-09T20:59:51Z</DateUtc></FrequencyChange></FrequencyChanges></Clock>\n	Hungry_Donkey_bar_English_2-156-1	60.018	25	1.0.0.18	1	1816005888	Standard	2.0.10.353	2.0.10.353	06-09-2016	6/9/2016 8:59:51 PM	16:59:51	2.0.10.248	25	Bar37-63.bmp	42	1	?	10r_4g.bmp	0r_4g.bmp	2r_2g.bmp	0r_2g.bmp	10r_4g.bmp				TrialProc	TrialList	0	cvbn	-999999	16	146939	0	c	456	147395	72	-100	-28	-16	-22	6	4	3	3	25	-10	0	-2	0	4	4	2	2	-10	4
Hungry_Donkey_bar_English_2	156	1	<?xml version="1.0"?>\n<Clock xmlns:dt="urn:schemas-microsoft-com:datatypes"><Description dt:dt="string">E-Prime Primary Realtime Clock</Description><StartTime><Timestamp dt:dt="int">0</Timestamp><DateUtc dt:dt="string">2016-06-09T20:59:51Z</DateUtc></StartTime><FrequencyChanges><FrequencyChange><Frequency dt:dt="r8">3507724</Frequency><Timestamp dt:dt="r8">57649893470</Timestamp><Current dt:dt="r8">0</Current><DateUtc dt:dt="string">2016-06-09T20:59:51Z</DateUtc></FrequencyChange></FrequencyChanges></Clock>\n	Hungry_Donkey_bar_English_2-156-1	60.018	25	1.0.0.18	1	1816005888	Standard	2.0.10.353	2.0.10.353	06-09-2016	6/9/2016 8:59:51 PM	16:59:51	2.0.10.248	26	Bar37-63.bmp	43	3	?	0r_4g.bmp	0r_4g.bmp	0r_2g.bmp	0r_2g.bmp			0r_2g.bmp		TrialProc	TrialList	0	cvbn	-999999	16	149421	0	b	566	149987	74	-100	-26	-16	-22	8	4	9	3	26	0	0	0	0	4	4	2	2	0	2
Hungry_Donkey_bar_English_2	156	1	<?xml version="1.0"?>\n<Clock xmlns:dt="urn:schemas-microsoft-com:datatypes"><Description dt:dt="string">E-Prime Primary Realtime Clock</Description><StartTime><Timestamp dt:dt="int">0</Timestamp><DateUtc dt:dt="string">2016-06-09T20:59:51Z</DateUtc></StartTime><FrequencyChanges><FrequencyChange><Frequency dt:dt="r8">3507724</Frequency><Timestamp dt:dt="r8">57649893470</Timestamp><Current dt:dt="r8">0</Current><DateUtc dt:dt="string">2016-06-09T20:59:51Z</DateUtc></FrequencyChange></FrequencyChanges></Clock>\n	Hungry_Donkey_bar_English_2-156-1	60.018	25	1.0.0.18	1	1816005888	Standard	2.0.10.353	2.0.10.353	06-09-2016	6/9/2016 8:59:51 PM	16:59:51	2.0.10.248	27	Bar50-50.bmp	44	2	?	12r_4g.bmp	0r_4g.bmp	3r_2g.bmp	0r_2g.bmp		0r_4g.bmp			TrialProc	TrialList	0	cvbn	-999999	17	152021	0	v	398	152419	78	-100	-22	-16	-18	8	4	5	3	27	-12	0	-3	0	4	4	2	2	0	4
Hungry_Donkey_bar_English_2	156	1	<?xml version="1.0"?>\n<Clock xmlns:dt="urn:schemas-microsoft-com:datatypes"><Description dt:dt="string">E-Prime Primary Realtime Clock</Description><StartTime><Timestamp dt:dt="int">0</Timestamp><DateUtc dt:dt="string">2016-06-09T20:59:51Z</DateUtc></StartTime><FrequencyChanges><FrequencyChange><Frequency dt:dt="r8">3507724</Frequency><Timestamp dt:dt="r8">57649893470</Timestamp><Current dt:dt="r8">0</Current><DateUtc dt:dt="string">2016-06-09T20:59:51Z</DateUtc></FrequencyChange></FrequencyChanges></Clock>\n	Hungry_Donkey_bar_English_2-156-1	60.018	25	1.0.0.18	1	1816005888	Standard	2.0.10.353	2.0.10.353	06-09-2016	6/9/2016 8:59:51 PM	16:59:51	2.0.10.248	28	Bar50-50.bmp	45	2	?	0r_4g.bmp	0r_4g.bmp	0r_2g.bmp	0r_2g.bmp		0r_4g.bmp			TrialProc	TrialList	0	cvbn	-999999	16	154453	0	v	637	155090	82	-100	-18	-16	-14	8	4	7	3	28	0	0	0	0	4	4	2	2	0	4
Hungry_Donkey_bar_English_2	156	1	<?xml version="1.0"?>\n<Clock xmlns:dt="urn:schemas-microsoft-com:datatypes"><Description dt:dt="string">E-Prime Primary Realtime Clock</Description><StartTime><Timestamp dt:dt="int">0</Timestamp><DateUtc dt:dt="string">2016-06-09T20:59:51Z</DateUtc></StartTime><FrequencyChanges><FrequencyChange><Frequency dt:dt="r8">3507724</Frequency><Timestamp dt:dt="r8">57649893470</Timestamp><Current dt:dt="r8">0</Current><DateUtc dt:dt="string">2016-06-09T20:59:51Z</DateUtc></FrequencyChange></FrequencyChanges></Clock>\n	Hungry_Donkey_bar_English_2-156-1	60.018	25	1.0.0.18	1	1816005888	Standard	2.0.10.353	2.0.10.353	06-09-2016	6/9/2016 8:59:51 PM	16:59:51	2.0.10.248	29	Bar50-50.bmp	46	1	?	0r_4g.bmp	0r_4g.bmp	0r_2g.bmp	0r_2g.bmp	0r_4g.bmp				TrialProc	TrialList	0	cvbn	-999999	16	157119	0	c	483	157602	86	-100	-14	-12	-14	8	4	8	3	29	0	0	0	0	4	4	2	2	0	4
Hungry_Donkey_bar_English_2	156	1	<?xml version="1.0"?>\n<Clock xmlns:dt="urn:schemas-microsoft-com:datatypes"><Description dt:dt="string">E-Prime Primary Realtime Clock</Description><StartTime><Timestamp dt:dt="int">0</Timestamp><DateUtc dt:dt="string">2016-06-09T20:59:51Z</DateUtc></StartTime><FrequencyChanges><FrequencyChange><Frequency dt:dt="r8">3507724</Frequency><Timestamp dt:dt="r8">57649893470</Timestamp><Current dt:dt="r8">0</Current><DateUtc dt:dt="string">2016-06-09T20:59:51Z</DateUtc></FrequencyChange></FrequencyChanges></Clock>\n	Hungry_Donkey_bar_English_2-156-1	60.018	25	1.0.0.18	1	1816005888	Standard	2.0.10.353	2.0.10.353	06-09-2016	6/9/2016 8:59:51 PM	16:59:51	2.0.10.248	30	Bar50-50.bmp	47	4	?	0r_4g.bmp	0r_4g.bmp	0r_2g.bmp	0r_2g.bmp				0r_2g.bmp	TrialProc	TrialList	0	cvbn	-999999	16	159635	0	n	367	160002	88	-100	-12	-12	-14	8	6	10	3	30	0	0	0	0	4	4	2	2	0	2
Hungry_Donkey_bar_English_2	156	1	<?xml version="1.0"?>\n<Clock xmlns:dt="urn:schemas-microsoft-com:datatypes"><Description dt:dt="string">E-Prime Primary Realtime Clock</Description><StartTime><Timestamp dt:dt="int">0</Timestamp><DateUtc dt:dt="string">2016-06-09T20:59:51Z</DateUtc></StartTime><FrequencyChanges><FrequencyChange><Frequency dt:dt="r8">3507724</Frequency><Timestamp dt:dt="r8">57649893470</Timestamp><Current dt:dt="r8">0</Current><DateUtc dt:dt="string">2016-06-09T20:59:51Z</DateUtc></FrequencyChange></FrequencyChanges></Clock>\n	Hungry_Donkey_bar_English_2-156-1	60.018	25	1.0.0.18	1	1816005888	Standard	2.0.10.353	2.0.10.353	06-09-2016	6/9/2016 8:59:51 PM	16:59:51	2.0.10.248	31	Bar50-50.bmp	47	3	?	8r_4g.bmp	50r_4g.bmp	1r_2g.bmp	10r_2g.bmp			1r_2g.bmp		TrialProc	TrialList	0	cvbn	-999999	16	162034	0	b	384	162418	90	-101	-11	-12	-14	9	6	1	4	31	-8	-50	-1	-10	4	4	2	2	-1	2
Hungry_Donkey_bar_English_2	156	1	<?xml version="1.0"?>\n<Clock xmlns:dt="urn:schemas-microsoft-com:datatypes"><Description dt:dt="string">E-Prime Primary Realtime Clock</Description><StartTime><Timestamp dt:dt="int">0</Timestamp><DateUtc dt:dt="string">2016-06-09T20:59:51Z</DateUtc></StartTime><FrequencyChanges><FrequencyChange><Frequency dt:dt="r8">3507724</Frequency><Timestamp dt:dt="r8">57649893470</Timestamp><Current dt:dt="r8">0</Current><DateUtc dt:dt="string">2016-06-09T20:59:51Z</DateUtc></FrequencyChange></FrequencyChanges></Clock>\n	Hungry_Donkey_bar_English_2-156-1	60.018	25	1.0.0.18	1	1816005888	Standard	2.0.10.353	2.0.10.353	06-09-2016	6/9/2016 8:59:51 PM	16:59:51	2.0.10.248	32	Bar50-50.bmp	48	4	?	0r_4g.bmp	0r_4g.bmp	0r_2g.bmp	0r_2g.bmp				0r_2g.bmp	TrialProc	TrialList	0	cvbn	-999999	16	164450	0	n	720	165170	92	-101	-9	-12	-14	9	8	7	4	32	0	0	0	0	4	4	2	2	0	2
Hungry_Donkey_bar_English_2	156	1	<?xml version="1.0"?>\n<Clock xmlns:dt="urn:schemas-microsoft-com:datatypes"><Description dt:dt="string">E-Prime Primary Realtime Clock</Description><StartTime><Timestamp dt:dt="int">0</Timestamp><DateUtc dt:dt="string">2016-06-09T20:59:51Z</DateUtc></StartTime><FrequencyChanges><FrequencyChange><Frequency dt:dt="r8">3507724</Frequency><Timestamp dt:dt="r8">57649893470</Timestamp><Current dt:dt="r8">0</Current><DateUtc dt:dt="string">2016-06-09T20:59:51Z</DateUtc></FrequencyChange></FrequencyChanges></Clock>\n	Hungry_Donkey_bar_English_2-156-1	60.018	25	1.0.0.18	1	1816005888	Standard	2.0.10.353	2.0.10.353	06-09-2016	6/9/2016 8:59:51 PM	16:59:51	2.0.10.248	33	Bar50-50.bmp	49	2	?	0r_4g.bmp	0r_4g.bmp	0r_2g.bmp	0r_2g.bmp		0r_4g.bmp			TrialProc	TrialList	0	cvbn	-999999	16	167199	0	v	323	167522	96	-101	-5	-12	-10	9	8	10	4	33	0	0	0	0	4	4	2	2	0	4
Hungry_Donkey_bar_English_2	156	1	<?xml version="1.0"?>\n<Clock xmlns:dt="urn:schemas-microsoft-com:datatypes"><Description dt:dt="string">E-Prime Primary Realtime Clock</Description><StartTime><Timestamp dt:dt="int">0</Timestamp><DateUtc dt:dt="string">2016-06-09T20:59:51Z</DateUtc></StartTime><FrequencyChanges><FrequencyChange><Frequency dt:dt="r8">3507724</Frequency><Timestamp dt:dt="r8">57649893470</Timestamp><Current dt:dt="r8">0</Current><DateUtc dt:dt="string">2016-06-09T20:59:51Z</DateUtc></FrequencyChange></FrequencyChanges></Clock>\n	Hungry_Donkey_bar_English_2-156-1	60.018	25	1.0.0.18	1	1816005888	Standard	2.0.10.353	2.0.10.353	06-09-2016	6/9/2016 8:59:51 PM	16:59:51	2.0.10.248	34	Bar50-50.bmp	50	2	?	10r_4g.bmp	0r_4g.bmp	2r_2g.bmp	0r_2g.bmp		0r_4g.bmp			TrialProc	TrialList	0	cvbn	-999999	16	169549	0	v	389	169938	100	-101	-1	-12	-6	9	8	4	4	34	-10	0	-2	0	4	4	2	2	0	4
Hungry_Donkey_bar_English_2	156	1	<?xml version="1.0"?>\n<Clock xmlns:dt="urn:schemas-microsoft-com:datatypes"><Description dt:dt="string">E-Prime Primary Realtime Clock</Description><StartTime><Timestamp dt:dt="int">0</Timestamp><DateUtc dt:dt="string">2016-06-09T20:59:51Z</DateUtc></StartTime><FrequencyChanges><FrequencyChange><Frequency dt:dt="r8">3507724</Frequency><Timestamp dt:dt="r8">57649893470</Timestamp><Current dt:dt="r8">0</Current><DateUtc dt:dt="string">2016-06-09T20:59:51Z</DateUtc></FrequencyChange></FrequencyChanges></Clock>\n	Hungry_Donkey_bar_English_2-156-1	60.018	25	1.0.0.18	1	1816005888	Standard	2.0.10.353	2.0.10.353	06-09-2016	6/9/2016 8:59:51 PM	16:59:51	2.0.10.248	35	Bar50-50.bmp	51	1	?	0r_4g.bmp	0r_4g.bmp	0r_2g.bmp	0r_2g.bmp	0r_4g.bmp				TrialProc	TrialList	0	cvbn	-999999	17	171965	0	c	356	172321	104	-101	3	-8	-6	9	8	9	4	35	0	0	0	0	4	4	2	2	0	4
Hungry_Donkey_bar_English_2	156	1	<?xml version="1.0"?>\n<Clock xmlns:dt="urn:schemas-microsoft-com:datatypes"><Description dt:dt="string">E-Prime Primary Realtime Clock</Description><StartTime><Timestamp dt:dt="int">0</Timestamp><DateUtc dt:dt="string">2016-06-09T20:59:51Z</DateUtc></StartTime><FrequencyChanges><FrequencyChange><Frequency dt:dt="r8">3507724</Frequency><Timestamp dt:dt="r8">57649893470</Timestamp><Current dt:dt="r8">0</Current><DateUtc dt:dt="string">2016-06-09T20:59:51Z</DateUtc></FrequencyChange></FrequencyChanges></Clock>\n	Hungry_Donkey_bar_English_2-156-1	60.018	25	1.0.0.18	1	1816005888	Standard	2.0.10.353	2.0.10.353	06-09-2016	6/9/2016 8:59:51 PM	16:59:51	2.0.10.248	36	Bar50-50.bmp	51	3	?	10r_4g.bmp	0r_4g.bmp	2r_2g.bmp	0r_2g.bmp			2r_2g.bmp		TrialProc	TrialList	0	cvbn	-999999	16	174364	0	b	357	174721	106	-103	3	-8	-6	9	8	2	4	36	-10	0	-2	0	4	4	2	2	-2	2
Hungry_Donkey_bar_English_2	156	1	<?xml version="1.0"?>\n<Clock xmlns:dt="urn:schemas-microsoft-com:datatypes"><Description dt:dt="string">E-Prime Primary Realtime Clock</Description><StartTime><Timestamp dt:dt="int">0</Timestamp><DateUtc dt:dt="string">2016-06-09T20:59:51Z</DateUtc></StartTime><FrequencyChanges><FrequencyChange><Frequency dt:dt="r8">3507724</Frequency><Timestamp dt:dt="r8">57649893470</Timestamp><Current dt:dt="r8">0</Current><DateUtc dt:dt="string">2016-06-09T20:59:51Z</DateUtc></FrequencyChange></FrequencyChanges></Clock>\n	Hungry_Donkey_bar_English_2-156-1	60.018	25	1.0.0.18	1	1816005888	Standard	2.0.10.353	2.0.10.353	06-09-2016	6/9/2016 8:59:51 PM	16:59:51	2.0.10.248	37	Bar50-50.bmp	52	2	?	10r_4g.bmp	0r_4g.bmp	2r_2g.bmp	0r_2g.bmp		0r_4g.bmp			TrialProc	TrialList	0	cvbn	-999999	16	176746	0	v	375	177121	110	-103	7	-8	-2	9	8	3	4	37	-10	0	-2	0	4	4	2	2	0	4
Hungry_Donkey_bar_English_2	156	1	<?xml version="1.0"?>\n<Clock xmlns:dt="urn:schemas-microsoft-com:datatypes"><Description dt:dt="string">E-Prime Primary Realtime Clock</Description><StartTime><Timestamp dt:dt="int">0</Timestamp><DateUtc dt:dt="string">2016-06-09T20:59:51Z</DateUtc></StartTime><FrequencyChanges><FrequencyChange><Frequency dt:dt="r8">3507724</Frequency><Timestamp dt:dt="r8">57649893470</Timestamp><Current dt:dt="r8">0</Current><DateUtc dt:dt="string">2016-06-09T20:59:51Z</DateUtc></FrequencyChange></FrequencyChanges></Clock>\n	Hungry_Donkey_bar_English_2-156-1	60.018	25	1.0.0.18	1	1816005888	Standard	2.0.10.353	2.0.10.353	06-09-2016	6/9/2016 8:59:51 PM	16:59:51	2.0.10.248	38	Bar50-50.bmp	52	4	?	0r_4g.bmp	0r_4g.bmp	0r_2g.bmp	0r_2g.bmp				0r_2g.bmp	TrialProc	TrialList	0	cvbn	-999999	16	179146	0	n	439	179585	112	-103	9	-8	-2	9	10	8	4	38	0	0	0	0	4	4	2	2	0	2
Hungry_Donkey_bar_English_2	156	1	<?xml version="1.0"?>\n<Clock xmlns:dt="urn:schemas-microsoft-com:datatypes"><Description dt:dt="string">E-Prime Primary Realtime Clock</Description><StartTime><Timestamp dt:dt="int">0</Timestamp><DateUtc dt:dt="string">2016-06-09T20:59:51Z</DateUtc></StartTime><FrequencyChanges><FrequencyChange><Frequency dt:dt="r8">3507724</Frequency><Timestamp dt:dt="r8">57649893470</Timestamp><Current dt:dt="r8">0</Current><DateUtc dt:dt="string">2016-06-09T20:59:51Z</DateUtc></FrequencyChange></FrequencyChanges></Clock>\n	Hungry_Donkey_bar_English_2-156-1	60.018	25	1.0.0.18	1	1816005888	Standard	2.0.10.353	2.0.10.353	06-09-2016	6/9/2016 8:59:51 PM	16:59:51	2.0.10.248	39	Bar50-50.bmp	50	1	?	12r_4g.bmp	0r_4g.bmp	3r_2g.bmp	0r_2g.bmp	12r_4g.bmp				TrialProc	TrialList	0	cvbn	-999999	16	181612	0	c	389	182001	116	-115	1	-16	-2	9	10	5	4	39	-12	0	-3	0	4	4	2	2	-12	4
Hungry_Donkey_bar_English_2	156	1	<?xml version="1.0"?>\n<Clock xmlns:dt="urn:schemas-microsoft-com:datatypes"><Description dt:dt="string">E-Prime Primary Realtime Clock</Description><StartTime><Timestamp dt:dt="int">0</Timestamp><DateUtc dt:dt="string">2016-06-09T20:59:51Z</DateUtc></StartTime><FrequencyChanges><FrequencyChange><Frequency dt:dt="r8">3507724</Frequency><Timestamp dt:dt="r8">57649893470</Timestamp><Current dt:dt="r8">0</Current><DateUtc dt:dt="string">2016-06-09T20:59:51Z</DateUtc></FrequencyChange></FrequencyChanges></Clock>\n	Hungry_Donkey_bar_English_2-156-1	60.018	25	1.0.0.18	1	1816005888	Standard	2.0.10.353	2.0.10.353	06-09-2016	6/9/2016 8:59:51 PM	16:59:51	2.0.10.248	40	Bar50-50.bmp	51	3	?	0r_4g.bmp	0r_4g.bmp	0r_2g.bmp	0r_2g.bmp			0r_2g.bmp		TrialProc	TrialList	0	cvbn	-999999	16	184044	0	b	389	184433	118	-115	3	-16	-2	11	10	6	4	40	0	0	0	0	4	4	2	2	0	2
Hungry_Donkey_bar_English_2	156	1	<?xml version="1.0"?>\n<Clock xmlns:dt="urn:schemas-microsoft-com:datatypes"><Description dt:dt="string">E-Prime Primary Realtime Clock</Description><StartTime><Timestamp dt:dt="int">0</Timestamp><DateUtc dt:dt="string">2016-06-09T20:59:51Z</DateUtc></StartTime><FrequencyChanges><FrequencyChange><Frequency dt:dt="r8">3507724</Frequency><Timestamp dt:dt="r8">57649893470</Timestamp><Current dt:dt="r8">0</Current><DateUtc dt:dt="string">2016-06-09T20:59:51Z</DateUtc></FrequencyChange></FrequencyChanges></Clock>\n	Hungry_Donkey_bar_English_2-156-1	60.018	25	1.0.0.18	1	1816005888	Standard	2.0.10.353	2.0.10.353	06-09-2016	6/9/2016 8:59:51 PM	16:59:51	2.0.10.248	41	Bar50-50.bmp	51	4	?	0r_4g.bmp	0r_4g.bmp	0r_2g.bmp	0r_2g.bmp				0r_2g.bmp	TrialProc	TrialList	0	cvbn	-999999	16	186460	0	n	324	186784	120	-115	5	-16	-2	11	12	8	5	41	0	0	0	0	4	4	2	2	0	2
Hungry_Donkey_bar_English_2	156	1	<?xml version="1.0"?>\n<Clock xmlns:dt="urn:schemas-microsoft-com:datatypes"><Description dt:dt="string">E-Prime Primary Realtime Clock</Description><StartTime><Timestamp dt:dt="int">0</Timestamp><DateUtc dt:dt="string">2016-06-09T20:59:51Z</DateUtc></StartTime><FrequencyChanges><FrequencyChange><Frequency dt:dt="r8">3507724</Frequency><Timestamp dt:dt="r8">57649893470</Timestamp><Current dt:dt="r8">0</Current><DateUtc dt:dt="string">2016-06-09T20:59:51Z</DateUtc></FrequencyChange></FrequencyChanges></Clock>\n	Hungry_Donkey_bar_English_2-156-1	60.018	25	1.0.0.18	1	1816005888	Standard	2.0.10.353	2.0.10.353	06-09-2016	6/9/2016 8:59:51 PM	16:59:51	2.0.10.248	42	Bar50-50.bmp	52	2	?	10r_4g.bmp	0r_4g.bmp	2r_2g.bmp	0r_2g.bmp		0r_4g.bmp			TrialProc	TrialList	0	cvbn	-999999	16	188809	0	v	407	189216	124	-115	9	-16	2	11	12	3	5	42	-10	0	-2	0	4	4	2	2	0	4
Hungry_Donkey_bar_English_2	156	1	<?xml version="1.0"?>\n<Clock xmlns:dt="urn:schemas-microsoft-com:datatypes"><Description dt:dt="string">E-Prime Primary Realtime Clock</Description><StartTime><Timestamp dt:dt="int">0</Timestamp><DateUtc dt:dt="string">2016-06-09T20:59:51Z</DateUtc></StartTime><FrequencyChanges><FrequencyChange><Frequency dt:dt="r8">3507724</Frequency><Timestamp dt:dt="r8">57649893470</Timestamp><Current dt:dt="r8">0</Current><DateUtc dt:dt="string">2016-06-09T20:59:51Z</DateUtc></FrequencyChange></FrequencyChanges></Clock>\n	Hungry_Donkey_bar_English_2-156-1	60.018	25	1.0.0.18	1	1816005888	Standard	2.0.10.353	2.0.10.353	06-09-2016	6/9/2016 8:59:51 PM	16:59:51	2.0.10.248	43	Bar50-50.bmp	53	2	?	0r_4g.bmp	0r_4g.bmp	0r_2g.bmp	0r_2g.bmp		0r_4g.bmp			TrialProc	TrialList	0	cvbn	-999999	16	191242	0	v	390	191632	128	-115	13	-16	6	11	12	10	5	43	0	0	0	0	4	4	2	2	0	4
Hungry_Donkey_bar_English_2	156	1	<?xml version="1.0"?>\n<Clock xmlns:dt="urn:schemas-microsoft-com:datatypes"><Description dt:dt="string">E-Prime Primary Realtime Clock</Description><StartTime><Timestamp dt:dt="int">0</Timestamp><DateUtc dt:dt="string">2016-06-09T20:59:51Z</DateUtc></StartTime><FrequencyChanges><FrequencyChange><Frequency dt:dt="r8">3507724</Frequency><Timestamp dt:dt="r8">57649893470</Timestamp><Current dt:dt="r8">0</Current><DateUtc dt:dt="string">2016-06-09T20:59:51Z</DateUtc></FrequencyChange></FrequencyChanges></Clock>\n	Hungry_Donkey_bar_English_2-156-1	60.018	25	1.0.0.18	1	1816005888	Standard	2.0.10.353	2.0.10.353	06-09-2016	6/9/2016 8:59:51 PM	16:59:51	2.0.10.248	44	Bar50-50.bmp	51	4	?	8r_4g.bmp	50r_4g.bmp	1r_2g.bmp	10r_2g.bmp				10r_2g.bmp	TrialProc	TrialList	0	cvbn	-999999	16	193675	0	n	517	194192	130	-125	5	-16	6	11	4	1	5	44	-8	-50	-1	-10	4	4	2	2	-10	2
Hungry_Donkey_bar_English_2	156	1	<?xml version="1.0"?>\n<Clock xmlns:dt="urn:schemas-microsoft-com:datatypes"><Description dt:dt="string">E-Prime Primary Realtime Clock</Description><StartTime><Timestamp dt:dt="int">0</Timestamp><DateUtc dt:dt="string">2016-06-09T20:59:51Z</DateUtc></StartTime><FrequencyChanges><FrequencyChange><Frequency dt:dt="r8">3507724</Frequency><Timestamp dt:dt="r8">57649893470</Timestamp><Current dt:dt="r8">0</Current><DateUtc dt:dt="string">2016-06-09T20:59:51Z</DateUtc></FrequencyChange></FrequencyChanges></Clock>\n	Hungry_Donkey_bar_English_2-156-1	60.018	25	1.0.0.18	1	1816005888	Standard	2.0.10.353	2.0.10.353	06-09-2016	6/9/2016 8:59:51 PM	16:59:51	2.0.10.248	45	Bar50-50.bmp	49	1	?	12r_4g.bmp	0r_4g.bmp	3r_2g.bmp	0r_2g.bmp	12r_4g.bmp				TrialProc	TrialList	0	cvbn	-999999	16	196224	0	c	416	196640	134	-137	-3	-24	6	11	4	5	5	45	-12	0	-3	0	4	4	2	2	-12	4
Hungry_Donkey_bar_English_2	156	1	<?xml version="1.0"?>\n<Clock xmlns:dt="urn:schemas-microsoft-com:datatypes"><Description dt:dt="string">E-Prime Primary Realtime Clock</Description><StartTime><Timestamp dt:dt="int">0</Timestamp><DateUtc dt:dt="string">2016-06-09T20:59:51Z</DateUtc></StartTime><FrequencyChanges><FrequencyChange><Frequency dt:dt="r8">3507724</Frequency><Timestamp dt:dt="r8">57649893470</Timestamp><Current dt:dt="r8">0</Current><DateUtc dt:dt="string">2016-06-09T20:59:51Z</DateUtc></FrequencyChange></FrequencyChanges></Clock>\n	Hungry_Donkey_bar_English_2-156-1	60.018	25	1.0.0.18	1	1816005888	Standard	2.0.10.353	2.0.10.353	06-09-2016	6/9/2016 8:59:51 PM	16:59:51	2.0.10.248	46	Bar50-50.bmp	50	2	?	0r_4g.bmp	0r_4g.bmp	0r_2g.bmp	0r_2g.bmp		0r_4g.bmp			TrialProc	TrialList	0	cvbn	-999999	16	198673	0	v	447	199120	138	-137	1	-24	10	11	4	9	5	46	0	0	0	0	4	4	2	2	0	4
Hungry_Donkey_bar_English_2	156	1	<?xml version="1.0"?>\n<Clock xmlns:dt="urn:schemas-microsoft-com:datatypes"><Description dt:dt="string">E-Prime Primary Realtime Clock</Description><StartTime><Timestamp dt:dt="int">0</Timestamp><DateUtc dt:dt="string">2016-06-09T20:59:51Z</DateUtc></StartTime><FrequencyChanges><FrequencyChange><Frequency dt:dt="r8">3507724</Frequency><Timestamp dt:dt="r8">57649893470</Timestamp><Current dt:dt="r8">0</Current><DateUtc dt:dt="string">2016-06-09T20:59:51Z</DateUtc></FrequencyChange></FrequencyChanges></Clock>\n	Hungry_Donkey_bar_English_2-156-1	60.018	25	1.0.0.18	1	1816005888	Standard	2.0.10.353	2.0.10.353	06-09-2016	6/9/2016 8:59:51 PM	16:59:51	2.0.10.248	47	Bar50-50.bmp	51	3	?	0r_4g.bmp	0r_4g.bmp	0r_2g.bmp	0r_2g.bmp			0r_2g.bmp		TrialProc	TrialList	0	cvbn	-999999	16	201156	0	b	588	201744	140	-137	3	-24	10	13	4	7	5	47	0	0	0	0	4	4	2	2	0	2
Hungry_Donkey_bar_English_2	156	1	<?xml version="1.0"?>\n<Clock xmlns:dt="urn:schemas-microsoft-com:datatypes"><Description dt:dt="string">E-Prime Primary Realtime Clock</Description><StartTime><Timestamp dt:dt="int">0</Timestamp><DateUtc dt:dt="string">2016-06-09T20:59:51Z</DateUtc></StartTime><FrequencyChanges><FrequencyChange><Frequency dt:dt="r8">3507724</Frequency><Timestamp dt:dt="r8">57649893470</Timestamp><Current dt:dt="r8">0</Current><DateUtc dt:dt="string">2016-06-09T20:59:51Z</DateUtc></FrequencyChange></FrequencyChanges></Clock>\n	Hungry_Donkey_bar_English_2-156-1	60.018	25	1.0.0.18	1	1816005888	Standard	2.0.10.353	2.0.10.353	06-09-2016	6/9/2016 8:59:51 PM	16:59:51	2.0.10.248	48	Bar50-50.bmp	51	4	?	10r_4g.bmp	0r_4g.bmp	2r_2g.bmp	0r_2g.bmp				0r_2g.bmp	TrialProc	TrialList	0	cvbn	-999999	16	203772	0	n	467	204239	142	-137	5	-24	10	13	6	4	5	48	-10	0	-2	0	4	4	2	2	0	2
Hungry_Donkey_bar_English_2	156	1	<?xml version="1.0"?>\n<Clock xmlns:dt="urn:schemas-microsoft-com:datatypes"><Description dt:dt="string">E-Prime Primary Realtime Clock</Description><StartTime><Timestamp dt:dt="int">0</Timestamp><DateUtc dt:dt="string">2016-06-09T20:59:51Z</DateUtc></StartTime><FrequencyChanges><FrequencyChange><Frequency dt:dt="r8">3507724</Frequency><Timestamp dt:dt="r8">57649893470</Timestamp><Current dt:dt="r8">0</Current><DateUtc dt:dt="string">2016-06-09T20:59:51Z</DateUtc></FrequencyChange></FrequencyChanges></Clock>\n	Hungry_Donkey_bar_English_2-156-1	60.018	25	1.0.0.18	1	1816005888	Standard	2.0.10.353	2.0.10.353	06-09-2016	6/9/2016 8:59:51 PM	16:59:51	2.0.10.248	49	Bar50-50.bmp	52	1	?	0r_4g.bmp	0r_4g.bmp	0r_2g.bmp	0r_2g.bmp	0r_4g.bmp				TrialProc	TrialList	0	cvbn	-999999	16	206271	0	c	480	206751	146	-137	9	-20	10	13	6	6	5	49	0	0	0	0	4	4	2	2	0	4
Hungry_Donkey_bar_English_2	156	1	<?xml version="1.0"?>\n<Clock xmlns:dt="urn:schemas-microsoft-com:datatypes"><Description dt:dt="string">E-Prime Primary Realtime Clock</Description><StartTime><Timestamp dt:dt="int">0</Timestamp><DateUtc dt:dt="string">2016-06-09T20:59:51Z</DateUtc></StartTime><FrequencyChanges><FrequencyChange><Frequency dt:dt="r8">3507724</Frequency><Timestamp dt:dt="r8">57649893470</Timestamp><Current dt:dt="r8">0</Current><DateUtc dt:dt="string">2016-06-09T20:59:51Z</DateUtc></FrequencyChange></FrequencyChanges></Clock>\n	Hungry_Donkey_bar_English_2-156-1	60.018	25	1.0.0.18	1	1816005888	Standard	2.0.10.353	2.0.10.353	06-09-2016	6/9/2016 8:59:51 PM	16:59:51	2.0.10.248	50	Bar50-50.bmp	52	3	?	10r_4g.bmp	0r_4g.bmp	2r_2g.bmp	0r_2g.bmp			2r_2g.bmp		TrialProc	TrialList	0	cvbn	-999999	16	208787	0	b	396	209183	148	-139	9	-20	10	13	6	2	5	50	-10	0	-2	0	4	4	2	2	-2	2
Hungry_Donkey_bar_English_2	156	1	<?xml version="1.0"?>\n<Clock xmlns:dt="urn:schemas-microsoft-com:datatypes"><Description dt:dt="string">E-Prime Primary Realtime Clock</Description><StartTime><Timestamp dt:dt="int">0</Timestamp><DateUtc dt:dt="string">2016-06-09T20:59:51Z</DateUtc></StartTime><FrequencyChanges><FrequencyChange><Frequency dt:dt="r8">3507724</Frequency><Timestamp dt:dt="r8">57649893470</Timestamp><Current dt:dt="r8">0</Current><DateUtc dt:dt="string">2016-06-09T20:59:51Z</DateUtc></FrequencyChange></FrequencyChanges></Clock>\n	Hungry_Donkey_bar_English_2-156-1	60.018	25	1.0.0.18	1	1816005888	Standard	2.0.10.353	2.0.10.353	06-09-2016	6/9/2016 8:59:51 PM	16:59:51	2.0.10.248	51	Bar50-50.bmp	52	2	?	0r_4g.bmp	0r_4g.bmp	0r_2g.bmp	0r_2g.bmp		0r_4g.bmp			TrialProc	TrialList	0	cvbn	-999999	16	211219	0	v	156	211375	152	-139	13	-20	14	13	6	6	6	51	0	0	0	0	4	4	2	2	0	4
Hungry_Donkey_bar_English_2	156	1	<?xml version="1.0"?>\n<Clock xmlns:dt="urn:schemas-microsoft-com:datatypes"><Description dt:dt="string">E-Prime Primary Realtime Clock</Description><StartTime><Timestamp dt:dt="int">0</Timestamp><DateUtc dt:dt="string">2016-06-09T20:59:51Z</DateUtc></StartTime><FrequencyChanges><FrequencyChange><Frequency dt:dt="r8">3507724</Frequency><Timestamp dt:dt="r8">57649893470</Timestamp><Current dt:dt="r8">0</Current><DateUtc dt:dt="string">2016-06-09T20:59:51Z</DateUtc></FrequencyChange></FrequencyChanges></Clock>\n	Hungry_Donkey_bar_English_2-156-1	60.018	25	1.0.0.18	1	1816005888	Standard	2.0.10.353	2.0.10.353	06-09-2016	6/9/2016 8:59:51 PM	16:59:51	2.0.10.248	52	Bar50-50.bmp	51	1	?	10r_4g.bmp	0r_4g.bmp	2r_2g.bmp	0r_2g.bmp	10r_4g.bmp				TrialProc	TrialList	0	cvbn	-999999	16	213402	0	c	629	214031	156	-149	7	-26	14	13	6	4	6	52	-10	0	-2	0	4	4	2	2	-10	4
Hungry_Donkey_bar_English_2	156	1	<?xml version="1.0"?>\n<Clock xmlns:dt="urn:schemas-microsoft-com:datatypes"><Description dt:dt="string">E-Prime Primary Realtime Clock</Description><StartTime><Timestamp dt:dt="int">0</Timestamp><DateUtc dt:dt="string">2016-06-09T20:59:51Z</DateUtc></StartTime><FrequencyChanges><FrequencyChange><Frequency dt:dt="r8">3507724</Frequency><Timestamp dt:dt="r8">57649893470</Timestamp><Current dt:dt="r8">0</Current><DateUtc dt:dt="string">2016-06-09T20:59:51Z</DateUtc></FrequencyChange></FrequencyChanges></Clock>\n	Hungry_Donkey_bar_English_2-156-1	60.018	25	1.0.0.18	1	1816005888	Standard	2.0.10.353	2.0.10.353	06-09-2016	6/9/2016 8:59:51 PM	16:59:51	2.0.10.248	53	Bar50-50.bmp	50	4	?	8r_4g.bmp	50r_4g.bmp	1r_2g.bmp	10r_2g.bmp				10r_2g.bmp	TrialProc	TrialList	0	cvbn	-999999	16	216068	0	n	555	216623	158	-159	-1	-26	14	13	-2	1	6	53	-8	-50	-1	-10	4	4	2	2	-10	2
Hungry_Donkey_bar_English_2	156	1	<?xml version="1.0"?>\n<Clock xmlns:dt="urn:schemas-microsoft-com:datatypes"><Description dt:dt="string">E-Prime Primary Realtime Clock</Description><StartTime><Timestamp dt:dt="int">0</Timestamp><DateUtc dt:dt="string">2016-06-09T20:59:51Z</DateUtc></StartTime><FrequencyChanges><FrequencyChange><Frequency dt:dt="r8">3507724</Frequency><Timestamp dt:dt="r8">57649893470</Timestamp><Current dt:dt="r8">0</Current><DateUtc dt:dt="string">2016-06-09T20:59:51Z</DateUtc></FrequencyChange></FrequencyChanges></Clock>\n	Hungry_Donkey_bar_English_2-156-1	60.018	25	1.0.0.18	1	1816005888	Standard	2.0.10.353	2.0.10.353	06-09-2016	6/9/2016 8:59:51 PM	16:59:51	2.0.10.248	54	Bar50-50.bmp	50	1	?	0r_4g.bmp	0r_4g.bmp	0r_2g.bmp	0r_2g.bmp	0r_4g.bmp				TrialProc	TrialList	0	cvbn	-999999	17	218651	0	c	435	219086	162	-159	3	-22	14	13	-2	10	6	54	0	0	0	0	4	4	2	2	0	4
Hungry_Donkey_bar_English_2	156	1	<?xml version="1.0"?>\n<Clock xmlns:dt="urn:schemas-microsoft-com:datatypes"><Description dt:dt="string">E-Prime Primary Realtime Clock</Description><StartTime><Timestamp dt:dt="int">0</Timestamp><DateUtc dt:dt="string">2016-06-09T20:59:51Z</DateUtc></StartTime><FrequencyChanges><FrequencyChange><Frequency dt:dt="r8">3507724</Frequency><Timestamp dt:dt="r8">57649893470</Timestamp><Current dt:dt="r8">0</Current><DateUtc dt:dt="string">2016-06-09T20:59:51Z</DateUtc></FrequencyChange></FrequencyChanges></Clock>\n	Hungry_Donkey_bar_English_2-156-1	60.018	25	1.0.0.18	1	1816005888	Standard	2.0.10.353	2.0.10.353	06-09-2016	6/9/2016 8:59:51 PM	16:59:51	2.0.10.248	55	Bar50-50.bmp	51	2	?	10r_4g.bmp	0r_4g.bmp	2r_2g.bmp	0r_2g.bmp		0r_4g.bmp			TrialProc	TrialList	0	cvbn	-999999	16	221116	0	v	498	221614	166	-159	7	-22	18	13	-2	3	6	55	-10	0	-2	0	4	4	2	2	0	4
Hungry_Donkey_bar_English_2	156	1	<?xml version="1.0"?>\n<Clock xmlns:dt="urn:schemas-microsoft-com:datatypes"><Description dt:dt="string">E-Prime Primary Realtime Clock</Description><StartTime><Timestamp dt:dt="int">0</Timestamp><DateUtc dt:dt="string">2016-06-09T20:59:51Z</DateUtc></StartTime><FrequencyChanges><FrequencyChange><Frequency dt:dt="r8">3507724</Frequency><Timestamp dt:dt="r8">57649893470</Timestamp><Current dt:dt="r8">0</Current><DateUtc dt:dt="string">2016-06-09T20:59:51Z</DateUtc></FrequencyChange></FrequencyChanges></Clock>\n	Hungry_Donkey_bar_English_2-156-1	60.018	25	1.0.0.18	1	1816005888	Standard	2.0.10.353	2.0.10.353	06-09-2016	6/9/2016 8:59:51 PM	16:59:51	2.0.10.248	56	Bar50-50.bmp	51	4	?	0r_4g.bmp	0r_4g.bmp	0r_2g.bmp	0r_2g.bmp				0r_2g.bmp	TrialProc	TrialList	0	cvbn	-999999	16	223649	0	n	381	224030	168	-159	9	-22	18	13	0	7	6	56	0	0	0	0	4	4	2	2	0	2
Hungry_Donkey_bar_English_2	156	1	<?xml version="1.0"?>\n<Clock xmlns:dt="urn:schemas-microsoft-com:datatypes"><Description dt:dt="string">E-Prime Primary Realtime Clock</Description><StartTime><Timestamp dt:dt="int">0</Timestamp><DateUtc dt:dt="string">2016-06-09T20:59:51Z</DateUtc></StartTime><FrequencyChanges><FrequencyChange><Frequency dt:dt="r8">3507724</Frequency><Timestamp dt:dt="r8">57649893470</Timestamp><Current dt:dt="r8">0</Current><DateUtc dt:dt="string">2016-06-09T20:59:51Z</DateUtc></FrequencyChange></FrequencyChanges></Clock>\n	Hungry_Donkey_bar_English_2-156-1	60.018	25	1.0.0.18	1	1816005888	Standard	2.0.10.353	2.0.10.353	06-09-2016	6/9/2016 8:59:51 PM	16:59:51	2.0.10.248	57	Bar50-50.bmp	52	2	?	0r_4g.bmp	0r_4g.bmp	0r_2g.bmp	0r_2g.bmp		0r_4g.bmp			TrialProc	TrialList	0	cvbn	-999999	16	226065	0	v	429	226494	172	-159	13	-22	22	13	0	8	6	57	0	0	0	0	4	4	2	2	0	4
Hungry_Donkey_bar_English_2	156	1	<?xml version="1.0"?>\n<Clock xmlns:dt="urn:schemas-microsoft-com:datatypes"><Description dt:dt="string">E-Prime Primary Realtime Clock</Description><StartTime><Timestamp dt:dt="int">0</Timestamp><DateUtc dt:dt="string">2016-06-09T20:59:51Z</DateUtc></StartTime><FrequencyChanges><FrequencyChange><Frequency dt:dt="r8">3507724</Frequency><Timestamp dt:dt="r8">57649893470</Timestamp><Current dt:dt="r8">0</Current><DateUtc dt:dt="string">2016-06-09T20:59:51Z</DateUtc></FrequencyChange></FrequencyChanges></Clock>\n	Hungry_Donkey_bar_English_2-156-1	60.018	25	1.0.0.18	1	1816005888	Standard	2.0.10.353	2.0.10.353	06-09-2016	6/9/2016 8:59:51 PM	16:59:51	2.0.10.248	58	Bar50-50.bmp	52	3	?	0r_4g.bmp	0r_4g.bmp	0r_2g.bmp	0r_2g.bmp			0r_2g.bmp		TrialProc	TrialList	0	cvbn	-999999	16	228531	0	b	315	228846	174	-159	15	-22	22	15	0	9	6	58	0	0	0	0	4	4	2	2	0	2
Hungry_Donkey_bar_English_2	156	1	<?xml version="1.0"?>\n<Clock xmlns:dt="urn:schemas-microsoft-com:datatypes"><Description dt:dt="string">E-Prime Primary Realtime Clock</Description><StartTime><Timestamp dt:dt="int">0</Timestamp><DateUtc dt:dt="string">2016-06-09T20:59:51Z</DateUtc></StartTime><FrequencyChanges><FrequencyChange><Frequency dt:dt="r8">3507724</Frequency><Timestamp dt:dt="r8">57649893470</Timestamp><Current dt:dt="r8">0</Current><DateUtc dt:dt="string">2016-06-09T20:59:51Z</DateUtc></FrequencyChange></FrequencyChanges></Clock>\n	Hungry_Donkey_bar_English_2-156-1	60.018	25	1.0.0.18	1	1816005888	Standard	2.0.10.353	2.0.10.353	06-09-2016	6/9/2016 8:59:51 PM	16:59:51	2.0.10.248	59	Bar50-50.bmp	53	4	?	10r_4g.bmp	0r_4g.bmp	2r_2g.bmp	0r_2g.bmp				0r_2g.bmp	TrialProc	TrialList	0	cvbn	-999999	16	230880	0	n	334	231214	176	-159	17	-22	22	15	2	2	6	59	-10	0	-2	0	4	4	2	2	0	2
Hungry_Donkey_bar_English_2	156	1	<?xml version="1.0"?>\n<Clock xmlns:dt="urn:schemas-microsoft-com:datatypes"><Description dt:dt="string">E-Prime Primary Realtime Clock</Description><StartTime><Timestamp dt:dt="int">0</Timestamp><DateUtc dt:dt="string">2016-06-09T20:59:51Z</DateUtc></StartTime><FrequencyChanges><FrequencyChange><Frequency dt:dt="r8">3507724</Frequency><Timestamp dt:dt="r8">57649893470</Timestamp><Current dt:dt="r8">0</Current><DateUtc dt:dt="string">2016-06-09T20:59:51Z</DateUtc></FrequencyChange></FrequencyChanges></Clock>\n	Hungry_Donkey_bar_English_2-156-1	60.018	25	1.0.0.18	1	1816005888	Standard	2.0.10.353	2.0.10.353	06-09-2016	6/9/2016 8:59:51 PM	16:59:51	2.0.10.248	60	Bar50-50.bmp	51	1	?	12r_4g.bmp	0r_4g.bmp	3r_2g.bmp	0r_2g.bmp	12r_4g.bmp				TrialProc	TrialList	0	cvbn	-999999	16	233246	0	c	336	233582	180	-171	9	-30	22	15	2	5	6	60	-12	0	-3	0	4	4	2	2	-12	4
Hungry_Donkey_bar_English_2	156	1	<?xml version="1.0"?>\n<Clock xmlns:dt="urn:schemas-microsoft-com:datatypes"><Description dt:dt="string">E-Prime Primary Realtime Clock</Description><StartTime><Timestamp dt:dt="int">0</Timestamp><DateUtc dt:dt="string">2016-06-09T20:59:51Z</DateUtc></StartTime><FrequencyChanges><FrequencyChange><Frequency dt:dt="r8">3507724</Frequency><Timestamp dt:dt="r8">57649893470</Timestamp><Current dt:dt="r8">0</Current><DateUtc dt:dt="string">2016-06-09T20:59:51Z</DateUtc></FrequencyChange></FrequencyChanges></Clock>\n	Hungry_Donkey_bar_English_2-156-1	60.018	25	1.0.0.18	1	1816005888	Standard	2.0.10.353	2.0.10.353	06-09-2016	6/9/2016 8:59:51 PM	16:59:51	2.0.10.248	61	Bar50-50.bmp	52	3	?	0r_4g.bmp	0r_4g.bmp	0r_2g.bmp	0r_2g.bmp			0r_2g.bmp		TrialProc	TrialList	0	cvbn	-999999	16	235612	0	b	401	236013	182	-171	11	-30	22	17	2	10	7	61	0	0	0	0	4	4	2	2	0	2
Hungry_Donkey_bar_English_2	156	1	<?xml version="1.0"?>\n<Clock xmlns:dt="urn:schemas-microsoft-com:datatypes"><Description dt:dt="string">E-Prime Primary Realtime Clock</Description><StartTime><Timestamp dt:dt="int">0</Timestamp><DateUtc dt:dt="string">2016-06-09T20:59:51Z</DateUtc></StartTime><FrequencyChanges><FrequencyChange><Frequency dt:dt="r8">3507724</Frequency><Timestamp dt:dt="r8">57649893470</Timestamp><Current dt:dt="r8">0</Current><DateUtc dt:dt="string">2016-06-09T20:59:51Z</DateUtc></FrequencyChange></FrequencyChanges></Clock>\n	Hungry_Donkey_bar_English_2-156-1	60.018	25	1.0.0.18	1	1816005888	Standard	2.0.10.353	2.0.10.353	06-09-2016	6/9/2016 8:59:51 PM	16:59:51	2.0.10.248	62	Bar50-50.bmp	52	4	?	0r_4g.bmp	0r_4g.bmp	0r_2g.bmp	0r_2g.bmp				0r_2g.bmp	TrialProc	TrialList	0	cvbn	-999999	16	238045	0	n	144	238189	184	-171	13	-30	22	17	4	8	7	62	0	0	0	0	4	4	2	2	0	2
Hungry_Donkey_bar_English_2	156	1	<?xml version="1.0"?>\n<Clock xmlns:dt="urn:schemas-microsoft-com:datatypes"><Description dt:dt="string">E-Prime Primary Realtime Clock</Description><StartTime><Timestamp dt:dt="int">0</Timestamp><DateUtc dt:dt="string">2016-06-09T20:59:51Z</DateUtc></StartTime><FrequencyChanges><FrequencyChange><Frequency dt:dt="r8">3507724</Frequency><Timestamp dt:dt="r8">57649893470</Timestamp><Current dt:dt="r8">0</Current><DateUtc dt:dt="string">2016-06-09T20:59:51Z</DateUtc></FrequencyChange></FrequencyChanges></Clock>\n	Hungry_Donkey_bar_English_2-156-1	60.018	25	1.0.0.18	1	1816005888	Standard	2.0.10.353	2.0.10.353	06-09-2016	6/9/2016 8:59:51 PM	16:59:51	2.0.10.248	63	Bar50-50.bmp	52	4	?	0r_4g.bmp	0r_4g.bmp	0r_2g.bmp	0r_2g.bmp				0r_2g.bmp	TrialProc	TrialList	0	cvbn	-999999	16	240227	0	n	602	240829	186	-171	15	-30	22	17	6	9	7	63	0	0	0	0	4	4	2	2	0	2
Hungry_Donkey_bar_English_2	156	1	<?xml version="1.0"?>\n<Clock xmlns:dt="urn:schemas-microsoft-com:datatypes"><Description dt:dt="string">E-Prime Primary Realtime Clock</Description><StartTime><Timestamp dt:dt="int">0</Timestamp><DateUtc dt:dt="string">2016-06-09T20:59:51Z</DateUtc></StartTime><FrequencyChanges><FrequencyChange><Frequency dt:dt="r8">3507724</Frequency><Timestamp dt:dt="r8">57649893470</Timestamp><Current dt:dt="r8">0</Current><DateUtc dt:dt="string">2016-06-09T20:59:51Z</DateUtc></FrequencyChange></FrequencyChanges></Clock>\n	Hungry_Donkey_bar_English_2-156-1	60.018	25	1.0.0.18	1	1816005888	Standard	2.0.10.353	2.0.10.353	06-09-2016	6/9/2016 8:59:51 PM	16:59:51	2.0.10.248	64	Bar50-50.bmp	53	2	?	0r_4g.bmp	0r_4g.bmp	0r_2g.bmp	0r_2g.bmp		0r_4g.bmp			TrialProc	TrialList	0	cvbn	-999999	16	242860	0	v	529	243389	190	-171	19	-30	26	17	6	7	7	64	0	0	0	0	4	4	2	2	0	4
Hungry_Donkey_bar_English_2	156	1	<?xml version="1.0"?>\n<Clock xmlns:dt="urn:schemas-microsoft-com:datatypes"><Description dt:dt="string">E-Prime Primary Realtime Clock</Description><StartTime><Timestamp dt:dt="int">0</Timestamp><DateUtc dt:dt="string">2016-06-09T20:59:51Z</DateUtc></StartTime><FrequencyChanges><FrequencyChange><Frequency dt:dt="r8">3507724</Frequency><Timestamp dt:dt="r8">57649893470</Timestamp><Current dt:dt="r8">0</Current><DateUtc dt:dt="string">2016-06-09T20:59:51Z</DateUtc></FrequencyChange></FrequencyChanges></Clock>\n	Hungry_Donkey_bar_English_2-156-1	60.018	25	1.0.0.18	1	1816005888	Standard	2.0.10.353	2.0.10.353	06-09-2016	6/9/2016 8:59:51 PM	16:59:51	2.0.10.248	65	Bar50-50.bmp	53	3	?	0r_4g.bmp	0r_4g.bmp	0r_2g.bmp	0r_2g.bmp			0r_2g.bmp		TrialProc	TrialList	0	cvbn	-999999	16	245426	0	b	331	245757	192	-171	21	-30	26	19	6	6	7	65	0	0	0	0	4	4	2	2	0	2
Hungry_Donkey_bar_English_2	156	1	<?xml version="1.0"?>\n<Clock xmlns:dt="urn:schemas-microsoft-com:datatypes"><Description dt:dt="string">E-Prime Primary Realtime Clock</Description><StartTime><Timestamp dt:dt="int">0</Timestamp><DateUtc dt:dt="string">2016-06-09T20:59:51Z</DateUtc></StartTime><FrequencyChanges><FrequencyChange><Frequency dt:dt="r8">3507724</Frequency><Timestamp dt:dt="r8">57649893470</Timestamp><Current dt:dt="r8">0</Current><DateUtc dt:dt="string">2016-06-09T20:59:51Z</DateUtc></FrequencyChange></FrequencyChanges></Clock>\n	Hungry_Donkey_bar_English_2-156-1	60.018	25	1.0.0.18	1	1816005888	Standard	2.0.10.353	2.0.10.353	06-09-2016	6/9/2016 8:59:51 PM	16:59:51	2.0.10.248	66	Bar50-50.bmp	52	1	?	8r_4g.bmp	50r_4g.bmp	1r_2g.bmp	10r_2g.bmp	8r_4g.bmp				TrialProc	TrialList	0	cvbn	-999999	16	247792	0	c	397	248189	196	-179	17	-34	26	19	6	1	7	66	-8	-50	-1	-10	4	4	2	2	-8	4
Hungry_Donkey_bar_English_2	156	1	<?xml version="1.0"?>\n<Clock xmlns:dt="urn:schemas-microsoft-com:datatypes"><Description dt:dt="string">E-Prime Primary Realtime Clock</Description><StartTime><Timestamp dt:dt="int">0</Timestamp><DateUtc dt:dt="string">2016-06-09T20:59:51Z</DateUtc></StartTime><FrequencyChanges><FrequencyChange><Frequency dt:dt="r8">3507724</Frequency><Timestamp dt:dt="r8">57649893470</Timestamp><Current dt:dt="r8">0</Current><DateUtc dt:dt="string">2016-06-09T20:59:51Z</DateUtc></FrequencyChange></FrequencyChanges></Clock>\n	Hungry_Donkey_bar_English_2-156-1	60.018	25	1.0.0.18	1	1816005888	Standard	2.0.10.353	2.0.10.353	06-09-2016	6/9/2016 8:59:51 PM	16:59:51	2.0.10.248	67	Bar50-50.bmp	52	3	?	10r_4g.bmp	0r_4g.bmp	2r_2g.bmp	0r_2g.bmp			2r_2g.bmp		TrialProc	TrialList	0	cvbn	-999999	16	250224	0	b	605	250829	198	-181	17	-34	26	19	6	2	7	67	-10	0	-2	0	4	4	2	2	-2	2
Hungry_Donkey_bar_English_2	156	1	<?xml version="1.0"?>\n<Clock xmlns:dt="urn:schemas-microsoft-com:datatypes"><Description dt:dt="string">E-Prime Primary Realtime Clock</Description><StartTime><Timestamp dt:dt="int">0</Timestamp><DateUtc dt:dt="string">2016-06-09T20:59:51Z</DateUtc></StartTime><FrequencyChanges><FrequencyChange><Frequency dt:dt="r8">3507724</Frequency><Timestamp dt:dt="r8">57649893470</Timestamp><Current dt:dt="r8">0</Current><DateUtc dt:dt="string">2016-06-09T20:59:51Z</DateUtc></FrequencyChange></FrequencyChanges></Clock>\n	Hungry_Donkey_bar_English_2-156-1	60.018	25	1.0.0.18	1	1816005888	Standard	2.0.10.353	2.0.10.353	06-09-2016	6/9/2016 8:59:51 PM	16:59:51	2.0.10.248	68	Bar50-50.bmp	51	1	?	10r_4g.bmp	0r_4g.bmp	2r_2g.bmp	0r_2g.bmp	10r_4g.bmp				TrialProc	TrialList	0	cvbn	-999999	16	252857	0	c	627	253484	202	-191	11	-40	26	19	6	4	7	68	-10	0	-2	0	4	4	2	2	-10	4
Hungry_Donkey_bar_English_2	156	1	<?xml version="1.0"?>\n<Clock xmlns:dt="urn:schemas-microsoft-com:datatypes"><Description dt:dt="string">E-Prime Primary Realtime Clock</Description><StartTime><Timestamp dt:dt="int">0</Timestamp><DateUtc dt:dt="string">2016-06-09T20:59:51Z</DateUtc></StartTime><FrequencyChanges><FrequencyChange><Frequency dt:dt="r8">3507724</Frequency><Timestamp dt:dt="r8">57649893470</Timestamp><Current dt:dt="r8">0</Current><DateUtc dt:dt="string">2016-06-09T20:59:51Z</DateUtc></FrequencyChange></FrequencyChanges></Clock>\n	Hungry_Donkey_bar_English_2-156-1	60.018	25	1.0.0.18	1	1816005888	Standard	2.0.10.353	2.0.10.353	06-09-2016	6/9/2016 8:59:51 PM	16:59:51	2.0.10.248	69	Bar50-50.bmp	51	3	?	12r_4g.bmp	0r_4g.bmp	3r_2g.bmp	0r_2g.bmp			3r_2g.bmp		TrialProc	TrialList	0	cvbn	-999999	16	255523	0	b	425	255948	204	-194	10	-40	26	18	6	5	7	69	-12	0	-3	0	4	4	2	2	-3	2
Hungry_Donkey_bar_English_2	156	1	<?xml version="1.0"?>\n<Clock xmlns:dt="urn:schemas-microsoft-com:datatypes"><Description dt:dt="string">E-Prime Primary Realtime Clock</Description><StartTime><Timestamp dt:dt="int">0</Timestamp><DateUtc dt:dt="string">2016-06-09T20:59:51Z</DateUtc></StartTime><FrequencyChanges><FrequencyChange><Frequency dt:dt="r8">3507724</Frequency><Timestamp dt:dt="r8">57649893470</Timestamp><Current dt:dt="r8">0</Current><DateUtc dt:dt="string">2016-06-09T20:59:51Z</DateUtc></FrequencyChange></FrequencyChanges></Clock>\n	Hungry_Donkey_bar_English_2-156-1	60.018	25	1.0.0.18	1	1816005888	Standard	2.0.10.353	2.0.10.353	06-09-2016	6/9/2016 8:59:51 PM	16:59:51	2.0.10.248	70	Bar50-50.bmp	52	2	?	10r_4g.bmp	0r_4g.bmp	2r_2g.bmp	0r_2g.bmp		0r_4g.bmp			TrialProc	TrialList	0	cvbn	-999999	16	257972	0	v	456	258428	208	-194	14	-40	30	18	6	3	7	70	-10	0	-2	0	4	4	2	2	0	4
Hungry_Donkey_bar_English_2	156	1	<?xml version="1.0"?>\n<Clock xmlns:dt="urn:schemas-microsoft-com:datatypes"><Description dt:dt="string">E-Prime Primary Realtime Clock</Description><StartTime><Timestamp dt:dt="int">0</Timestamp><DateUtc dt:dt="string">2016-06-09T20:59:51Z</DateUtc></StartTime><FrequencyChanges><FrequencyChange><Frequency dt:dt="r8">3507724</Frequency><Timestamp dt:dt="r8">57649893470</Timestamp><Current dt:dt="r8">0</Current><DateUtc dt:dt="string">2016-06-09T20:59:51Z</DateUtc></FrequencyChange></FrequencyChanges></Clock>\n	Hungry_Donkey_bar_English_2-156-1	60.018	25	1.0.0.18	1	1816005888	Standard	2.0.10.353	2.0.10.353	06-09-2016	6/9/2016 8:59:51 PM	16:59:51	2.0.10.248	71	Bar50-50.bmp	52	4	?	0r_4g.bmp	0r_4g.bmp	0r_2g.bmp	0r_2g.bmp				0r_2g.bmp	TrialProc	TrialList	0	cvbn	-999999	16	260455	0	n	341	260796	210	-194	16	-40	30	18	8	7	8	71	0	0	0	0	4	4	2	2	0	2
Hungry_Donkey_bar_English_2	156	1	<?xml version="1.0"?>\n<Clock xmlns:dt="urn:schemas-microsoft-com:datatypes"><Description dt:dt="string">E-Prime Primary Realtime Clock</Description><StartTime><Timestamp dt:dt="int">0</Timestamp><DateUtc dt:dt="string">2016-06-09T20:59:51Z</DateUtc></StartTime><FrequencyChanges><FrequencyChange><Frequency dt:dt="r8">3507724</Frequency><Timestamp dt:dt="r8">57649893470</Timestamp><Current dt:dt="r8">0</Current><DateUtc dt:dt="string">2016-06-09T20:59:51Z</DateUtc></FrequencyChange></FrequencyChanges></Clock>\n	Hungry_Donkey_bar_English_2-156-1	60.018	25	1.0.0.18	1	1816005888	Standard	2.0.10.353	2.0.10.353	06-09-2016	6/9/2016 8:59:51 PM	16:59:51	2.0.10.248	72	Bar50-50.bmp	51	1	?	8r_4g.bmp	50r_4g.bmp	1r_2g.bmp	10r_2g.bmp	8r_4g.bmp				TrialProc	TrialList	0	cvbn	-999999	16	262821	0	c	295	263116	214	-202	12	-44	30	18	8	1	8	72	-8	-50	-1	-10	4	4	2	2	-8	4
Hungry_Donkey_bar_English_2	156	1	<?xml version="1.0"?>\n<Clock xmlns:dt="urn:schemas-microsoft-com:datatypes"><Description dt:dt="string">E-Prime Primary Realtime Clock</Description><StartTime><Timestamp dt:dt="int">0</Timestamp><DateUtc dt:dt="string">2016-06-09T20:59:51Z</DateUtc></StartTime><FrequencyChanges><FrequencyChange><Frequency dt:dt="r8">3507724</Frequency><Timestamp dt:dt="r8">57649893470</Timestamp><Current dt:dt="r8">0</Current><DateUtc dt:dt="string">2016-06-09T20:59:51Z</DateUtc></FrequencyChange></FrequencyChanges></Clock>\n	Hungry_Donkey_bar_English_2-156-1	60.018	25	1.0.0.18	1	1816005888	Standard	2.0.10.353	2.0.10.353	06-09-2016	6/9/2016 8:59:51 PM	16:59:51	2.0.10.248	73	Bar50-50.bmp	52	2	?	0r_4g.bmp	0r_4g.bmp	0r_2g.bmp	0r_2g.bmp		0r_4g.bmp			TrialProc	TrialList	0	cvbn	-999999	16	265153	0	v	155	265308	218	-202	16	-44	34	18	8	8	8	73	0	0	0	0	4	4	2	2	0	4
Hungry_Donkey_bar_English_2	156	1	<?xml version="1.0"?>\n<Clock xmlns:dt="urn:schemas-microsoft-com:datatypes"><Description dt:dt="string">E-Prime Primary Realtime Clock</Description><StartTime><Timestamp dt:dt="int">0</Timestamp><DateUtc dt:dt="string">2016-06-09T20:59:51Z</DateUtc></StartTime><FrequencyChanges><FrequencyChange><Frequency dt:dt="r8">3507724</Frequency><Timestamp dt:dt="r8">57649893470</Timestamp><Current dt:dt="r8">0</Current><DateUtc dt:dt="string">2016-06-09T20:59:51Z</DateUtc></FrequencyChange></FrequencyChanges></Clock>\n	Hungry_Donkey_bar_English_2-156-1	60.018	25	1.0.0.18	1	1816005888	Standard	2.0.10.353	2.0.10.353	06-09-2016	6/9/2016 8:59:51 PM	16:59:51	2.0.10.248	74	Bar50-50.bmp	52	3	?	12r_4g.bmp	0r_4g.bmp	3r_2g.bmp	0r_2g.bmp			3r_2g.bmp		TrialProc	TrialList	0	cvbn	-999999	16	267336	0	b	979	268315	220	-205	15	-44	34	17	8	5	8	74	-12	0	-3	0	4	4	2	2	-3	2
Hungry_Donkey_bar_English_2	156	1	<?xml version="1.0"?>\n<Clock xmlns:dt="urn:schemas-microsoft-com:datatypes"><Description dt:dt="string">E-Prime Primary Realtime Clock</Description><StartTime><Timestamp dt:dt="int">0</Timestamp><DateUtc dt:dt="string">2016-06-09T20:59:51Z</DateUtc></StartTime><FrequencyChanges><FrequencyChange><Frequency dt:dt="r8">3507724</Frequency><Timestamp dt:dt="r8">57649893470</Timestamp><Current dt:dt="r8">0</Current><DateUtc dt:dt="string">2016-06-09T20:59:51Z</DateUtc></FrequencyChange></FrequencyChanges></Clock>\n	Hungry_Donkey_bar_English_2-156-1	60.018	25	1.0.0.18	1	1816005888	Standard	2.0.10.353	2.0.10.353	06-09-2016	6/9/2016 8:59:51 PM	16:59:51	2.0.10.248	75	Bar50-50.bmp	52	2	?	0r_4g.bmp	0r_4g.bmp	0r_2g.bmp	0r_2g.bmp		0r_4g.bmp			TrialProc	TrialList	0	cvbn	-999999	16	270352	0	v	475	270827	224	-205	19	-44	38	17	8	6	8	75	0	0	0	0	4	4	2	2	0	4
Hungry_Donkey_bar_English_2	156	1	<?xml version="1.0"?>\n<Clock xmlns:dt="urn:schemas-microsoft-com:datatypes"><Description dt:dt="string">E-Prime Primary Realtime Clock</Description><StartTime><Timestamp dt:dt="int">0</Timestamp><DateUtc dt:dt="string">2016-06-09T20:59:51Z</DateUtc></StartTime><FrequencyChanges><FrequencyChange><Frequency dt:dt="r8">3507724</Frequency><Timestamp dt:dt="r8">57649893470</Timestamp><Current dt:dt="r8">0</Current><DateUtc dt:dt="string">2016-06-09T20:59:51Z</DateUtc></FrequencyChange></FrequencyChanges></Clock>\n	Hungry_Donkey_bar_English_2-156-1	60.018	25	1.0.0.18	1	1816005888	Standard	2.0.10.353	2.0.10.353	06-09-2016	6/9/2016 8:59:51 PM	16:59:51	2.0.10.248	76	Bar50-50.bmp	52	4	?	10r_4g.bmp	0r_4g.bmp	2r_2g.bmp	0r_2g.bmp				0r_2g.bmp	TrialProc	TrialList	0	cvbn	-999999	16	272868	0	n	407	273275	226	-205	21	-44	38	17	10	3	8	76	-10	0	-2	0	4	4	2	2	0	2
Hungry_Donkey_bar_English_2	156	1	<?xml version="1.0"?>\n<Clock xmlns:dt="urn:schemas-microsoft-com:datatypes"><Description dt:dt="string">E-Prime Primary Realtime Clock</Description><StartTime><Timestamp dt:dt="int">0</Timestamp><DateUtc dt:dt="string">2016-06-09T20:59:51Z</DateUtc></StartTime><FrequencyChanges><FrequencyChange><Frequency dt:dt="r8">3507724</Frequency><Timestamp dt:dt="r8">57649893470</Timestamp><Current dt:dt="r8">0</Current><DateUtc dt:dt="string">2016-06-09T20:59:51Z</DateUtc></FrequencyChange></FrequencyChanges></Clock>\n	Hungry_Donkey_bar_English_2-156-1	60.018	25	1.0.0.18	1	1816005888	Standard	2.0.10.353	2.0.10.353	06-09-2016	6/9/2016 8:59:51 PM	16:59:51	2.0.10.248	77	Bar50-50.bmp	53	2	?	0r_4g.bmp	0r_4g.bmp	0r_2g.bmp	0r_2g.bmp		0r_4g.bmp			TrialProc	TrialList	0	cvbn	-999999	16	275300	0	v	375	275675	230	-205	25	-44	42	17	10	9	8	77	0	0	0	0	4	4	2	2	0	4
Hungry_Donkey_bar_English_2	156	1	<?xml version="1.0"?>\n<Clock xmlns:dt="urn:schemas-microsoft-com:datatypes"><Description dt:dt="string">E-Prime Primary Realtime Clock</Description><StartTime><Timestamp dt:dt="int">0</Timestamp><DateUtc dt:dt="string">2016-06-09T20:59:51Z</DateUtc></StartTime><FrequencyChanges><FrequencyChange><Frequency dt:dt="r8">3507724</Frequency><Timestamp dt:dt="r8">57649893470</Timestamp><Current dt:dt="r8">0</Current><DateUtc dt:dt="string">2016-06-09T20:59:51Z</DateUtc></FrequencyChange></FrequencyChanges></Clock>\n	Hungry_Donkey_bar_English_2-156-1	60.018	25	1.0.0.18	1	1816005888	Standard	2.0.10.353	2.0.10.353	06-09-2016	6/9/2016 8:59:51 PM	16:59:51	2.0.10.248	78	Bar50-50.bmp	53	1	?	0r_4g.bmp	0r_4g.bmp	0r_2g.bmp	0r_2g.bmp	0r_4g.bmp				TrialProc	TrialList	0	cvbn	-999999	16	277699	0	c	8	277707	234	-205	29	-40	42	17	10	10	8	78	0	0	0	0	4	4	2	2	0	4
Hungry_Donkey_bar_English_2	156	1	<?xml version="1.0"?>\n<Clock xmlns:dt="urn:schemas-microsoft-com:datatypes"><Description dt:dt="string">E-Prime Primary Realtime Clock</Description><StartTime><Timestamp dt:dt="int">0</Timestamp><DateUtc dt:dt="string">2016-06-09T20:59:51Z</DateUtc></StartTime><FrequencyChanges><FrequencyChange><Frequency dt:dt="r8">3507724</Frequency><Timestamp dt:dt="r8">57649893470</Timestamp><Current dt:dt="r8">0</Current><DateUtc dt:dt="string">2016-06-09T20:59:51Z</DateUtc></FrequencyChange></FrequencyChanges></Clock>\n	Hungry_Donkey_bar_English_2-156-1	60.018	25	1.0.0.18	1	1816005888	Standard	2.0.10.353	2.0.10.353	06-09-2016	6/9/2016 8:59:51 PM	16:59:51	2.0.10.248	79	Bar50-50.bmp	53	3	?	10r_4g.bmp	0r_4g.bmp	2r_2g.bmp	0r_2g.bmp			2r_2g.bmp		TrialProc	TrialList	0	cvbn	-999999	16	279732	0	b	151	279883	236	-207	29	-40	42	17	10	4	8	79	-10	0	-2	0	4	4	2	2	-2	2
Hungry_Donkey_bar_English_2	156	1	<?xml version="1.0"?>\n<Clock xmlns:dt="urn:schemas-microsoft-com:datatypes"><Description dt:dt="string">E-Prime Primary Realtime Clock</Description><StartTime><Timestamp dt:dt="int">0</Timestamp><DateUtc dt:dt="string">2016-06-09T20:59:51Z</DateUtc></StartTime><FrequencyChanges><FrequencyChange><Frequency dt:dt="r8">3507724</Frequency><Timestamp dt:dt="r8">57649893470</Timestamp><Current dt:dt="r8">0</Current><DateUtc dt:dt="string">2016-06-09T20:59:51Z</DateUtc></FrequencyChange></FrequencyChanges></Clock>\n	Hungry_Donkey_bar_English_2-156-1	60.018	25	1.0.0.18	1	1816005888	Standard	2.0.10.353	2.0.10.353	06-09-2016	6/9/2016 8:59:51 PM	16:59:51	2.0.10.248	80	Bar50-50.bmp	53	4	?	10r_4g.bmp	0r_4g.bmp	2r_2g.bmp	0r_2g.bmp				0r_2g.bmp	TrialProc	TrialList	0	cvbn	-999999	16	281915	0	n	320	282235	238	-207	31	-40	42	17	12	2	8	80	-10	0	-2	0	4	4	2	2	0	2
Hungry_Donkey_bar_English_2	156	1	<?xml version="1.0"?>\n<Clock xmlns:dt="urn:schemas-microsoft-com:datatypes"><Description dt:dt="string">E-Prime Primary Realtime Clock</Description><StartTime><Timestamp dt:dt="int">0</Timestamp><DateUtc dt:dt="string">2016-06-09T20:59:51Z</DateUtc></StartTime><FrequencyChanges><FrequencyChange><Frequency dt:dt="r8">3507724</Frequency><Timestamp dt:dt="r8">57649893470</Timestamp><Current dt:dt="r8">0</Current><DateUtc dt:dt="string">2016-06-09T20:59:51Z</DateUtc></FrequencyChange></FrequencyChanges></Clock>\n	Hungry_Donkey_bar_English_2-156-1	60.018	25	1.0.0.18	1	1816005888	Standard	2.0.10.353	2.0.10.353	06-09-2016	6/9/2016 8:59:51 PM	16:59:51	2.0.10.248	81	Bar50-50.bmp	54	4	?	10r_4g.bmp	0r_4g.bmp	2r_2g.bmp	0r_2g.bmp				0r_2g.bmp	TrialProc	TrialList	0	cvbn	-999999	16	284264	0	n	370	284634	240	-207	33	-40	42	17	14	4	9	81	-10	0	-2	0	4	4	2	2	0	2
Hungry_Donkey_bar_English_2	156	1	<?xml version="1.0"?>\n<Clock xmlns:dt="urn:schemas-microsoft-com:datatypes"><Description dt:dt="string">E-Prime Primary Realtime Clock</Description><StartTime><Timestamp dt:dt="int">0</Timestamp><DateUtc dt:dt="string">2016-06-09T20:59:51Z</DateUtc></StartTime><FrequencyChanges><FrequencyChange><Frequency dt:dt="r8">3507724</Frequency><Timestamp dt:dt="r8">57649893470</Timestamp><Current dt:dt="r8">0</Current><DateUtc dt:dt="string">2016-06-09T20:59:51Z</DateUtc></FrequencyChange></FrequencyChanges></Clock>\n	Hungry_Donkey_bar_English_2-156-1	60.018	25	1.0.0.18	1	1816005888	Standard	2.0.10.353	2.0.10.353	06-09-2016	6/9/2016 8:59:51 PM	16:59:51	2.0.10.248	82	Bar50-50.bmp	54	4	?	0r_4g.bmp	0r_4g.bmp	0r_2g.bmp	0r_2g.bmp				0r_2g.bmp	TrialProc	TrialList	0	cvbn	-999999	16	286663	0	n	307	286970	242	-207	35	-40	42	17	16	8	9	82	0	0	0	0	4	4	2	2	0	2
Hungry_Donkey_bar_English_2	156	1	<?xml version="1.0"?>\n<Clock xmlns:dt="urn:schemas-microsoft-com:datatypes"><Description dt:dt="string">E-Prime Primary Realtime Clock</Description><StartTime><Timestamp dt:dt="int">0</Timestamp><DateUtc dt:dt="string">2016-06-09T20:59:51Z</DateUtc></StartTime><FrequencyChanges><FrequencyChange><Frequency dt:dt="r8">3507724</Frequency><Timestamp dt:dt="r8">57649893470</Timestamp><Current dt:dt="r8">0</Current><DateUtc dt:dt="string">2016-06-09T20:59:51Z</DateUtc></FrequencyChange></FrequencyChanges></Clock>\n	Hungry_Donkey_bar_English_2-156-1	60.018	25	1.0.0.18	1	1816005888	Standard	2.0.10.353	2.0.10.353	06-09-2016	6/9/2016 8:59:51 PM	16:59:51	2.0.10.248	83	Bar50-50.bmp	54	4	?	0r_4g.bmp	0r_4g.bmp	0r_2g.bmp	0r_2g.bmp				0r_2g.bmp	TrialProc	TrialList	0	cvbn	-999999	16	288996	0	n	310	289306	244	-207	37	-40	42	17	18	6	9	83	0	0	0	0	4	4	2	2	0	2
Hungry_Donkey_bar_English_2	156	1	<?xml version="1.0"?>\n<Clock xmlns:dt="urn:schemas-microsoft-com:datatypes"><Description dt:dt="string">E-Prime Primary Realtime Clock</Description><StartTime><Timestamp dt:dt="int">0</Timestamp><DateUtc dt:dt="string">2016-06-09T20:59:51Z</DateUtc></StartTime><FrequencyChanges><FrequencyChange><Frequency dt:dt="r8">3507724</Frequency><Timestamp dt:dt="r8">57649893470</Timestamp><Current dt:dt="r8">0</Current><DateUtc dt:dt="string">2016-06-09T20:59:51Z</DateUtc></FrequencyChange></FrequencyChanges></Clock>\n	Hungry_Donkey_bar_English_2-156-1	60.018	25	1.0.0.18	1	1816005888	Standard	2.0.10.353	2.0.10.353	06-09-2016	6/9/2016 8:59:51 PM	16:59:51	2.0.10.248	84	Bar50-50.bmp	54	4	?	10r_4g.bmp	0r_4g.bmp	2r_2g.bmp	0r_2g.bmp				0r_2g.bmp	TrialProc	TrialList	0	cvbn	-999999	16	291345	0	n	281	291626	246	-207	39	-40	42	17	20	2	9	84	-10	0	-2	0	4	4	2	2	0	2
Hungry_Donkey_bar_English_2	156	1	<?xml version="1.0"?>\n<Clock xmlns:dt="urn:schemas-microsoft-com:datatypes"><Description dt:dt="string">E-Prime Primary Realtime Clock</Description><StartTime><Timestamp dt:dt="int">0</Timestamp><DateUtc dt:dt="string">2016-06-09T20:59:51Z</DateUtc></StartTime><FrequencyChanges><FrequencyChange><Frequency dt:dt="r8">3507724</Frequency><Timestamp dt:dt="r8">57649893470</Timestamp><Current dt:dt="r8">0</Current><DateUtc dt:dt="string">2016-06-09T20:59:51Z</DateUtc></FrequencyChange></FrequencyChanges></Clock>\n	Hungry_Donkey_bar_English_2-156-1	60.018	25	1.0.0.18	1	1816005888	Standard	2.0.10.353	2.0.10.353	06-09-2016	6/9/2016 8:59:51 PM	16:59:51	2.0.10.248	85	Bar50-50.bmp	55	4	?	0r_4g.bmp	0r_4g.bmp	0r_2g.bmp	0r_2g.bmp				0r_2g.bmp	TrialProc	TrialList	0	cvbn	-999999	16	293661	0	n	317	293978	248	-207	41	-40	42	17	22	10	9	85	0	0	0	0	4	4	2	2	0	2
Hungry_Donkey_bar_English_2	156	1	<?xml version="1.0"?>\n<Clock xmlns:dt="urn:schemas-microsoft-com:datatypes"><Description dt:dt="string">E-Prime Primary Realtime Clock</Description><StartTime><Timestamp dt:dt="int">0</Timestamp><DateUtc dt:dt="string">2016-06-09T20:59:51Z</DateUtc></StartTime><FrequencyChanges><FrequencyChange><Frequency dt:dt="r8">3507724</Frequency><Timestamp dt:dt="r8">57649893470</Timestamp><Current dt:dt="r8">0</Current><DateUtc dt:dt="string">2016-06-09T20:59:51Z</DateUtc></FrequencyChange></FrequencyChanges></Clock>\n	Hungry_Donkey_bar_English_2-156-1	60.018	25	1.0.0.18	1	1816005888	Standard	2.0.10.353	2.0.10.353	06-09-2016	6/9/2016 8:59:51 PM	16:59:51	2.0.10.248	86	Bar50-50.bmp	55	4	?	0r_4g.bmp	0r_4g.bmp	0r_2g.bmp	0r_2g.bmp				0r_2g.bmp	TrialProc	TrialList	0	cvbn	-999999	16	296011	0	n	319	296330	250	-207	43	-40	42	17	24	9	9	86	0	0	0	0	4	4	2	2	0	2
Hungry_Donkey_bar_English_2	156	1	<?xml version="1.0"?>\n<Clock xmlns:dt="urn:schemas-microsoft-com:datatypes"><Description dt:dt="string">E-Prime Primary Realtime Clock</Description><StartTime><Timestamp dt:dt="int">0</Timestamp><DateUtc dt:dt="string">2016-06-09T20:59:51Z</DateUtc></StartTime><FrequencyChanges><FrequencyChange><Frequency dt:dt="r8">3507724</Frequency><Timestamp dt:dt="r8">57649893470</Timestamp><Current dt:dt="r8">0</Current><DateUtc dt:dt="string">2016-06-09T20:59:51Z</DateUtc></FrequencyChange></FrequencyChanges></Clock>\n	Hungry_Donkey_bar_English_2-156-1	60.018	25	1.0.0.18	1	1816005888	Standard	2.0.10.353	2.0.10.353	06-09-2016	6/9/2016 8:59:51 PM	16:59:51	2.0.10.248	87	Bar50-50.bmp	54	4	?	8r_4g.bmp	50r_4g.bmp	1r_2g.bmp	10r_2g.bmp				10r_2g.bmp	TrialProc	TrialList	0	cvbn	-999999	16	298360	0	n	338	298698	252	-217	35	-40	42	17	16	1	9	87	-8	-50	-1	-10	4	4	2	2	-10	2
Hungry_Donkey_bar_English_2	156	1	<?xml version="1.0"?>\n<Clock xmlns:dt="urn:schemas-microsoft-com:datatypes"><Description dt:dt="string">E-Prime Primary Realtime Clock</Description><StartTime><Timestamp dt:dt="int">0</Timestamp><DateUtc dt:dt="string">2016-06-09T20:59:51Z</DateUtc></StartTime><FrequencyChanges><FrequencyChange><Frequency dt:dt="r8">3507724</Frequency><Timestamp dt:dt="r8">57649893470</Timestamp><Current dt:dt="r8">0</Current><DateUtc dt:dt="string">2016-06-09T20:59:51Z</DateUtc></FrequencyChange></FrequencyChanges></Clock>\n	Hungry_Donkey_bar_English_2-156-1	60.018	25	1.0.0.18	1	1816005888	Standard	2.0.10.353	2.0.10.353	06-09-2016	6/9/2016 8:59:51 PM	16:59:51	2.0.10.248	88	Bar50-50.bmp	54	3	?	12r_4g.bmp	0r_4g.bmp	3r_2g.bmp	0r_2g.bmp			3r_2g.bmp		TrialProc	TrialList	0	cvbn	-999999	16	300726	0	b	579	301305	254	-220	34	-40	42	16	16	5	9	88	-12	0	-3	0	4	4	2	2	-3	2
Hungry_Donkey_bar_English_2	156	1	<?xml version="1.0"?>\n<Clock xmlns:dt="urn:schemas-microsoft-com:datatypes"><Description dt:dt="string">E-Prime Primary Realtime Clock</Description><StartTime><Timestamp dt:dt="int">0</Timestamp><DateUtc dt:dt="string">2016-06-09T20:59:51Z</DateUtc></StartTime><FrequencyChanges><FrequencyChange><Frequency dt:dt="r8">3507724</Frequency><Timestamp dt:dt="r8">57649893470</Timestamp><Current dt:dt="r8">0</Current><DateUtc dt:dt="string">2016-06-09T20:59:51Z</DateUtc></FrequencyChange></FrequencyChanges></Clock>\n	Hungry_Donkey_bar_English_2-156-1	60.018	25	1.0.0.18	1	1816005888	Standard	2.0.10.353	2.0.10.353	06-09-2016	6/9/2016 8:59:51 PM	16:59:51	2.0.10.248	89	Bar50-50.bmp	54	3	?	10r_4g.bmp	0r_4g.bmp	2r_2g.bmp	0r_2g.bmp			2r_2g.bmp		TrialProc	TrialList	0	cvbn	-999999	16	303342	0	b	331	303673	256	-222	34	-40	42	16	16	3	9	89	-10	0	-2	0	4	4	2	2	-2	2
Hungry_Donkey_bar_English_2	156	1	<?xml version="1.0"?>\n<Clock xmlns:dt="urn:schemas-microsoft-com:datatypes"><Description dt:dt="string">E-Prime Primary Realtime Clock</Description><StartTime><Timestamp dt:dt="int">0</Timestamp><DateUtc dt:dt="string">2016-06-09T20:59:51Z</DateUtc></StartTime><FrequencyChanges><FrequencyChange><Frequency dt:dt="r8">3507724</Frequency><Timestamp dt:dt="r8">57649893470</Timestamp><Current dt:dt="r8">0</Current><DateUtc dt:dt="string">2016-06-09T20:59:51Z</DateUtc></FrequencyChange></FrequencyChanges></Clock>\n	Hungry_Donkey_bar_English_2-156-1	60.018	25	1.0.0.18	1	1816005888	Standard	2.0.10.353	2.0.10.353	06-09-2016	6/9/2016 8:59:51 PM	16:59:51	2.0.10.248	90	Bar50-50.bmp	54	3	?	0r_4g.bmp	0r_4g.bmp	0r_2g.bmp	0r_2g.bmp			0r_2g.bmp		TrialProc	TrialList	0	cvbn	-999999	16	305708	0	b	317	306025	258	-222	36	-40	42	18	16	7	9	90	0	0	0	0	4	4	2	2	0	2
Hungry_Donkey_bar_English_2	156	1	<?xml version="1.0"?>\n<Clock xmlns:dt="urn:schemas-microsoft-com:datatypes"><Description dt:dt="string">E-Prime Primary Realtime Clock</Description><StartTime><Timestamp dt:dt="int">0</Timestamp><DateUtc dt:dt="string">2016-06-09T20:59:51Z</DateUtc></StartTime><FrequencyChanges><FrequencyChange><Frequency dt:dt="r8">3507724</Frequency><Timestamp dt:dt="r8">57649893470</Timestamp><Current dt:dt="r8">0</Current><DateUtc dt:dt="string">2016-06-09T20:59:51Z</DateUtc></FrequencyChange></FrequencyChanges></Clock>\n	Hungry_Donkey_bar_English_2-156-1	60.018	25	1.0.0.18	1	1816005888	Standard	2.0.10.353	2.0.10.353	06-09-2016	6/9/2016 8:59:51 PM	16:59:51	2.0.10.248	91	Bar50-50.bmp	54	3	?	10r_4g.bmp	0r_4g.bmp	2r_2g.bmp	0r_2g.bmp			2r_2g.bmp		TrialProc	TrialList	0	cvbn	-999999	16	308057	0	b	320	308377	260	-224	36	-40	42	18	16	2	10	91	-10	0	-2	0	4	4	2	2	-2	2
Hungry_Donkey_bar_English_2	156	1	<?xml version="1.0"?>\n<Clock xmlns:dt="urn:schemas-microsoft-com:datatypes"><Description dt:dt="string">E-Prime Primary Realtime Clock</Description><StartTime><Timestamp dt:dt="int">0</Timestamp><DateUtc dt:dt="string">2016-06-09T20:59:51Z</DateUtc></StartTime><FrequencyChanges><FrequencyChange><Frequency dt:dt="r8">3507724</Frequency><Timestamp dt:dt="r8">57649893470</Timestamp><Current dt:dt="r8">0</Current><DateUtc dt:dt="string">2016-06-09T20:59:51Z</DateUtc></FrequencyChange></FrequencyChanges></Clock>\n	Hungry_Donkey_bar_English_2-156-1	60.018	25	1.0.0.18	1	1816005888	Standard	2.0.10.353	2.0.10.353	06-09-2016	6/9/2016 8:59:51 PM	16:59:51	2.0.10.248	92	Bar50-50.bmp	54	3	?	0r_4g.bmp	0r_4g.bmp	0r_2g.bmp	0r_2g.bmp			0r_2g.bmp		TrialProc	TrialList	0	cvbn	-999999	16	310406	0	b	307	310713	262	-224	38	-40	42	20	16	6	10	92	0	0	0	0	4	4	2	2	0	2
Hungry_Donkey_bar_English_2	156	1	<?xml version="1.0"?>\n<Clock xmlns:dt="urn:schemas-microsoft-com:datatypes"><Description dt:dt="string">E-Prime Primary Realtime Clock</Description><StartTime><Timestamp dt:dt="int">0</Timestamp><DateUtc dt:dt="string">2016-06-09T20:59:51Z</DateUtc></StartTime><FrequencyChanges><FrequencyChange><Frequency dt:dt="r8">3507724</Frequency><Timestamp dt:dt="r8">57649893470</Timestamp><Current dt:dt="r8">0</Current><DateUtc dt:dt="string">2016-06-09T20:59:51Z</DateUtc></FrequencyChange></FrequencyChanges></Clock>\n	Hungry_Donkey_bar_English_2-156-1	60.018	25	1.0.0.18	1	1816005888	Standard	2.0.10.353	2.0.10.353	06-09-2016	6/9/2016 8:59:51 PM	16:59:51	2.0.10.248	93	Bar50-50.bmp	54	3	?	10r_4g.bmp	0r_4g.bmp	2r_2g.bmp	0r_2g.bmp			2r_2g.bmp		TrialProc	TrialList	0	cvbn	-999999	16	312739	0	b	678	313417	264	-226	38	-40	42	20	16	3	10	93	-10	0	-2	0	4	4	2	2	-2	2
Hungry_Donkey_bar_English_2	156	1	<?xml version="1.0"?>\n<Clock xmlns:dt="urn:schemas-microsoft-com:datatypes"><Description dt:dt="string">E-Prime Primary Realtime Clock</Description><StartTime><Timestamp dt:dt="int">0</Timestamp><DateUtc dt:dt="string">2016-06-09T20:59:51Z</DateUtc></StartTime><FrequencyChanges><FrequencyChange><Frequency dt:dt="r8">3507724</Frequency><Timestamp dt:dt="r8">57649893470</Timestamp><Current dt:dt="r8">0</Current><DateUtc dt:dt="string">2016-06-09T20:59:51Z</DateUtc></FrequencyChange></FrequencyChanges></Clock>\n	Hungry_Donkey_bar_English_2-156-1	60.018	25	1.0.0.18	1	1816005888	Standard	2.0.10.353	2.0.10.353	06-09-2016	6/9/2016 8:59:51 PM	16:59:51	2.0.10.248	94	Bar50-50.bmp	54	2	?	0r_4g.bmp	0r_4g.bmp	0r_2g.bmp	0r_2g.bmp		0r_4g.bmp			TrialProc	TrialList	0	cvbn	-999999	16	315455	0	v	409	315864	268	-226	42	-40	46	20	16	8	10	94	0	0	0	0	4	4	2	2	0	4
Hungry_Donkey_bar_English_2	156	1	<?xml version="1.0"?>\n<Clock xmlns:dt="urn:schemas-microsoft-com:datatypes"><Description dt:dt="string">E-Prime Primary Realtime Clock</Description><StartTime><Timestamp dt:dt="int">0</Timestamp><DateUtc dt:dt="string">2016-06-09T20:59:51Z</DateUtc></StartTime><FrequencyChanges><FrequencyChange><Frequency dt:dt="r8">3507724</Frequency><Timestamp dt:dt="r8">57649893470</Timestamp><Current dt:dt="r8">0</Current><DateUtc dt:dt="string">2016-06-09T20:59:51Z</DateUtc></FrequencyChange></FrequencyChanges></Clock>\n	Hungry_Donkey_bar_English_2-156-1	60.018	25	1.0.0.18	1	1816005888	Standard	2.0.10.353	2.0.10.353	06-09-2016	6/9/2016 8:59:51 PM	16:59:51	2.0.10.248	95	Bar50-50.bmp	55	2	?	12r_4g.bmp	0r_4g.bmp	3r_2g.bmp	0r_2g.bmp		0r_4g.bmp			TrialProc	TrialList	0	cvbn	-999999	15	317887	0	v	377	318264	272	-226	46	-40	50	20	16	5	10	95	-12	0	-3	0	4	4	2	2	0	4
Hungry_Donkey_bar_English_2	156	1	<?xml version="1.0"?>\n<Clock xmlns:dt="urn:schemas-microsoft-com:datatypes"><Description dt:dt="string">E-Prime Primary Realtime Clock</Description><StartTime><Timestamp dt:dt="int">0</Timestamp><DateUtc dt:dt="string">2016-06-09T20:59:51Z</DateUtc></StartTime><FrequencyChanges><FrequencyChange><Frequency dt:dt="r8">3507724</Frequency><Timestamp dt:dt="r8">57649893470</Timestamp><Current dt:dt="r8">0</Current><DateUtc dt:dt="string">2016-06-09T20:59:51Z</DateUtc></FrequencyChange></FrequencyChanges></Clock>\n	Hungry_Donkey_bar_English_2-156-1	60.018	25	1.0.0.18	1	1816005888	Standard	2.0.10.353	2.0.10.353	06-09-2016	6/9/2016 8:59:51 PM	16:59:51	2.0.10.248	96	Bar50-50.bmp	54	1	?	8r_4g.bmp	50r_4g.bmp	1r_2g.bmp	10r_2g.bmp	8r_4g.bmp				TrialProc	TrialList	0	cvbn	-999999	16	320303	0	c	425	320728	276	-234	42	-44	50	20	16	1	10	96	-8	-50	-1	-10	4	4	2	2	-8	4
Hungry_Donkey_bar_English_2	156	1	<?xml version="1.0"?>\n<Clock xmlns:dt="urn:schemas-microsoft-com:datatypes"><Description dt:dt="string">E-Prime Primary Realtime Clock</Description><StartTime><Timestamp dt:dt="int">0</Timestamp><DateUtc dt:dt="string">2016-06-09T20:59:51Z</DateUtc></StartTime><FrequencyChanges><FrequencyChange><Frequency dt:dt="r8">3507724</Frequency><Timestamp dt:dt="r8">57649893470</Timestamp><Current dt:dt="r8">0</Current><DateUtc dt:dt="string">2016-06-09T20:59:51Z</DateUtc></FrequencyChange></FrequencyChanges></Clock>\n	Hungry_Donkey_bar_English_2-156-1	60.018	25	1.0.0.18	1	1816005888	Standard	2.0.10.353	2.0.10.353	06-09-2016	6/9/2016 8:59:51 PM	16:59:51	2.0.10.248	97	Bar50-50.bmp	54	2	?	0r_4g.bmp	0r_4g.bmp	0r_2g.bmp	0r_2g.bmp		0r_4g.bmp			TrialProc	TrialList	0	cvbn	-999999	16	322753	0	v	295	323048	280	-234	46	-44	54	20	16	9	10	97	0	0	0	0	4	4	2	2	0	4
Hungry_Donkey_bar_English_2	156	1	<?xml version="1.0"?>\n<Clock xmlns:dt="urn:schemas-microsoft-com:datatypes"><Description dt:dt="string">E-Prime Primary Realtime Clock</Description><StartTime><Timestamp dt:dt="int">0</Timestamp><DateUtc dt:dt="string">2016-06-09T20:59:51Z</DateUtc></StartTime><FrequencyChanges><FrequencyChange><Frequency dt:dt="r8">3507724</Frequency><Timestamp dt:dt="r8">57649893470</Timestamp><Current dt:dt="r8">0</Current><DateUtc dt:dt="string">2016-06-09T20:59:51Z</DateUtc></FrequencyChange></FrequencyChanges></Clock>\n	Hungry_Donkey_bar_English_2-156-1	60.018	25	1.0.0.18	1	1816005888	Standard	2.0.10.353	2.0.10.353	06-09-2016	6/9/2016 8:59:51 PM	16:59:51	2.0.10.248	98	Bar50-50.bmp	55	4	?	0r_4g.bmp	0r_4g.bmp	0r_2g.bmp	0r_2g.bmp				0r_2g.bmp	TrialProc	TrialList	0	cvbn	-999999	16	325085	0	n	619	325704	282	-234	48	-44	54	20	18	7	10	98	0	0	0	0	4	4	2	2	0	2
Hungry_Donkey_bar_English_2	156	1	<?xml version="1.0"?>\n<Clock xmlns:dt="urn:schemas-microsoft-com:datatypes"><Description dt:dt="string">E-Prime Primary Realtime Clock</Description><StartTime><Timestamp dt:dt="int">0</Timestamp><DateUtc dt:dt="string">2016-06-09T20:59:51Z</DateUtc></StartTime><FrequencyChanges><FrequencyChange><Frequency dt:dt="r8">3507724</Frequency><Timestamp dt:dt="r8">57649893470</Timestamp><Current dt:dt="r8">0</Current><DateUtc dt:dt="string">2016-06-09T20:59:51Z</DateUtc></FrequencyChange></FrequencyChanges></Clock>\n	Hungry_Donkey_bar_English_2-156-1	60.018	25	1.0.0.18	1	1816005888	Standard	2.0.10.353	2.0.10.353	06-09-2016	6/9/2016 8:59:51 PM	16:59:51	2.0.10.248	99	Bar50-50.bmp	55	3	?	10r_4g.bmp	0r_4g.bmp	2r_2g.bmp	0r_2g.bmp			2r_2g.bmp		TrialProc	TrialList	0	cvbn	-999999	16	327734	0	b	18	327752	284	-236	48	-44	54	20	18	4	10	99	-10	0	-2	0	4	4	2	2	-2	2
Hungry_Donkey_bar_English_2	156	1	<?xml version="1.0"?>\n<Clock xmlns:dt="urn:schemas-microsoft-com:datatypes"><Description dt:dt="string">E-Prime Primary Realtime Clock</Description><StartTime><Timestamp dt:dt="int">0</Timestamp><DateUtc dt:dt="string">2016-06-09T20:59:51Z</DateUtc></StartTime><FrequencyChanges><FrequencyChange><Frequency dt:dt="r8">3507724</Frequency><Timestamp dt:dt="r8">57649893470</Timestamp><Current dt:dt="r8">0</Current><DateUtc dt:dt="string">2016-06-09T20:59:51Z</DateUtc></FrequencyChange></FrequencyChanges></Clock>\n	Hungry_Donkey_bar_English_2-156-1	60.018	25	1.0.0.18	1	1816005888	Standard	2.0.10.353	2.0.10.353	06-09-2016	6/9/2016 8:59:51 PM	16:59:51	2.0.10.248	100	Bar50-50.bmp	55	4	?	0r_4g.bmp	0r_4g.bmp	0r_2g.bmp	0r_2g.bmp				0r_2g.bmp	TrialProc	TrialList	0	cvbn	-999999	16	329784	0	n	384	330168	286	-236	50	-44	54	20	20	10	10	100	0	0	0	0	4	4	2	2	0	2
Hungry_Donkey_bar_English_2	156	1	<?xml version="1.0"?>\n<Clock xmlns:dt="urn:schemas-microsoft-com:datatypes"><Description dt:dt="string">E-Prime Primary Realtime Clock</Description><StartTime><Timestamp dt:dt="int">0</Timestamp><DateUtc dt:dt="string">2016-06-09T20:59:51Z</DateUtc></StartTime><FrequencyChanges><FrequencyChange><Frequency dt:dt="r8">3507724</Frequency><Timestamp dt:dt="r8">57649893470</Timestamp><Current dt:dt="r8">0</Current><DateUtc dt:dt="string">2016-06-09T20:59:51Z</DateUtc></FrequencyChange></FrequencyChanges></Clock>\n	Hungry_Donkey_bar_English_2-156-1	60.018	25	1.0.0.18	1	1816005888	Standard	2.0.10.353	2.0.10.353	06-09-2016	6/9/2016 8:59:51 PM	16:59:51	2.0.10.248	101	Bar50-50.bmp	55	2	?	0r_4g.bmp	0r_4g.bmp	0r_2g.bmp	0r_2g.bmp		0r_4g.bmp			TrialProc	TrialList	0	cvbn	-999999	16	332200	0	v	31	332231	290	-236	54	-44	58	20	20	6	11	101	0	0	0	0	4	4	2	2	0	4
Hungry_Donkey_bar_English_2	156	1	<?xml version="1.0"?>\n<Clock xmlns:dt="urn:schemas-microsoft-com:datatypes"><Description dt:dt="string">E-Prime Primary Realtime Clock</Description><StartTime><Timestamp dt:dt="int">0</Timestamp><DateUtc dt:dt="string">2016-06-09T20:59:51Z</DateUtc></StartTime><FrequencyChanges><FrequencyChange><Frequency dt:dt="r8">3507724</Frequency><Timestamp dt:dt="r8">57649893470</Timestamp><Current dt:dt="r8">0</Current><DateUtc dt:dt="string">2016-06-09T20:59:51Z</DateUtc></FrequencyChange></FrequencyChanges></Clock>\n	Hungry_Donkey_bar_English_2-156-1	60.018	25	1.0.0.18	1	1816005888	Standard	2.0.10.353	2.0.10.353	06-09-2016	6/9/2016 8:59:51 PM	16:59:51	2.0.10.248	102	Bar50-50.bmp	55	4	?	12r_4g.bmp	0r_4g.bmp	3r_2g.bmp	0r_2g.bmp				0r_2g.bmp	TrialProc	TrialList	0	cvbn	-999999	16	334266	0	n	109	334375	292	-236	56	-44	58	20	22	5	11	102	-12	0	-3	0	4	4	2	2	0	2
Hungry_Donkey_bar_English_2	156	1	<?xml version="1.0"?>\n<Clock xmlns:dt="urn:schemas-microsoft-com:datatypes"><Description dt:dt="string">E-Prime Primary Realtime Clock</Description><StartTime><Timestamp dt:dt="int">0</Timestamp><DateUtc dt:dt="string">2016-06-09T20:59:51Z</DateUtc></StartTime><FrequencyChanges><FrequencyChange><Frequency dt:dt="r8">3507724</Frequency><Timestamp dt:dt="r8">57649893470</Timestamp><Current dt:dt="r8">0</Current><DateUtc dt:dt="string">2016-06-09T20:59:51Z</DateUtc></FrequencyChange></FrequencyChanges></Clock>\n	Hungry_Donkey_bar_English_2-156-1	60.018	25	1.0.0.18	1	1816005888	Standard	2.0.10.353	2.0.10.353	06-09-2016	6/9/2016 8:59:51 PM	16:59:51	2.0.10.248	103	Bar50-50.bmp	56	1	?	0r_4g.bmp	0r_4g.bmp	0r_2g.bmp	0r_2g.bmp	0r_4g.bmp				TrialProc	TrialList	0	cvbn	-999999	17	336399	0	c	24	336423	296	-236	60	-40	58	20	22	7	11	103	0	0	0	0	4	4	2	2	0	4
Hungry_Donkey_bar_English_2	156	1	<?xml version="1.0"?>\n<Clock xmlns:dt="urn:schemas-microsoft-com:datatypes"><Description dt:dt="string">E-Prime Primary Realtime Clock</Description><StartTime><Timestamp dt:dt="int">0</Timestamp><DateUtc dt:dt="string">2016-06-09T20:59:51Z</DateUtc></StartTime><FrequencyChanges><FrequencyChange><Frequency dt:dt="r8">3507724</Frequency><Timestamp dt:dt="r8">57649893470</Timestamp><Current dt:dt="r8">0</Current><DateUtc dt:dt="string">2016-06-09T20:59:51Z</DateUtc></FrequencyChange></FrequencyChanges></Clock>\n	Hungry_Donkey_bar_English_2-156-1	60.018	25	1.0.0.18	1	1816005888	Standard	2.0.10.353	2.0.10.353	06-09-2016	6/9/2016 8:59:51 PM	16:59:51	2.0.10.248	104	Bar50-50.bmp	56	3	?	10r_4g.bmp	0r_4g.bmp	2r_2g.bmp	0r_2g.bmp			2r_2g.bmp		TrialProc	TrialList	0	cvbn	-999999	16	338465	0	b	1478	339943	298	-238	60	-40	58	20	22	2	11	104	-10	0	-2	0	4	4	2	2	-2	2
Hungry_Donkey_bar_English_2	156	1	<?xml version="1.0"?>\n<Clock xmlns:dt="urn:schemas-microsoft-com:datatypes"><Description dt:dt="string">E-Prime Primary Realtime Clock</Description><StartTime><Timestamp dt:dt="int">0</Timestamp><DateUtc dt:dt="string">2016-06-09T20:59:51Z</DateUtc></StartTime><FrequencyChanges><FrequencyChange><Frequency dt:dt="r8">3507724</Frequency><Timestamp dt:dt="r8">57649893470</Timestamp><Current dt:dt="r8">0</Current><DateUtc dt:dt="string">2016-06-09T20:59:51Z</DateUtc></FrequencyChange></FrequencyChanges></Clock>\n	Hungry_Donkey_bar_English_2-156-1	60.018	25	1.0.0.18	1	1816005888	Standard	2.0.10.353	2.0.10.353	06-09-2016	6/9/2016 8:59:51 PM	16:59:51	2.0.10.248	105	Bar50-50.bmp	56	2	?	10r_4g.bmp	0r_4g.bmp	2r_2g.bmp	0r_2g.bmp		0r_4g.bmp			TrialProc	TrialList	0	cvbn	-999999	16	341980	0	v	379	342359	302	-238	64	-40	62	20	22	4	11	105	-10	0	-2	0	4	4	2	2	0	4
Hungry_Donkey_bar_English_2	156	1	<?xml version="1.0"?>\n<Clock xmlns:dt="urn:schemas-microsoft-com:datatypes"><Description dt:dt="string">E-Prime Primary Realtime Clock</Description><StartTime><Timestamp dt:dt="int">0</Timestamp><DateUtc dt:dt="string">2016-06-09T20:59:51Z</DateUtc></StartTime><FrequencyChanges><FrequencyChange><Frequency dt:dt="r8">3507724</Frequency><Timestamp dt:dt="r8">57649893470</Timestamp><Current dt:dt="r8">0</Current><DateUtc dt:dt="string">2016-06-09T20:59:51Z</DateUtc></FrequencyChange></FrequencyChanges></Clock>\n	Hungry_Donkey_bar_English_2-156-1	60.018	25	1.0.0.18	1	1816005888	Standard	2.0.10.353	2.0.10.353	06-09-2016	6/9/2016 8:59:51 PM	16:59:51	2.0.10.248	106	Bar50-50.bmp	55	4	?	8r_4g.bmp	50r_4g.bmp	1r_2g.bmp	10r_2g.bmp				10r_2g.bmp	TrialProc	TrialList	0	cvbn	-999999	16	344396	0	n	395	344791	304	-248	56	-40	62	20	14	1	11	106	-8	-50	-1	-10	4	4	2	2	-10	2
Hungry_Donkey_bar_English_2	156	1	<?xml version="1.0"?>\n<Clock xmlns:dt="urn:schemas-microsoft-com:datatypes"><Description dt:dt="string">E-Prime Primary Realtime Clock</Description><StartTime><Timestamp dt:dt="int">0</Timestamp><DateUtc dt:dt="string">2016-06-09T20:59:51Z</DateUtc></StartTime><FrequencyChanges><FrequencyChange><Frequency dt:dt="r8">3507724</Frequency><Timestamp dt:dt="r8">57649893470</Timestamp><Current dt:dt="r8">0</Current><DateUtc dt:dt="string">2016-06-09T20:59:51Z</DateUtc></FrequencyChange></FrequencyChanges></Clock>\n	Hungry_Donkey_bar_English_2-156-1	60.018	25	1.0.0.18	1	1816005888	Standard	2.0.10.353	2.0.10.353	06-09-2016	6/9/2016 8:59:51 PM	16:59:51	2.0.10.248	107	Bar50-50.bmp	55	2	?	0r_4g.bmp	0r_4g.bmp	0r_2g.bmp	0r_2g.bmp		0r_4g.bmp			TrialProc	TrialList	0	cvbn	-999999	16	346829	0	v	1737	348566	308	-248	60	-40	66	20	14	8	11	107	0	0	0	0	4	4	2	2	0	4
Hungry_Donkey_bar_English_2	156	1	<?xml version="1.0"?>\n<Clock xmlns:dt="urn:schemas-microsoft-com:datatypes"><Description dt:dt="string">E-Prime Primary Realtime Clock</Description><StartTime><Timestamp dt:dt="int">0</Timestamp><DateUtc dt:dt="string">2016-06-09T20:59:51Z</DateUtc></StartTime><FrequencyChanges><FrequencyChange><Frequency dt:dt="r8">3507724</Frequency><Timestamp dt:dt="r8">57649893470</Timestamp><Current dt:dt="r8">0</Current><DateUtc dt:dt="string">2016-06-09T20:59:51Z</DateUtc></FrequencyChange></FrequencyChanges></Clock>\n	Hungry_Donkey_bar_English_2-156-1	60.018	25	1.0.0.18	1	1816005888	Standard	2.0.10.353	2.0.10.353	06-09-2016	6/9/2016 8:59:51 PM	16:59:51	2.0.10.248	108	Bar50-50.bmp	56	3	?	0r_4g.bmp	0r_4g.bmp	0r_2g.bmp	0r_2g.bmp			0r_2g.bmp		TrialProc	TrialList	0	cvbn	-999999	16	350594	0	b	436	351030	310	-248	62	-40	66	22	14	9	11	108	0	0	0	0	4	4	2	2	0	2
Hungry_Donkey_bar_English_2	156	1	<?xml version="1.0"?>\n<Clock xmlns:dt="urn:schemas-microsoft-com:datatypes"><Description dt:dt="string">E-Prime Primary Realtime Clock</Description><StartTime><Timestamp dt:dt="int">0</Timestamp><DateUtc dt:dt="string">2016-06-09T20:59:51Z</DateUtc></StartTime><FrequencyChanges><FrequencyChange><Frequency dt:dt="r8">3507724</Frequency><Timestamp dt:dt="r8">57649893470</Timestamp><Current dt:dt="r8">0</Current><DateUtc dt:dt="string">2016-06-09T20:59:51Z</DateUtc></FrequencyChange></FrequencyChanges></Clock>\n	Hungry_Donkey_bar_English_2-156-1	60.018	25	1.0.0.18	1	1816005888	Standard	2.0.10.353	2.0.10.353	06-09-2016	6/9/2016 8:59:51 PM	16:59:51	2.0.10.248	109	Bar50-50.bmp	55	1	?	10r_4g.bmp	0r_4g.bmp	2r_2g.bmp	0r_2g.bmp	10r_4g.bmp				TrialProc	TrialList	0	cvbn	-999999	16	353060	0	c	386	353446	314	-258	56	-46	66	22	14	3	11	109	-10	0	-2	0	4	4	2	2	-10	4
Hungry_Donkey_bar_English_2	156	1	<?xml version="1.0"?>\n<Clock xmlns:dt="urn:schemas-microsoft-com:datatypes"><Description dt:dt="string">E-Prime Primary Realtime Clock</Description><StartTime><Timestamp dt:dt="int">0</Timestamp><DateUtc dt:dt="string">2016-06-09T20:59:51Z</DateUtc></StartTime><FrequencyChanges><FrequencyChange><Frequency dt:dt="r8">3507724</Frequency><Timestamp dt:dt="r8">57649893470</Timestamp><Current dt:dt="r8">0</Current><DateUtc dt:dt="string">2016-06-09T20:59:51Z</DateUtc></FrequencyChange></FrequencyChanges></Clock>\n	Hungry_Donkey_bar_English_2-156-1	60.018	25	1.0.0.18	1	1816005888	Standard	2.0.10.353	2.0.10.353	06-09-2016	6/9/2016 8:59:51 PM	16:59:51	2.0.10.248	110	Bar50-50.bmp	55	4	?	0r_4g.bmp	0r_4g.bmp	0r_2g.bmp	0r_2g.bmp				0r_2g.bmp	TrialProc	TrialList	0	cvbn	-999999	16	355476	0	n	434	355910	316	-258	58	-46	66	22	16	10	11	110	0	0	0	0	4	4	2	2	0	2
Hungry_Donkey_bar_English_2	156	1	<?xml version="1.0"?>\n<Clock xmlns:dt="urn:schemas-microsoft-com:datatypes"><Description dt:dt="string">E-Prime Primary Realtime Clock</Description><StartTime><Timestamp dt:dt="int">0</Timestamp><DateUtc dt:dt="string">2016-06-09T20:59:51Z</DateUtc></StartTime><FrequencyChanges><FrequencyChange><Frequency dt:dt="r8">3507724</Frequency><Timestamp dt:dt="r8">57649893470</Timestamp><Current dt:dt="r8">0</Current><DateUtc dt:dt="string">2016-06-09T20:59:51Z</DateUtc></FrequencyChange></FrequencyChanges></Clock>\n	Hungry_Donkey_bar_English_2-156-1	60.018	25	1.0.0.18	1	1816005888	Standard	2.0.10.353	2.0.10.353	06-09-2016	6/9/2016 8:59:51 PM	16:59:51	2.0.10.248	111	Bar50-50.bmp	55	3	?	0r_4g.bmp	0r_4g.bmp	0r_2g.bmp	0r_2g.bmp			0r_2g.bmp		TrialProc	TrialList	0	cvbn	-999999	16	357942	0	b	368	358310	318	-258	60	-46	66	24	16	8	12	111	0	0	0	0	4	4	2	2	0	2
