ExperimentName	Subject	Session	Clock.Information	DataFile.Basename	Display.RefreshRate	Eindtotaal[Session]	ExperimentVersion	Group	RandomSeed	RuntimeCapabilities	RuntimeVersion	RuntimeVersionExpected	SessionDate	SessionStartDateTimeUtc	SessionTime	StudioVersion	Block	BarImage	BarTotalWinst	DoorChoice	Eindtotaal[Block]	FBDoor1	FBDoor2	FBDoor3	FBDoor4	Image1	Image2	Image3	Image4	Procedure	Running	spel.ACC	spel.CRESP	spel.DurationError	spel.OnsetDelay	spel.OnsetTime	spel.OnsetToOnsetTime	spel.RESP	spel.RT	spel.RTTime	TotalGain	TotalLose	Totalsum	TotalsumD1	TotalsumD2	TotalsumD3	TotalsumD4	TrialList	TrialList.Cycle	TrialList.Sample	varV1	varV2	varV3	varV4	varW1	varW2	varW3	varW4	Verliesbedrag	Winstbedrag
Hungry_Donkey_bar_English_2	135	1	<?xml version="1.0"?>\n<Clock xmlns:dt="urn:schemas-microsoft-com:datatypes"><Description dt:dt="string">E-Prime Primary Realtime Clock</Description><StartTime><Timestamp dt:dt="int">0</Timestamp><DateUtc dt:dt="string">2016-03-16T22:39:06Z</DateUtc></StartTime><FrequencyChanges><FrequencyChange><Frequency dt:dt="r8">3507724</Frequency><Timestamp dt:dt="r8">2140906903903</Timestamp><Current dt:dt="r8">0</Current><DateUtc dt:dt="string">2016-03-16T22:39:06Z</DateUtc></FrequencyChange></FrequencyChanges></Clock>\n	Hungry_Donkey_bar_English_2-135-1	60.018	-294	1.0.0.18	1	2013867047	Standard	2.0.10.353	2.0.10.353	03-16-2016		18:39:06	2.0.10.248	1	Bar100-0.bmp	100	1	?	0r_4g.bmp	0r_4g.bmp	0r_2g.bmp	0r_2g.bmp	0r_4g.bmp				TrialProc	TrialList	0	cvbn	-999999	22	89049	0	c	3257	92306	4	0	4	4	0	0	0	9	1	1	0	0	0	0	4	4	2	2	0	4
Hungry_Donkey_bar_English_2	135	1	<?xml version="1.0"?>\n<Clock xmlns:dt="urn:schemas-microsoft-com:datatypes"><Description dt:dt="string">E-Prime Primary Realtime Clock</Description><StartTime><Timestamp dt:dt="int">0</Timestamp><DateUtc dt:dt="string">2016-03-16T22:39:06Z</DateUtc></StartTime><FrequencyChanges><FrequencyChange><Frequency dt:dt="r8">3507724</Frequency><Timestamp dt:dt="r8">2140906903903</Timestamp><Current dt:dt="r8">0</Current><DateUtc dt:dt="string">2016-03-16T22:39:06Z</DateUtc></FrequencyChange></FrequencyChanges></Clock>\n	Hungry_Donkey_bar_English_2-135-1	60.018	-294	1.0.0.18	1	2013867047	Standard	2.0.10.353	2.0.10.353	03-16-2016		18:39:06	2.0.10.248	2	Bar75-25.bmp	75	3	?	10r_4g.bmp	0r_4g.bmp	2r_2g.bmp	0r_2g.bmp			2r_2g.bmp		TrialProc	TrialList	0	cvbn	-999999	16	94348	0	b	5638	99986	6	-2	4	4	0	0	0	2	1	2	-10	0	-2	0	4	4	2	2	-2	2
Hungry_Donkey_bar_English_2	135	1	<?xml version="1.0"?>\n<Clock xmlns:dt="urn:schemas-microsoft-com:datatypes"><Description dt:dt="string">E-Prime Primary Realtime Clock</Description><StartTime><Timestamp dt:dt="int">0</Timestamp><DateUtc dt:dt="string">2016-03-16T22:39:06Z</DateUtc></StartTime><FrequencyChanges><FrequencyChange><Frequency dt:dt="r8">3507724</Frequency><Timestamp dt:dt="r8">2140906903903</Timestamp><Current dt:dt="r8">0</Current><DateUtc dt:dt="string">2016-03-16T22:39:06Z</DateUtc></FrequencyChange></FrequencyChanges></Clock>\n	Hungry_Donkey_bar_English_2-135-1	60.018	-294	1.0.0.18	1	2013867047	Standard	2.0.10.353	2.0.10.353	03-16-2016		18:39:06	2.0.10.248	3	Bar75-25.bmp	80	4	?	0r_4g.bmp	0r_4g.bmp	0r_2g.bmp	0r_2g.bmp				0r_2g.bmp	TrialProc	TrialList	0	cvbn	-999999	16	102029	0	n	1125	103154	8	-2	6	4	0	0	2	10	1	3	0	0	0	0	4	4	2	2	0	2
Hungry_Donkey_bar_English_2	135	1	<?xml version="1.0"?>\n<Clock xmlns:dt="urn:schemas-microsoft-com:datatypes"><Description dt:dt="string">E-Prime Primary Realtime Clock</Description><StartTime><Timestamp dt:dt="int">0</Timestamp><DateUtc dt:dt="string">2016-03-16T22:39:06Z</DateUtc></StartTime><FrequencyChanges><FrequencyChange><Frequency dt:dt="r8">3507724</Frequency><Timestamp dt:dt="r8">2140906903903</Timestamp><Current dt:dt="r8">0</Current><DateUtc dt:dt="string">2016-03-16T22:39:06Z</DateUtc></FrequencyChange></FrequencyChanges></Clock>\n	Hungry_Donkey_bar_English_2-135-1	60.018	-294	1.0.0.18	1	2013867047	Standard	2.0.10.353	2.0.10.353	03-16-2016		18:39:06	2.0.10.248	4	Bar13-87.bmp	19	2	?	8r_4g.bmp	50r_4g.bmp	1r_2g.bmp	10r_2g.bmp		50r_4g.bmp			TrialProc	TrialList	0	cvbn	-999999	16	105194	0	v	1016	106210	12	-52	-40	4	-46	0	2	1	1	4	-8	-50	-1	-10	4	4	2	2	-50	4
Hungry_Donkey_bar_English_2	135	1	<?xml version="1.0"?>\n<Clock xmlns:dt="urn:schemas-microsoft-com:datatypes"><Description dt:dt="string">E-Prime Primary Realtime Clock</Description><StartTime><Timestamp dt:dt="int">0</Timestamp><DateUtc dt:dt="string">2016-03-16T22:39:06Z</DateUtc></StartTime><FrequencyChanges><FrequencyChange><Frequency dt:dt="r8">3507724</Frequency><Timestamp dt:dt="r8">2140906903903</Timestamp><Current dt:dt="r8">0</Current><DateUtc dt:dt="string">2016-03-16T22:39:06Z</DateUtc></FrequencyChange></FrequencyChanges></Clock>\n	Hungry_Donkey_bar_English_2-135-1	60.018	-294	1.0.0.18	1	2013867047	Standard	2.0.10.353	2.0.10.353	03-16-2016		18:39:06	2.0.10.248	5	Bar25-75.bmp	21	3	?	10r_4g.bmp	0r_4g.bmp	2r_2g.bmp	0r_2g.bmp			2r_2g.bmp		TrialProc	TrialList	0	cvbn	-999999	16	108243	0	b	1150	109393	14	-54	-40	4	-46	0	2	4	1	5	-10	0	-2	0	4	4	2	2	-2	2
Hungry_Donkey_bar_English_2	135	1	<?xml version="1.0"?>\n<Clock xmlns:dt="urn:schemas-microsoft-com:datatypes"><Description dt:dt="string">E-Prime Primary Realtime Clock</Description><StartTime><Timestamp dt:dt="int">0</Timestamp><DateUtc dt:dt="string">2016-03-16T22:39:06Z</DateUtc></StartTime><FrequencyChanges><FrequencyChange><Frequency dt:dt="r8">3507724</Frequency><Timestamp dt:dt="r8">2140906903903</Timestamp><Current dt:dt="r8">0</Current><DateUtc dt:dt="string">2016-03-16T22:39:06Z</DateUtc></FrequencyChange></FrequencyChanges></Clock>\n	Hungry_Donkey_bar_English_2-135-1	60.018	-294	1.0.0.18	1	2013867047	Standard	2.0.10.353	2.0.10.353	03-16-2016		18:39:06	2.0.10.248	6	Bar25-75.bmp	25	1	?	0r_4g.bmp	0r_4g.bmp	0r_2g.bmp	0r_2g.bmp	0r_4g.bmp				TrialProc	TrialList	0	cvbn	-999999	16	111426	0	c	735	112161	18	-54	-36	8	-46	0	2	7	1	6	0	0	0	0	4	4	2	2	0	4
Hungry_Donkey_bar_English_2	135	1	<?xml version="1.0"?>\n<Clock xmlns:dt="urn:schemas-microsoft-com:datatypes"><Description dt:dt="string">E-Prime Primary Realtime Clock</Description><StartTime><Timestamp dt:dt="int">0</Timestamp><DateUtc dt:dt="string">2016-03-16T22:39:06Z</DateUtc></StartTime><FrequencyChanges><FrequencyChange><Frequency dt:dt="r8">3507724</Frequency><Timestamp dt:dt="r8">2140906903903</Timestamp><Current dt:dt="r8">0</Current><DateUtc dt:dt="string">2016-03-16T22:39:06Z</DateUtc></FrequencyChange></FrequencyChanges></Clock>\n	Hungry_Donkey_bar_English_2-135-1	60.018	-294	1.0.0.18	1	2013867047	Standard	2.0.10.353	2.0.10.353	03-16-2016		18:39:06	2.0.10.248	7	Bar25-75.bmp	29	1	?	0r_4g.bmp	0r_4g.bmp	0r_2g.bmp	0r_2g.bmp	0r_4g.bmp				TrialProc	TrialList	0	cvbn	-999999	16	114192	0	c	1025	115217	22	-54	-32	12	-46	0	2	6	1	7	0	0	0	0	4	4	2	2	0	4
Hungry_Donkey_bar_English_2	135	1	<?xml version="1.0"?>\n<Clock xmlns:dt="urn:schemas-microsoft-com:datatypes"><Description dt:dt="string">E-Prime Primary Realtime Clock</Description><StartTime><Timestamp dt:dt="int">0</Timestamp><DateUtc dt:dt="string">2016-03-16T22:39:06Z</DateUtc></StartTime><FrequencyChanges><FrequencyChange><Frequency dt:dt="r8">3507724</Frequency><Timestamp dt:dt="r8">2140906903903</Timestamp><Current dt:dt="r8">0</Current><DateUtc dt:dt="string">2016-03-16T22:39:06Z</DateUtc></FrequencyChange></FrequencyChanges></Clock>\n	Hungry_Donkey_bar_English_2-135-1	60.018	-294	1.0.0.18	1	2013867047	Standard	2.0.10.353	2.0.10.353	03-16-2016		18:39:06	2.0.10.248	8	Bar25-75.bmp	28	1	?	12r_4g.bmp	0r_4g.bmp	3r_2g.bmp	0r_2g.bmp	12r_4g.bmp				TrialProc	TrialList	0	cvbn	-999999	16	117241	0	c	824	118065	26	-66	-40	4	-46	0	2	5	1	8	-12	0	-3	0	4	4	2	2	-12	4
Hungry_Donkey_bar_English_2	135	1	<?xml version="1.0"?>\n<Clock xmlns:dt="urn:schemas-microsoft-com:datatypes"><Description dt:dt="string">E-Prime Primary Realtime Clock</Description><StartTime><Timestamp dt:dt="int">0</Timestamp><DateUtc dt:dt="string">2016-03-16T22:39:06Z</DateUtc></StartTime><FrequencyChanges><FrequencyChange><Frequency dt:dt="r8">3507724</Frequency><Timestamp dt:dt="r8">2140906903903</Timestamp><Current dt:dt="r8">0</Current><DateUtc dt:dt="string">2016-03-16T22:39:06Z</DateUtc></FrequencyChange></FrequencyChanges></Clock>\n	Hungry_Donkey_bar_English_2-135-1	60.018	-294	1.0.0.18	1	2013867047	Standard	2.0.10.353	2.0.10.353	03-16-2016		18:39:06	2.0.10.248	9	Bar25-75.bmp	30	4	?	10r_4g.bmp	0r_4g.bmp	2r_2g.bmp	0r_2g.bmp				0r_2g.bmp	TrialProc	TrialList	0	cvbn	-999999	16	120107	0	n	630	120737	28	-66	-38	4	-46	0	4	3	1	9	-10	0	-2	0	4	4	2	2	0	2
Hungry_Donkey_bar_English_2	135	1	<?xml version="1.0"?>\n<Clock xmlns:dt="urn:schemas-microsoft-com:datatypes"><Description dt:dt="string">E-Prime Primary Realtime Clock</Description><StartTime><Timestamp dt:dt="int">0</Timestamp><DateUtc dt:dt="string">2016-03-16T22:39:06Z</DateUtc></StartTime><FrequencyChanges><FrequencyChange><Frequency dt:dt="r8">3507724</Frequency><Timestamp dt:dt="r8">2140906903903</Timestamp><Current dt:dt="r8">0</Current><DateUtc dt:dt="string">2016-03-16T22:39:06Z</DateUtc></FrequencyChange></FrequencyChanges></Clock>\n	Hungry_Donkey_bar_English_2-135-1	60.018	-294	1.0.0.18	1	2013867047	Standard	2.0.10.353	2.0.10.353	03-16-2016		18:39:06	2.0.10.248	10	Bar37-63.bmp	33	2	?	0r_4g.bmp	0r_4g.bmp	0r_2g.bmp	0r_2g.bmp		0r_4g.bmp			TrialProc	TrialList	0	cvbn	-999999	16	122772	0	v	701	123473	32	-66	-34	4	-42	0	4	8	1	10	0	0	0	0	4	4	2	2	0	4
Hungry_Donkey_bar_English_2	135	1	<?xml version="1.0"?>\n<Clock xmlns:dt="urn:schemas-microsoft-com:datatypes"><Description dt:dt="string">E-Prime Primary Realtime Clock</Description><StartTime><Timestamp dt:dt="int">0</Timestamp><DateUtc dt:dt="string">2016-03-16T22:39:06Z</DateUtc></StartTime><FrequencyChanges><FrequencyChange><Frequency dt:dt="r8">3507724</Frequency><Timestamp dt:dt="r8">2140906903903</Timestamp><Current dt:dt="r8">0</Current><DateUtc dt:dt="string">2016-03-16T22:39:06Z</DateUtc></FrequencyChange></FrequencyChanges></Clock>\n	Hungry_Donkey_bar_English_2-135-1	60.018	-294	1.0.0.18	1	2013867047	Standard	2.0.10.353	2.0.10.353	03-16-2016		18:39:06	2.0.10.248	11	Bar37-63.bmp	33	3	?	10r_4g.bmp	0r_4g.bmp	2r_2g.bmp	0r_2g.bmp			2r_2g.bmp		TrialProc	TrialList	0	cvbn	-999999	16	125505	0	b	735	126240	34	-68	-34	4	-42	0	4	3	2	11	-10	0	-2	0	4	4	2	2	-2	2
Hungry_Donkey_bar_English_2	135	1	<?xml version="1.0"?>\n<Clock xmlns:dt="urn:schemas-microsoft-com:datatypes"><Description dt:dt="string">E-Prime Primary Realtime Clock</Description><StartTime><Timestamp dt:dt="int">0</Timestamp><DateUtc dt:dt="string">2016-03-16T22:39:06Z</DateUtc></StartTime><FrequencyChanges><FrequencyChange><Frequency dt:dt="r8">3507724</Frequency><Timestamp dt:dt="r8">2140906903903</Timestamp><Current dt:dt="r8">0</Current><DateUtc dt:dt="string">2016-03-16T22:39:06Z</DateUtc></FrequencyChange></FrequencyChanges></Clock>\n	Hungry_Donkey_bar_English_2-135-1	60.018	-294	1.0.0.18	1	2013867047	Standard	2.0.10.353	2.0.10.353	03-16-2016		18:39:06	2.0.10.248	12	Bar37-63.bmp	36	1	?	0r_4g.bmp	0r_4g.bmp	0r_2g.bmp	0r_2g.bmp	0r_4g.bmp				TrialProc	TrialList	0	cvbn	-999999	16	128271	0	c	673	128944	38	-68	-30	8	-42	0	4	9	2	12	0	0	0	0	4	4	2	2	0	4
Hungry_Donkey_bar_English_2	135	1	<?xml version="1.0"?>\n<Clock xmlns:dt="urn:schemas-microsoft-com:datatypes"><Description dt:dt="string">E-Prime Primary Realtime Clock</Description><StartTime><Timestamp dt:dt="int">0</Timestamp><DateUtc dt:dt="string">2016-03-16T22:39:06Z</DateUtc></StartTime><FrequencyChanges><FrequencyChange><Frequency dt:dt="r8">3507724</Frequency><Timestamp dt:dt="r8">2140906903903</Timestamp><Current dt:dt="r8">0</Current><DateUtc dt:dt="string">2016-03-16T22:39:06Z</DateUtc></FrequencyChange></FrequencyChanges></Clock>\n	Hungry_Donkey_bar_English_2-135-1	60.018	-294	1.0.0.18	1	2013867047	Standard	2.0.10.353	2.0.10.353	03-16-2016		18:39:06	2.0.10.248	13	Bar37-63.bmp	37	4	?	0r_4g.bmp	0r_4g.bmp	0r_2g.bmp	0r_2g.bmp				0r_2g.bmp	TrialProc	TrialList	0	cvbn	-999999	16	130970	0	n	694	131664	40	-68	-28	8	-42	0	6	6	2	13	0	0	0	0	4	4	2	2	0	2
Hungry_Donkey_bar_English_2	135	1	<?xml version="1.0"?>\n<Clock xmlns:dt="urn:schemas-microsoft-com:datatypes"><Description dt:dt="string">E-Prime Primary Realtime Clock</Description><StartTime><Timestamp dt:dt="int">0</Timestamp><DateUtc dt:dt="string">2016-03-16T22:39:06Z</DateUtc></StartTime><FrequencyChanges><FrequencyChange><Frequency dt:dt="r8">3507724</Frequency><Timestamp dt:dt="r8">2140906903903</Timestamp><Current dt:dt="r8">0</Current><DateUtc dt:dt="string">2016-03-16T22:39:06Z</DateUtc></FrequencyChange></FrequencyChanges></Clock>\n	Hungry_Donkey_bar_English_2-135-1	60.018	-294	1.0.0.18	1	2013867047	Standard	2.0.10.353	2.0.10.353	03-16-2016		18:39:06	2.0.10.248	14	Bar37-63.bmp	39	2	?	0r_4g.bmp	0r_4g.bmp	0r_2g.bmp	0r_2g.bmp		0r_4g.bmp			TrialProc	TrialList	0	cvbn	-999999	17	133703	0	v	473	134176	44	-68	-24	8	-38	0	6	10	2	14	0	0	0	0	4	4	2	2	0	4
Hungry_Donkey_bar_English_2	135	1	<?xml version="1.0"?>\n<Clock xmlns:dt="urn:schemas-microsoft-com:datatypes"><Description dt:dt="string">E-Prime Primary Realtime Clock</Description><StartTime><Timestamp dt:dt="int">0</Timestamp><DateUtc dt:dt="string">2016-03-16T22:39:06Z</DateUtc></StartTime><FrequencyChanges><FrequencyChange><Frequency dt:dt="r8">3507724</Frequency><Timestamp dt:dt="r8">2140906903903</Timestamp><Current dt:dt="r8">0</Current><DateUtc dt:dt="string">2016-03-16T22:39:06Z</DateUtc></FrequencyChange></FrequencyChanges></Clock>\n	Hungry_Donkey_bar_English_2-135-1	60.018	-294	1.0.0.18	1	2013867047	Standard	2.0.10.353	2.0.10.353	03-16-2016		18:39:06	2.0.10.248	15	Bar37-63.bmp	40	3	?	10r_4g.bmp	0r_4g.bmp	2r_2g.bmp	0r_2g.bmp			2r_2g.bmp		TrialProc	TrialList	0	cvbn	-999999	16	136202	0	b	534	136736	46	-70	-24	8	-38	0	6	2	2	15	-10	0	-2	0	4	4	2	2	-2	2
Hungry_Donkey_bar_English_2	135	1	<?xml version="1.0"?>\n<Clock xmlns:dt="urn:schemas-microsoft-com:datatypes"><Description dt:dt="string">E-Prime Primary Realtime Clock</Description><StartTime><Timestamp dt:dt="int">0</Timestamp><DateUtc dt:dt="string">2016-03-16T22:39:06Z</DateUtc></StartTime><FrequencyChanges><FrequencyChange><Frequency dt:dt="r8">3507724</Frequency><Timestamp dt:dt="r8">2140906903903</Timestamp><Current dt:dt="r8">0</Current><DateUtc dt:dt="string">2016-03-16T22:39:06Z</DateUtc></FrequencyChange></FrequencyChanges></Clock>\n	Hungry_Donkey_bar_English_2-135-1	60.018	-294	1.0.0.18	1	2013867047	Standard	2.0.10.353	2.0.10.353	03-16-2016		18:39:06	2.0.10.248	16	Bar37-63.bmp	38	1	?	10r_4g.bmp	0r_4g.bmp	2r_2g.bmp	0r_2g.bmp	10r_4g.bmp				TrialProc	TrialList	0	cvbn	-999999	16	138768	0	c	688	139456	50	-80	-30	2	-38	0	6	4	2	16	-10	0	-2	0	4	4	2	2	-10	4
Hungry_Donkey_bar_English_2	135	1	<?xml version="1.0"?>\n<Clock xmlns:dt="urn:schemas-microsoft-com:datatypes"><Description dt:dt="string">E-Prime Primary Realtime Clock</Description><StartTime><Timestamp dt:dt="int">0</Timestamp><DateUtc dt:dt="string">2016-03-16T22:39:06Z</DateUtc></StartTime><FrequencyChanges><FrequencyChange><Frequency dt:dt="r8">3507724</Frequency><Timestamp dt:dt="r8">2140906903903</Timestamp><Current dt:dt="r8">0</Current><DateUtc dt:dt="string">2016-03-16T22:39:06Z</DateUtc></FrequencyChange></FrequencyChanges></Clock>\n	Hungry_Donkey_bar_English_2-135-1	60.018	-294	1.0.0.18	1	2013867047	Standard	2.0.10.353	2.0.10.353	03-16-2016		18:39:06	2.0.10.248	17	Bar37-63.bmp	40	2	?	0r_4g.bmp	0r_4g.bmp	0r_2g.bmp	0r_2g.bmp		0r_4g.bmp			TrialProc	TrialList	0	cvbn	-999999	17	141484	0	v	403	141887	54	-80	-26	2	-34	0	6	8	2	17	0	0	0	0	4	4	2	2	0	4
Hungry_Donkey_bar_English_2	135	1	<?xml version="1.0"?>\n<Clock xmlns:dt="urn:schemas-microsoft-com:datatypes"><Description dt:dt="string">E-Prime Primary Realtime Clock</Description><StartTime><Timestamp dt:dt="int">0</Timestamp><DateUtc dt:dt="string">2016-03-16T22:39:06Z</DateUtc></StartTime><FrequencyChanges><FrequencyChange><Frequency dt:dt="r8">3507724</Frequency><Timestamp dt:dt="r8">2140906903903</Timestamp><Current dt:dt="r8">0</Current><DateUtc dt:dt="string">2016-03-16T22:39:06Z</DateUtc></FrequencyChange></FrequencyChanges></Clock>\n	Hungry_Donkey_bar_English_2-135-1	60.018	-294	1.0.0.18	1	2013867047	Standard	2.0.10.353	2.0.10.353	03-16-2016		18:39:06	2.0.10.248	18	Bar37-63.bmp	40	1	?	8r_4g.bmp	50r_4g.bmp	1r_2g.bmp	10r_2g.bmp	8r_4g.bmp				TrialProc	TrialList	0	cvbn	-999999	16	143916	0	c	451	144367	58	-88	-30	-2	-34	0	6	1	2	18	-8	-50	-1	-10	4	4	2	2	-8	4
Hungry_Donkey_bar_English_2	135	1	<?xml version="1.0"?>\n<Clock xmlns:dt="urn:schemas-microsoft-com:datatypes"><Description dt:dt="string">E-Prime Primary Realtime Clock</Description><StartTime><Timestamp dt:dt="int">0</Timestamp><DateUtc dt:dt="string">2016-03-16T22:39:06Z</DateUtc></StartTime><FrequencyChanges><FrequencyChange><Frequency dt:dt="r8">3507724</Frequency><Timestamp dt:dt="r8">2140906903903</Timestamp><Current dt:dt="r8">0</Current><DateUtc dt:dt="string">2016-03-16T22:39:06Z</DateUtc></FrequencyChange></FrequencyChanges></Clock>\n	Hungry_Donkey_bar_English_2-135-1	60.018	-294	1.0.0.18	1	2013867047	Standard	2.0.10.353	2.0.10.353	03-16-2016		18:39:06	2.0.10.248	19	Bar37-63.bmp	41	2	?	12r_4g.bmp	0r_4g.bmp	3r_2g.bmp	0r_2g.bmp		0r_4g.bmp			TrialProc	TrialList	0	cvbn	-999999	16	146399	0	v	480	146879	62	-88	-26	-2	-30	0	6	5	2	19	-12	0	-3	0	4	4	2	2	0	4
Hungry_Donkey_bar_English_2	135	1	<?xml version="1.0"?>\n<Clock xmlns:dt="urn:schemas-microsoft-com:datatypes"><Description dt:dt="string">E-Prime Primary Realtime Clock</Description><StartTime><Timestamp dt:dt="int">0</Timestamp><DateUtc dt:dt="string">2016-03-16T22:39:06Z</DateUtc></StartTime><FrequencyChanges><FrequencyChange><Frequency dt:dt="r8">3507724</Frequency><Timestamp dt:dt="r8">2140906903903</Timestamp><Current dt:dt="r8">0</Current><DateUtc dt:dt="string">2016-03-16T22:39:06Z</DateUtc></FrequencyChange></FrequencyChanges></Clock>\n	Hungry_Donkey_bar_English_2-135-1	60.018	-294	1.0.0.18	1	2013867047	Standard	2.0.10.353	2.0.10.353	03-16-2016		18:39:06	2.0.10.248	20	Bar37-63.bmp	42	4	?	0r_4g.bmp	0r_4g.bmp	0r_2g.bmp	0r_2g.bmp				0r_2g.bmp	TrialProc	TrialList	0	cvbn	-999999	16	148915	0	n	380	149295	64	-88	-24	-2	-30	0	8	7	2	20	0	0	0	0	4	4	2	2	0	2
Hungry_Donkey_bar_English_2	135	1	<?xml version="1.0"?>\n<Clock xmlns:dt="urn:schemas-microsoft-com:datatypes"><Description dt:dt="string">E-Prime Primary Realtime Clock</Description><StartTime><Timestamp dt:dt="int">0</Timestamp><DateUtc dt:dt="string">2016-03-16T22:39:06Z</DateUtc></StartTime><FrequencyChanges><FrequencyChange><Frequency dt:dt="r8">3507724</Frequency><Timestamp dt:dt="r8">2140906903903</Timestamp><Current dt:dt="r8">0</Current><DateUtc dt:dt="string">2016-03-16T22:39:06Z</DateUtc></FrequencyChange></FrequencyChanges></Clock>\n	Hungry_Donkey_bar_English_2-135-1	60.018	-294	1.0.0.18	1	2013867047	Standard	2.0.10.353	2.0.10.353	03-16-2016		18:39:06	2.0.10.248	21	Bar37-63.bmp	42	3	?	10r_4g.bmp	0r_4g.bmp	2r_2g.bmp	0r_2g.bmp			2r_2g.bmp		TrialProc	TrialList	0	cvbn	-999999	16	151331	0	b	444	151775	66	-90	-24	-2	-30	0	8	4	3	21	-10	0	-2	0	4	4	2	2	-2	2
Hungry_Donkey_bar_English_2	135	1	<?xml version="1.0"?>\n<Clock xmlns:dt="urn:schemas-microsoft-com:datatypes"><Description dt:dt="string">E-Prime Primary Realtime Clock</Description><StartTime><Timestamp dt:dt="int">0</Timestamp><DateUtc dt:dt="string">2016-03-16T22:39:06Z</DateUtc></StartTime><FrequencyChanges><FrequencyChange><Frequency dt:dt="r8">3507724</Frequency><Timestamp dt:dt="r8">2140906903903</Timestamp><Current dt:dt="r8">0</Current><DateUtc dt:dt="string">2016-03-16T22:39:06Z</DateUtc></FrequencyChange></FrequencyChanges></Clock>\n	Hungry_Donkey_bar_English_2-135-1	60.018	-294	1.0.0.18	1	2013867047	Standard	2.0.10.353	2.0.10.353	03-16-2016		18:39:06	2.0.10.248	22	Bar37-63.bmp	43	4	?	0r_4g.bmp	0r_4g.bmp	0r_2g.bmp	0r_2g.bmp				0r_2g.bmp	TrialProc	TrialList	0	cvbn	-999999	16	153813	0	n	458	154271	68	-90	-22	-2	-30	0	10	7	3	22	0	0	0	0	4	4	2	2	0	2
Hungry_Donkey_bar_English_2	135	1	<?xml version="1.0"?>\n<Clock xmlns:dt="urn:schemas-microsoft-com:datatypes"><Description dt:dt="string">E-Prime Primary Realtime Clock</Description><StartTime><Timestamp dt:dt="int">0</Timestamp><DateUtc dt:dt="string">2016-03-16T22:39:06Z</DateUtc></StartTime><FrequencyChanges><FrequencyChange><Frequency dt:dt="r8">3507724</Frequency><Timestamp dt:dt="r8">2140906903903</Timestamp><Current dt:dt="r8">0</Current><DateUtc dt:dt="string">2016-03-16T22:39:06Z</DateUtc></FrequencyChange></FrequencyChanges></Clock>\n	Hungry_Donkey_bar_English_2-135-1	60.018	-294	1.0.0.18	1	2013867047	Standard	2.0.10.353	2.0.10.353	03-16-2016		18:39:06	2.0.10.248	23	Bar50-50.bmp	44	2	?	0r_4g.bmp	0r_4g.bmp	0r_2g.bmp	0r_2g.bmp		0r_4g.bmp			TrialProc	TrialList	0	cvbn	-999999	16	156296	0	v	438	156734	72	-90	-18	-2	-26	0	10	10	3	23	0	0	0	0	4	4	2	2	0	4
Hungry_Donkey_bar_English_2	135	1	<?xml version="1.0"?>\n<Clock xmlns:dt="urn:schemas-microsoft-com:datatypes"><Description dt:dt="string">E-Prime Primary Realtime Clock</Description><StartTime><Timestamp dt:dt="int">0</Timestamp><DateUtc dt:dt="string">2016-03-16T22:39:06Z</DateUtc></StartTime><FrequencyChanges><FrequencyChange><Frequency dt:dt="r8">3507724</Frequency><Timestamp dt:dt="r8">2140906903903</Timestamp><Current dt:dt="r8">0</Current><DateUtc dt:dt="string">2016-03-16T22:39:06Z</DateUtc></FrequencyChange></FrequencyChanges></Clock>\n	Hungry_Donkey_bar_English_2-135-1	60.018	-294	1.0.0.18	1	2013867047	Standard	2.0.10.353	2.0.10.353	03-16-2016		18:39:06	2.0.10.248	24	Bar50-50.bmp	45	4	?	0r_4g.bmp	0r_4g.bmp	0r_2g.bmp	0r_2g.bmp				0r_2g.bmp	TrialProc	TrialList	0	cvbn	-999999	16	158762	0	n	452	159214	74	-90	-16	-2	-26	0	12	6	3	24	0	0	0	0	4	4	2	2	0	2
Hungry_Donkey_bar_English_2	135	1	<?xml version="1.0"?>\n<Clock xmlns:dt="urn:schemas-microsoft-com:datatypes"><Description dt:dt="string">E-Prime Primary Realtime Clock</Description><StartTime><Timestamp dt:dt="int">0</Timestamp><DateUtc dt:dt="string">2016-03-16T22:39:06Z</DateUtc></StartTime><FrequencyChanges><FrequencyChange><Frequency dt:dt="r8">3507724</Frequency><Timestamp dt:dt="r8">2140906903903</Timestamp><Current dt:dt="r8">0</Current><DateUtc dt:dt="string">2016-03-16T22:39:06Z</DateUtc></FrequencyChange></FrequencyChanges></Clock>\n	Hungry_Donkey_bar_English_2-135-1	60.018	-294	1.0.0.18	1	2013867047	Standard	2.0.10.353	2.0.10.353	03-16-2016		18:39:06	2.0.10.248	25	Bar50-50.bmp	46	2	?	0r_4g.bmp	0r_4g.bmp	0r_2g.bmp	0r_2g.bmp		0r_4g.bmp			TrialProc	TrialList	0	cvbn	-999999	16	161244	0	v	482	161726	78	-90	-12	-2	-22	0	12	8	3	25	0	0	0	0	4	4	2	2	0	4
Hungry_Donkey_bar_English_2	135	1	<?xml version="1.0"?>\n<Clock xmlns:dt="urn:schemas-microsoft-com:datatypes"><Description dt:dt="string">E-Prime Primary Realtime Clock</Description><StartTime><Timestamp dt:dt="int">0</Timestamp><DateUtc dt:dt="string">2016-03-16T22:39:06Z</DateUtc></StartTime><FrequencyChanges><FrequencyChange><Frequency dt:dt="r8">3507724</Frequency><Timestamp dt:dt="r8">2140906903903</Timestamp><Current dt:dt="r8">0</Current><DateUtc dt:dt="string">2016-03-16T22:39:06Z</DateUtc></FrequencyChange></FrequencyChanges></Clock>\n	Hungry_Donkey_bar_English_2-135-1	60.018	-294	1.0.0.18	1	2013867047	Standard	2.0.10.353	2.0.10.353	03-16-2016		18:39:06	2.0.10.248	26	Bar50-50.bmp	47	4	?	0r_4g.bmp	0r_4g.bmp	0r_2g.bmp	0r_2g.bmp				0r_2g.bmp	TrialProc	TrialList	0	cvbn	-999999	16	163760	0	n	526	164286	80	-90	-10	-2	-22	0	14	9	3	26	0	0	0	0	4	4	2	2	0	2
Hungry_Donkey_bar_English_2	135	1	<?xml version="1.0"?>\n<Clock xmlns:dt="urn:schemas-microsoft-com:datatypes"><Description dt:dt="string">E-Prime Primary Realtime Clock</Description><StartTime><Timestamp dt:dt="int">0</Timestamp><DateUtc dt:dt="string">2016-03-16T22:39:06Z</DateUtc></StartTime><FrequencyChanges><FrequencyChange><Frequency dt:dt="r8">3507724</Frequency><Timestamp dt:dt="r8">2140906903903</Timestamp><Current dt:dt="r8">0</Current><DateUtc dt:dt="string">2016-03-16T22:39:06Z</DateUtc></FrequencyChange></FrequencyChanges></Clock>\n	Hungry_Donkey_bar_English_2-135-1	60.018	-294	1.0.0.18	1	2013867047	Standard	2.0.10.353	2.0.10.353	03-16-2016		18:39:06	2.0.10.248	27	Bar37-63.bmp	38	2	?	8r_4g.bmp	50r_4g.bmp	1r_2g.bmp	10r_2g.bmp		50r_4g.bmp			TrialProc	TrialList	0	cvbn	-999999	16	166326	0	v	408	166734	84	-140	-56	-2	-68	0	14	1	3	27	-8	-50	-1	-10	4	4	2	2	-50	4
Hungry_Donkey_bar_English_2	135	1	<?xml version="1.0"?>\n<Clock xmlns:dt="urn:schemas-microsoft-com:datatypes"><Description dt:dt="string">E-Prime Primary Realtime Clock</Description><StartTime><Timestamp dt:dt="int">0</Timestamp><DateUtc dt:dt="string">2016-03-16T22:39:06Z</DateUtc></StartTime><FrequencyChanges><FrequencyChange><Frequency dt:dt="r8">3507724</Frequency><Timestamp dt:dt="r8">2140906903903</Timestamp><Current dt:dt="r8">0</Current><DateUtc dt:dt="string">2016-03-16T22:39:06Z</DateUtc></FrequencyChange></FrequencyChanges></Clock>\n	Hungry_Donkey_bar_English_2-135-1	60.018	-294	1.0.0.18	1	2013867047	Standard	2.0.10.353	2.0.10.353	03-16-2016		18:39:06	2.0.10.248	28	Bar37-63.bmp	38	4	?	10r_4g.bmp	0r_4g.bmp	2r_2g.bmp	0r_2g.bmp				0r_2g.bmp	TrialProc	TrialList	0	cvbn	-999999	16	168759	0	n	199	168958	86	-140	-54	-2	-68	0	16	3	3	28	-10	0	-2	0	4	4	2	2	0	2
Hungry_Donkey_bar_English_2	135	1	<?xml version="1.0"?>\n<Clock xmlns:dt="urn:schemas-microsoft-com:datatypes"><Description dt:dt="string">E-Prime Primary Realtime Clock</Description><StartTime><Timestamp dt:dt="int">0</Timestamp><DateUtc dt:dt="string">2016-03-16T22:39:06Z</DateUtc></StartTime><FrequencyChanges><FrequencyChange><Frequency dt:dt="r8">3507724</Frequency><Timestamp dt:dt="r8">2140906903903</Timestamp><Current dt:dt="r8">0</Current><DateUtc dt:dt="string">2016-03-16T22:39:06Z</DateUtc></FrequencyChange></FrequencyChanges></Clock>\n	Hungry_Donkey_bar_English_2-135-1	60.018	-294	1.0.0.18	1	2013867047	Standard	2.0.10.353	2.0.10.353	03-16-2016		18:39:06	2.0.10.248	29	Bar37-63.bmp	39	2	?	12r_4g.bmp	0r_4g.bmp	3r_2g.bmp	0r_2g.bmp		0r_4g.bmp			TrialProc	TrialList	0	cvbn	-999999	16	170991	0	v	847	171838	90	-140	-50	-2	-64	0	16	5	3	29	-12	0	-3	0	4	4	2	2	0	4
Hungry_Donkey_bar_English_2	135	1	<?xml version="1.0"?>\n<Clock xmlns:dt="urn:schemas-microsoft-com:datatypes"><Description dt:dt="string">E-Prime Primary Realtime Clock</Description><StartTime><Timestamp dt:dt="int">0</Timestamp><DateUtc dt:dt="string">2016-03-16T22:39:06Z</DateUtc></StartTime><FrequencyChanges><FrequencyChange><Frequency dt:dt="r8">3507724</Frequency><Timestamp dt:dt="r8">2140906903903</Timestamp><Current dt:dt="r8">0</Current><DateUtc dt:dt="string">2016-03-16T22:39:06Z</DateUtc></FrequencyChange></FrequencyChanges></Clock>\n	Hungry_Donkey_bar_English_2-135-1	60.018	-294	1.0.0.18	1	2013867047	Standard	2.0.10.353	2.0.10.353	03-16-2016		18:39:06	2.0.10.248	30	Bar37-63.bmp	40	4	?	10r_4g.bmp	0r_4g.bmp	2r_2g.bmp	0r_2g.bmp				0r_2g.bmp	TrialProc	TrialList	0	cvbn	-999999	16	173874	0	n	347	174221	92	-140	-48	-2	-64	0	18	2	3	30	-10	0	-2	0	4	4	2	2	0	2
Hungry_Donkey_bar_English_2	135	1	<?xml version="1.0"?>\n<Clock xmlns:dt="urn:schemas-microsoft-com:datatypes"><Description dt:dt="string">E-Prime Primary Realtime Clock</Description><StartTime><Timestamp dt:dt="int">0</Timestamp><DateUtc dt:dt="string">2016-03-16T22:39:06Z</DateUtc></StartTime><FrequencyChanges><FrequencyChange><Frequency dt:dt="r8">3507724</Frequency><Timestamp dt:dt="r8">2140906903903</Timestamp><Current dt:dt="r8">0</Current><DateUtc dt:dt="string">2016-03-16T22:39:06Z</DateUtc></FrequencyChange></FrequencyChanges></Clock>\n	Hungry_Donkey_bar_English_2-135-1	60.018	-294	1.0.0.18	1	2013867047	Standard	2.0.10.353	2.0.10.353	03-16-2016		18:39:06	2.0.10.248	31	Bar37-63.bmp	34	2	?	8r_4g.bmp	50r_4g.bmp	1r_2g.bmp	10r_2g.bmp		50r_4g.bmp			TrialProc	TrialList	0	cvbn	-999999	16	176256	0	v	445	176701	96	-190	-94	-2	-110	0	18	1	4	31	-8	-50	-1	-10	4	4	2	2	-50	4
Hungry_Donkey_bar_English_2	135	1	<?xml version="1.0"?>\n<Clock xmlns:dt="urn:schemas-microsoft-com:datatypes"><Description dt:dt="string">E-Prime Primary Realtime Clock</Description><StartTime><Timestamp dt:dt="int">0</Timestamp><DateUtc dt:dt="string">2016-03-16T22:39:06Z</DateUtc></StartTime><FrequencyChanges><FrequencyChange><Frequency dt:dt="r8">3507724</Frequency><Timestamp dt:dt="r8">2140906903903</Timestamp><Current dt:dt="r8">0</Current><DateUtc dt:dt="string">2016-03-16T22:39:06Z</DateUtc></FrequencyChange></FrequencyChanges></Clock>\n	Hungry_Donkey_bar_English_2-135-1	60.018	-294	1.0.0.18	1	2013867047	Standard	2.0.10.353	2.0.10.353	03-16-2016		18:39:06	2.0.10.248	32	Bar37-63.bmp	34	4	?	0r_4g.bmp	0r_4g.bmp	0r_2g.bmp	0r_2g.bmp				0r_2g.bmp	TrialProc	TrialList	0	cvbn	-999999	16	178739	0	n	458	179197	98	-190	-92	-2	-110	0	20	7	4	32	0	0	0	0	4	4	2	2	0	2
Hungry_Donkey_bar_English_2	135	1	<?xml version="1.0"?>\n<Clock xmlns:dt="urn:schemas-microsoft-com:datatypes"><Description dt:dt="string">E-Prime Primary Realtime Clock</Description><StartTime><Timestamp dt:dt="int">0</Timestamp><DateUtc dt:dt="string">2016-03-16T22:39:06Z</DateUtc></StartTime><FrequencyChanges><FrequencyChange><Frequency dt:dt="r8">3507724</Frequency><Timestamp dt:dt="r8">2140906903903</Timestamp><Current dt:dt="r8">0</Current><DateUtc dt:dt="string">2016-03-16T22:39:06Z</DateUtc></FrequencyChange></FrequencyChanges></Clock>\n	Hungry_Donkey_bar_English_2-135-1	60.018	-294	1.0.0.18	1	2013867047	Standard	2.0.10.353	2.0.10.353	03-16-2016		18:39:06	2.0.10.248	33	Bar37-63.bmp	34	3	?	10r_4g.bmp	0r_4g.bmp	2r_2g.bmp	0r_2g.bmp			2r_2g.bmp		TrialProc	TrialList	0	cvbn	-999999	16	181222	0	b	967	182189	100	-192	-92	-2	-110	0	20	3	4	33	-10	0	-2	0	4	4	2	2	-2	2
Hungry_Donkey_bar_English_2	135	1	<?xml version="1.0"?>\n<Clock xmlns:dt="urn:schemas-microsoft-com:datatypes"><Description dt:dt="string">E-Prime Primary Realtime Clock</Description><StartTime><Timestamp dt:dt="int">0</Timestamp><DateUtc dt:dt="string">2016-03-16T22:39:06Z</DateUtc></StartTime><FrequencyChanges><FrequencyChange><Frequency dt:dt="r8">3507724</Frequency><Timestamp dt:dt="r8">2140906903903</Timestamp><Current dt:dt="r8">0</Current><DateUtc dt:dt="string">2016-03-16T22:39:06Z</DateUtc></FrequencyChange></FrequencyChanges></Clock>\n	Hungry_Donkey_bar_English_2-135-1	60.018	-294	1.0.0.18	1	2013867047	Standard	2.0.10.353	2.0.10.353	03-16-2016		18:39:06	2.0.10.248	34	Bar37-63.bmp	34	1	?	10r_4g.bmp	0r_4g.bmp	2r_2g.bmp	0r_2g.bmp	10r_4g.bmp				TrialProc	TrialList	0	cvbn	-999999	16	184221	0	c	400	184621	104	-202	-98	-8	-110	0	20	2	4	34	-10	0	-2	0	4	4	2	2	-10	4
Hungry_Donkey_bar_English_2	135	1	<?xml version="1.0"?>\n<Clock xmlns:dt="urn:schemas-microsoft-com:datatypes"><Description dt:dt="string">E-Prime Primary Realtime Clock</Description><StartTime><Timestamp dt:dt="int">0</Timestamp><DateUtc dt:dt="string">2016-03-16T22:39:06Z</DateUtc></StartTime><FrequencyChanges><FrequencyChange><Frequency dt:dt="r8">3507724</Frequency><Timestamp dt:dt="r8">2140906903903</Timestamp><Current dt:dt="r8">0</Current><DateUtc dt:dt="string">2016-03-16T22:39:06Z</DateUtc></FrequencyChange></FrequencyChanges></Clock>\n	Hungry_Donkey_bar_English_2-135-1	60.018	-294	1.0.0.18	1	2013867047	Standard	2.0.10.353	2.0.10.353	03-16-2016		18:39:06	2.0.10.248	35	Bar37-63.bmp	35	2	?	10r_4g.bmp	0r_4g.bmp	2r_2g.bmp	0r_2g.bmp		0r_4g.bmp			TrialProc	TrialList	0	cvbn	-999999	16	186653	0	v	368	187021	108	-202	-94	-8	-106	0	20	4	4	35	-10	0	-2	0	4	4	2	2	0	4
Hungry_Donkey_bar_English_2	135	1	<?xml version="1.0"?>\n<Clock xmlns:dt="urn:schemas-microsoft-com:datatypes"><Description dt:dt="string">E-Prime Primary Realtime Clock</Description><StartTime><Timestamp dt:dt="int">0</Timestamp><DateUtc dt:dt="string">2016-03-16T22:39:06Z</DateUtc></StartTime><FrequencyChanges><FrequencyChange><Frequency dt:dt="r8">3507724</Frequency><Timestamp dt:dt="r8">2140906903903</Timestamp><Current dt:dt="r8">0</Current><DateUtc dt:dt="string">2016-03-16T22:39:06Z</DateUtc></FrequencyChange></FrequencyChanges></Clock>\n	Hungry_Donkey_bar_English_2-135-1	60.018	-294	1.0.0.18	1	2013867047	Standard	2.0.10.353	2.0.10.353	03-16-2016		18:39:06	2.0.10.248	36	Bar37-63.bmp	36	2	?	0r_4g.bmp	0r_4g.bmp	0r_2g.bmp	0r_2g.bmp		0r_4g.bmp			TrialProc	TrialList	0	cvbn	-999999	16	189053	0	v	431	189484	112	-202	-90	-8	-102	0	20	8	4	36	0	0	0	0	4	4	2	2	0	4
Hungry_Donkey_bar_English_2	135	1	<?xml version="1.0"?>\n<Clock xmlns:dt="urn:schemas-microsoft-com:datatypes"><Description dt:dt="string">E-Prime Primary Realtime Clock</Description><StartTime><Timestamp dt:dt="int">0</Timestamp><DateUtc dt:dt="string">2016-03-16T22:39:06Z</DateUtc></StartTime><FrequencyChanges><FrequencyChange><Frequency dt:dt="r8">3507724</Frequency><Timestamp dt:dt="r8">2140906903903</Timestamp><Current dt:dt="r8">0</Current><DateUtc dt:dt="string">2016-03-16T22:39:06Z</DateUtc></FrequencyChange></FrequencyChanges></Clock>\n	Hungry_Donkey_bar_English_2-135-1	60.018	-294	1.0.0.18	1	2013867047	Standard	2.0.10.353	2.0.10.353	03-16-2016		18:39:06	2.0.10.248	37	Bar37-63.bmp	36	2	?	0r_4g.bmp	0r_4g.bmp	0r_2g.bmp	0r_2g.bmp		0r_4g.bmp			TrialProc	TrialList	0	cvbn	-999999	17	191519	0	v	413	191932	116	-202	-86	-8	-98	0	20	9	4	37	0	0	0	0	4	4	2	2	0	4
Hungry_Donkey_bar_English_2	135	1	<?xml version="1.0"?>\n<Clock xmlns:dt="urn:schemas-microsoft-com:datatypes"><Description dt:dt="string">E-Prime Primary Realtime Clock</Description><StartTime><Timestamp dt:dt="int">0</Timestamp><DateUtc dt:dt="string">2016-03-16T22:39:06Z</DateUtc></StartTime><FrequencyChanges><FrequencyChange><Frequency dt:dt="r8">3507724</Frequency><Timestamp dt:dt="r8">2140906903903</Timestamp><Current dt:dt="r8">0</Current><DateUtc dt:dt="string">2016-03-16T22:39:06Z</DateUtc></FrequencyChange></FrequencyChanges></Clock>\n	Hungry_Donkey_bar_English_2-135-1	60.018	-294	1.0.0.18	1	2013867047	Standard	2.0.10.353	2.0.10.353	03-16-2016		18:39:06	2.0.10.248	38	Bar37-63.bmp	37	2	?	0r_4g.bmp	0r_4g.bmp	0r_2g.bmp	0r_2g.bmp		0r_4g.bmp			TrialProc	TrialList	0	cvbn	-999999	16	193968	0	v	428	194396	120	-202	-82	-8	-94	0	20	10	4	38	0	0	0	0	4	4	2	2	0	4
Hungry_Donkey_bar_English_2	135	1	<?xml version="1.0"?>\n<Clock xmlns:dt="urn:schemas-microsoft-com:datatypes"><Description dt:dt="string">E-Prime Primary Realtime Clock</Description><StartTime><Timestamp dt:dt="int">0</Timestamp><DateUtc dt:dt="string">2016-03-16T22:39:06Z</DateUtc></StartTime><FrequencyChanges><FrequencyChange><Frequency dt:dt="r8">3507724</Frequency><Timestamp dt:dt="r8">2140906903903</Timestamp><Current dt:dt="r8">0</Current><DateUtc dt:dt="string">2016-03-16T22:39:06Z</DateUtc></FrequencyChange></FrequencyChanges></Clock>\n	Hungry_Donkey_bar_English_2-135-1	60.018	-294	1.0.0.18	1	2013867047	Standard	2.0.10.353	2.0.10.353	03-16-2016		18:39:06	2.0.10.248	39	Bar37-63.bmp	38	2	?	12r_4g.bmp	0r_4g.bmp	3r_2g.bmp	0r_2g.bmp		0r_4g.bmp			TrialProc	TrialList	0	cvbn	-999999	16	196434	0	v	426	196860	124	-202	-78	-8	-90	0	20	5	4	39	-12	0	-3	0	4	4	2	2	0	4
Hungry_Donkey_bar_English_2	135	1	<?xml version="1.0"?>\n<Clock xmlns:dt="urn:schemas-microsoft-com:datatypes"><Description dt:dt="string">E-Prime Primary Realtime Clock</Description><StartTime><Timestamp dt:dt="int">0</Timestamp><DateUtc dt:dt="string">2016-03-16T22:39:06Z</DateUtc></StartTime><FrequencyChanges><FrequencyChange><Frequency dt:dt="r8">3507724</Frequency><Timestamp dt:dt="r8">2140906903903</Timestamp><Current dt:dt="r8">0</Current><DateUtc dt:dt="string">2016-03-16T22:39:06Z</DateUtc></FrequencyChange></FrequencyChanges></Clock>\n	Hungry_Donkey_bar_English_2-135-1	60.018	-294	1.0.0.18	1	2013867047	Standard	2.0.10.353	2.0.10.353	03-16-2016		18:39:06	2.0.10.248	40	Bar37-63.bmp	39	2	?	0r_4g.bmp	0r_4g.bmp	0r_2g.bmp	0r_2g.bmp		0r_4g.bmp			TrialProc	TrialList	0	cvbn	-999999	16	198900	0	v	424	199324	128	-202	-74	-8	-86	0	20	6	4	40	0	0	0	0	4	4	2	2	0	4
Hungry_Donkey_bar_English_2	135	1	<?xml version="1.0"?>\n<Clock xmlns:dt="urn:schemas-microsoft-com:datatypes"><Description dt:dt="string">E-Prime Primary Realtime Clock</Description><StartTime><Timestamp dt:dt="int">0</Timestamp><DateUtc dt:dt="string">2016-03-16T22:39:06Z</DateUtc></StartTime><FrequencyChanges><FrequencyChange><Frequency dt:dt="r8">3507724</Frequency><Timestamp dt:dt="r8">2140906903903</Timestamp><Current dt:dt="r8">0</Current><DateUtc dt:dt="string">2016-03-16T22:39:06Z</DateUtc></FrequencyChange></FrequencyChanges></Clock>\n	Hungry_Donkey_bar_English_2-135-1	60.018	-294	1.0.0.18	1	2013867047	Standard	2.0.10.353	2.0.10.353	03-16-2016		18:39:06	2.0.10.248	41	Bar37-63.bmp	39	4	?	0r_4g.bmp	0r_4g.bmp	0r_2g.bmp	0r_2g.bmp				0r_2g.bmp	TrialProc	TrialList	0	cvbn	-999999	16	201349	0	n	615	201964	130	-202	-72	-8	-86	0	22	8	5	41	0	0	0	0	4	4	2	2	0	2
Hungry_Donkey_bar_English_2	135	1	<?xml version="1.0"?>\n<Clock xmlns:dt="urn:schemas-microsoft-com:datatypes"><Description dt:dt="string">E-Prime Primary Realtime Clock</Description><StartTime><Timestamp dt:dt="int">0</Timestamp><DateUtc dt:dt="string">2016-03-16T22:39:06Z</DateUtc></StartTime><FrequencyChanges><FrequencyChange><Frequency dt:dt="r8">3507724</Frequency><Timestamp dt:dt="r8">2140906903903</Timestamp><Current dt:dt="r8">0</Current><DateUtc dt:dt="string">2016-03-16T22:39:06Z</DateUtc></FrequencyChange></FrequencyChanges></Clock>\n	Hungry_Donkey_bar_English_2-135-1	60.018	-294	1.0.0.18	1	2013867047	Standard	2.0.10.353	2.0.10.353	03-16-2016		18:39:06	2.0.10.248	42	Bar37-63.bmp	40	2	?	0r_4g.bmp	0r_4g.bmp	0r_2g.bmp	0r_2g.bmp		0r_4g.bmp			TrialProc	TrialList	0	cvbn	-999999	16	203998	0	v	429	204427	134	-202	-68	-8	-82	0	22	9	5	42	0	0	0	0	4	4	2	2	0	4
Hungry_Donkey_bar_English_2	135	1	<?xml version="1.0"?>\n<Clock xmlns:dt="urn:schemas-microsoft-com:datatypes"><Description dt:dt="string">E-Prime Primary Realtime Clock</Description><StartTime><Timestamp dt:dt="int">0</Timestamp><DateUtc dt:dt="string">2016-03-16T22:39:06Z</DateUtc></StartTime><FrequencyChanges><FrequencyChange><Frequency dt:dt="r8">3507724</Frequency><Timestamp dt:dt="r8">2140906903903</Timestamp><Current dt:dt="r8">0</Current><DateUtc dt:dt="string">2016-03-16T22:39:06Z</DateUtc></FrequencyChange></FrequencyChanges></Clock>\n	Hungry_Donkey_bar_English_2-135-1	60.018	-294	1.0.0.18	1	2013867047	Standard	2.0.10.353	2.0.10.353	03-16-2016		18:39:06	2.0.10.248	43	Bar37-63.bmp	39	4	?	8r_4g.bmp	50r_4g.bmp	1r_2g.bmp	10r_2g.bmp				10r_2g.bmp	TrialProc	TrialList	0	cvbn	-999999	16	206464	0	n	491	206955	136	-212	-76	-8	-82	0	14	1	5	43	-8	-50	-1	-10	4	4	2	2	-10	2
Hungry_Donkey_bar_English_2	135	1	<?xml version="1.0"?>\n<Clock xmlns:dt="urn:schemas-microsoft-com:datatypes"><Description dt:dt="string">E-Prime Primary Realtime Clock</Description><StartTime><Timestamp dt:dt="int">0</Timestamp><DateUtc dt:dt="string">2016-03-16T22:39:06Z</DateUtc></StartTime><FrequencyChanges><FrequencyChange><Frequency dt:dt="r8">3507724</Frequency><Timestamp dt:dt="r8">2140906903903</Timestamp><Current dt:dt="r8">0</Current><DateUtc dt:dt="string">2016-03-16T22:39:06Z</DateUtc></FrequencyChange></FrequencyChanges></Clock>\n	Hungry_Donkey_bar_English_2-135-1	60.018	-294	1.0.0.18	1	2013867047	Standard	2.0.10.353	2.0.10.353	03-16-2016		18:39:06	2.0.10.248	44	Bar37-63.bmp	40	2	?	10r_4g.bmp	0r_4g.bmp	2r_2g.bmp	0r_2g.bmp		0r_4g.bmp			TrialProc	TrialList	0	cvbn	-999999	16	208997	0	v	390	209387	140	-212	-72	-8	-78	0	14	2	5	44	-10	0	-2	0	4	4	2	2	0	4
Hungry_Donkey_bar_English_2	135	1	<?xml version="1.0"?>\n<Clock xmlns:dt="urn:schemas-microsoft-com:datatypes"><Description dt:dt="string">E-Prime Primary Realtime Clock</Description><StartTime><Timestamp dt:dt="int">0</Timestamp><DateUtc dt:dt="string">2016-03-16T22:39:06Z</DateUtc></StartTime><FrequencyChanges><FrequencyChange><Frequency dt:dt="r8">3507724</Frequency><Timestamp dt:dt="r8">2140906903903</Timestamp><Current dt:dt="r8">0</Current><DateUtc dt:dt="string">2016-03-16T22:39:06Z</DateUtc></FrequencyChange></FrequencyChanges></Clock>\n	Hungry_Donkey_bar_English_2-135-1	60.018	-294	1.0.0.18	1	2013867047	Standard	2.0.10.353	2.0.10.353	03-16-2016		18:39:06	2.0.10.248	45	Bar37-63.bmp	40	2	?	0r_4g.bmp	0r_4g.bmp	0r_2g.bmp	0r_2g.bmp		0r_4g.bmp			TrialProc	TrialList	0	cvbn	-999999	17	211413	0	v	470	211883	144	-212	-68	-8	-74	0	14	10	5	45	0	0	0	0	4	4	2	2	0	4
Hungry_Donkey_bar_English_2	135	1	<?xml version="1.0"?>\n<Clock xmlns:dt="urn:schemas-microsoft-com:datatypes"><Description dt:dt="string">E-Prime Primary Realtime Clock</Description><StartTime><Timestamp dt:dt="int">0</Timestamp><DateUtc dt:dt="string">2016-03-16T22:39:06Z</DateUtc></StartTime><FrequencyChanges><FrequencyChange><Frequency dt:dt="r8">3507724</Frequency><Timestamp dt:dt="r8">2140906903903</Timestamp><Current dt:dt="r8">0</Current><DateUtc dt:dt="string">2016-03-16T22:39:06Z</DateUtc></FrequencyChange></FrequencyChanges></Clock>\n	Hungry_Donkey_bar_English_2-135-1	60.018	-294	1.0.0.18	1	2013867047	Standard	2.0.10.353	2.0.10.353	03-16-2016		18:39:06	2.0.10.248	46	Bar37-63.bmp	41	2	?	0r_4g.bmp	0r_4g.bmp	0r_2g.bmp	0r_2g.bmp		0r_4g.bmp			TrialProc	TrialList	0	cvbn	-999999	16	213912	0	v	515	214427	148	-212	-64	-8	-70	0	14	6	5	46	0	0	0	0	4	4	2	2	0	4
Hungry_Donkey_bar_English_2	135	1	<?xml version="1.0"?>\n<Clock xmlns:dt="urn:schemas-microsoft-com:datatypes"><Description dt:dt="string">E-Prime Primary Realtime Clock</Description><StartTime><Timestamp dt:dt="int">0</Timestamp><DateUtc dt:dt="string">2016-03-16T22:39:06Z</DateUtc></StartTime><FrequencyChanges><FrequencyChange><Frequency dt:dt="r8">3507724</Frequency><Timestamp dt:dt="r8">2140906903903</Timestamp><Current dt:dt="r8">0</Current><DateUtc dt:dt="string">2016-03-16T22:39:06Z</DateUtc></FrequencyChange></FrequencyChanges></Clock>\n	Hungry_Donkey_bar_English_2-135-1	60.018	-294	1.0.0.18	1	2013867047	Standard	2.0.10.353	2.0.10.353	03-16-2016		18:39:06	2.0.10.248	47	Bar37-63.bmp	42	2	?	0r_4g.bmp	0r_4g.bmp	0r_2g.bmp	0r_2g.bmp		0r_4g.bmp			TrialProc	TrialList	0	cvbn	-999999	16	216461	0	v	398	216859	152	-212	-60	-8	-66	0	14	7	5	47	0	0	0	0	4	4	2	2	0	4
Hungry_Donkey_bar_English_2	135	1	<?xml version="1.0"?>\n<Clock xmlns:dt="urn:schemas-microsoft-com:datatypes"><Description dt:dt="string">E-Prime Primary Realtime Clock</Description><StartTime><Timestamp dt:dt="int">0</Timestamp><DateUtc dt:dt="string">2016-03-16T22:39:06Z</DateUtc></StartTime><FrequencyChanges><FrequencyChange><Frequency dt:dt="r8">3507724</Frequency><Timestamp dt:dt="r8">2140906903903</Timestamp><Current dt:dt="r8">0</Current><DateUtc dt:dt="string">2016-03-16T22:39:06Z</DateUtc></FrequencyChange></FrequencyChanges></Clock>\n	Hungry_Donkey_bar_English_2-135-1	60.018	-294	1.0.0.18	1	2013867047	Standard	2.0.10.353	2.0.10.353	03-16-2016		18:39:06	2.0.10.248	48	Bar37-63.bmp	41	1	?	10r_4g.bmp	0r_4g.bmp	2r_2g.bmp	0r_2g.bmp	10r_4g.bmp				TrialProc	TrialList	0	cvbn	-999999	16	218894	0	c	541	219435	156	-222	-66	-14	-66	0	14	3	5	48	-10	0	-2	0	4	4	2	2	-10	4
Hungry_Donkey_bar_English_2	135	1	<?xml version="1.0"?>\n<Clock xmlns:dt="urn:schemas-microsoft-com:datatypes"><Description dt:dt="string">E-Prime Primary Realtime Clock</Description><StartTime><Timestamp dt:dt="int">0</Timestamp><DateUtc dt:dt="string">2016-03-16T22:39:06Z</DateUtc></StartTime><FrequencyChanges><FrequencyChange><Frequency dt:dt="r8">3507724</Frequency><Timestamp dt:dt="r8">2140906903903</Timestamp><Current dt:dt="r8">0</Current><DateUtc dt:dt="string">2016-03-16T22:39:06Z</DateUtc></FrequencyChange></FrequencyChanges></Clock>\n	Hungry_Donkey_bar_English_2-135-1	60.018	-294	1.0.0.18	1	2013867047	Standard	2.0.10.353	2.0.10.353	03-16-2016		18:39:06	2.0.10.248	49	Bar37-63.bmp	42	2	?	12r_4g.bmp	0r_4g.bmp	3r_2g.bmp	0r_2g.bmp		0r_4g.bmp			TrialProc	TrialList	0	cvbn	-999999	16	221460	0	v	390	221850	160	-222	-62	-14	-62	0	14	5	5	49	-12	0	-3	0	4	4	2	2	0	4
Hungry_Donkey_bar_English_2	135	1	<?xml version="1.0"?>\n<Clock xmlns:dt="urn:schemas-microsoft-com:datatypes"><Description dt:dt="string">E-Prime Primary Realtime Clock</Description><StartTime><Timestamp dt:dt="int">0</Timestamp><DateUtc dt:dt="string">2016-03-16T22:39:06Z</DateUtc></StartTime><FrequencyChanges><FrequencyChange><Frequency dt:dt="r8">3507724</Frequency><Timestamp dt:dt="r8">2140906903903</Timestamp><Current dt:dt="r8">0</Current><DateUtc dt:dt="string">2016-03-16T22:39:06Z</DateUtc></FrequencyChange></FrequencyChanges></Clock>\n	Hungry_Donkey_bar_English_2-135-1	60.018	-294	1.0.0.18	1	2013867047	Standard	2.0.10.353	2.0.10.353	03-16-2016		18:39:06	2.0.10.248	50	Bar37-63.bmp	42	2	?	10r_4g.bmp	0r_4g.bmp	2r_2g.bmp	0r_2g.bmp		0r_4g.bmp			TrialProc	TrialList	0	cvbn	-999999	16	223875	0	v	503	224378	164	-222	-58	-14	-58	0	14	4	5	50	-10	0	-2	0	4	4	2	2	0	4
Hungry_Donkey_bar_English_2	135	1	<?xml version="1.0"?>\n<Clock xmlns:dt="urn:schemas-microsoft-com:datatypes"><Description dt:dt="string">E-Prime Primary Realtime Clock</Description><StartTime><Timestamp dt:dt="int">0</Timestamp><DateUtc dt:dt="string">2016-03-16T22:39:06Z</DateUtc></StartTime><FrequencyChanges><FrequencyChange><Frequency dt:dt="r8">3507724</Frequency><Timestamp dt:dt="r8">2140906903903</Timestamp><Current dt:dt="r8">0</Current><DateUtc dt:dt="string">2016-03-16T22:39:06Z</DateUtc></FrequencyChange></FrequencyChanges></Clock>\n	Hungry_Donkey_bar_English_2-135-1	60.018	-294	1.0.0.18	1	2013867047	Standard	2.0.10.353	2.0.10.353	03-16-2016		18:39:06	2.0.10.248	51	Bar37-63.bmp	42	1	?	12r_4g.bmp	0r_4g.bmp	3r_2g.bmp	0r_2g.bmp	12r_4g.bmp				TrialProc	TrialList	0	cvbn	-999999	16	226408	0	c	578	226986	168	-234	-66	-22	-58	0	14	5	6	51	-12	0	-3	0	4	4	2	2	-12	4
Hungry_Donkey_bar_English_2	135	1	<?xml version="1.0"?>\n<Clock xmlns:dt="urn:schemas-microsoft-com:datatypes"><Description dt:dt="string">E-Prime Primary Realtime Clock</Description><StartTime><Timestamp dt:dt="int">0</Timestamp><DateUtc dt:dt="string">2016-03-16T22:39:06Z</DateUtc></StartTime><FrequencyChanges><FrequencyChange><Frequency dt:dt="r8">3507724</Frequency><Timestamp dt:dt="r8">2140906903903</Timestamp><Current dt:dt="r8">0</Current><DateUtc dt:dt="string">2016-03-16T22:39:06Z</DateUtc></FrequencyChange></FrequencyChanges></Clock>\n	Hungry_Donkey_bar_English_2-135-1	60.018	-294	1.0.0.18	1	2013867047	Standard	2.0.10.353	2.0.10.353	03-16-2016		18:39:06	2.0.10.248	52	Bar37-63.bmp	42	2	?	0r_4g.bmp	0r_4g.bmp	0r_2g.bmp	0r_2g.bmp		0r_4g.bmp			TrialProc	TrialList	0	cvbn	-999999	16	229024	0	v	474	229498	172	-234	-62	-22	-54	0	14	9	6	52	0	0	0	0	4	4	2	2	0	4
Hungry_Donkey_bar_English_2	135	1	<?xml version="1.0"?>\n<Clock xmlns:dt="urn:schemas-microsoft-com:datatypes"><Description dt:dt="string">E-Prime Primary Realtime Clock</Description><StartTime><Timestamp dt:dt="int">0</Timestamp><DateUtc dt:dt="string">2016-03-16T22:39:06Z</DateUtc></StartTime><FrequencyChanges><FrequencyChange><Frequency dt:dt="r8">3507724</Frequency><Timestamp dt:dt="r8">2140906903903</Timestamp><Current dt:dt="r8">0</Current><DateUtc dt:dt="string">2016-03-16T22:39:06Z</DateUtc></FrequencyChange></FrequencyChanges></Clock>\n	Hungry_Donkey_bar_English_2-135-1	60.018	-294	1.0.0.18	1	2013867047	Standard	2.0.10.353	2.0.10.353	03-16-2016		18:39:06	2.0.10.248	53	Bar37-63.bmp	43	2	?	0r_4g.bmp	0r_4g.bmp	0r_2g.bmp	0r_2g.bmp		0r_4g.bmp			TrialProc	TrialList	0	cvbn	-999999	16	231523	0	v	439	231962	176	-234	-58	-22	-50	0	14	8	6	53	0	0	0	0	4	4	2	2	0	4
Hungry_Donkey_bar_English_2	135	1	<?xml version="1.0"?>\n<Clock xmlns:dt="urn:schemas-microsoft-com:datatypes"><Description dt:dt="string">E-Prime Primary Realtime Clock</Description><StartTime><Timestamp dt:dt="int">0</Timestamp><DateUtc dt:dt="string">2016-03-16T22:39:06Z</DateUtc></StartTime><FrequencyChanges><FrequencyChange><Frequency dt:dt="r8">3507724</Frequency><Timestamp dt:dt="r8">2140906903903</Timestamp><Current dt:dt="r8">0</Current><DateUtc dt:dt="string">2016-03-16T22:39:06Z</DateUtc></FrequencyChange></FrequencyChanges></Clock>\n	Hungry_Donkey_bar_English_2-135-1	60.018	-294	1.0.0.18	1	2013867047	Standard	2.0.10.353	2.0.10.353	03-16-2016		18:39:06	2.0.10.248	54	Bar37-63.bmp	43	2	?	0r_4g.bmp	0r_4g.bmp	0r_2g.bmp	0r_2g.bmp		0r_4g.bmp			TrialProc	TrialList	0	cvbn	-999999	16	233989	0	v	405	234394	180	-234	-54	-22	-46	0	14	10	6	54	0	0	0	0	4	4	2	2	0	4
Hungry_Donkey_bar_English_2	135	1	<?xml version="1.0"?>\n<Clock xmlns:dt="urn:schemas-microsoft-com:datatypes"><Description dt:dt="string">E-Prime Primary Realtime Clock</Description><StartTime><Timestamp dt:dt="int">0</Timestamp><DateUtc dt:dt="string">2016-03-16T22:39:06Z</DateUtc></StartTime><FrequencyChanges><FrequencyChange><Frequency dt:dt="r8">3507724</Frequency><Timestamp dt:dt="r8">2140906903903</Timestamp><Current dt:dt="r8">0</Current><DateUtc dt:dt="string">2016-03-16T22:39:06Z</DateUtc></FrequencyChange></FrequencyChanges></Clock>\n	Hungry_Donkey_bar_English_2-135-1	60.018	-294	1.0.0.18	1	2013867047	Standard	2.0.10.353	2.0.10.353	03-16-2016		18:39:06	2.0.10.248	55	Bar50-50.bmp	44	2	?	0r_4g.bmp	0r_4g.bmp	0r_2g.bmp	0r_2g.bmp		0r_4g.bmp			TrialProc	TrialList	0	cvbn	-999999	16	236422	0	v	467	236889	184	-234	-50	-22	-42	0	14	6	6	55	0	0	0	0	4	4	2	2	0	4
Hungry_Donkey_bar_English_2	135	1	<?xml version="1.0"?>\n<Clock xmlns:dt="urn:schemas-microsoft-com:datatypes"><Description dt:dt="string">E-Prime Primary Realtime Clock</Description><StartTime><Timestamp dt:dt="int">0</Timestamp><DateUtc dt:dt="string">2016-03-16T22:39:06Z</DateUtc></StartTime><FrequencyChanges><FrequencyChange><Frequency dt:dt="r8">3507724</Frequency><Timestamp dt:dt="r8">2140906903903</Timestamp><Current dt:dt="r8">0</Current><DateUtc dt:dt="string">2016-03-16T22:39:06Z</DateUtc></FrequencyChange></FrequencyChanges></Clock>\n	Hungry_Donkey_bar_English_2-135-1	60.018	-294	1.0.0.18	1	2013867047	Standard	2.0.10.353	2.0.10.353	03-16-2016		18:39:06	2.0.10.248	56	Bar50-50.bmp	45	2	?	10r_4g.bmp	0r_4g.bmp	2r_2g.bmp	0r_2g.bmp		0r_4g.bmp			TrialProc	TrialList	0	cvbn	-999999	16	238921	0	v	400	239321	188	-234	-46	-22	-38	0	14	4	6	56	-10	0	-2	0	4	4	2	2	0	4
Hungry_Donkey_bar_English_2	135	1	<?xml version="1.0"?>\n<Clock xmlns:dt="urn:schemas-microsoft-com:datatypes"><Description dt:dt="string">E-Prime Primary Realtime Clock</Description><StartTime><Timestamp dt:dt="int">0</Timestamp><DateUtc dt:dt="string">2016-03-16T22:39:06Z</DateUtc></StartTime><FrequencyChanges><FrequencyChange><Frequency dt:dt="r8">3507724</Frequency><Timestamp dt:dt="r8">2140906903903</Timestamp><Current dt:dt="r8">0</Current><DateUtc dt:dt="string">2016-03-16T22:39:06Z</DateUtc></FrequencyChange></FrequencyChanges></Clock>\n	Hungry_Donkey_bar_English_2-135-1	60.018	-294	1.0.0.18	1	2013867047	Standard	2.0.10.353	2.0.10.353	03-16-2016		18:39:06	2.0.10.248	57	Bar50-50.bmp	45	2	?	10r_4g.bmp	0r_4g.bmp	2r_2g.bmp	0r_2g.bmp		0r_4g.bmp			TrialProc	TrialList	0	cvbn	-999999	16	241354	0	v	399	241753	192	-234	-42	-22	-34	0	14	3	6	57	-10	0	-2	0	4	4	2	2	0	4
Hungry_Donkey_bar_English_2	135	1	<?xml version="1.0"?>\n<Clock xmlns:dt="urn:schemas-microsoft-com:datatypes"><Description dt:dt="string">E-Prime Primary Realtime Clock</Description><StartTime><Timestamp dt:dt="int">0</Timestamp><DateUtc dt:dt="string">2016-03-16T22:39:06Z</DateUtc></StartTime><FrequencyChanges><FrequencyChange><Frequency dt:dt="r8">3507724</Frequency><Timestamp dt:dt="r8">2140906903903</Timestamp><Current dt:dt="r8">0</Current><DateUtc dt:dt="string">2016-03-16T22:39:06Z</DateUtc></FrequencyChange></FrequencyChanges></Clock>\n	Hungry_Donkey_bar_English_2-135-1	60.018	-294	1.0.0.18	1	2013867047	Standard	2.0.10.353	2.0.10.353	03-16-2016		18:39:06	2.0.10.248	58	Bar50-50.bmp	46	2	?	10r_4g.bmp	0r_4g.bmp	2r_2g.bmp	0r_2g.bmp		0r_4g.bmp			TrialProc	TrialList	0	cvbn	-999999	16	243786	0	v	543	244329	196	-234	-38	-22	-30	0	14	2	6	58	-10	0	-2	0	4	4	2	2	0	4
Hungry_Donkey_bar_English_2	135	1	<?xml version="1.0"?>\n<Clock xmlns:dt="urn:schemas-microsoft-com:datatypes"><Description dt:dt="string">E-Prime Primary Realtime Clock</Description><StartTime><Timestamp dt:dt="int">0</Timestamp><DateUtc dt:dt="string">2016-03-16T22:39:06Z</DateUtc></StartTime><FrequencyChanges><FrequencyChange><Frequency dt:dt="r8">3507724</Frequency><Timestamp dt:dt="r8">2140906903903</Timestamp><Current dt:dt="r8">0</Current><DateUtc dt:dt="string">2016-03-16T22:39:06Z</DateUtc></FrequencyChange></FrequencyChanges></Clock>\n	Hungry_Donkey_bar_English_2-135-1	60.018	-294	1.0.0.18	1	2013867047	Standard	2.0.10.353	2.0.10.353	03-16-2016		18:39:06	2.0.10.248	59	Bar50-50.bmp	46	2	?	0r_4g.bmp	0r_4g.bmp	0r_2g.bmp	0r_2g.bmp		0r_4g.bmp			TrialProc	TrialList	0	cvbn	-999999	15	246352	0	v	473	246825	200	-234	-34	-22	-26	0	14	7	6	59	0	0	0	0	4	4	2	2	0	4
Hungry_Donkey_bar_English_2	135	1	<?xml version="1.0"?>\n<Clock xmlns:dt="urn:schemas-microsoft-com:datatypes"><Description dt:dt="string">E-Prime Primary Realtime Clock</Description><StartTime><Timestamp dt:dt="int">0</Timestamp><DateUtc dt:dt="string">2016-03-16T22:39:06Z</DateUtc></StartTime><FrequencyChanges><FrequencyChange><Frequency dt:dt="r8">3507724</Frequency><Timestamp dt:dt="r8">2140906903903</Timestamp><Current dt:dt="r8">0</Current><DateUtc dt:dt="string">2016-03-16T22:39:06Z</DateUtc></FrequencyChange></FrequencyChanges></Clock>\n	Hungry_Donkey_bar_English_2-135-1	60.018	-294	1.0.0.18	1	2013867047	Standard	2.0.10.353	2.0.10.353	03-16-2016		18:39:06	2.0.10.248	60	Bar37-63.bmp	42	2	?	8r_4g.bmp	50r_4g.bmp	1r_2g.bmp	10r_2g.bmp		50r_4g.bmp			TrialProc	TrialList	0	cvbn	-999999	16	248851	0	v	614	249465	204	-284	-80	-22	-72	0	14	1	6	60	-8	-50	-1	-10	4	4	2	2	-50	4
Hungry_Donkey_bar_English_2	135	1	<?xml version="1.0"?>\n<Clock xmlns:dt="urn:schemas-microsoft-com:datatypes"><Description dt:dt="string">E-Prime Primary Realtime Clock</Description><StartTime><Timestamp dt:dt="int">0</Timestamp><DateUtc dt:dt="string">2016-03-16T22:39:06Z</DateUtc></StartTime><FrequencyChanges><FrequencyChange><Frequency dt:dt="r8">3507724</Frequency><Timestamp dt:dt="r8">2140906903903</Timestamp><Current dt:dt="r8">0</Current><DateUtc dt:dt="string">2016-03-16T22:39:06Z</DateUtc></FrequencyChange></FrequencyChanges></Clock>\n	Hungry_Donkey_bar_English_2-135-1	60.018	-294	1.0.0.18	1	2013867047	Standard	2.0.10.353	2.0.10.353	03-16-2016		18:39:06	2.0.10.248	61	Bar37-63.bmp	42	2	?	10r_4g.bmp	0r_4g.bmp	2r_2g.bmp	0r_2g.bmp		0r_4g.bmp			TrialProc	TrialList	0	cvbn	-999999	17	251501	0	v	636	252137	208	-284	-76	-22	-68	0	14	3	7	61	-10	0	-2	0	4	4	2	2	0	4
Hungry_Donkey_bar_English_2	135	1	<?xml version="1.0"?>\n<Clock xmlns:dt="urn:schemas-microsoft-com:datatypes"><Description dt:dt="string">E-Prime Primary Realtime Clock</Description><StartTime><Timestamp dt:dt="int">0</Timestamp><DateUtc dt:dt="string">2016-03-16T22:39:06Z</DateUtc></StartTime><FrequencyChanges><FrequencyChange><Frequency dt:dt="r8">3507724</Frequency><Timestamp dt:dt="r8">2140906903903</Timestamp><Current dt:dt="r8">0</Current><DateUtc dt:dt="string">2016-03-16T22:39:06Z</DateUtc></FrequencyChange></FrequencyChanges></Clock>\n	Hungry_Donkey_bar_English_2-135-1	60.018	-294	1.0.0.18	1	2013867047	Standard	2.0.10.353	2.0.10.353	03-16-2016		18:39:06	2.0.10.248	62	Bar37-63.bmp	43	2	?	0r_4g.bmp	0r_4g.bmp	0r_2g.bmp	0r_2g.bmp		0r_4g.bmp			TrialProc	TrialList	0	cvbn	-999999	16	254166	0	v	530	254696	212	-284	-72	-22	-64	0	14	10	7	62	0	0	0	0	4	4	2	2	0	4
Hungry_Donkey_bar_English_2	135	1	<?xml version="1.0"?>\n<Clock xmlns:dt="urn:schemas-microsoft-com:datatypes"><Description dt:dt="string">E-Prime Primary Realtime Clock</Description><StartTime><Timestamp dt:dt="int">0</Timestamp><DateUtc dt:dt="string">2016-03-16T22:39:06Z</DateUtc></StartTime><FrequencyChanges><FrequencyChange><Frequency dt:dt="r8">3507724</Frequency><Timestamp dt:dt="r8">2140906903903</Timestamp><Current dt:dt="r8">0</Current><DateUtc dt:dt="string">2016-03-16T22:39:06Z</DateUtc></FrequencyChange></FrequencyChanges></Clock>\n	Hungry_Donkey_bar_English_2-135-1	60.018	-294	1.0.0.18	1	2013867047	Standard	2.0.10.353	2.0.10.353	03-16-2016		18:39:06	2.0.10.248	63	Bar37-63.bmp	43	2	?	10r_4g.bmp	0r_4g.bmp	2r_2g.bmp	0r_2g.bmp		0r_4g.bmp			TrialProc	TrialList	0	cvbn	-999999	16	256732	0	v	540	257272	216	-284	-68	-22	-60	0	14	2	7	63	-10	0	-2	0	4	4	2	2	0	4
Hungry_Donkey_bar_English_2	135	1	<?xml version="1.0"?>\n<Clock xmlns:dt="urn:schemas-microsoft-com:datatypes"><Description dt:dt="string">E-Prime Primary Realtime Clock</Description><StartTime><Timestamp dt:dt="int">0</Timestamp><DateUtc dt:dt="string">2016-03-16T22:39:06Z</DateUtc></StartTime><FrequencyChanges><FrequencyChange><Frequency dt:dt="r8">3507724</Frequency><Timestamp dt:dt="r8">2140906903903</Timestamp><Current dt:dt="r8">0</Current><DateUtc dt:dt="string">2016-03-16T22:39:06Z</DateUtc></FrequencyChange></FrequencyChanges></Clock>\n	Hungry_Donkey_bar_English_2-135-1	60.018	-294	1.0.0.18	1	2013867047	Standard	2.0.10.353	2.0.10.353	03-16-2016		18:39:06	2.0.10.248	64	Bar50-50.bmp	44	2	?	0r_4g.bmp	0r_4g.bmp	0r_2g.bmp	0r_2g.bmp		0r_4g.bmp			TrialProc	TrialList	0	cvbn	-999999	16	259298	0	v	502	259800	220	-284	-64	-22	-56	0	14	8	7	64	0	0	0	0	4	4	2	2	0	4
Hungry_Donkey_bar_English_2	135	1	<?xml version="1.0"?>\n<Clock xmlns:dt="urn:schemas-microsoft-com:datatypes"><Description dt:dt="string">E-Prime Primary Realtime Clock</Description><StartTime><Timestamp dt:dt="int">0</Timestamp><DateUtc dt:dt="string">2016-03-16T22:39:06Z</DateUtc></StartTime><FrequencyChanges><FrequencyChange><Frequency dt:dt="r8">3507724</Frequency><Timestamp dt:dt="r8">2140906903903</Timestamp><Current dt:dt="r8">0</Current><DateUtc dt:dt="string">2016-03-16T22:39:06Z</DateUtc></FrequencyChange></FrequencyChanges></Clock>\n	Hungry_Donkey_bar_English_2-135-1	60.018	-294	1.0.0.18	1	2013867047	Standard	2.0.10.353	2.0.10.353	03-16-2016		18:39:06	2.0.10.248	65	Bar50-50.bmp	44	2	?	12r_4g.bmp	0r_4g.bmp	3r_2g.bmp	0r_2g.bmp		0r_4g.bmp			TrialProc	TrialList	0	cvbn	-999999	16	261831	0	v	545	262376	224	-284	-60	-22	-52	0	14	5	7	65	-12	0	-3	0	4	4	2	2	0	4
Hungry_Donkey_bar_English_2	135	1	<?xml version="1.0"?>\n<Clock xmlns:dt="urn:schemas-microsoft-com:datatypes"><Description dt:dt="string">E-Prime Primary Realtime Clock</Description><StartTime><Timestamp dt:dt="int">0</Timestamp><DateUtc dt:dt="string">2016-03-16T22:39:06Z</DateUtc></StartTime><FrequencyChanges><FrequencyChange><Frequency dt:dt="r8">3507724</Frequency><Timestamp dt:dt="r8">2140906903903</Timestamp><Current dt:dt="r8">0</Current><DateUtc dt:dt="string">2016-03-16T22:39:06Z</DateUtc></FrequencyChange></FrequencyChanges></Clock>\n	Hungry_Donkey_bar_English_2-135-1	60.018	-294	1.0.0.18	1	2013867047	Standard	2.0.10.353	2.0.10.353	03-16-2016		18:39:06	2.0.10.248	66	Bar50-50.bmp	45	2	?	0r_4g.bmp	0r_4g.bmp	0r_2g.bmp	0r_2g.bmp		0r_4g.bmp			TrialProc	TrialList	0	cvbn	-999999	16	264413	0	v	603	265016	228	-284	-56	-22	-48	0	14	6	7	66	0	0	0	0	4	4	2	2	0	4
Hungry_Donkey_bar_English_2	135	1	<?xml version="1.0"?>\n<Clock xmlns:dt="urn:schemas-microsoft-com:datatypes"><Description dt:dt="string">E-Prime Primary Realtime Clock</Description><StartTime><Timestamp dt:dt="int">0</Timestamp><DateUtc dt:dt="string">2016-03-16T22:39:06Z</DateUtc></StartTime><FrequencyChanges><FrequencyChange><Frequency dt:dt="r8">3507724</Frequency><Timestamp dt:dt="r8">2140906903903</Timestamp><Current dt:dt="r8">0</Current><DateUtc dt:dt="string">2016-03-16T22:39:06Z</DateUtc></FrequencyChange></FrequencyChanges></Clock>\n	Hungry_Donkey_bar_English_2-135-1	60.018	-294	1.0.0.18	1	2013867047	Standard	2.0.10.353	2.0.10.353	03-16-2016		18:39:06	2.0.10.248	67	Bar50-50.bmp	45	2	?	0r_4g.bmp	0r_4g.bmp	0r_2g.bmp	0r_2g.bmp		0r_4g.bmp			TrialProc	TrialList	0	cvbn	-999999	16	267046	0	v	466	267512	232	-284	-52	-22	-44	0	14	7	7	67	0	0	0	0	4	4	2	2	0	4
Hungry_Donkey_bar_English_2	135	1	<?xml version="1.0"?>\n<Clock xmlns:dt="urn:schemas-microsoft-com:datatypes"><Description dt:dt="string">E-Prime Primary Realtime Clock</Description><StartTime><Timestamp dt:dt="int">0</Timestamp><DateUtc dt:dt="string">2016-03-16T22:39:06Z</DateUtc></StartTime><FrequencyChanges><FrequencyChange><Frequency dt:dt="r8">3507724</Frequency><Timestamp dt:dt="r8">2140906903903</Timestamp><Current dt:dt="r8">0</Current><DateUtc dt:dt="string">2016-03-16T22:39:06Z</DateUtc></FrequencyChange></FrequencyChanges></Clock>\n	Hungry_Donkey_bar_English_2-135-1	60.018	-294	1.0.0.18	1	2013867047	Standard	2.0.10.353	2.0.10.353	03-16-2016		18:39:06	2.0.10.248	68	Bar50-50.bmp	45	2	?	10r_4g.bmp	0r_4g.bmp	2r_2g.bmp	0r_2g.bmp		0r_4g.bmp			TrialProc	TrialList	0	cvbn	-999999	16	269545	0	v	478	270023	236	-284	-48	-22	-40	0	14	4	7	68	-10	0	-2	0	4	4	2	2	0	4
Hungry_Donkey_bar_English_2	135	1	<?xml version="1.0"?>\n<Clock xmlns:dt="urn:schemas-microsoft-com:datatypes"><Description dt:dt="string">E-Prime Primary Realtime Clock</Description><StartTime><Timestamp dt:dt="int">0</Timestamp><DateUtc dt:dt="string">2016-03-16T22:39:06Z</DateUtc></StartTime><FrequencyChanges><FrequencyChange><Frequency dt:dt="r8">3507724</Frequency><Timestamp dt:dt="r8">2140906903903</Timestamp><Current dt:dt="r8">0</Current><DateUtc dt:dt="string">2016-03-16T22:39:06Z</DateUtc></FrequencyChange></FrequencyChanges></Clock>\n	Hungry_Donkey_bar_English_2-135-1	60.018	-294	1.0.0.18	1	2013867047	Standard	2.0.10.353	2.0.10.353	03-16-2016		18:39:06	2.0.10.248	69	Bar37-63.bmp	42	2	?	8r_4g.bmp	50r_4g.bmp	1r_2g.bmp	10r_2g.bmp		50r_4g.bmp			TrialProc	TrialList	0	cvbn	-999999	16	272061	0	v	554	272615	240	-334	-94	-22	-86	0	14	1	7	69	-8	-50	-1	-10	4	4	2	2	-50	4
Hungry_Donkey_bar_English_2	135	1	<?xml version="1.0"?>\n<Clock xmlns:dt="urn:schemas-microsoft-com:datatypes"><Description dt:dt="string">E-Prime Primary Realtime Clock</Description><StartTime><Timestamp dt:dt="int">0</Timestamp><DateUtc dt:dt="string">2016-03-16T22:39:06Z</DateUtc></StartTime><FrequencyChanges><FrequencyChange><Frequency dt:dt="r8">3507724</Frequency><Timestamp dt:dt="r8">2140906903903</Timestamp><Current dt:dt="r8">0</Current><DateUtc dt:dt="string">2016-03-16T22:39:06Z</DateUtc></FrequencyChange></FrequencyChanges></Clock>\n	Hungry_Donkey_bar_English_2-135-1	60.018	-294	1.0.0.18	1	2013867047	Standard	2.0.10.353	2.0.10.353	03-16-2016		18:39:06	2.0.10.248	70	Bar37-63.bmp	42	2	?	0r_4g.bmp	0r_4g.bmp	0r_2g.bmp	0r_2g.bmp		0r_4g.bmp			TrialProc	TrialList	0	cvbn	-999999	16	274644	0	v	659	275303	244	-334	-90	-22	-82	0	14	9	7	70	0	0	0	0	4	4	2	2	0	4
Hungry_Donkey_bar_English_2	135	1	<?xml version="1.0"?>\n<Clock xmlns:dt="urn:schemas-microsoft-com:datatypes"><Description dt:dt="string">E-Prime Primary Realtime Clock</Description><StartTime><Timestamp dt:dt="int">0</Timestamp><DateUtc dt:dt="string">2016-03-16T22:39:06Z</DateUtc></StartTime><FrequencyChanges><FrequencyChange><Frequency dt:dt="r8">3507724</Frequency><Timestamp dt:dt="r8">2140906903903</Timestamp><Current dt:dt="r8">0</Current><DateUtc dt:dt="string">2016-03-16T22:39:06Z</DateUtc></FrequencyChange></FrequencyChanges></Clock>\n	Hungry_Donkey_bar_English_2-135-1	60.018	-294	1.0.0.18	1	2013867047	Standard	2.0.10.353	2.0.10.353	03-16-2016		18:39:06	2.0.10.248	71	Bar37-63.bmp	39	2	?	8r_4g.bmp	50r_4g.bmp	1r_2g.bmp	10r_2g.bmp		50r_4g.bmp			TrialProc	TrialList	0	cvbn	-999999	16	277343	0	v	616	277959	248	-384	-136	-22	-128	0	14	1	8	71	-8	-50	-1	-10	4	4	2	2	-50	4
Hungry_Donkey_bar_English_2	135	1	<?xml version="1.0"?>\n<Clock xmlns:dt="urn:schemas-microsoft-com:datatypes"><Description dt:dt="string">E-Prime Primary Realtime Clock</Description><StartTime><Timestamp dt:dt="int">0</Timestamp><DateUtc dt:dt="string">2016-03-16T22:39:06Z</DateUtc></StartTime><FrequencyChanges><FrequencyChange><Frequency dt:dt="r8">3507724</Frequency><Timestamp dt:dt="r8">2140906903903</Timestamp><Current dt:dt="r8">0</Current><DateUtc dt:dt="string">2016-03-16T22:39:06Z</DateUtc></FrequencyChange></FrequencyChanges></Clock>\n	Hungry_Donkey_bar_English_2-135-1	60.018	-294	1.0.0.18	1	2013867047	Standard	2.0.10.353	2.0.10.353	03-16-2016		18:39:06	2.0.10.248	72	Bar37-63.bmp	40	2	?	12r_4g.bmp	0r_4g.bmp	3r_2g.bmp	0r_2g.bmp		0r_4g.bmp			TrialProc	TrialList	0	cvbn	-999999	16	279992	0	v	447	280439	252	-384	-132	-22	-124	0	14	5	8	72	-12	0	-3	0	4	4	2	2	0	4
Hungry_Donkey_bar_English_2	135	1	<?xml version="1.0"?>\n<Clock xmlns:dt="urn:schemas-microsoft-com:datatypes"><Description dt:dt="string">E-Prime Primary Realtime Clock</Description><StartTime><Timestamp dt:dt="int">0</Timestamp><DateUtc dt:dt="string">2016-03-16T22:39:06Z</DateUtc></StartTime><FrequencyChanges><FrequencyChange><Frequency dt:dt="r8">3507724</Frequency><Timestamp dt:dt="r8">2140906903903</Timestamp><Current dt:dt="r8">0</Current><DateUtc dt:dt="string">2016-03-16T22:39:06Z</DateUtc></FrequencyChange></FrequencyChanges></Clock>\n	Hungry_Donkey_bar_English_2-135-1	60.018	-294	1.0.0.18	1	2013867047	Standard	2.0.10.353	2.0.10.353	03-16-2016		18:39:06	2.0.10.248	73	Bar37-63.bmp	40	4	?	10r_4g.bmp	0r_4g.bmp	2r_2g.bmp	0r_2g.bmp				0r_2g.bmp	TrialProc	TrialList	0	cvbn	-999999	16	282475	0	n	460	282935	254	-384	-130	-22	-124	0	16	4	8	73	-10	0	-2	0	4	4	2	2	0	2
Hungry_Donkey_bar_English_2	135	1	<?xml version="1.0"?>\n<Clock xmlns:dt="urn:schemas-microsoft-com:datatypes"><Description dt:dt="string">E-Prime Primary Realtime Clock</Description><StartTime><Timestamp dt:dt="int">0</Timestamp><DateUtc dt:dt="string">2016-03-16T22:39:06Z</DateUtc></StartTime><FrequencyChanges><FrequencyChange><Frequency dt:dt="r8">3507724</Frequency><Timestamp dt:dt="r8">2140906903903</Timestamp><Current dt:dt="r8">0</Current><DateUtc dt:dt="string">2016-03-16T22:39:06Z</DateUtc></FrequencyChange></FrequencyChanges></Clock>\n	Hungry_Donkey_bar_English_2-135-1	60.018	-294	1.0.0.18	1	2013867047	Standard	2.0.10.353	2.0.10.353	03-16-2016		18:39:06	2.0.10.248	74	Bar37-63.bmp	40	2	?	10r_4g.bmp	0r_4g.bmp	2r_2g.bmp	0r_2g.bmp		0r_4g.bmp			TrialProc	TrialList	0	cvbn	-999999	16	284974	0	v	488	285462	258	-384	-126	-22	-120	0	16	2	8	74	-10	0	-2	0	4	4	2	2	0	4
Hungry_Donkey_bar_English_2	135	1	<?xml version="1.0"?>\n<Clock xmlns:dt="urn:schemas-microsoft-com:datatypes"><Description dt:dt="string">E-Prime Primary Realtime Clock</Description><StartTime><Timestamp dt:dt="int">0</Timestamp><DateUtc dt:dt="string">2016-03-16T22:39:06Z</DateUtc></StartTime><FrequencyChanges><FrequencyChange><Frequency dt:dt="r8">3507724</Frequency><Timestamp dt:dt="r8">2140906903903</Timestamp><Current dt:dt="r8">0</Current><DateUtc dt:dt="string">2016-03-16T22:39:06Z</DateUtc></FrequencyChange></FrequencyChanges></Clock>\n	Hungry_Donkey_bar_English_2-135-1	60.018	-294	1.0.0.18	1	2013867047	Standard	2.0.10.353	2.0.10.353	03-16-2016		18:39:06	2.0.10.248	75	Bar37-63.bmp	41	2	?	10r_4g.bmp	0r_4g.bmp	2r_2g.bmp	0r_2g.bmp		0r_4g.bmp			TrialProc	TrialList	0	cvbn	-999999	16	287490	0	v	532	288022	262	-384	-122	-22	-116	0	16	3	8	75	-10	0	-2	0	4	4	2	2	0	4
Hungry_Donkey_bar_English_2	135	1	<?xml version="1.0"?>\n<Clock xmlns:dt="urn:schemas-microsoft-com:datatypes"><Description dt:dt="string">E-Prime Primary Realtime Clock</Description><StartTime><Timestamp dt:dt="int">0</Timestamp><DateUtc dt:dt="string">2016-03-16T22:39:06Z</DateUtc></StartTime><FrequencyChanges><FrequencyChange><Frequency dt:dt="r8">3507724</Frequency><Timestamp dt:dt="r8">2140906903903</Timestamp><Current dt:dt="r8">0</Current><DateUtc dt:dt="string">2016-03-16T22:39:06Z</DateUtc></FrequencyChange></FrequencyChanges></Clock>\n	Hungry_Donkey_bar_English_2-135-1	60.018	-294	1.0.0.18	1	2013867047	Standard	2.0.10.353	2.0.10.353	03-16-2016		18:39:06	2.0.10.248	76	Bar37-63.bmp	41	2	?	0r_4g.bmp	0r_4g.bmp	0r_2g.bmp	0r_2g.bmp		0r_4g.bmp			TrialProc	TrialList	0	cvbn	-999999	16	290056	0	v	638	290694	266	-384	-118	-22	-112	0	16	7	8	76	0	0	0	0	4	4	2	2	0	4
Hungry_Donkey_bar_English_2	135	1	<?xml version="1.0"?>\n<Clock xmlns:dt="urn:schemas-microsoft-com:datatypes"><Description dt:dt="string">E-Prime Primary Realtime Clock</Description><StartTime><Timestamp dt:dt="int">0</Timestamp><DateUtc dt:dt="string">2016-03-16T22:39:06Z</DateUtc></StartTime><FrequencyChanges><FrequencyChange><Frequency dt:dt="r8">3507724</Frequency><Timestamp dt:dt="r8">2140906903903</Timestamp><Current dt:dt="r8">0</Current><DateUtc dt:dt="string">2016-03-16T22:39:06Z</DateUtc></FrequencyChange></FrequencyChanges></Clock>\n	Hungry_Donkey_bar_English_2-135-1	60.018	-294	1.0.0.18	1	2013867047	Standard	2.0.10.353	2.0.10.353	03-16-2016		18:39:06	2.0.10.248	77	Bar37-63.bmp	41	4	?	0r_4g.bmp	0r_4g.bmp	0r_2g.bmp	0r_2g.bmp				0r_2g.bmp	TrialProc	TrialList	0	cvbn	-999999	17	292722	0	n	468	293190	268	-384	-116	-22	-112	0	18	10	8	77	0	0	0	0	4	4	2	2	0	2
Hungry_Donkey_bar_English_2	135	1	<?xml version="1.0"?>\n<Clock xmlns:dt="urn:schemas-microsoft-com:datatypes"><Description dt:dt="string">E-Prime Primary Realtime Clock</Description><StartTime><Timestamp dt:dt="int">0</Timestamp><DateUtc dt:dt="string">2016-03-16T22:39:06Z</DateUtc></StartTime><FrequencyChanges><FrequencyChange><Frequency dt:dt="r8">3507724</Frequency><Timestamp dt:dt="r8">2140906903903</Timestamp><Current dt:dt="r8">0</Current><DateUtc dt:dt="string">2016-03-16T22:39:06Z</DateUtc></FrequencyChange></FrequencyChanges></Clock>\n	Hungry_Donkey_bar_English_2-135-1	60.018	-294	1.0.0.18	1	2013867047	Standard	2.0.10.353	2.0.10.353	03-16-2016		18:39:06	2.0.10.248	78	Bar37-63.bmp	41	2	?	0r_4g.bmp	0r_4g.bmp	0r_2g.bmp	0r_2g.bmp		0r_4g.bmp			TrialProc	TrialList	0	cvbn	-999999	16	295221	0	v	721	295942	272	-384	-112	-22	-108	0	18	9	8	78	0	0	0	0	4	4	2	2	0	4
Hungry_Donkey_bar_English_2	135	1	<?xml version="1.0"?>\n<Clock xmlns:dt="urn:schemas-microsoft-com:datatypes"><Description dt:dt="string">E-Prime Primary Realtime Clock</Description><StartTime><Timestamp dt:dt="int">0</Timestamp><DateUtc dt:dt="string">2016-03-16T22:39:06Z</DateUtc></StartTime><FrequencyChanges><FrequencyChange><Frequency dt:dt="r8">3507724</Frequency><Timestamp dt:dt="r8">2140906903903</Timestamp><Current dt:dt="r8">0</Current><DateUtc dt:dt="string">2016-03-16T22:39:06Z</DateUtc></FrequencyChange></FrequencyChanges></Clock>\n	Hungry_Donkey_bar_English_2-135-1	60.018	-294	1.0.0.18	1	2013867047	Standard	2.0.10.353	2.0.10.353	03-16-2016		18:39:06	2.0.10.248	79	Bar37-63.bmp	42	4	?	0r_4g.bmp	0r_4g.bmp	0r_2g.bmp	0r_2g.bmp				0r_2g.bmp	TrialProc	TrialList	0	cvbn	-999999	16	297970	0	n	532	298502	274	-384	-110	-22	-108	0	20	6	8	79	0	0	0	0	4	4	2	2	0	2
Hungry_Donkey_bar_English_2	135	1	<?xml version="1.0"?>\n<Clock xmlns:dt="urn:schemas-microsoft-com:datatypes"><Description dt:dt="string">E-Prime Primary Realtime Clock</Description><StartTime><Timestamp dt:dt="int">0</Timestamp><DateUtc dt:dt="string">2016-03-16T22:39:06Z</DateUtc></StartTime><FrequencyChanges><FrequencyChange><Frequency dt:dt="r8">3507724</Frequency><Timestamp dt:dt="r8">2140906903903</Timestamp><Current dt:dt="r8">0</Current><DateUtc dt:dt="string">2016-03-16T22:39:06Z</DateUtc></FrequencyChange></FrequencyChanges></Clock>\n	Hungry_Donkey_bar_English_2-135-1	60.018	-294	1.0.0.18	1	2013867047	Standard	2.0.10.353	2.0.10.353	03-16-2016		18:39:06	2.0.10.248	80	Bar37-63.bmp	42	2	?	0r_4g.bmp	0r_4g.bmp	0r_2g.bmp	0r_2g.bmp		0r_4g.bmp			TrialProc	TrialList	0	cvbn	-999999	16	300536	0	v	445	300981	278	-384	-106	-22	-104	0	20	8	8	80	0	0	0	0	4	4	2	2	0	4
Hungry_Donkey_bar_English_2	135	1	<?xml version="1.0"?>\n<Clock xmlns:dt="urn:schemas-microsoft-com:datatypes"><Description dt:dt="string">E-Prime Primary Realtime Clock</Description><StartTime><Timestamp dt:dt="int">0</Timestamp><DateUtc dt:dt="string">2016-03-16T22:39:06Z</DateUtc></StartTime><FrequencyChanges><FrequencyChange><Frequency dt:dt="r8">3507724</Frequency><Timestamp dt:dt="r8">2140906903903</Timestamp><Current dt:dt="r8">0</Current><DateUtc dt:dt="string">2016-03-16T22:39:06Z</DateUtc></FrequencyChange></FrequencyChanges></Clock>\n	Hungry_Donkey_bar_English_2-135-1	60.018	-294	1.0.0.18	1	2013867047	Standard	2.0.10.353	2.0.10.353	03-16-2016		18:39:06	2.0.10.248	81	Bar37-63.bmp	42	4	?	0r_4g.bmp	0r_4g.bmp	0r_2g.bmp	0r_2g.bmp				0r_2g.bmp	TrialProc	TrialList	0	cvbn	-999999	16	303018	0	n	507	303525	280	-384	-104	-22	-104	0	22	6	9	81	0	0	0	0	4	4	2	2	0	2
Hungry_Donkey_bar_English_2	135	1	<?xml version="1.0"?>\n<Clock xmlns:dt="urn:schemas-microsoft-com:datatypes"><Description dt:dt="string">E-Prime Primary Realtime Clock</Description><StartTime><Timestamp dt:dt="int">0</Timestamp><DateUtc dt:dt="string">2016-03-16T22:39:06Z</DateUtc></StartTime><FrequencyChanges><FrequencyChange><Frequency dt:dt="r8">3507724</Frequency><Timestamp dt:dt="r8">2140906903903</Timestamp><Current dt:dt="r8">0</Current><DateUtc dt:dt="string">2016-03-16T22:39:06Z</DateUtc></FrequencyChange></FrequencyChanges></Clock>\n	Hungry_Donkey_bar_English_2-135-1	60.018	-294	1.0.0.18	1	2013867047	Standard	2.0.10.353	2.0.10.353	03-16-2016		18:39:06	2.0.10.248	82	Bar37-63.bmp	43	2	?	0r_4g.bmp	0r_4g.bmp	0r_2g.bmp	0r_2g.bmp		0r_4g.bmp			TrialProc	TrialList	0	cvbn	-999999	16	305551	0	v	534	306085	284	-384	-100	-22	-100	0	22	7	9	82	0	0	0	0	4	4	2	2	0	4
Hungry_Donkey_bar_English_2	135	1	<?xml version="1.0"?>\n<Clock xmlns:dt="urn:schemas-microsoft-com:datatypes"><Description dt:dt="string">E-Prime Primary Realtime Clock</Description><StartTime><Timestamp dt:dt="int">0</Timestamp><DateUtc dt:dt="string">2016-03-16T22:39:06Z</DateUtc></StartTime><FrequencyChanges><FrequencyChange><Frequency dt:dt="r8">3507724</Frequency><Timestamp dt:dt="r8">2140906903903</Timestamp><Current dt:dt="r8">0</Current><DateUtc dt:dt="string">2016-03-16T22:39:06Z</DateUtc></FrequencyChange></FrequencyChanges></Clock>\n	Hungry_Donkey_bar_English_2-135-1	60.018	-294	1.0.0.18	1	2013867047	Standard	2.0.10.353	2.0.10.353	03-16-2016		18:39:06	2.0.10.248	83	Bar37-63.bmp	43	4	?	0r_4g.bmp	0r_4g.bmp	0r_2g.bmp	0r_2g.bmp				0r_2g.bmp	TrialProc	TrialList	0	cvbn	-999999	16	308117	0	n	592	308709	286	-384	-98	-22	-100	0	24	8	9	83	0	0	0	0	4	4	2	2	0	2
Hungry_Donkey_bar_English_2	135	1	<?xml version="1.0"?>\n<Clock xmlns:dt="urn:schemas-microsoft-com:datatypes"><Description dt:dt="string">E-Prime Primary Realtime Clock</Description><StartTime><Timestamp dt:dt="int">0</Timestamp><DateUtc dt:dt="string">2016-03-16T22:39:06Z</DateUtc></StartTime><FrequencyChanges><FrequencyChange><Frequency dt:dt="r8">3507724</Frequency><Timestamp dt:dt="r8">2140906903903</Timestamp><Current dt:dt="r8">0</Current><DateUtc dt:dt="string">2016-03-16T22:39:06Z</DateUtc></FrequencyChange></FrequencyChanges></Clock>\n	Hungry_Donkey_bar_English_2-135-1	60.018	-294	1.0.0.18	1	2013867047	Standard	2.0.10.353	2.0.10.353	03-16-2016		18:39:06	2.0.10.248	84	Bar37-63.bmp	43	2	?	10r_4g.bmp	0r_4g.bmp	2r_2g.bmp	0r_2g.bmp		0r_4g.bmp			TrialProc	TrialList	0	cvbn	-999999	16	310749	0	v	440	311189	290	-384	-94	-22	-96	0	24	4	9	84	-10	0	-2	0	4	4	2	2	0	4
Hungry_Donkey_bar_English_2	135	1	<?xml version="1.0"?>\n<Clock xmlns:dt="urn:schemas-microsoft-com:datatypes"><Description dt:dt="string">E-Prime Primary Realtime Clock</Description><StartTime><Timestamp dt:dt="int">0</Timestamp><DateUtc dt:dt="string">2016-03-16T22:39:06Z</DateUtc></StartTime><FrequencyChanges><FrequencyChange><Frequency dt:dt="r8">3507724</Frequency><Timestamp dt:dt="r8">2140906903903</Timestamp><Current dt:dt="r8">0</Current><DateUtc dt:dt="string">2016-03-16T22:39:06Z</DateUtc></FrequencyChange></FrequencyChanges></Clock>\n	Hungry_Donkey_bar_English_2-135-1	60.018	-294	1.0.0.18	1	2013867047	Standard	2.0.10.353	2.0.10.353	03-16-2016		18:39:06	2.0.10.248	85	Bar37-63.bmp	43	4	?	12r_4g.bmp	0r_4g.bmp	3r_2g.bmp	0r_2g.bmp				0r_2g.bmp	TrialProc	TrialList	0	cvbn	-999999	16	313215	0	n	534	313749	292	-384	-92	-22	-96	0	26	5	9	85	-12	0	-3	0	4	4	2	2	0	2
Hungry_Donkey_bar_English_2	135	1	<?xml version="1.0"?>\n<Clock xmlns:dt="urn:schemas-microsoft-com:datatypes"><Description dt:dt="string">E-Prime Primary Realtime Clock</Description><StartTime><Timestamp dt:dt="int">0</Timestamp><DateUtc dt:dt="string">2016-03-16T22:39:06Z</DateUtc></StartTime><FrequencyChanges><FrequencyChange><Frequency dt:dt="r8">3507724</Frequency><Timestamp dt:dt="r8">2140906903903</Timestamp><Current dt:dt="r8">0</Current><DateUtc dt:dt="string">2016-03-16T22:39:06Z</DateUtc></FrequencyChange></FrequencyChanges></Clock>\n	Hungry_Donkey_bar_English_2-135-1	60.018	-294	1.0.0.18	1	2013867047	Standard	2.0.10.353	2.0.10.353	03-16-2016		18:39:06	2.0.10.248	86	Bar50-50.bmp	44	2	?	10r_4g.bmp	0r_4g.bmp	2r_2g.bmp	0r_2g.bmp		0r_4g.bmp			TrialProc	TrialList	0	cvbn	-999999	16	315781	0	v	928	316709	296	-384	-88	-22	-92	0	26	2	9	86	-10	0	-2	0	4	4	2	2	0	4
Hungry_Donkey_bar_English_2	135	1	<?xml version="1.0"?>\n<Clock xmlns:dt="urn:schemas-microsoft-com:datatypes"><Description dt:dt="string">E-Prime Primary Realtime Clock</Description><StartTime><Timestamp dt:dt="int">0</Timestamp><DateUtc dt:dt="string">2016-03-16T22:39:06Z</DateUtc></StartTime><FrequencyChanges><FrequencyChange><Frequency dt:dt="r8">3507724</Frequency><Timestamp dt:dt="r8">2140906903903</Timestamp><Current dt:dt="r8">0</Current><DateUtc dt:dt="string">2016-03-16T22:39:06Z</DateUtc></FrequencyChange></FrequencyChanges></Clock>\n	Hungry_Donkey_bar_English_2-135-1	60.018	-294	1.0.0.18	1	2013867047	Standard	2.0.10.353	2.0.10.353	03-16-2016		18:39:06	2.0.10.248	87	Bar50-50.bmp	44	4	?	0r_4g.bmp	0r_4g.bmp	0r_2g.bmp	0r_2g.bmp				0r_2g.bmp	TrialProc	TrialList	0	cvbn	-999999	16	318747	0	n	553	319300	298	-384	-86	-22	-92	0	28	10	9	87	0	0	0	0	4	4	2	2	0	2
Hungry_Donkey_bar_English_2	135	1	<?xml version="1.0"?>\n<Clock xmlns:dt="urn:schemas-microsoft-com:datatypes"><Description dt:dt="string">E-Prime Primary Realtime Clock</Description><StartTime><Timestamp dt:dt="int">0</Timestamp><DateUtc dt:dt="string">2016-03-16T22:39:06Z</DateUtc></StartTime><FrequencyChanges><FrequencyChange><Frequency dt:dt="r8">3507724</Frequency><Timestamp dt:dt="r8">2140906903903</Timestamp><Current dt:dt="r8">0</Current><DateUtc dt:dt="string">2016-03-16T22:39:06Z</DateUtc></FrequencyChange></FrequencyChanges></Clock>\n	Hungry_Donkey_bar_English_2-135-1	60.018	-294	1.0.0.18	1	2013867047	Standard	2.0.10.353	2.0.10.353	03-16-2016		18:39:06	2.0.10.248	88	Bar37-63.bmp	41	2	?	8r_4g.bmp	50r_4g.bmp	1r_2g.bmp	10r_2g.bmp		50r_4g.bmp			TrialProc	TrialList	0	cvbn	-999999	16	321330	0	v	370	321700	302	-434	-132	-22	-138	0	28	1	9	88	-8	-50	-1	-10	4	4	2	2	-50	4
Hungry_Donkey_bar_English_2	135	1	<?xml version="1.0"?>\n<Clock xmlns:dt="urn:schemas-microsoft-com:datatypes"><Description dt:dt="string">E-Prime Primary Realtime Clock</Description><StartTime><Timestamp dt:dt="int">0</Timestamp><DateUtc dt:dt="string">2016-03-16T22:39:06Z</DateUtc></StartTime><FrequencyChanges><FrequencyChange><Frequency dt:dt="r8">3507724</Frequency><Timestamp dt:dt="r8">2140906903903</Timestamp><Current dt:dt="r8">0</Current><DateUtc dt:dt="string">2016-03-16T22:39:06Z</DateUtc></FrequencyChange></FrequencyChanges></Clock>\n	Hungry_Donkey_bar_English_2-135-1	60.018	-294	1.0.0.18	1	2013867047	Standard	2.0.10.353	2.0.10.353	03-16-2016		18:39:06	2.0.10.248	89	Bar37-63.bmp	41	4	?	10r_4g.bmp	0r_4g.bmp	2r_2g.bmp	0r_2g.bmp				0r_2g.bmp	TrialProc	TrialList	0	cvbn	-999999	16	323729	0	n	467	324196	304	-434	-130	-22	-138	0	30	3	9	89	-10	0	-2	0	4	4	2	2	0	2
Hungry_Donkey_bar_English_2	135	1	<?xml version="1.0"?>\n<Clock xmlns:dt="urn:schemas-microsoft-com:datatypes"><Description dt:dt="string">E-Prime Primary Realtime Clock</Description><StartTime><Timestamp dt:dt="int">0</Timestamp><DateUtc dt:dt="string">2016-03-16T22:39:06Z</DateUtc></StartTime><FrequencyChanges><FrequencyChange><Frequency dt:dt="r8">3507724</Frequency><Timestamp dt:dt="r8">2140906903903</Timestamp><Current dt:dt="r8">0</Current><DateUtc dt:dt="string">2016-03-16T22:39:06Z</DateUtc></FrequencyChange></FrequencyChanges></Clock>\n	Hungry_Donkey_bar_English_2-135-1	60.018	-294	1.0.0.18	1	2013867047	Standard	2.0.10.353	2.0.10.353	03-16-2016		18:39:06	2.0.10.248	90	Bar37-63.bmp	41	4	?	0r_4g.bmp	0r_4g.bmp	0r_2g.bmp	0r_2g.bmp				0r_2g.bmp	TrialProc	TrialList	0	cvbn	-999999	16	326228	0	n	416	326644	306	-434	-128	-22	-138	0	32	9	9	90	0	0	0	0	4	4	2	2	0	2
Hungry_Donkey_bar_English_2	135	1	<?xml version="1.0"?>\n<Clock xmlns:dt="urn:schemas-microsoft-com:datatypes"><Description dt:dt="string">E-Prime Primary Realtime Clock</Description><StartTime><Timestamp dt:dt="int">0</Timestamp><DateUtc dt:dt="string">2016-03-16T22:39:06Z</DateUtc></StartTime><FrequencyChanges><FrequencyChange><Frequency dt:dt="r8">3507724</Frequency><Timestamp dt:dt="r8">2140906903903</Timestamp><Current dt:dt="r8">0</Current><DateUtc dt:dt="string">2016-03-16T22:39:06Z</DateUtc></FrequencyChange></FrequencyChanges></Clock>\n	Hungry_Donkey_bar_English_2-135-1	60.018	-294	1.0.0.18	1	2013867047	Standard	2.0.10.353	2.0.10.353	03-16-2016		18:39:06	2.0.10.248	91	Bar37-63.bmp	42	4	?	0r_4g.bmp	0r_4g.bmp	0r_2g.bmp	0r_2g.bmp				0r_2g.bmp	TrialProc	TrialList	0	cvbn	-999999	16	328677	0	n	415	329092	308	-434	-126	-22	-138	0	34	10	10	91	0	0	0	0	4	4	2	2	0	2
Hungry_Donkey_bar_English_2	135	1	<?xml version="1.0"?>\n<Clock xmlns:dt="urn:schemas-microsoft-com:datatypes"><Description dt:dt="string">E-Prime Primary Realtime Clock</Description><StartTime><Timestamp dt:dt="int">0</Timestamp><DateUtc dt:dt="string">2016-03-16T22:39:06Z</DateUtc></StartTime><FrequencyChanges><FrequencyChange><Frequency dt:dt="r8">3507724</Frequency><Timestamp dt:dt="r8">2140906903903</Timestamp><Current dt:dt="r8">0</Current><DateUtc dt:dt="string">2016-03-16T22:39:06Z</DateUtc></FrequencyChange></FrequencyChanges></Clock>\n	Hungry_Donkey_bar_English_2-135-1	60.018	-294	1.0.0.18	1	2013867047	Standard	2.0.10.353	2.0.10.353	03-16-2016		18:39:06	2.0.10.248	92	Bar37-63.bmp	42	4	?	0r_4g.bmp	0r_4g.bmp	0r_2g.bmp	0r_2g.bmp				0r_2g.bmp	TrialProc	TrialList	0	cvbn	-999999	16	331127	0	n	429	331556	310	-434	-124	-22	-138	0	36	7	10	92	0	0	0	0	4	4	2	2	0	2
Hungry_Donkey_bar_English_2	135	1	<?xml version="1.0"?>\n<Clock xmlns:dt="urn:schemas-microsoft-com:datatypes"><Description dt:dt="string">E-Prime Primary Realtime Clock</Description><StartTime><Timestamp dt:dt="int">0</Timestamp><DateUtc dt:dt="string">2016-03-16T22:39:06Z</DateUtc></StartTime><FrequencyChanges><FrequencyChange><Frequency dt:dt="r8">3507724</Frequency><Timestamp dt:dt="r8">2140906903903</Timestamp><Current dt:dt="r8">0</Current><DateUtc dt:dt="string">2016-03-16T22:39:06Z</DateUtc></FrequencyChange></FrequencyChanges></Clock>\n	Hungry_Donkey_bar_English_2-135-1	60.018	-294	1.0.0.18	1	2013867047	Standard	2.0.10.353	2.0.10.353	03-16-2016		18:39:06	2.0.10.248	93	Bar37-63.bmp	42	4	?	0r_4g.bmp	0r_4g.bmp	0r_2g.bmp	0r_2g.bmp				0r_2g.bmp	TrialProc	TrialList	0	cvbn	-999999	16	333593	0	n	490	334083	312	-434	-122	-22	-138	0	38	8	10	93	0	0	0	0	4	4	2	2	0	2
Hungry_Donkey_bar_English_2	135	1	<?xml version="1.0"?>\n<Clock xmlns:dt="urn:schemas-microsoft-com:datatypes"><Description dt:dt="string">E-Prime Primary Realtime Clock</Description><StartTime><Timestamp dt:dt="int">0</Timestamp><DateUtc dt:dt="string">2016-03-16T22:39:06Z</DateUtc></StartTime><FrequencyChanges><FrequencyChange><Frequency dt:dt="r8">3507724</Frequency><Timestamp dt:dt="r8">2140906903903</Timestamp><Current dt:dt="r8">0</Current><DateUtc dt:dt="string">2016-03-16T22:39:06Z</DateUtc></FrequencyChange></FrequencyChanges></Clock>\n	Hungry_Donkey_bar_English_2-135-1	60.018	-294	1.0.0.18	1	2013867047	Standard	2.0.10.353	2.0.10.353	03-16-2016		18:39:06	2.0.10.248	94	Bar37-63.bmp	42	4	?	0r_4g.bmp	0r_4g.bmp	0r_2g.bmp	0r_2g.bmp				0r_2g.bmp	TrialProc	TrialList	0	cvbn	-999999	16	336108	0	n	423	336531	314	-434	-120	-22	-138	0	40	9	10	94	0	0	0	0	4	4	2	2	0	2
Hungry_Donkey_bar_English_2	135	1	<?xml version="1.0"?>\n<Clock xmlns:dt="urn:schemas-microsoft-com:datatypes"><Description dt:dt="string">E-Prime Primary Realtime Clock</Description><StartTime><Timestamp dt:dt="int">0</Timestamp><DateUtc dt:dt="string">2016-03-16T22:39:06Z</DateUtc></StartTime><FrequencyChanges><FrequencyChange><Frequency dt:dt="r8">3507724</Frequency><Timestamp dt:dt="r8">2140906903903</Timestamp><Current dt:dt="r8">0</Current><DateUtc dt:dt="string">2016-03-16T22:39:06Z</DateUtc></FrequencyChange></FrequencyChanges></Clock>\n	Hungry_Donkey_bar_English_2-135-1	60.018	-294	1.0.0.18	1	2013867047	Standard	2.0.10.353	2.0.10.353	03-16-2016		18:39:06	2.0.10.248	95	Bar37-63.bmp	42	4	?	8r_4g.bmp	50r_4g.bmp	1r_2g.bmp	10r_2g.bmp				10r_2g.bmp	TrialProc	TrialList	0	cvbn	-999999	16	338558	0	n	501	339059	316	-444	-128	-22	-138	0	32	1	10	95	-8	-50	-1	-10	4	4	2	2	-10	2
Hungry_Donkey_bar_English_2	135	1	<?xml version="1.0"?>\n<Clock xmlns:dt="urn:schemas-microsoft-com:datatypes"><Description dt:dt="string">E-Prime Primary Realtime Clock</Description><StartTime><Timestamp dt:dt="int">0</Timestamp><DateUtc dt:dt="string">2016-03-16T22:39:06Z</DateUtc></StartTime><FrequencyChanges><FrequencyChange><Frequency dt:dt="r8">3507724</Frequency><Timestamp dt:dt="r8">2140906903903</Timestamp><Current dt:dt="r8">0</Current><DateUtc dt:dt="string">2016-03-16T22:39:06Z</DateUtc></FrequencyChange></FrequencyChanges></Clock>\n	Hungry_Donkey_bar_English_2-135-1	60.018	-294	1.0.0.18	1	2013867047	Standard	2.0.10.353	2.0.10.353	03-16-2016		18:39:06	2.0.10.248	96	Bar37-63.bmp	42	4	?	12r_4g.bmp	0r_4g.bmp	3r_2g.bmp	0r_2g.bmp				0r_2g.bmp	TrialProc	TrialList	0	cvbn	-999999	16	341090	0	n	465	341555	318	-444	-126	-22	-138	0	34	5	10	96	-12	0	-3	0	4	4	2	2	0	2
Hungry_Donkey_bar_English_2	135	1	<?xml version="1.0"?>\n<Clock xmlns:dt="urn:schemas-microsoft-com:datatypes"><Description dt:dt="string">E-Prime Primary Realtime Clock</Description><StartTime><Timestamp dt:dt="int">0</Timestamp><DateUtc dt:dt="string">2016-03-16T22:39:06Z</DateUtc></StartTime><FrequencyChanges><FrequencyChange><Frequency dt:dt="r8">3507724</Frequency><Timestamp dt:dt="r8">2140906903903</Timestamp><Current dt:dt="r8">0</Current><DateUtc dt:dt="string">2016-03-16T22:39:06Z</DateUtc></FrequencyChange></FrequencyChanges></Clock>\n	Hungry_Donkey_bar_English_2-135-1	60.018	-294	1.0.0.18	1	2013867047	Standard	2.0.10.353	2.0.10.353	03-16-2016		18:39:06	2.0.10.248	97	Bar37-63.bmp	42	4	?	10r_4g.bmp	0r_4g.bmp	2r_2g.bmp	0r_2g.bmp				0r_2g.bmp	TrialProc	TrialList	0	cvbn	-999999	16	343590	0	n	445	344035	320	-444	-124	-22	-138	0	36	3	10	97	-10	0	-2	0	4	4	2	2	0	2
Hungry_Donkey_bar_English_2	135	1	<?xml version="1.0"?>\n<Clock xmlns:dt="urn:schemas-microsoft-com:datatypes"><Description dt:dt="string">E-Prime Primary Realtime Clock</Description><StartTime><Timestamp dt:dt="int">0</Timestamp><DateUtc dt:dt="string">2016-03-16T22:39:06Z</DateUtc></StartTime><FrequencyChanges><FrequencyChange><Frequency dt:dt="r8">3507724</Frequency><Timestamp dt:dt="r8">2140906903903</Timestamp><Current dt:dt="r8">0</Current><DateUtc dt:dt="string">2016-03-16T22:39:06Z</DateUtc></FrequencyChange></FrequencyChanges></Clock>\n	Hungry_Donkey_bar_English_2-135-1	60.018	-294	1.0.0.18	1	2013867047	Standard	2.0.10.353	2.0.10.353	03-16-2016		18:39:06	2.0.10.248	98	Bar37-63.bmp	42	2	?	10r_4g.bmp	0r_4g.bmp	2r_2g.bmp	0r_2g.bmp		0r_4g.bmp			TrialProc	TrialList	0	cvbn	-999999	16	346072	0	v	427	346499	324	-444	-120	-22	-134	0	36	2	10	98	-10	0	-2	0	4	4	2	2	0	4
Hungry_Donkey_bar_English_2	135	1	<?xml version="1.0"?>\n<Clock xmlns:dt="urn:schemas-microsoft-com:datatypes"><Description dt:dt="string">E-Prime Primary Realtime Clock</Description><StartTime><Timestamp dt:dt="int">0</Timestamp><DateUtc dt:dt="string">2016-03-16T22:39:06Z</DateUtc></StartTime><FrequencyChanges><FrequencyChange><Frequency dt:dt="r8">3507724</Frequency><Timestamp dt:dt="r8">2140906903903</Timestamp><Current dt:dt="r8">0</Current><DateUtc dt:dt="string">2016-03-16T22:39:06Z</DateUtc></FrequencyChange></FrequencyChanges></Clock>\n	Hungry_Donkey_bar_English_2-135-1	60.018	-294	1.0.0.18	1	2013867047	Standard	2.0.10.353	2.0.10.353	03-16-2016		18:39:06	2.0.10.248	99	Bar37-63.bmp	42	2	?	0r_4g.bmp	0r_4g.bmp	0r_2g.bmp	0r_2g.bmp		0r_4g.bmp			TrialProc	TrialList	0	cvbn	-999999	16	348538	0	v	424	348962	328	-444	-116	-22	-130	0	36	6	10	99	0	0	0	0	4	4	2	2	0	4
Hungry_Donkey_bar_English_2	135	1	<?xml version="1.0"?>\n<Clock xmlns:dt="urn:schemas-microsoft-com:datatypes"><Description dt:dt="string">E-Prime Primary Realtime Clock</Description><StartTime><Timestamp dt:dt="int">0</Timestamp><DateUtc dt:dt="string">2016-03-16T22:39:06Z</DateUtc></StartTime><FrequencyChanges><FrequencyChange><Frequency dt:dt="r8">3507724</Frequency><Timestamp dt:dt="r8">2140906903903</Timestamp><Current dt:dt="r8">0</Current><DateUtc dt:dt="string">2016-03-16T22:39:06Z</DateUtc></FrequencyChange></FrequencyChanges></Clock>\n	Hungry_Donkey_bar_English_2-135-1	60.018	-294	1.0.0.18	1	2013867047	Standard	2.0.10.353	2.0.10.353	03-16-2016		18:39:06	2.0.10.248	100	Bar37-63.bmp	43	4	?	10r_4g.bmp	0r_4g.bmp	2r_2g.bmp	0r_2g.bmp				0r_2g.bmp	TrialProc	TrialList	0	cvbn	-999999	16	350987	0	n	471	351458	330	-444	-114	-22	-130	0	38	4	10	100	-10	0	-2	0	4	4	2	2	0	2
Hungry_Donkey_bar_English_2	135	1	<?xml version="1.0"?>\n<Clock xmlns:dt="urn:schemas-microsoft-com:datatypes"><Description dt:dt="string">E-Prime Primary Realtime Clock</Description><StartTime><Timestamp dt:dt="int">0</Timestamp><DateUtc dt:dt="string">2016-03-16T22:39:06Z</DateUtc></StartTime><FrequencyChanges><FrequencyChange><Frequency dt:dt="r8">3507724</Frequency><Timestamp dt:dt="r8">2140906903903</Timestamp><Current dt:dt="r8">0</Current><DateUtc dt:dt="string">2016-03-16T22:39:06Z</DateUtc></FrequencyChange></FrequencyChanges></Clock>\n	Hungry_Donkey_bar_English_2-135-1	60.018	-294	1.0.0.18	1	2013867047	Standard	2.0.10.353	2.0.10.353	03-16-2016		18:39:06	2.0.10.248	101	Bar37-63.bmp	43	4	?	10r_4g.bmp	0r_4g.bmp	2r_2g.bmp	0r_2g.bmp				0r_2g.bmp	TrialProc	TrialList	0	cvbn	-999999	16	353487	0	n	451	353938	332	-444	-112	-22	-130	0	40	2	11	101	-10	0	-2	0	4	4	2	2	0	2
Hungry_Donkey_bar_English_2	135	1	<?xml version="1.0"?>\n<Clock xmlns:dt="urn:schemas-microsoft-com:datatypes"><Description dt:dt="string">E-Prime Primary Realtime Clock</Description><StartTime><Timestamp dt:dt="int">0</Timestamp><DateUtc dt:dt="string">2016-03-16T22:39:06Z</DateUtc></StartTime><FrequencyChanges><FrequencyChange><Frequency dt:dt="r8">3507724</Frequency><Timestamp dt:dt="r8">2140906903903</Timestamp><Current dt:dt="r8">0</Current><DateUtc dt:dt="string">2016-03-16T22:39:06Z</DateUtc></FrequencyChange></FrequencyChanges></Clock>\n	Hungry_Donkey_bar_English_2-135-1	60.018	-294	1.0.0.18	1	2013867047	Standard	2.0.10.353	2.0.10.353	03-16-2016		18:39:06	2.0.10.248	102	Bar37-63.bmp	40	2	?	8r_4g.bmp	50r_4g.bmp	1r_2g.bmp	10r_2g.bmp		50r_4g.bmp			TrialProc	TrialList	0	cvbn	-999999	16	355969	0	v	337	356306	336	-494	-158	-22	-176	0	40	1	11	102	-8	-50	-1	-10	4	4	2	2	-50	4
Hungry_Donkey_bar_English_2	135	1	<?xml version="1.0"?>\n<Clock xmlns:dt="urn:schemas-microsoft-com:datatypes"><Description dt:dt="string">E-Prime Primary Realtime Clock</Description><StartTime><Timestamp dt:dt="int">0</Timestamp><DateUtc dt:dt="string">2016-03-16T22:39:06Z</DateUtc></StartTime><FrequencyChanges><FrequencyChange><Frequency dt:dt="r8">3507724</Frequency><Timestamp dt:dt="r8">2140906903903</Timestamp><Current dt:dt="r8">0</Current><DateUtc dt:dt="string">2016-03-16T22:39:06Z</DateUtc></FrequencyChange></FrequencyChanges></Clock>\n	Hungry_Donkey_bar_English_2-135-1	60.018	-294	1.0.0.18	1	2013867047	Standard	2.0.10.353	2.0.10.353	03-16-2016		18:39:06	2.0.10.248	103	Bar37-63.bmp	41	4	?	0r_4g.bmp	0r_4g.bmp	0r_2g.bmp	0r_2g.bmp				0r_2g.bmp	TrialProc	TrialList	0	cvbn	-999999	16	358335	0	n	403	358738	338	-494	-156	-22	-176	0	42	7	11	103	0	0	0	0	4	4	2	2	0	2
Hungry_Donkey_bar_English_2	135	1	<?xml version="1.0"?>\n<Clock xmlns:dt="urn:schemas-microsoft-com:datatypes"><Description dt:dt="string">E-Prime Primary Realtime Clock</Description><StartTime><Timestamp dt:dt="int">0</Timestamp><DateUtc dt:dt="string">2016-03-16T22:39:06Z</DateUtc></StartTime><FrequencyChanges><FrequencyChange><Frequency dt:dt="r8">3507724</Frequency><Timestamp dt:dt="r8">2140906903903</Timestamp><Current dt:dt="r8">0</Current><DateUtc dt:dt="string">2016-03-16T22:39:06Z</DateUtc></FrequencyChange></FrequencyChanges></Clock>\n	Hungry_Donkey_bar_English_2-135-1	60.018	-294	1.0.0.18	1	2013867047	Standard	2.0.10.353	2.0.10.353	03-16-2016		18:39:06	2.0.10.248	104	Bar37-63.bmp	41	4	?	10r_4g.bmp	0r_4g.bmp	2r_2g.bmp	0r_2g.bmp				0r_2g.bmp	TrialProc	TrialList	0	cvbn	-999999	16	360768	0	n	370	361138	340	-494	-154	-22	-176	0	44	3	11	104	-10	0	-2	0	4	4	2	2	0	2
Hungry_Donkey_bar_English_2	135	1	<?xml version="1.0"?>\n<Clock xmlns:dt="urn:schemas-microsoft-com:datatypes"><Description dt:dt="string">E-Prime Primary Realtime Clock</Description><StartTime><Timestamp dt:dt="int">0</Timestamp><DateUtc dt:dt="string">2016-03-16T22:39:06Z</DateUtc></StartTime><FrequencyChanges><FrequencyChange><Frequency dt:dt="r8">3507724</Frequency><Timestamp dt:dt="r8">2140906903903</Timestamp><Current dt:dt="r8">0</Current><DateUtc dt:dt="string">2016-03-16T22:39:06Z</DateUtc></FrequencyChange></FrequencyChanges></Clock>\n	Hungry_Donkey_bar_English_2-135-1	60.018	-294	1.0.0.18	1	2013867047	Standard	2.0.10.353	2.0.10.353	03-16-2016		18:39:06	2.0.10.248	105	Bar37-63.bmp	41	2	?	0r_4g.bmp	0r_4g.bmp	0r_2g.bmp	0r_2g.bmp		0r_4g.bmp			TrialProc	TrialList	0	cvbn	-999999	16	363167	0	v	515	363682	344	-494	-150	-22	-172	0	44	6	11	105	0	0	0	0	4	4	2	2	0	4
Hungry_Donkey_bar_English_2	135	1	<?xml version="1.0"?>\n<Clock xmlns:dt="urn:schemas-microsoft-com:datatypes"><Description dt:dt="string">E-Prime Primary Realtime Clock</Description><StartTime><Timestamp dt:dt="int">0</Timestamp><DateUtc dt:dt="string">2016-03-16T22:39:06Z</DateUtc></StartTime><FrequencyChanges><FrequencyChange><Frequency dt:dt="r8">3507724</Frequency><Timestamp dt:dt="r8">2140906903903</Timestamp><Current dt:dt="r8">0</Current><DateUtc dt:dt="string">2016-03-16T22:39:06Z</DateUtc></FrequencyChange></FrequencyChanges></Clock>\n	Hungry_Donkey_bar_English_2-135-1	60.018	-294	1.0.0.18	1	2013867047	Standard	2.0.10.353	2.0.10.353	03-16-2016		18:39:06	2.0.10.248	106	Bar37-63.bmp	41	2	?	12r_4g.bmp	0r_4g.bmp	3r_2g.bmp	0r_2g.bmp		0r_4g.bmp			TrialProc	TrialList	0	cvbn	-999999	16	365716	0	v	397	366113	348	-494	-146	-22	-168	0	44	5	11	106	-12	0	-3	0	4	4	2	2	0	4
Hungry_Donkey_bar_English_2	135	1	<?xml version="1.0"?>\n<Clock xmlns:dt="urn:schemas-microsoft-com:datatypes"><Description dt:dt="string">E-Prime Primary Realtime Clock</Description><StartTime><Timestamp dt:dt="int">0</Timestamp><DateUtc dt:dt="string">2016-03-16T22:39:06Z</DateUtc></StartTime><FrequencyChanges><FrequencyChange><Frequency dt:dt="r8">3507724</Frequency><Timestamp dt:dt="r8">2140906903903</Timestamp><Current dt:dt="r8">0</Current><DateUtc dt:dt="string">2016-03-16T22:39:06Z</DateUtc></FrequencyChange></FrequencyChanges></Clock>\n	Hungry_Donkey_bar_English_2-135-1	60.018	-294	1.0.0.18	1	2013867047	Standard	2.0.10.353	2.0.10.353	03-16-2016		18:39:06	2.0.10.248	107	Bar37-63.bmp	41	3	?	0r_4g.bmp	0r_4g.bmp	0r_2g.bmp	0r_2g.bmp			0r_2g.bmp		TrialProc	TrialList	0	cvbn	-999999	16	368149	0	b	444	368593	350	-494	-144	-22	-168	2	44	10	11	107	0	0	0	0	4	4	2	2	0	2
Hungry_Donkey_bar_English_2	135	1	<?xml version="1.0"?>\n<Clock xmlns:dt="urn:schemas-microsoft-com:datatypes"><Description dt:dt="string">E-Prime Primary Realtime Clock</Description><StartTime><Timestamp dt:dt="int">0</Timestamp><DateUtc dt:dt="string">2016-03-16T22:39:06Z</DateUtc></StartTime><FrequencyChanges><FrequencyChange><Frequency dt:dt="r8">3507724</Frequency><Timestamp dt:dt="r8">2140906903903</Timestamp><Current dt:dt="r8">0</Current><DateUtc dt:dt="string">2016-03-16T22:39:06Z</DateUtc></FrequencyChange></FrequencyChanges></Clock>\n	Hungry_Donkey_bar_English_2-135-1	60.018	-294	1.0.0.18	1	2013867047	Standard	2.0.10.353	2.0.10.353	03-16-2016		18:39:06	2.0.10.248	108	Bar37-63.bmp	42	3	?	0r_4g.bmp	0r_4g.bmp	0r_2g.bmp	0r_2g.bmp			0r_2g.bmp		TrialProc	TrialList	0	cvbn	-999999	16	370631	0	b	410	371041	352	-494	-142	-22	-168	4	44	8	11	108	0	0	0	0	4	4	2	2	0	2
Hungry_Donkey_bar_English_2	135	1	<?xml version="1.0"?>\n<Clock xmlns:dt="urn:schemas-microsoft-com:datatypes"><Description dt:dt="string">E-Prime Primary Realtime Clock</Description><StartTime><Timestamp dt:dt="int">0</Timestamp><DateUtc dt:dt="string">2016-03-16T22:39:06Z</DateUtc></StartTime><FrequencyChanges><FrequencyChange><Frequency dt:dt="r8">3507724</Frequency><Timestamp dt:dt="r8">2140906903903</Timestamp><Current dt:dt="r8">0</Current><DateUtc dt:dt="string">2016-03-16T22:39:06Z</DateUtc></FrequencyChange></FrequencyChanges></Clock>\n	Hungry_Donkey_bar_English_2-135-1	60.018	-294	1.0.0.18	1	2013867047	Standard	2.0.10.353	2.0.10.353	03-16-2016		18:39:06	2.0.10.248	109	Bar37-63.bmp	42	3	?	0r_4g.bmp	0r_4g.bmp	0r_2g.bmp	0r_2g.bmp			0r_2g.bmp		TrialProc	TrialList	0	cvbn	-999999	16	373081	0	b	488	373569	354	-494	-140	-22	-168	6	44	9	11	109	0	0	0	0	4	4	2	2	0	2
Hungry_Donkey_bar_English_2	135	1	<?xml version="1.0"?>\n<Clock xmlns:dt="urn:schemas-microsoft-com:datatypes"><Description dt:dt="string">E-Prime Primary Realtime Clock</Description><StartTime><Timestamp dt:dt="int">0</Timestamp><DateUtc dt:dt="string">2016-03-16T22:39:06Z</DateUtc></StartTime><FrequencyChanges><FrequencyChange><Frequency dt:dt="r8">3507724</Frequency><Timestamp dt:dt="r8">2140906903903</Timestamp><Current dt:dt="r8">0</Current><DateUtc dt:dt="string">2016-03-16T22:39:06Z</DateUtc></FrequencyChange></FrequencyChanges></Clock>\n	Hungry_Donkey_bar_English_2-135-1	60.018	-294	1.0.0.18	1	2013867047	Standard	2.0.10.353	2.0.10.353	03-16-2016		18:39:06	2.0.10.248	110	Bar37-63.bmp	42	1	?	10r_4g.bmp	0r_4g.bmp	2r_2g.bmp	0r_2g.bmp	10r_4g.bmp				TrialProc	TrialList	0	cvbn	-999999	16	375597	0	c	148	375745	358	-504	-146	-28	-168	6	44	4	11	110	-10	0	-2	0	4	4	2	2	-10	4
Hungry_Donkey_bar_English_2	135	1	<?xml version="1.0"?>\n<Clock xmlns:dt="urn:schemas-microsoft-com:datatypes"><Description dt:dt="string">E-Prime Primary Realtime Clock</Description><StartTime><Timestamp dt:dt="int">0</Timestamp><DateUtc dt:dt="string">2016-03-16T22:39:06Z</DateUtc></StartTime><FrequencyChanges><FrequencyChange><Frequency dt:dt="r8">3507724</Frequency><Timestamp dt:dt="r8">2140906903903</Timestamp><Current dt:dt="r8">0</Current><DateUtc dt:dt="string">2016-03-16T22:39:06Z</DateUtc></FrequencyChange></FrequencyChanges></Clock>\n	Hungry_Donkey_bar_English_2-135-1	60.018	-294	1.0.0.18	1	2013867047	Standard	2.0.10.353	2.0.10.353	03-16-2016		18:39:06	2.0.10.248	111	Bar37-63.bmp	41	1	?	10r_4g.bmp	0r_4g.bmp	2r_2g.bmp	0r_2g.bmp	10r_4g.bmp				TrialProc	TrialList	0	cvbn	-999999	16	377779	0	c	590	378369	362	-514	-152	-34	-168	6	44	4	12	111	-10	0	-2	0	4	4	2	2	-10	4
Hungry_Donkey_bar_English_2	135	1	<?xml version="1.0"?>\n<Clock xmlns:dt="urn:schemas-microsoft-com:datatypes"><Description dt:dt="string">E-Prime Primary Realtime Clock</Description><StartTime><Timestamp dt:dt="int">0</Timestamp><DateUtc dt:dt="string">2016-03-16T22:39:06Z</DateUtc></StartTime><FrequencyChanges><FrequencyChange><Frequency dt:dt="r8">3507724</Frequency><Timestamp dt:dt="r8">2140906903903</Timestamp><Current dt:dt="r8">0</Current><DateUtc dt:dt="string">2016-03-16T22:39:06Z</DateUtc></FrequencyChange></FrequencyChanges></Clock>\n	Hungry_Donkey_bar_English_2-135-1	60.018	-294	1.0.0.18	1	2013867047	Standard	2.0.10.353	2.0.10.353	03-16-2016		18:39:06	2.0.10.248	112	Bar37-63.bmp	41	3	?	0r_4g.bmp	0r_4g.bmp	0r_2g.bmp	0r_2g.bmp			0r_2g.bmp		TrialProc	TrialList	0	cvbn	-999999	16	380395	0	b	406	380801	364	-514	-150	-34	-168	8	44	7	12	112	0	0	0	0	4	4	2	2	0	2
Hungry_Donkey_bar_English_2	135	1	<?xml version="1.0"?>\n<Clock xmlns:dt="urn:schemas-microsoft-com:datatypes"><Description dt:dt="string">E-Prime Primary Realtime Clock</Description><StartTime><Timestamp dt:dt="int">0</Timestamp><DateUtc dt:dt="string">2016-03-16T22:39:06Z</DateUtc></StartTime><FrequencyChanges><FrequencyChange><Frequency dt:dt="r8">3507724</Frequency><Timestamp dt:dt="r8">2140906903903</Timestamp><Current dt:dt="r8">0</Current><DateUtc dt:dt="string">2016-03-16T22:39:06Z</DateUtc></FrequencyChange></FrequencyChanges></Clock>\n	Hungry_Donkey_bar_English_2-135-1	60.018	-294	1.0.0.18	1	2013867047	Standard	2.0.10.353	2.0.10.353	03-16-2016		18:39:06	2.0.10.248	113	Bar37-63.bmp	42	2	?	0r_4g.bmp	0r_4g.bmp	0r_2g.bmp	0r_2g.bmp		0r_4g.bmp			TrialProc	TrialList	0	cvbn	-999999	16	382828	0	v	548	383376	368	-514	-146	-34	-164	8	44	6	12	113	0	0	0	0	4	4	2	2	0	4
