ExperimentName	Subject	Session	Clock.Information	DataFile.Basename	Display.RefreshRate	Eindtotaal[Session]	ExperimentVersion	Group	RandomSeed	RuntimeCapabilities	RuntimeVersion	RuntimeVersionExpected	SessionDate	SessionStartDateTimeUtc	SessionTime	StudioVersion	Block	BarImage	BarTotalWinst	DoorChoice	Eindtotaal[Block]	FBDoor1	FBDoor2	FBDoor3	FBDoor4	Image1	Image2	Image3	Image4	Procedure	Running	spel.ACC	spel.CRESP	spel.DurationError	spel.OnsetDelay	spel.OnsetTime	spel.OnsetToOnsetTime	spel.RESP	spel.RT	spel.RTTime	TotalGain	TotalLose	Totalsum	TotalsumD1	TotalsumD2	TotalsumD3	TotalsumD4	TrialList	TrialList.Cycle	TrialList.Sample	varV1	varV2	varV3	varV4	varW1	varW2	varW3	varW4	Verliesbedrag	Winstbedrag
Hungry_Donkey_bar_English_2	133	1	<?xml version="1.0"?>\n<Clock xmlns:dt="urn:schemas-microsoft-com:datatypes"><Description dt:dt="string">E-Prime Primary Realtime Clock</Description><StartTime><Timestamp dt:dt="int">0</Timestamp><DateUtc dt:dt="string">2016-02-22T23:28:33Z</DateUtc></StartTime><FrequencyChanges><FrequencyChange><Frequency dt:dt="r8">3507675</Frequency><Timestamp dt:dt="r8">9402480760</Timestamp><Current dt:dt="r8">0</Current><DateUtc dt:dt="string">2016-02-22T23:28:33Z</DateUtc></FrequencyChange></FrequencyChanges></Clock>\n	Hungry_Donkey_bar_English_2-133-1	60.017	-72	1.0.0.18	1	813241845	Standard	2.0.10.353	2.0.10.353	02-22-2016		18:28:33	2.0.10.248	1	Bar13-87.bmp	7	2	?	8r_4g.bmp	50r_4g.bmp	1r_2g.bmp	10r_2g.bmp		50r_4g.bmp			TrialProc	TrialList	0	cvbn	-999999	19	90876	0	v	2861	93737	4	-50	-46	0	-46	0	0	1	1	1	-8	-50	-1	-10	4	4	2	2	-50	4
Hungry_Donkey_bar_English_2	133	1	<?xml version="1.0"?>\n<Clock xmlns:dt="urn:schemas-microsoft-com:datatypes"><Description dt:dt="string">E-Prime Primary Realtime Clock</Description><StartTime><Timestamp dt:dt="int">0</Timestamp><DateUtc dt:dt="string">2016-02-22T23:28:33Z</DateUtc></StartTime><FrequencyChanges><FrequencyChange><Frequency dt:dt="r8">3507675</Frequency><Timestamp dt:dt="r8">9402480760</Timestamp><Current dt:dt="r8">0</Current><DateUtc dt:dt="string">2016-02-22T23:28:33Z</DateUtc></FrequencyChange></FrequencyChanges></Clock>\n	Hungry_Donkey_bar_English_2-133-1	60.017	-72	1.0.0.18	1	813241845	Standard	2.0.10.353	2.0.10.353	02-22-2016		18:28:33	2.0.10.248	2	Bar13-87.bmp	11	4	?	10r_4g.bmp	0r_4g.bmp	2r_2g.bmp	0r_2g.bmp				0r_2g.bmp	TrialProc	TrialList	0	cvbn	-999999	17	95775	0	n	3002	98777	6	-50	-44	0	-46	0	2	4	1	2	-10	0	-2	0	4	4	2	2	0	2
Hungry_Donkey_bar_English_2	133	1	<?xml version="1.0"?>\n<Clock xmlns:dt="urn:schemas-microsoft-com:datatypes"><Description dt:dt="string">E-Prime Primary Realtime Clock</Description><StartTime><Timestamp dt:dt="int">0</Timestamp><DateUtc dt:dt="string">2016-02-22T23:28:33Z</DateUtc></StartTime><FrequencyChanges><FrequencyChange><Frequency dt:dt="r8">3507675</Frequency><Timestamp dt:dt="r8">9402480760</Timestamp><Current dt:dt="r8">0</Current><DateUtc dt:dt="string">2016-02-22T23:28:33Z</DateUtc></FrequencyChange></FrequencyChanges></Clock>\n	Hungry_Donkey_bar_English_2-133-1	60.017	-72	1.0.0.18	1	813241845	Standard	2.0.10.353	2.0.10.353	02-22-2016		18:28:33	2.0.10.248	3	Bar13-87.bmp	13	3	?	10r_4g.bmp	0r_4g.bmp	2r_2g.bmp	0r_2g.bmp			2r_2g.bmp		TrialProc	TrialList	0	cvbn	-999999	16	100823	0	b	2097	102920	8	-52	-44	0	-46	0	2	2	1	3	-10	0	-2	0	4	4	2	2	-2	2
Hungry_Donkey_bar_English_2	133	1	<?xml version="1.0"?>\n<Clock xmlns:dt="urn:schemas-microsoft-com:datatypes"><Description dt:dt="string">E-Prime Primary Realtime Clock</Description><StartTime><Timestamp dt:dt="int">0</Timestamp><DateUtc dt:dt="string">2016-02-22T23:28:33Z</DateUtc></StartTime><FrequencyChanges><FrequencyChange><Frequency dt:dt="r8">3507675</Frequency><Timestamp dt:dt="r8">9402480760</Timestamp><Current dt:dt="r8">0</Current><DateUtc dt:dt="string">2016-02-22T23:28:33Z</DateUtc></FrequencyChange></FrequencyChanges></Clock>\n	Hungry_Donkey_bar_English_2-133-1	60.017	-72	1.0.0.18	1	813241845	Standard	2.0.10.353	2.0.10.353	02-22-2016		18:28:33	2.0.10.248	4	Bar13-87.bmp	19	1	?	0r_4g.bmp	0r_4g.bmp	0r_2g.bmp	0r_2g.bmp	0r_4g.bmp				TrialProc	TrialList	0	cvbn	-999999	16	104955	0	c	1629	106584	12	-52	-40	4	-46	0	2	8	1	4	0	0	0	0	4	4	2	2	0	4
Hungry_Donkey_bar_English_2	133	1	<?xml version="1.0"?>\n<Clock xmlns:dt="urn:schemas-microsoft-com:datatypes"><Description dt:dt="string">E-Prime Primary Realtime Clock</Description><StartTime><Timestamp dt:dt="int">0</Timestamp><DateUtc dt:dt="string">2016-02-22T23:28:33Z</DateUtc></StartTime><FrequencyChanges><FrequencyChange><Frequency dt:dt="r8">3507675</Frequency><Timestamp dt:dt="r8">9402480760</Timestamp><Current dt:dt="r8">0</Current><DateUtc dt:dt="string">2016-02-22T23:28:33Z</DateUtc></FrequencyChange></FrequencyChanges></Clock>\n	Hungry_Donkey_bar_English_2-133-1	60.017	-72	1.0.0.18	1	813241845	Standard	2.0.10.353	2.0.10.353	02-22-2016		18:28:33	2.0.10.248	5	Bar25-75.bmp	24	2	?	0r_4g.bmp	0r_4g.bmp	0r_2g.bmp	0r_2g.bmp		0r_4g.bmp			TrialProc	TrialList	0	cvbn	-999999	16	108621	0	v	2827	111448	16	-52	-36	4	-42	0	2	10	1	5	0	0	0	0	4	4	2	2	0	4
Hungry_Donkey_bar_English_2	133	1	<?xml version="1.0"?>\n<Clock xmlns:dt="urn:schemas-microsoft-com:datatypes"><Description dt:dt="string">E-Prime Primary Realtime Clock</Description><StartTime><Timestamp dt:dt="int">0</Timestamp><DateUtc dt:dt="string">2016-02-22T23:28:33Z</DateUtc></StartTime><FrequencyChanges><FrequencyChange><Frequency dt:dt="r8">3507675</Frequency><Timestamp dt:dt="r8">9402480760</Timestamp><Current dt:dt="r8">0</Current><DateUtc dt:dt="string">2016-02-22T23:28:33Z</DateUtc></FrequencyChange></FrequencyChanges></Clock>\n	Hungry_Donkey_bar_English_2-133-1	60.017	-72	1.0.0.18	1	813241845	Standard	2.0.10.353	2.0.10.353	02-22-2016		18:28:33	2.0.10.248	6	Bar25-75.bmp	28	1	?	0r_4g.bmp	0r_4g.bmp	0r_2g.bmp	0r_2g.bmp	0r_4g.bmp				TrialProc	TrialList	0	cvbn	-999999	16	113486	0	c	1146	114632	20	-52	-32	8	-42	0	2	6	1	6	0	0	0	0	4	4	2	2	0	4
Hungry_Donkey_bar_English_2	133	1	<?xml version="1.0"?>\n<Clock xmlns:dt="urn:schemas-microsoft-com:datatypes"><Description dt:dt="string">E-Prime Primary Realtime Clock</Description><StartTime><Timestamp dt:dt="int">0</Timestamp><DateUtc dt:dt="string">2016-02-22T23:28:33Z</DateUtc></StartTime><FrequencyChanges><FrequencyChange><Frequency dt:dt="r8">3507675</Frequency><Timestamp dt:dt="r8">9402480760</Timestamp><Current dt:dt="r8">0</Current><DateUtc dt:dt="string">2016-02-22T23:28:33Z</DateUtc></FrequencyChange></FrequencyChanges></Clock>\n	Hungry_Donkey_bar_English_2-133-1	60.017	-72	1.0.0.18	1	813241845	Standard	2.0.10.353	2.0.10.353	02-22-2016		18:28:33	2.0.10.248	7	Bar25-75.bmp	30	4	?	10r_4g.bmp	0r_4g.bmp	2r_2g.bmp	0r_2g.bmp				0r_2g.bmp	TrialProc	TrialList	0	cvbn	-999999	17	116669	0	n	1851	118520	22	-52	-30	8	-42	0	4	3	1	7	-10	0	-2	0	4	4	2	2	0	2
Hungry_Donkey_bar_English_2	133	1	<?xml version="1.0"?>\n<Clock xmlns:dt="urn:schemas-microsoft-com:datatypes"><Description dt:dt="string">E-Prime Primary Realtime Clock</Description><StartTime><Timestamp dt:dt="int">0</Timestamp><DateUtc dt:dt="string">2016-02-22T23:28:33Z</DateUtc></StartTime><FrequencyChanges><FrequencyChange><Frequency dt:dt="r8">3507675</Frequency><Timestamp dt:dt="r8">9402480760</Timestamp><Current dt:dt="r8">0</Current><DateUtc dt:dt="string">2016-02-22T23:28:33Z</DateUtc></FrequencyChange></FrequencyChanges></Clock>\n	Hungry_Donkey_bar_English_2-133-1	60.017	-72	1.0.0.18	1	813241845	Standard	2.0.10.353	2.0.10.353	02-22-2016		18:28:33	2.0.10.248	8	Bar37-63.bmp	33	2	?	0r_4g.bmp	0r_4g.bmp	0r_2g.bmp	0r_2g.bmp		0r_4g.bmp			TrialProc	TrialList	0	cvbn	-999999	16	120551	0	v	2640	123191	26	-52	-26	8	-38	0	4	7	1	8	0	0	0	0	4	4	2	2	0	4
Hungry_Donkey_bar_English_2	133	1	<?xml version="1.0"?>\n<Clock xmlns:dt="urn:schemas-microsoft-com:datatypes"><Description dt:dt="string">E-Prime Primary Realtime Clock</Description><StartTime><Timestamp dt:dt="int">0</Timestamp><DateUtc dt:dt="string">2016-02-22T23:28:33Z</DateUtc></StartTime><FrequencyChanges><FrequencyChange><Frequency dt:dt="r8">3507675</Frequency><Timestamp dt:dt="r8">9402480760</Timestamp><Current dt:dt="r8">0</Current><DateUtc dt:dt="string">2016-02-22T23:28:33Z</DateUtc></FrequencyChange></FrequencyChanges></Clock>\n	Hungry_Donkey_bar_English_2-133-1	60.017	-72	1.0.0.18	1	813241845	Standard	2.0.10.353	2.0.10.353	02-22-2016		18:28:33	2.0.10.248	9	Bar37-63.bmp	35	3	?	0r_4g.bmp	0r_4g.bmp	0r_2g.bmp	0r_2g.bmp			0r_2g.bmp		TrialProc	TrialList	0	cvbn	-999999	16	125233	0	b	950	126183	28	-52	-24	8	-38	2	4	9	1	9	0	0	0	0	4	4	2	2	0	2
Hungry_Donkey_bar_English_2	133	1	<?xml version="1.0"?>\n<Clock xmlns:dt="urn:schemas-microsoft-com:datatypes"><Description dt:dt="string">E-Prime Primary Realtime Clock</Description><StartTime><Timestamp dt:dt="int">0</Timestamp><DateUtc dt:dt="string">2016-02-22T23:28:33Z</DateUtc></StartTime><FrequencyChanges><FrequencyChange><Frequency dt:dt="r8">3507675</Frequency><Timestamp dt:dt="r8">9402480760</Timestamp><Current dt:dt="r8">0</Current><DateUtc dt:dt="string">2016-02-22T23:28:33Z</DateUtc></FrequencyChange></FrequencyChanges></Clock>\n	Hungry_Donkey_bar_English_2-133-1	60.017	-72	1.0.0.18	1	813241845	Standard	2.0.10.353	2.0.10.353	02-22-2016		18:28:33	2.0.10.248	10	Bar37-63.bmp	33	1	?	12r_4g.bmp	0r_4g.bmp	3r_2g.bmp	0r_2g.bmp	12r_4g.bmp				TrialProc	TrialList	0	cvbn	-999999	16	128215	0	c	1984	130199	32	-64	-32	0	-38	2	4	5	1	10	-12	0	-3	0	4	4	2	2	-12	4
Hungry_Donkey_bar_English_2	133	1	<?xml version="1.0"?>\n<Clock xmlns:dt="urn:schemas-microsoft-com:datatypes"><Description dt:dt="string">E-Prime Primary Realtime Clock</Description><StartTime><Timestamp dt:dt="int">0</Timestamp><DateUtc dt:dt="string">2016-02-22T23:28:33Z</DateUtc></StartTime><FrequencyChanges><FrequencyChange><Frequency dt:dt="r8">3507675</Frequency><Timestamp dt:dt="r8">9402480760</Timestamp><Current dt:dt="r8">0</Current><DateUtc dt:dt="string">2016-02-22T23:28:33Z</DateUtc></FrequencyChange></FrequencyChanges></Clock>\n	Hungry_Donkey_bar_English_2-133-1	60.017	-72	1.0.0.18	1	813241845	Standard	2.0.10.353	2.0.10.353	02-22-2016		18:28:33	2.0.10.248	11	Bar37-63.bmp	35	3	?	0r_4g.bmp	0r_4g.bmp	0r_2g.bmp	0r_2g.bmp			0r_2g.bmp		TrialProc	TrialList	0	cvbn	-999999	16	132231	0	b	1744	133975	34	-64	-30	0	-38	4	4	9	2	11	0	0	0	0	4	4	2	2	0	2
Hungry_Donkey_bar_English_2	133	1	<?xml version="1.0"?>\n<Clock xmlns:dt="urn:schemas-microsoft-com:datatypes"><Description dt:dt="string">E-Prime Primary Realtime Clock</Description><StartTime><Timestamp dt:dt="int">0</Timestamp><DateUtc dt:dt="string">2016-02-22T23:28:33Z</DateUtc></StartTime><FrequencyChanges><FrequencyChange><Frequency dt:dt="r8">3507675</Frequency><Timestamp dt:dt="r8">9402480760</Timestamp><Current dt:dt="r8">0</Current><DateUtc dt:dt="string">2016-02-22T23:28:33Z</DateUtc></FrequencyChange></FrequencyChanges></Clock>\n	Hungry_Donkey_bar_English_2-133-1	60.017	-72	1.0.0.18	1	813241845	Standard	2.0.10.353	2.0.10.353	02-22-2016		18:28:33	2.0.10.248	12	Bar37-63.bmp	36	4	?	10r_4g.bmp	0r_4g.bmp	2r_2g.bmp	0r_2g.bmp				0r_2g.bmp	TrialProc	TrialList	0	cvbn	-999999	16	136013	0	n	698	136711	36	-64	-28	0	-38	4	6	3	2	12	-10	0	-2	0	4	4	2	2	0	2
Hungry_Donkey_bar_English_2	133	1	<?xml version="1.0"?>\n<Clock xmlns:dt="urn:schemas-microsoft-com:datatypes"><Description dt:dt="string">E-Prime Primary Realtime Clock</Description><StartTime><Timestamp dt:dt="int">0</Timestamp><DateUtc dt:dt="string">2016-02-22T23:28:33Z</DateUtc></StartTime><FrequencyChanges><FrequencyChange><Frequency dt:dt="r8">3507675</Frequency><Timestamp dt:dt="r8">9402480760</Timestamp><Current dt:dt="r8">0</Current><DateUtc dt:dt="string">2016-02-22T23:28:33Z</DateUtc></FrequencyChange></FrequencyChanges></Clock>\n	Hungry_Donkey_bar_English_2-133-1	60.017	-72	1.0.0.18	1	813241845	Standard	2.0.10.353	2.0.10.353	02-22-2016		18:28:33	2.0.10.248	13	Bar37-63.bmp	38	2	?	0r_4g.bmp	0r_4g.bmp	0r_2g.bmp	0r_2g.bmp		0r_4g.bmp			TrialProc	TrialList	0	cvbn	-999999	17	138746	0	v	1965	140711	40	-64	-24	0	-34	4	6	8	2	13	0	0	0	0	4	4	2	2	0	4
Hungry_Donkey_bar_English_2	133	1	<?xml version="1.0"?>\n<Clock xmlns:dt="urn:schemas-microsoft-com:datatypes"><Description dt:dt="string">E-Prime Primary Realtime Clock</Description><StartTime><Timestamp dt:dt="int">0</Timestamp><DateUtc dt:dt="string">2016-02-22T23:28:33Z</DateUtc></StartTime><FrequencyChanges><FrequencyChange><Frequency dt:dt="r8">3507675</Frequency><Timestamp dt:dt="r8">9402480760</Timestamp><Current dt:dt="r8">0</Current><DateUtc dt:dt="string">2016-02-22T23:28:33Z</DateUtc></FrequencyChange></FrequencyChanges></Clock>\n	Hungry_Donkey_bar_English_2-133-1	60.017	-72	1.0.0.18	1	813241845	Standard	2.0.10.353	2.0.10.353	02-22-2016		18:28:33	2.0.10.248	14	Bar37-63.bmp	39	3	?	8r_4g.bmp	50r_4g.bmp	1r_2g.bmp	10r_2g.bmp			1r_2g.bmp		TrialProc	TrialList	0	cvbn	-999999	16	142744	0	b	1102	143846	42	-65	-23	0	-34	5	6	1	2	14	-8	-50	-1	-10	4	4	2	2	-1	2
Hungry_Donkey_bar_English_2	133	1	<?xml version="1.0"?>\n<Clock xmlns:dt="urn:schemas-microsoft-com:datatypes"><Description dt:dt="string">E-Prime Primary Realtime Clock</Description><StartTime><Timestamp dt:dt="int">0</Timestamp><DateUtc dt:dt="string">2016-02-22T23:28:33Z</DateUtc></StartTime><FrequencyChanges><FrequencyChange><Frequency dt:dt="r8">3507675</Frequency><Timestamp dt:dt="r8">9402480760</Timestamp><Current dt:dt="r8">0</Current><DateUtc dt:dt="string">2016-02-22T23:28:33Z</DateUtc></FrequencyChange></FrequencyChanges></Clock>\n	Hungry_Donkey_bar_English_2-133-1	60.017	-72	1.0.0.18	1	813241845	Standard	2.0.10.353	2.0.10.353	02-22-2016		18:28:33	2.0.10.248	15	Bar37-63.bmp	41	1	?	0r_4g.bmp	0r_4g.bmp	0r_2g.bmp	0r_2g.bmp	0r_4g.bmp				TrialProc	TrialList	0	cvbn	-999999	15	145877	0	c	1425	147302	46	-65	-19	4	-34	5	6	10	2	15	0	0	0	0	4	4	2	2	0	4
Hungry_Donkey_bar_English_2	133	1	<?xml version="1.0"?>\n<Clock xmlns:dt="urn:schemas-microsoft-com:datatypes"><Description dt:dt="string">E-Prime Primary Realtime Clock</Description><StartTime><Timestamp dt:dt="int">0</Timestamp><DateUtc dt:dt="string">2016-02-22T23:28:33Z</DateUtc></StartTime><FrequencyChanges><FrequencyChange><Frequency dt:dt="r8">3507675</Frequency><Timestamp dt:dt="r8">9402480760</Timestamp><Current dt:dt="r8">0</Current><DateUtc dt:dt="string">2016-02-22T23:28:33Z</DateUtc></FrequencyChange></FrequencyChanges></Clock>\n	Hungry_Donkey_bar_English_2-133-1	60.017	-72	1.0.0.18	1	813241845	Standard	2.0.10.353	2.0.10.353	02-22-2016		18:28:33	2.0.10.248	16	Bar37-63.bmp	40	1	?	10r_4g.bmp	0r_4g.bmp	2r_2g.bmp	0r_2g.bmp	10r_4g.bmp				TrialProc	TrialList	0	cvbn	-999999	16	149326	0	c	1880	151206	50	-75	-25	-2	-34	5	6	4	2	16	-10	0	-2	0	4	4	2	2	-10	4
Hungry_Donkey_bar_English_2	133	1	<?xml version="1.0"?>\n<Clock xmlns:dt="urn:schemas-microsoft-com:datatypes"><Description dt:dt="string">E-Prime Primary Realtime Clock</Description><StartTime><Timestamp dt:dt="int">0</Timestamp><DateUtc dt:dt="string">2016-02-22T23:28:33Z</DateUtc></StartTime><FrequencyChanges><FrequencyChange><Frequency dt:dt="r8">3507675</Frequency><Timestamp dt:dt="r8">9402480760</Timestamp><Current dt:dt="r8">0</Current><DateUtc dt:dt="string">2016-02-22T23:28:33Z</DateUtc></FrequencyChange></FrequencyChanges></Clock>\n	Hungry_Donkey_bar_English_2-133-1	60.017	-72	1.0.0.18	1	813241845	Standard	2.0.10.353	2.0.10.353	02-22-2016		18:28:33	2.0.10.248	17	Bar37-63.bmp	40	3	?	12r_4g.bmp	0r_4g.bmp	3r_2g.bmp	0r_2g.bmp			3r_2g.bmp		TrialProc	TrialList	0	cvbn	-999999	16	153241	0	b	1341	154582	52	-78	-26	-2	-34	4	6	5	2	17	-12	0	-3	0	4	4	2	2	-3	2
Hungry_Donkey_bar_English_2	133	1	<?xml version="1.0"?>\n<Clock xmlns:dt="urn:schemas-microsoft-com:datatypes"><Description dt:dt="string">E-Prime Primary Realtime Clock</Description><StartTime><Timestamp dt:dt="int">0</Timestamp><DateUtc dt:dt="string">2016-02-22T23:28:33Z</DateUtc></StartTime><FrequencyChanges><FrequencyChange><Frequency dt:dt="r8">3507675</Frequency><Timestamp dt:dt="r8">9402480760</Timestamp><Current dt:dt="r8">0</Current><DateUtc dt:dt="string">2016-02-22T23:28:33Z</DateUtc></FrequencyChange></FrequencyChanges></Clock>\n	Hungry_Donkey_bar_English_2-133-1	60.017	-72	1.0.0.18	1	813241845	Standard	2.0.10.353	2.0.10.353	02-22-2016		18:28:33	2.0.10.248	18	Bar37-63.bmp	39	1	?	10r_4g.bmp	0r_4g.bmp	2r_2g.bmp	0r_2g.bmp	10r_4g.bmp				TrialProc	TrialList	0	cvbn	-999999	16	156624	0	c	518	157142	56	-88	-32	-8	-34	4	6	2	2	18	-10	0	-2	0	4	4	2	2	-10	4
Hungry_Donkey_bar_English_2	133	1	<?xml version="1.0"?>\n<Clock xmlns:dt="urn:schemas-microsoft-com:datatypes"><Description dt:dt="string">E-Prime Primary Realtime Clock</Description><StartTime><Timestamp dt:dt="int">0</Timestamp><DateUtc dt:dt="string">2016-02-22T23:28:33Z</DateUtc></StartTime><FrequencyChanges><FrequencyChange><Frequency dt:dt="r8">3507675</Frequency><Timestamp dt:dt="r8">9402480760</Timestamp><Current dt:dt="r8">0</Current><DateUtc dt:dt="string">2016-02-22T23:28:33Z</DateUtc></FrequencyChange></FrequencyChanges></Clock>\n	Hungry_Donkey_bar_English_2-133-1	60.017	-72	1.0.0.18	1	813241845	Standard	2.0.10.353	2.0.10.353	02-22-2016		18:28:33	2.0.10.248	19	Bar37-63.bmp	40	4	?	0r_4g.bmp	0r_4g.bmp	0r_2g.bmp	0r_2g.bmp				0r_2g.bmp	TrialProc	TrialList	0	cvbn	-999999	16	159173	0	n	801	159974	58	-88	-30	-8	-34	4	8	7	2	19	0	0	0	0	4	4	2	2	0	2
Hungry_Donkey_bar_English_2	133	1	<?xml version="1.0"?>\n<Clock xmlns:dt="urn:schemas-microsoft-com:datatypes"><Description dt:dt="string">E-Prime Primary Realtime Clock</Description><StartTime><Timestamp dt:dt="int">0</Timestamp><DateUtc dt:dt="string">2016-02-22T23:28:33Z</DateUtc></StartTime><FrequencyChanges><FrequencyChange><Frequency dt:dt="r8">3507675</Frequency><Timestamp dt:dt="r8">9402480760</Timestamp><Current dt:dt="r8">0</Current><DateUtc dt:dt="string">2016-02-22T23:28:33Z</DateUtc></FrequencyChange></FrequencyChanges></Clock>\n	Hungry_Donkey_bar_English_2-133-1	60.017	-72	1.0.0.18	1	813241845	Standard	2.0.10.353	2.0.10.353	02-22-2016		18:28:33	2.0.10.248	20	Bar37-63.bmp	41	2	?	0r_4g.bmp	0r_4g.bmp	0r_2g.bmp	0r_2g.bmp		0r_4g.bmp			TrialProc	TrialList	0	cvbn	-999999	16	162006	0	v	2719	164725	62	-88	-26	-8	-30	4	8	6	2	20	0	0	0	0	4	4	2	2	0	4
Hungry_Donkey_bar_English_2	133	1	<?xml version="1.0"?>\n<Clock xmlns:dt="urn:schemas-microsoft-com:datatypes"><Description dt:dt="string">E-Prime Primary Realtime Clock</Description><StartTime><Timestamp dt:dt="int">0</Timestamp><DateUtc dt:dt="string">2016-02-22T23:28:33Z</DateUtc></StartTime><FrequencyChanges><FrequencyChange><Frequency dt:dt="r8">3507675</Frequency><Timestamp dt:dt="r8">9402480760</Timestamp><Current dt:dt="r8">0</Current><DateUtc dt:dt="string">2016-02-22T23:28:33Z</DateUtc></FrequencyChange></FrequencyChanges></Clock>\n	Hungry_Donkey_bar_English_2-133-1	60.017	-72	1.0.0.18	1	813241845	Standard	2.0.10.353	2.0.10.353	02-22-2016		18:28:33	2.0.10.248	21	Bar37-63.bmp	43	1	?	0r_4g.bmp	0r_4g.bmp	0r_2g.bmp	0r_2g.bmp	0r_4g.bmp				TrialProc	TrialList	0	cvbn	-999999	16	166754	0	c	2675	169429	66	-88	-22	-4	-30	4	8	9	3	21	0	0	0	0	4	4	2	2	0	4
Hungry_Donkey_bar_English_2	133	1	<?xml version="1.0"?>\n<Clock xmlns:dt="urn:schemas-microsoft-com:datatypes"><Description dt:dt="string">E-Prime Primary Realtime Clock</Description><StartTime><Timestamp dt:dt="int">0</Timestamp><DateUtc dt:dt="string">2016-02-22T23:28:33Z</DateUtc></StartTime><FrequencyChanges><FrequencyChange><Frequency dt:dt="r8">3507675</Frequency><Timestamp dt:dt="r8">9402480760</Timestamp><Current dt:dt="r8">0</Current><DateUtc dt:dt="string">2016-02-22T23:28:33Z</DateUtc></FrequencyChange></FrequencyChanges></Clock>\n	Hungry_Donkey_bar_English_2-133-1	60.017	-72	1.0.0.18	1	813241845	Standard	2.0.10.353	2.0.10.353	02-22-2016		18:28:33	2.0.10.248	22	Bar37-63.bmp	41	4	?	8r_4g.bmp	50r_4g.bmp	1r_2g.bmp	10r_2g.bmp				10r_2g.bmp	TrialProc	TrialList	0	cvbn	-999999	17	171470	0	n	1335	172805	68	-98	-30	-4	-30	4	0	1	3	22	-8	-50	-1	-10	4	4	2	2	-10	2
Hungry_Donkey_bar_English_2	133	1	<?xml version="1.0"?>\n<Clock xmlns:dt="urn:schemas-microsoft-com:datatypes"><Description dt:dt="string">E-Prime Primary Realtime Clock</Description><StartTime><Timestamp dt:dt="int">0</Timestamp><DateUtc dt:dt="string">2016-02-22T23:28:33Z</DateUtc></StartTime><FrequencyChanges><FrequencyChange><Frequency dt:dt="r8">3507675</Frequency><Timestamp dt:dt="r8">9402480760</Timestamp><Current dt:dt="r8">0</Current><DateUtc dt:dt="string">2016-02-22T23:28:33Z</DateUtc></FrequencyChange></FrequencyChanges></Clock>\n	Hungry_Donkey_bar_English_2-133-1	60.017	-72	1.0.0.18	1	813241845	Standard	2.0.10.353	2.0.10.353	02-22-2016		18:28:33	2.0.10.248	23	Bar37-63.bmp	41	3	?	10r_4g.bmp	0r_4g.bmp	2r_2g.bmp	0r_2g.bmp			2r_2g.bmp		TrialProc	TrialList	0	cvbn	-999999	15	174835	0	b	530	175365	70	-100	-30	-4	-30	4	0	2	3	23	-10	0	-2	0	4	4	2	2	-2	2
Hungry_Donkey_bar_English_2	133	1	<?xml version="1.0"?>\n<Clock xmlns:dt="urn:schemas-microsoft-com:datatypes"><Description dt:dt="string">E-Prime Primary Realtime Clock</Description><StartTime><Timestamp dt:dt="int">0</Timestamp><DateUtc dt:dt="string">2016-02-22T23:28:33Z</DateUtc></StartTime><FrequencyChanges><FrequencyChange><Frequency dt:dt="r8">3507675</Frequency><Timestamp dt:dt="r8">9402480760</Timestamp><Current dt:dt="r8">0</Current><DateUtc dt:dt="string">2016-02-22T23:28:33Z</DateUtc></FrequencyChange></FrequencyChanges></Clock>\n	Hungry_Donkey_bar_English_2-133-1	60.017	-72	1.0.0.18	1	813241845	Standard	2.0.10.353	2.0.10.353	02-22-2016		18:28:33	2.0.10.248	24	Bar37-63.bmp	40	1	?	10r_4g.bmp	0r_4g.bmp	2r_2g.bmp	0r_2g.bmp	10r_4g.bmp				TrialProc	TrialList	0	cvbn	-999999	16	177401	0	c	556	177957	74	-110	-36	-10	-30	4	0	3	3	24	-10	0	-2	0	4	4	2	2	-10	4
Hungry_Donkey_bar_English_2	133	1	<?xml version="1.0"?>\n<Clock xmlns:dt="urn:schemas-microsoft-com:datatypes"><Description dt:dt="string">E-Prime Primary Realtime Clock</Description><StartTime><Timestamp dt:dt="int">0</Timestamp><DateUtc dt:dt="string">2016-02-22T23:28:33Z</DateUtc></StartTime><FrequencyChanges><FrequencyChange><Frequency dt:dt="r8">3507675</Frequency><Timestamp dt:dt="r8">9402480760</Timestamp><Current dt:dt="r8">0</Current><DateUtc dt:dt="string">2016-02-22T23:28:33Z</DateUtc></FrequencyChange></FrequencyChanges></Clock>\n	Hungry_Donkey_bar_English_2-133-1	60.017	-72	1.0.0.18	1	813241845	Standard	2.0.10.353	2.0.10.353	02-22-2016		18:28:33	2.0.10.248	25	Bar37-63.bmp	41	2	?	0r_4g.bmp	0r_4g.bmp	0r_2g.bmp	0r_2g.bmp		0r_4g.bmp			TrialProc	TrialList	0	cvbn	-999999	16	179984	0	v	437	180421	78	-110	-32	-10	-26	4	0	10	3	25	0	0	0	0	4	4	2	2	0	4
Hungry_Donkey_bar_English_2	133	1	<?xml version="1.0"?>\n<Clock xmlns:dt="urn:schemas-microsoft-com:datatypes"><Description dt:dt="string">E-Prime Primary Realtime Clock</Description><StartTime><Timestamp dt:dt="int">0</Timestamp><DateUtc dt:dt="string">2016-02-22T23:28:33Z</DateUtc></StartTime><FrequencyChanges><FrequencyChange><Frequency dt:dt="r8">3507675</Frequency><Timestamp dt:dt="r8">9402480760</Timestamp><Current dt:dt="r8">0</Current><DateUtc dt:dt="string">2016-02-22T23:28:33Z</DateUtc></FrequencyChange></FrequencyChanges></Clock>\n	Hungry_Donkey_bar_English_2-133-1	60.017	-72	1.0.0.18	1	813241845	Standard	2.0.10.353	2.0.10.353	02-22-2016		18:28:33	2.0.10.248	26	Bar37-63.bmp	43	2	?	0r_4g.bmp	0r_4g.bmp	0r_2g.bmp	0r_2g.bmp		0r_4g.bmp			TrialProc	TrialList	0	cvbn	-999999	16	182450	0	v	1698	184148	82	-110	-28	-10	-22	4	0	8	3	26	0	0	0	0	4	4	2	2	0	4
Hungry_Donkey_bar_English_2	133	1	<?xml version="1.0"?>\n<Clock xmlns:dt="urn:schemas-microsoft-com:datatypes"><Description dt:dt="string">E-Prime Primary Realtime Clock</Description><StartTime><Timestamp dt:dt="int">0</Timestamp><DateUtc dt:dt="string">2016-02-22T23:28:33Z</DateUtc></StartTime><FrequencyChanges><FrequencyChange><Frequency dt:dt="r8">3507675</Frequency><Timestamp dt:dt="r8">9402480760</Timestamp><Current dt:dt="r8">0</Current><DateUtc dt:dt="string">2016-02-22T23:28:33Z</DateUtc></FrequencyChange></FrequencyChanges></Clock>\n	Hungry_Donkey_bar_English_2-133-1	60.017	-72	1.0.0.18	1	813241845	Standard	2.0.10.353	2.0.10.353	02-22-2016		18:28:33	2.0.10.248	27	Bar37-63.bmp	43	3	?	10r_4g.bmp	0r_4g.bmp	2r_2g.bmp	0r_2g.bmp			2r_2g.bmp		TrialProc	TrialList	0	cvbn	-999999	16	186182	0	b	830	187012	84	-112	-28	-10	-22	4	0	4	3	27	-10	0	-2	0	4	4	2	2	-2	2
Hungry_Donkey_bar_English_2	133	1	<?xml version="1.0"?>\n<Clock xmlns:dt="urn:schemas-microsoft-com:datatypes"><Description dt:dt="string">E-Prime Primary Realtime Clock</Description><StartTime><Timestamp dt:dt="int">0</Timestamp><DateUtc dt:dt="string">2016-02-22T23:28:33Z</DateUtc></StartTime><FrequencyChanges><FrequencyChange><Frequency dt:dt="r8">3507675</Frequency><Timestamp dt:dt="r8">9402480760</Timestamp><Current dt:dt="r8">0</Current><DateUtc dt:dt="string">2016-02-22T23:28:33Z</DateUtc></FrequencyChange></FrequencyChanges></Clock>\n	Hungry_Donkey_bar_English_2-133-1	60.017	-72	1.0.0.18	1	813241845	Standard	2.0.10.353	2.0.10.353	02-22-2016		18:28:33	2.0.10.248	28	Bar50-50.bmp	44	1	?	0r_4g.bmp	0r_4g.bmp	0r_2g.bmp	0r_2g.bmp	0r_4g.bmp				TrialProc	TrialList	0	cvbn	-999999	16	189048	0	c	604	189652	88	-112	-24	-6	-22	4	0	6	3	28	0	0	0	0	4	4	2	2	0	4
Hungry_Donkey_bar_English_2	133	1	<?xml version="1.0"?>\n<Clock xmlns:dt="urn:schemas-microsoft-com:datatypes"><Description dt:dt="string">E-Prime Primary Realtime Clock</Description><StartTime><Timestamp dt:dt="int">0</Timestamp><DateUtc dt:dt="string">2016-02-22T23:28:33Z</DateUtc></StartTime><FrequencyChanges><FrequencyChange><Frequency dt:dt="r8">3507675</Frequency><Timestamp dt:dt="r8">9402480760</Timestamp><Current dt:dt="r8">0</Current><DateUtc dt:dt="string">2016-02-22T23:28:33Z</DateUtc></FrequencyChange></FrequencyChanges></Clock>\n	Hungry_Donkey_bar_English_2-133-1	60.017	-72	1.0.0.18	1	813241845	Standard	2.0.10.353	2.0.10.353	02-22-2016		18:28:33	2.0.10.248	29	Bar50-50.bmp	45	4	?	12r_4g.bmp	0r_4g.bmp	3r_2g.bmp	0r_2g.bmp				0r_2g.bmp	TrialProc	TrialList	0	cvbn	-999999	16	191697	0	n	755	192452	90	-112	-22	-6	-22	4	2	5	3	29	-12	0	-3	0	4	4	2	2	0	2
Hungry_Donkey_bar_English_2	133	1	<?xml version="1.0"?>\n<Clock xmlns:dt="urn:schemas-microsoft-com:datatypes"><Description dt:dt="string">E-Prime Primary Realtime Clock</Description><StartTime><Timestamp dt:dt="int">0</Timestamp><DateUtc dt:dt="string">2016-02-22T23:28:33Z</DateUtc></StartTime><FrequencyChanges><FrequencyChange><Frequency dt:dt="r8">3507675</Frequency><Timestamp dt:dt="r8">9402480760</Timestamp><Current dt:dt="r8">0</Current><DateUtc dt:dt="string">2016-02-22T23:28:33Z</DateUtc></FrequencyChange></FrequencyChanges></Clock>\n	Hungry_Donkey_bar_English_2-133-1	60.017	-72	1.0.0.18	1	813241845	Standard	2.0.10.353	2.0.10.353	02-22-2016		18:28:33	2.0.10.248	30	Bar50-50.bmp	45	3	?	0r_4g.bmp	0r_4g.bmp	0r_2g.bmp	0r_2g.bmp			0r_2g.bmp		TrialProc	TrialList	0	cvbn	-999999	16	194480	0	b	1092	195572	92	-112	-20	-6	-22	6	2	7	3	30	0	0	0	0	4	4	2	2	0	2
Hungry_Donkey_bar_English_2	133	1	<?xml version="1.0"?>\n<Clock xmlns:dt="urn:schemas-microsoft-com:datatypes"><Description dt:dt="string">E-Prime Primary Realtime Clock</Description><StartTime><Timestamp dt:dt="int">0</Timestamp><DateUtc dt:dt="string">2016-02-22T23:28:33Z</DateUtc></StartTime><FrequencyChanges><FrequencyChange><Frequency dt:dt="r8">3507675</Frequency><Timestamp dt:dt="r8">9402480760</Timestamp><Current dt:dt="r8">0</Current><DateUtc dt:dt="string">2016-02-22T23:28:33Z</DateUtc></FrequencyChange></FrequencyChanges></Clock>\n	Hungry_Donkey_bar_English_2-133-1	60.017	-72	1.0.0.18	1	813241845	Standard	2.0.10.353	2.0.10.353	02-22-2016		18:28:33	2.0.10.248	31	Bar50-50.bmp	46	1	?	0r_4g.bmp	0r_4g.bmp	0r_2g.bmp	0r_2g.bmp	0r_4g.bmp				TrialProc	TrialList	0	cvbn	-999999	15	197595	0	c	569	198164	96	-112	-16	-2	-22	6	2	10	4	31	0	0	0	0	4	4	2	2	0	4
Hungry_Donkey_bar_English_2	133	1	<?xml version="1.0"?>\n<Clock xmlns:dt="urn:schemas-microsoft-com:datatypes"><Description dt:dt="string">E-Prime Primary Realtime Clock</Description><StartTime><Timestamp dt:dt="int">0</Timestamp><DateUtc dt:dt="string">2016-02-22T23:28:33Z</DateUtc></StartTime><FrequencyChanges><FrequencyChange><Frequency dt:dt="r8">3507675</Frequency><Timestamp dt:dt="r8">9402480760</Timestamp><Current dt:dt="r8">0</Current><DateUtc dt:dt="string">2016-02-22T23:28:33Z</DateUtc></FrequencyChange></FrequencyChanges></Clock>\n	Hungry_Donkey_bar_English_2-133-1	60.017	-72	1.0.0.18	1	813241845	Standard	2.0.10.353	2.0.10.353	02-22-2016		18:28:33	2.0.10.248	32	Bar50-50.bmp	47	2	?	0r_4g.bmp	0r_4g.bmp	0r_2g.bmp	0r_2g.bmp		0r_4g.bmp			TrialProc	TrialList	0	cvbn	-999999	16	200195	0	v	673	200868	100	-112	-12	-2	-18	6	2	6	4	32	0	0	0	0	4	4	2	2	0	4
Hungry_Donkey_bar_English_2	133	1	<?xml version="1.0"?>\n<Clock xmlns:dt="urn:schemas-microsoft-com:datatypes"><Description dt:dt="string">E-Prime Primary Realtime Clock</Description><StartTime><Timestamp dt:dt="int">0</Timestamp><DateUtc dt:dt="string">2016-02-22T23:28:33Z</DateUtc></StartTime><FrequencyChanges><FrequencyChange><Frequency dt:dt="r8">3507675</Frequency><Timestamp dt:dt="r8">9402480760</Timestamp><Current dt:dt="r8">0</Current><DateUtc dt:dt="string">2016-02-22T23:28:33Z</DateUtc></FrequencyChange></FrequencyChanges></Clock>\n	Hungry_Donkey_bar_English_2-133-1	60.017	-72	1.0.0.18	1	813241845	Standard	2.0.10.353	2.0.10.353	02-22-2016		18:28:33	2.0.10.248	33	Bar50-50.bmp	47	3	?	10r_4g.bmp	0r_4g.bmp	2r_2g.bmp	0r_2g.bmp			2r_2g.bmp		TrialProc	TrialList	0	cvbn	-999999	16	202894	0	b	886	203780	102	-114	-12	-2	-18	6	2	3	4	33	-10	0	-2	0	4	4	2	2	-2	2
Hungry_Donkey_bar_English_2	133	1	<?xml version="1.0"?>\n<Clock xmlns:dt="urn:schemas-microsoft-com:datatypes"><Description dt:dt="string">E-Prime Primary Realtime Clock</Description><StartTime><Timestamp dt:dt="int">0</Timestamp><DateUtc dt:dt="string">2016-02-22T23:28:33Z</DateUtc></StartTime><FrequencyChanges><FrequencyChange><Frequency dt:dt="r8">3507675</Frequency><Timestamp dt:dt="r8">9402480760</Timestamp><Current dt:dt="r8">0</Current><DateUtc dt:dt="string">2016-02-22T23:28:33Z</DateUtc></FrequencyChange></FrequencyChanges></Clock>\n	Hungry_Donkey_bar_English_2-133-1	60.017	-72	1.0.0.18	1	813241845	Standard	2.0.10.353	2.0.10.353	02-22-2016		18:28:33	2.0.10.248	34	Bar50-50.bmp	48	4	?	0r_4g.bmp	0r_4g.bmp	0r_2g.bmp	0r_2g.bmp				0r_2g.bmp	TrialProc	TrialList	0	cvbn	-999999	16	205810	0	n	641	206451	104	-114	-10	-2	-18	6	4	9	4	34	0	0	0	0	4	4	2	2	0	2
Hungry_Donkey_bar_English_2	133	1	<?xml version="1.0"?>\n<Clock xmlns:dt="urn:schemas-microsoft-com:datatypes"><Description dt:dt="string">E-Prime Primary Realtime Clock</Description><StartTime><Timestamp dt:dt="int">0</Timestamp><DateUtc dt:dt="string">2016-02-22T23:28:33Z</DateUtc></StartTime><FrequencyChanges><FrequencyChange><Frequency dt:dt="r8">3507675</Frequency><Timestamp dt:dt="r8">9402480760</Timestamp><Current dt:dt="r8">0</Current><DateUtc dt:dt="string">2016-02-22T23:28:33Z</DateUtc></FrequencyChange></FrequencyChanges></Clock>\n	Hungry_Donkey_bar_English_2-133-1	60.017	-72	1.0.0.18	1	813241845	Standard	2.0.10.353	2.0.10.353	02-22-2016		18:28:33	2.0.10.248	35	Bar50-50.bmp	47	1	?	10r_4g.bmp	0r_4g.bmp	2r_2g.bmp	0r_2g.bmp	10r_4g.bmp				TrialProc	TrialList	0	cvbn	-999999	16	208476	0	c	775	209251	108	-124	-16	-8	-18	6	4	2	4	35	-10	0	-2	0	4	4	2	2	-10	4
Hungry_Donkey_bar_English_2	133	1	<?xml version="1.0"?>\n<Clock xmlns:dt="urn:schemas-microsoft-com:datatypes"><Description dt:dt="string">E-Prime Primary Realtime Clock</Description><StartTime><Timestamp dt:dt="int">0</Timestamp><DateUtc dt:dt="string">2016-02-22T23:28:33Z</DateUtc></StartTime><FrequencyChanges><FrequencyChange><Frequency dt:dt="r8">3507675</Frequency><Timestamp dt:dt="r8">9402480760</Timestamp><Current dt:dt="r8">0</Current><DateUtc dt:dt="string">2016-02-22T23:28:33Z</DateUtc></FrequencyChange></FrequencyChanges></Clock>\n	Hungry_Donkey_bar_English_2-133-1	60.017	-72	1.0.0.18	1	813241845	Standard	2.0.10.353	2.0.10.353	02-22-2016		18:28:33	2.0.10.248	36	Bar50-50.bmp	47	2	?	0r_4g.bmp	0r_4g.bmp	0r_2g.bmp	0r_2g.bmp		0r_4g.bmp			TrialProc	TrialList	0	cvbn	-999999	16	211275	0	v	1128	212403	112	-124	-12	-8	-14	6	4	8	4	36	0	0	0	0	4	4	2	2	0	4
Hungry_Donkey_bar_English_2	133	1	<?xml version="1.0"?>\n<Clock xmlns:dt="urn:schemas-microsoft-com:datatypes"><Description dt:dt="string">E-Prime Primary Realtime Clock</Description><StartTime><Timestamp dt:dt="int">0</Timestamp><DateUtc dt:dt="string">2016-02-22T23:28:33Z</DateUtc></StartTime><FrequencyChanges><FrequencyChange><Frequency dt:dt="r8">3507675</Frequency><Timestamp dt:dt="r8">9402480760</Timestamp><Current dt:dt="r8">0</Current><DateUtc dt:dt="string">2016-02-22T23:28:33Z</DateUtc></FrequencyChange></FrequencyChanges></Clock>\n	Hungry_Donkey_bar_English_2-133-1	60.017	-72	1.0.0.18	1	813241845	Standard	2.0.10.353	2.0.10.353	02-22-2016		18:28:33	2.0.10.248	37	Bar50-50.bmp	47	3	?	12r_4g.bmp	0r_4g.bmp	3r_2g.bmp	0r_2g.bmp			3r_2g.bmp		TrialProc	TrialList	0	cvbn	-999999	16	214441	0	b	1722	216163	114	-127	-13	-8	-14	5	4	5	4	37	-12	0	-3	0	4	4	2	2	-3	2
Hungry_Donkey_bar_English_2	133	1	<?xml version="1.0"?>\n<Clock xmlns:dt="urn:schemas-microsoft-com:datatypes"><Description dt:dt="string">E-Prime Primary Realtime Clock</Description><StartTime><Timestamp dt:dt="int">0</Timestamp><DateUtc dt:dt="string">2016-02-22T23:28:33Z</DateUtc></StartTime><FrequencyChanges><FrequencyChange><Frequency dt:dt="r8">3507675</Frequency><Timestamp dt:dt="r8">9402480760</Timestamp><Current dt:dt="r8">0</Current><DateUtc dt:dt="string">2016-02-22T23:28:33Z</DateUtc></FrequencyChange></FrequencyChanges></Clock>\n	Hungry_Donkey_bar_English_2-133-1	60.017	-72	1.0.0.18	1	813241845	Standard	2.0.10.353	2.0.10.353	02-22-2016		18:28:33	2.0.10.248	38	Bar50-50.bmp	48	4	?	10r_4g.bmp	0r_4g.bmp	2r_2g.bmp	0r_2g.bmp				0r_2g.bmp	TrialProc	TrialList	0	cvbn	-999999	17	218190	0	n	933	219123	116	-127	-11	-8	-14	5	6	4	4	38	-10	0	-2	0	4	4	2	2	0	2
Hungry_Donkey_bar_English_2	133	1	<?xml version="1.0"?>\n<Clock xmlns:dt="urn:schemas-microsoft-com:datatypes"><Description dt:dt="string">E-Prime Primary Realtime Clock</Description><StartTime><Timestamp dt:dt="int">0</Timestamp><DateUtc dt:dt="string">2016-02-22T23:28:33Z</DateUtc></StartTime><FrequencyChanges><FrequencyChange><Frequency dt:dt="r8">3507675</Frequency><Timestamp dt:dt="r8">9402480760</Timestamp><Current dt:dt="r8">0</Current><DateUtc dt:dt="string">2016-02-22T23:28:33Z</DateUtc></FrequencyChange></FrequencyChanges></Clock>\n	Hungry_Donkey_bar_English_2-133-1	60.017	-72	1.0.0.18	1	813241845	Standard	2.0.10.353	2.0.10.353	02-22-2016		18:28:33	2.0.10.248	39	Bar50-50.bmp	49	2	?	0r_4g.bmp	0r_4g.bmp	0r_2g.bmp	0r_2g.bmp		0r_4g.bmp			TrialProc	TrialList	0	cvbn	-999999	16	221155	0	v	528	221683	120	-127	-7	-8	-10	5	6	7	4	39	0	0	0	0	4	4	2	2	0	4
Hungry_Donkey_bar_English_2	133	1	<?xml version="1.0"?>\n<Clock xmlns:dt="urn:schemas-microsoft-com:datatypes"><Description dt:dt="string">E-Prime Primary Realtime Clock</Description><StartTime><Timestamp dt:dt="int">0</Timestamp><DateUtc dt:dt="string">2016-02-22T23:28:33Z</DateUtc></StartTime><FrequencyChanges><FrequencyChange><Frequency dt:dt="r8">3507675</Frequency><Timestamp dt:dt="r8">9402480760</Timestamp><Current dt:dt="r8">0</Current><DateUtc dt:dt="string">2016-02-22T23:28:33Z</DateUtc></FrequencyChange></FrequencyChanges></Clock>\n	Hungry_Donkey_bar_English_2-133-1	60.017	-72	1.0.0.18	1	813241845	Standard	2.0.10.353	2.0.10.353	02-22-2016		18:28:33	2.0.10.248	40	Bar50-50.bmp	48	1	?	8r_4g.bmp	50r_4g.bmp	1r_2g.bmp	10r_2g.bmp	8r_4g.bmp				TrialProc	TrialList	0	cvbn	-999999	16	223721	0	c	826	224547	124	-135	-11	-12	-10	5	6	1	4	40	-8	-50	-1	-10	4	4	2	2	-8	4
Hungry_Donkey_bar_English_2	133	1	<?xml version="1.0"?>\n<Clock xmlns:dt="urn:schemas-microsoft-com:datatypes"><Description dt:dt="string">E-Prime Primary Realtime Clock</Description><StartTime><Timestamp dt:dt="int">0</Timestamp><DateUtc dt:dt="string">2016-02-22T23:28:33Z</DateUtc></StartTime><FrequencyChanges><FrequencyChange><Frequency dt:dt="r8">3507675</Frequency><Timestamp dt:dt="r8">9402480760</Timestamp><Current dt:dt="r8">0</Current><DateUtc dt:dt="string">2016-02-22T23:28:33Z</DateUtc></FrequencyChange></FrequencyChanges></Clock>\n	Hungry_Donkey_bar_English_2-133-1	60.017	-72	1.0.0.18	1	813241845	Standard	2.0.10.353	2.0.10.353	02-22-2016		18:28:33	2.0.10.248	41	Bar50-50.bmp	48	3	?	8r_4g.bmp	50r_4g.bmp	1r_2g.bmp	10r_2g.bmp			1r_2g.bmp		TrialProc	TrialList	0	cvbn	-999999	16	226587	0	b	887	227474	126	-136	-10	-12	-10	6	6	1	5	41	-8	-50	-1	-10	4	4	2	2	-1	2
Hungry_Donkey_bar_English_2	133	1	<?xml version="1.0"?>\n<Clock xmlns:dt="urn:schemas-microsoft-com:datatypes"><Description dt:dt="string">E-Prime Primary Realtime Clock</Description><StartTime><Timestamp dt:dt="int">0</Timestamp><DateUtc dt:dt="string">2016-02-22T23:28:33Z</DateUtc></StartTime><FrequencyChanges><FrequencyChange><Frequency dt:dt="r8">3507675</Frequency><Timestamp dt:dt="r8">9402480760</Timestamp><Current dt:dt="r8">0</Current><DateUtc dt:dt="string">2016-02-22T23:28:33Z</DateUtc></FrequencyChange></FrequencyChanges></Clock>\n	Hungry_Donkey_bar_English_2-133-1	60.017	-72	1.0.0.18	1	813241845	Standard	2.0.10.353	2.0.10.353	02-22-2016		18:28:33	2.0.10.248	42	Bar50-50.bmp	49	2	?	0r_4g.bmp	0r_4g.bmp	0r_2g.bmp	0r_2g.bmp		0r_4g.bmp			TrialProc	TrialList	0	cvbn	-999999	16	229503	0	v	1139	230642	130	-136	-6	-12	-6	6	6	8	5	42	0	0	0	0	4	4	2	2	0	4
Hungry_Donkey_bar_English_2	133	1	<?xml version="1.0"?>\n<Clock xmlns:dt="urn:schemas-microsoft-com:datatypes"><Description dt:dt="string">E-Prime Primary Realtime Clock</Description><StartTime><Timestamp dt:dt="int">0</Timestamp><DateUtc dt:dt="string">2016-02-22T23:28:33Z</DateUtc></StartTime><FrequencyChanges><FrequencyChange><Frequency dt:dt="r8">3507675</Frequency><Timestamp dt:dt="r8">9402480760</Timestamp><Current dt:dt="r8">0</Current><DateUtc dt:dt="string">2016-02-22T23:28:33Z</DateUtc></FrequencyChange></FrequencyChanges></Clock>\n	Hungry_Donkey_bar_English_2-133-1	60.017	-72	1.0.0.18	1	813241845	Standard	2.0.10.353	2.0.10.353	02-22-2016		18:28:33	2.0.10.248	43	Bar50-50.bmp	48	1	?	10r_4g.bmp	0r_4g.bmp	2r_2g.bmp	0r_2g.bmp	10r_4g.bmp				TrialProc	TrialList	0	cvbn	-999999	16	232669	0	c	1109	233778	134	-146	-12	-18	-6	6	6	3	5	43	-10	0	-2	0	4	4	2	2	-10	4
Hungry_Donkey_bar_English_2	133	1	<?xml version="1.0"?>\n<Clock xmlns:dt="urn:schemas-microsoft-com:datatypes"><Description dt:dt="string">E-Prime Primary Realtime Clock</Description><StartTime><Timestamp dt:dt="int">0</Timestamp><DateUtc dt:dt="string">2016-02-22T23:28:33Z</DateUtc></StartTime><FrequencyChanges><FrequencyChange><Frequency dt:dt="r8">3507675</Frequency><Timestamp dt:dt="r8">9402480760</Timestamp><Current dt:dt="r8">0</Current><DateUtc dt:dt="string">2016-02-22T23:28:33Z</DateUtc></FrequencyChange></FrequencyChanges></Clock>\n	Hungry_Donkey_bar_English_2-133-1	60.017	-72	1.0.0.18	1	813241845	Standard	2.0.10.353	2.0.10.353	02-22-2016		18:28:33	2.0.10.248	44	Bar50-50.bmp	48	3	?	0r_4g.bmp	0r_4g.bmp	0r_2g.bmp	0r_2g.bmp			0r_2g.bmp		TrialProc	TrialList	0	cvbn	-999999	16	235818	0	b	952	236770	136	-146	-10	-18	-6	8	6	6	5	44	0	0	0	0	4	4	2	2	0	2
Hungry_Donkey_bar_English_2	133	1	<?xml version="1.0"?>\n<Clock xmlns:dt="urn:schemas-microsoft-com:datatypes"><Description dt:dt="string">E-Prime Primary Realtime Clock</Description><StartTime><Timestamp dt:dt="int">0</Timestamp><DateUtc dt:dt="string">2016-02-22T23:28:33Z</DateUtc></StartTime><FrequencyChanges><FrequencyChange><Frequency dt:dt="r8">3507675</Frequency><Timestamp dt:dt="r8">9402480760</Timestamp><Current dt:dt="r8">0</Current><DateUtc dt:dt="string">2016-02-22T23:28:33Z</DateUtc></FrequencyChange></FrequencyChanges></Clock>\n	Hungry_Donkey_bar_English_2-133-1	60.017	-72	1.0.0.18	1	813241845	Standard	2.0.10.353	2.0.10.353	02-22-2016		18:28:33	2.0.10.248	45	Bar50-50.bmp	48	3	?	10r_4g.bmp	0r_4g.bmp	2r_2g.bmp	0r_2g.bmp			2r_2g.bmp		TrialProc	TrialList	0	cvbn	-999999	16	238800	0	b	546	239346	138	-148	-10	-18	-6	8	6	4	5	45	-10	0	-2	0	4	4	2	2	-2	2
Hungry_Donkey_bar_English_2	133	1	<?xml version="1.0"?>\n<Clock xmlns:dt="urn:schemas-microsoft-com:datatypes"><Description dt:dt="string">E-Prime Primary Realtime Clock</Description><StartTime><Timestamp dt:dt="int">0</Timestamp><DateUtc dt:dt="string">2016-02-22T23:28:33Z</DateUtc></StartTime><FrequencyChanges><FrequencyChange><Frequency dt:dt="r8">3507675</Frequency><Timestamp dt:dt="r8">9402480760</Timestamp><Current dt:dt="r8">0</Current><DateUtc dt:dt="string">2016-02-22T23:28:33Z</DateUtc></FrequencyChange></FrequencyChanges></Clock>\n	Hungry_Donkey_bar_English_2-133-1	60.017	-72	1.0.0.18	1	813241845	Standard	2.0.10.353	2.0.10.353	02-22-2016		18:28:33	2.0.10.248	46	Bar50-50.bmp	49	4	?	12r_4g.bmp	0r_4g.bmp	3r_2g.bmp	0r_2g.bmp				0r_2g.bmp	TrialProc	TrialList	0	cvbn	-999999	16	241383	0	n	683	242066	140	-148	-8	-18	-6	8	8	5	5	46	-12	0	-3	0	4	4	2	2	0	2
Hungry_Donkey_bar_English_2	133	1	<?xml version="1.0"?>\n<Clock xmlns:dt="urn:schemas-microsoft-com:datatypes"><Description dt:dt="string">E-Prime Primary Realtime Clock</Description><StartTime><Timestamp dt:dt="int">0</Timestamp><DateUtc dt:dt="string">2016-02-22T23:28:33Z</DateUtc></StartTime><FrequencyChanges><FrequencyChange><Frequency dt:dt="r8">3507675</Frequency><Timestamp dt:dt="r8">9402480760</Timestamp><Current dt:dt="r8">0</Current><DateUtc dt:dt="string">2016-02-22T23:28:33Z</DateUtc></FrequencyChange></FrequencyChanges></Clock>\n	Hungry_Donkey_bar_English_2-133-1	60.017	-72	1.0.0.18	1	813241845	Standard	2.0.10.353	2.0.10.353	02-22-2016		18:28:33	2.0.10.248	47	Bar50-50.bmp	49	1	?	0r_4g.bmp	0r_4g.bmp	0r_2g.bmp	0r_2g.bmp	0r_4g.bmp				TrialProc	TrialList	0	cvbn	-999999	16	244099	0	c	719	244818	144	-148	-4	-14	-6	8	8	10	5	47	0	0	0	0	4	4	2	2	0	4
Hungry_Donkey_bar_English_2	133	1	<?xml version="1.0"?>\n<Clock xmlns:dt="urn:schemas-microsoft-com:datatypes"><Description dt:dt="string">E-Prime Primary Realtime Clock</Description><StartTime><Timestamp dt:dt="int">0</Timestamp><DateUtc dt:dt="string">2016-02-22T23:28:33Z</DateUtc></StartTime><FrequencyChanges><FrequencyChange><Frequency dt:dt="r8">3507675</Frequency><Timestamp dt:dt="r8">9402480760</Timestamp><Current dt:dt="r8">0</Current><DateUtc dt:dt="string">2016-02-22T23:28:33Z</DateUtc></FrequencyChange></FrequencyChanges></Clock>\n	Hungry_Donkey_bar_English_2-133-1	60.017	-72	1.0.0.18	1	813241845	Standard	2.0.10.353	2.0.10.353	02-22-2016		18:28:33	2.0.10.248	48	Bar50-50.bmp	50	3	?	0r_4g.bmp	0r_4g.bmp	0r_2g.bmp	0r_2g.bmp			0r_2g.bmp		TrialProc	TrialList	0	cvbn	-999999	16	246848	0	b	721	247569	146	-148	-2	-14	-6	10	8	7	5	48	0	0	0	0	4	4	2	2	0	2
Hungry_Donkey_bar_English_2	133	1	<?xml version="1.0"?>\n<Clock xmlns:dt="urn:schemas-microsoft-com:datatypes"><Description dt:dt="string">E-Prime Primary Realtime Clock</Description><StartTime><Timestamp dt:dt="int">0</Timestamp><DateUtc dt:dt="string">2016-02-22T23:28:33Z</DateUtc></StartTime><FrequencyChanges><FrequencyChange><Frequency dt:dt="r8">3507675</Frequency><Timestamp dt:dt="r8">9402480760</Timestamp><Current dt:dt="r8">0</Current><DateUtc dt:dt="string">2016-02-22T23:28:33Z</DateUtc></FrequencyChange></FrequencyChanges></Clock>\n	Hungry_Donkey_bar_English_2-133-1	60.017	-72	1.0.0.18	1	813241845	Standard	2.0.10.353	2.0.10.353	02-22-2016		18:28:33	2.0.10.248	49	Bar50-50.bmp	50	2	?	10r_4g.bmp	0r_4g.bmp	2r_2g.bmp	0r_2g.bmp		0r_4g.bmp			TrialProc	TrialList	0	cvbn	-999999	16	249597	0	v	772	250369	150	-148	2	-14	-2	10	8	2	5	49	-10	0	-2	0	4	4	2	2	0	4
Hungry_Donkey_bar_English_2	133	1	<?xml version="1.0"?>\n<Clock xmlns:dt="urn:schemas-microsoft-com:datatypes"><Description dt:dt="string">E-Prime Primary Realtime Clock</Description><StartTime><Timestamp dt:dt="int">0</Timestamp><DateUtc dt:dt="string">2016-02-22T23:28:33Z</DateUtc></StartTime><FrequencyChanges><FrequencyChange><Frequency dt:dt="r8">3507675</Frequency><Timestamp dt:dt="r8">9402480760</Timestamp><Current dt:dt="r8">0</Current><DateUtc dt:dt="string">2016-02-22T23:28:33Z</DateUtc></FrequencyChange></FrequencyChanges></Clock>\n	Hungry_Donkey_bar_English_2-133-1	60.017	-72	1.0.0.18	1	813241845	Standard	2.0.10.353	2.0.10.353	02-22-2016		18:28:33	2.0.10.248	50	Bar50-50.bmp	51	4	?	0r_4g.bmp	0r_4g.bmp	0r_2g.bmp	0r_2g.bmp				0r_2g.bmp	TrialProc	TrialList	0	cvbn	-999999	15	252396	0	n	597	252993	152	-148	4	-14	-2	10	10	9	5	50	0	0	0	0	4	4	2	2	0	2
Hungry_Donkey_bar_English_2	133	1	<?xml version="1.0"?>\n<Clock xmlns:dt="urn:schemas-microsoft-com:datatypes"><Description dt:dt="string">E-Prime Primary Realtime Clock</Description><StartTime><Timestamp dt:dt="int">0</Timestamp><DateUtc dt:dt="string">2016-02-22T23:28:33Z</DateUtc></StartTime><FrequencyChanges><FrequencyChange><Frequency dt:dt="r8">3507675</Frequency><Timestamp dt:dt="r8">9402480760</Timestamp><Current dt:dt="r8">0</Current><DateUtc dt:dt="string">2016-02-22T23:28:33Z</DateUtc></FrequencyChange></FrequencyChanges></Clock>\n	Hungry_Donkey_bar_English_2-133-1	60.017	-72	1.0.0.18	1	813241845	Standard	2.0.10.353	2.0.10.353	02-22-2016		18:28:33	2.0.10.248	51	Bar50-50.bmp	51	3	?	10r_4g.bmp	0r_4g.bmp	2r_2g.bmp	0r_2g.bmp			2r_2g.bmp		TrialProc	TrialList	0	cvbn	-999999	16	255029	0	b	796	255825	154	-150	4	-14	-2	10	10	3	6	51	-10	0	-2	0	4	4	2	2	-2	2
Hungry_Donkey_bar_English_2	133	1	<?xml version="1.0"?>\n<Clock xmlns:dt="urn:schemas-microsoft-com:datatypes"><Description dt:dt="string">E-Prime Primary Realtime Clock</Description><StartTime><Timestamp dt:dt="int">0</Timestamp><DateUtc dt:dt="string">2016-02-22T23:28:33Z</DateUtc></StartTime><FrequencyChanges><FrequencyChange><Frequency dt:dt="r8">3507675</Frequency><Timestamp dt:dt="r8">9402480760</Timestamp><Current dt:dt="r8">0</Current><DateUtc dt:dt="string">2016-02-22T23:28:33Z</DateUtc></FrequencyChange></FrequencyChanges></Clock>\n	Hungry_Donkey_bar_English_2-133-1	60.017	-72	1.0.0.18	1	813241845	Standard	2.0.10.353	2.0.10.353	02-22-2016		18:28:33	2.0.10.248	52	Bar50-50.bmp	51	1	?	0r_4g.bmp	0r_4g.bmp	0r_2g.bmp	0r_2g.bmp	0r_4g.bmp				TrialProc	TrialList	0	cvbn	-999999	17	257862	0	c	491	258353	158	-150	8	-10	-2	10	10	9	6	52	0	0	0	0	4	4	2	2	0	4
Hungry_Donkey_bar_English_2	133	1	<?xml version="1.0"?>\n<Clock xmlns:dt="urn:schemas-microsoft-com:datatypes"><Description dt:dt="string">E-Prime Primary Realtime Clock</Description><StartTime><Timestamp dt:dt="int">0</Timestamp><DateUtc dt:dt="string">2016-02-22T23:28:33Z</DateUtc></StartTime><FrequencyChanges><FrequencyChange><Frequency dt:dt="r8">3507675</Frequency><Timestamp dt:dt="r8">9402480760</Timestamp><Current dt:dt="r8">0</Current><DateUtc dt:dt="string">2016-02-22T23:28:33Z</DateUtc></FrequencyChange></FrequencyChanges></Clock>\n	Hungry_Donkey_bar_English_2-133-1	60.017	-72	1.0.0.18	1	813241845	Standard	2.0.10.353	2.0.10.353	02-22-2016		18:28:33	2.0.10.248	53	Bar50-50.bmp	52	4	?	0r_4g.bmp	0r_4g.bmp	0r_2g.bmp	0r_2g.bmp				0r_2g.bmp	TrialProc	TrialList	0	cvbn	-999999	16	260377	0	n	776	261153	160	-150	10	-10	-2	10	12	10	6	53	0	0	0	0	4	4	2	2	0	2
Hungry_Donkey_bar_English_2	133	1	<?xml version="1.0"?>\n<Clock xmlns:dt="urn:schemas-microsoft-com:datatypes"><Description dt:dt="string">E-Prime Primary Realtime Clock</Description><StartTime><Timestamp dt:dt="int">0</Timestamp><DateUtc dt:dt="string">2016-02-22T23:28:33Z</DateUtc></StartTime><FrequencyChanges><FrequencyChange><Frequency dt:dt="r8">3507675</Frequency><Timestamp dt:dt="r8">9402480760</Timestamp><Current dt:dt="r8">0</Current><DateUtc dt:dt="string">2016-02-22T23:28:33Z</DateUtc></FrequencyChange></FrequencyChanges></Clock>\n	Hungry_Donkey_bar_English_2-133-1	60.017	-72	1.0.0.18	1	813241845	Standard	2.0.10.353	2.0.10.353	02-22-2016		18:28:33	2.0.10.248	54	Bar50-50.bmp	52	2	?	10r_4g.bmp	0r_4g.bmp	2r_2g.bmp	0r_2g.bmp		0r_4g.bmp			TrialProc	TrialList	0	cvbn	-999999	16	263193	0	v	472	263665	164	-150	14	-10	2	10	12	2	6	54	-10	0	-2	0	4	4	2	2	0	4
Hungry_Donkey_bar_English_2	133	1	<?xml version="1.0"?>\n<Clock xmlns:dt="urn:schemas-microsoft-com:datatypes"><Description dt:dt="string">E-Prime Primary Realtime Clock</Description><StartTime><Timestamp dt:dt="int">0</Timestamp><DateUtc dt:dt="string">2016-02-22T23:28:33Z</DateUtc></StartTime><FrequencyChanges><FrequencyChange><Frequency dt:dt="r8">3507675</Frequency><Timestamp dt:dt="r8">9402480760</Timestamp><Current dt:dt="r8">0</Current><DateUtc dt:dt="string">2016-02-22T23:28:33Z</DateUtc></FrequencyChange></FrequencyChanges></Clock>\n	Hungry_Donkey_bar_English_2-133-1	60.017	-72	1.0.0.18	1	813241845	Standard	2.0.10.353	2.0.10.353	02-22-2016		18:28:33	2.0.10.248	55	Bar50-50.bmp	53	4	?	0r_4g.bmp	0r_4g.bmp	0r_2g.bmp	0r_2g.bmp				0r_2g.bmp	TrialProc	TrialList	0	cvbn	-999999	16	265693	0	n	596	266289	166	-150	16	-10	2	10	14	7	6	55	0	0	0	0	4	4	2	2	0	2
Hungry_Donkey_bar_English_2	133	1	<?xml version="1.0"?>\n<Clock xmlns:dt="urn:schemas-microsoft-com:datatypes"><Description dt:dt="string">E-Prime Primary Realtime Clock</Description><StartTime><Timestamp dt:dt="int">0</Timestamp><DateUtc dt:dt="string">2016-02-22T23:28:33Z</DateUtc></StartTime><FrequencyChanges><FrequencyChange><Frequency dt:dt="r8">3507675</Frequency><Timestamp dt:dt="r8">9402480760</Timestamp><Current dt:dt="r8">0</Current><DateUtc dt:dt="string">2016-02-22T23:28:33Z</DateUtc></FrequencyChange></FrequencyChanges></Clock>\n	Hungry_Donkey_bar_English_2-133-1	60.017	-72	1.0.0.18	1	813241845	Standard	2.0.10.353	2.0.10.353	02-22-2016		18:28:33	2.0.10.248	56	Bar50-50.bmp	53	1	?	0r_4g.bmp	0r_4g.bmp	0r_2g.bmp	0r_2g.bmp	0r_4g.bmp				TrialProc	TrialList	0	cvbn	-999999	16	268325	0	c	987	269312	170	-150	20	-6	2	10	14	8	6	56	0	0	0	0	4	4	2	2	0	4
Hungry_Donkey_bar_English_2	133	1	<?xml version="1.0"?>\n<Clock xmlns:dt="urn:schemas-microsoft-com:datatypes"><Description dt:dt="string">E-Prime Primary Realtime Clock</Description><StartTime><Timestamp dt:dt="int">0</Timestamp><DateUtc dt:dt="string">2016-02-22T23:28:33Z</DateUtc></StartTime><FrequencyChanges><FrequencyChange><Frequency dt:dt="r8">3507675</Frequency><Timestamp dt:dt="r8">9402480760</Timestamp><Current dt:dt="r8">0</Current><DateUtc dt:dt="string">2016-02-22T23:28:33Z</DateUtc></FrequencyChange></FrequencyChanges></Clock>\n	Hungry_Donkey_bar_English_2-133-1	60.017	-72	1.0.0.18	1	813241845	Standard	2.0.10.353	2.0.10.353	02-22-2016		18:28:33	2.0.10.248	57	Bar50-50.bmp	53	3	?	10r_4g.bmp	0r_4g.bmp	2r_2g.bmp	0r_2g.bmp			2r_2g.bmp		TrialProc	TrialList	0	cvbn	-999999	16	271341	0	b	691	272032	172	-152	20	-6	2	10	14	4	6	57	-10	0	-2	0	4	4	2	2	-2	2
Hungry_Donkey_bar_English_2	133	1	<?xml version="1.0"?>\n<Clock xmlns:dt="urn:schemas-microsoft-com:datatypes"><Description dt:dt="string">E-Prime Primary Realtime Clock</Description><StartTime><Timestamp dt:dt="int">0</Timestamp><DateUtc dt:dt="string">2016-02-22T23:28:33Z</DateUtc></StartTime><FrequencyChanges><FrequencyChange><Frequency dt:dt="r8">3507675</Frequency><Timestamp dt:dt="r8">9402480760</Timestamp><Current dt:dt="r8">0</Current><DateUtc dt:dt="string">2016-02-22T23:28:33Z</DateUtc></FrequencyChange></FrequencyChanges></Clock>\n	Hungry_Donkey_bar_English_2-133-1	60.017	-72	1.0.0.18	1	813241845	Standard	2.0.10.353	2.0.10.353	02-22-2016		18:28:33	2.0.10.248	58	Bar50-50.bmp	47	2	?	8r_4g.bmp	50r_4g.bmp	1r_2g.bmp	10r_2g.bmp		50r_4g.bmp			TrialProc	TrialList	0	cvbn	-999999	17	274074	0	v	1270	275344	176	-202	-26	-6	-44	10	14	1	6	58	-8	-50	-1	-10	4	4	2	2	-50	4
Hungry_Donkey_bar_English_2	133	1	<?xml version="1.0"?>\n<Clock xmlns:dt="urn:schemas-microsoft-com:datatypes"><Description dt:dt="string">E-Prime Primary Realtime Clock</Description><StartTime><Timestamp dt:dt="int">0</Timestamp><DateUtc dt:dt="string">2016-02-22T23:28:33Z</DateUtc></StartTime><FrequencyChanges><FrequencyChange><Frequency dt:dt="r8">3507675</Frequency><Timestamp dt:dt="r8">9402480760</Timestamp><Current dt:dt="r8">0</Current><DateUtc dt:dt="string">2016-02-22T23:28:33Z</DateUtc></FrequencyChange></FrequencyChanges></Clock>\n	Hungry_Donkey_bar_English_2-133-1	60.017	-72	1.0.0.18	1	813241845	Standard	2.0.10.353	2.0.10.353	02-22-2016		18:28:33	2.0.10.248	59	Bar50-50.bmp	47	4	?	12r_4g.bmp	0r_4g.bmp	3r_2g.bmp	0r_2g.bmp				0r_2g.bmp	TrialProc	TrialList	0	cvbn	-999999	16	277373	0	n	643	278016	178	-202	-24	-6	-44	10	16	5	6	59	-12	0	-3	0	4	4	2	2	0	2
Hungry_Donkey_bar_English_2	133	1	<?xml version="1.0"?>\n<Clock xmlns:dt="urn:schemas-microsoft-com:datatypes"><Description dt:dt="string">E-Prime Primary Realtime Clock</Description><StartTime><Timestamp dt:dt="int">0</Timestamp><DateUtc dt:dt="string">2016-02-22T23:28:33Z</DateUtc></StartTime><FrequencyChanges><FrequencyChange><Frequency dt:dt="r8">3507675</Frequency><Timestamp dt:dt="r8">9402480760</Timestamp><Current dt:dt="r8">0</Current><DateUtc dt:dt="string">2016-02-22T23:28:33Z</DateUtc></FrequencyChange></FrequencyChanges></Clock>\n	Hungry_Donkey_bar_English_2-133-1	60.017	-72	1.0.0.18	1	813241845	Standard	2.0.10.353	2.0.10.353	02-22-2016		18:28:33	2.0.10.248	60	Bar50-50.bmp	47	1	?	0r_4g.bmp	0r_4g.bmp	0r_2g.bmp	0r_2g.bmp	0r_4g.bmp				TrialProc	TrialList	0	cvbn	-999999	16	280055	0	c	729	280784	182	-202	-20	-2	-44	10	16	6	6	60	0	0	0	0	4	4	2	2	0	4
Hungry_Donkey_bar_English_2	133	1	<?xml version="1.0"?>\n<Clock xmlns:dt="urn:schemas-microsoft-com:datatypes"><Description dt:dt="string">E-Prime Primary Realtime Clock</Description><StartTime><Timestamp dt:dt="int">0</Timestamp><DateUtc dt:dt="string">2016-02-22T23:28:33Z</DateUtc></StartTime><FrequencyChanges><FrequencyChange><Frequency dt:dt="r8">3507675</Frequency><Timestamp dt:dt="r8">9402480760</Timestamp><Current dt:dt="r8">0</Current><DateUtc dt:dt="string">2016-02-22T23:28:33Z</DateUtc></FrequencyChange></FrequencyChanges></Clock>\n	Hungry_Donkey_bar_English_2-133-1	60.017	-72	1.0.0.18	1	813241845	Standard	2.0.10.353	2.0.10.353	02-22-2016		18:28:33	2.0.10.248	61	Bar50-50.bmp	48	2	?	0r_4g.bmp	0r_4g.bmp	0r_2g.bmp	0r_2g.bmp		0r_4g.bmp			TrialProc	TrialList	0	cvbn	-999999	16	282821	0	v	1451	284272	186	-202	-16	-2	-40	10	16	6	7	61	0	0	0	0	4	4	2	2	0	4
Hungry_Donkey_bar_English_2	133	1	<?xml version="1.0"?>\n<Clock xmlns:dt="urn:schemas-microsoft-com:datatypes"><Description dt:dt="string">E-Prime Primary Realtime Clock</Description><StartTime><Timestamp dt:dt="int">0</Timestamp><DateUtc dt:dt="string">2016-02-22T23:28:33Z</DateUtc></StartTime><FrequencyChanges><FrequencyChange><Frequency dt:dt="r8">3507675</Frequency><Timestamp dt:dt="r8">9402480760</Timestamp><Current dt:dt="r8">0</Current><DateUtc dt:dt="string">2016-02-22T23:28:33Z</DateUtc></FrequencyChange></FrequencyChanges></Clock>\n	Hungry_Donkey_bar_English_2-133-1	60.017	-72	1.0.0.18	1	813241845	Standard	2.0.10.353	2.0.10.353	02-22-2016		18:28:33	2.0.10.248	62	Bar50-50.bmp	48	4	?	10r_4g.bmp	0r_4g.bmp	2r_2g.bmp	0r_2g.bmp				0r_2g.bmp	TrialProc	TrialList	0	cvbn	-999999	16	286303	0	n	1536	287839	188	-202	-14	-2	-40	10	18	4	7	62	-10	0	-2	0	4	4	2	2	0	2
Hungry_Donkey_bar_English_2	133	1	<?xml version="1.0"?>\n<Clock xmlns:dt="urn:schemas-microsoft-com:datatypes"><Description dt:dt="string">E-Prime Primary Realtime Clock</Description><StartTime><Timestamp dt:dt="int">0</Timestamp><DateUtc dt:dt="string">2016-02-22T23:28:33Z</DateUtc></StartTime><FrequencyChanges><FrequencyChange><Frequency dt:dt="r8">3507675</Frequency><Timestamp dt:dt="r8">9402480760</Timestamp><Current dt:dt="r8">0</Current><DateUtc dt:dt="string">2016-02-22T23:28:33Z</DateUtc></FrequencyChange></FrequencyChanges></Clock>\n	Hungry_Donkey_bar_English_2-133-1	60.017	-72	1.0.0.18	1	813241845	Standard	2.0.10.353	2.0.10.353	02-22-2016		18:28:33	2.0.10.248	63	Bar50-50.bmp	49	2	?	0r_4g.bmp	0r_4g.bmp	0r_2g.bmp	0r_2g.bmp		0r_4g.bmp			TrialProc	TrialList	0	cvbn	-999999	16	289869	0	v	1458	291327	192	-202	-10	-2	-36	10	18	10	7	63	0	0	0	0	4	4	2	2	0	4
Hungry_Donkey_bar_English_2	133	1	<?xml version="1.0"?>\n<Clock xmlns:dt="urn:schemas-microsoft-com:datatypes"><Description dt:dt="string">E-Prime Primary Realtime Clock</Description><StartTime><Timestamp dt:dt="int">0</Timestamp><DateUtc dt:dt="string">2016-02-22T23:28:33Z</DateUtc></StartTime><FrequencyChanges><FrequencyChange><Frequency dt:dt="r8">3507675</Frequency><Timestamp dt:dt="r8">9402480760</Timestamp><Current dt:dt="r8">0</Current><DateUtc dt:dt="string">2016-02-22T23:28:33Z</DateUtc></FrequencyChange></FrequencyChanges></Clock>\n	Hungry_Donkey_bar_English_2-133-1	60.017	-72	1.0.0.18	1	813241845	Standard	2.0.10.353	2.0.10.353	02-22-2016		18:28:33	2.0.10.248	64	Bar50-50.bmp	49	3	?	10r_4g.bmp	0r_4g.bmp	2r_2g.bmp	0r_2g.bmp			2r_2g.bmp		TrialProc	TrialList	0	cvbn	-999999	16	293351	0	b	904	294255	194	-204	-10	-2	-36	10	18	2	7	64	-10	0	-2	0	4	4	2	2	-2	2
Hungry_Donkey_bar_English_2	133	1	<?xml version="1.0"?>\n<Clock xmlns:dt="urn:schemas-microsoft-com:datatypes"><Description dt:dt="string">E-Prime Primary Realtime Clock</Description><StartTime><Timestamp dt:dt="int">0</Timestamp><DateUtc dt:dt="string">2016-02-22T23:28:33Z</DateUtc></StartTime><FrequencyChanges><FrequencyChange><Frequency dt:dt="r8">3507675</Frequency><Timestamp dt:dt="r8">9402480760</Timestamp><Current dt:dt="r8">0</Current><DateUtc dt:dt="string">2016-02-22T23:28:33Z</DateUtc></FrequencyChange></FrequencyChanges></Clock>\n	Hungry_Donkey_bar_English_2-133-1	60.017	-72	1.0.0.18	1	813241845	Standard	2.0.10.353	2.0.10.353	02-22-2016		18:28:33	2.0.10.248	65	Bar50-50.bmp	48	1	?	8r_4g.bmp	50r_4g.bmp	1r_2g.bmp	10r_2g.bmp	8r_4g.bmp				TrialProc	TrialList	0	cvbn	-999999	16	296284	0	c	515	296799	198	-212	-14	-6	-36	10	18	1	7	65	-8	-50	-1	-10	4	4	2	2	-8	4
Hungry_Donkey_bar_English_2	133	1	<?xml version="1.0"?>\n<Clock xmlns:dt="urn:schemas-microsoft-com:datatypes"><Description dt:dt="string">E-Prime Primary Realtime Clock</Description><StartTime><Timestamp dt:dt="int">0</Timestamp><DateUtc dt:dt="string">2016-02-22T23:28:33Z</DateUtc></StartTime><FrequencyChanges><FrequencyChange><Frequency dt:dt="r8">3507675</Frequency><Timestamp dt:dt="r8">9402480760</Timestamp><Current dt:dt="r8">0</Current><DateUtc dt:dt="string">2016-02-22T23:28:33Z</DateUtc></FrequencyChange></FrequencyChanges></Clock>\n	Hungry_Donkey_bar_English_2-133-1	60.017	-72	1.0.0.18	1	813241845	Standard	2.0.10.353	2.0.10.353	02-22-2016		18:28:33	2.0.10.248	66	Bar50-50.bmp	49	2	?	12r_4g.bmp	0r_4g.bmp	3r_2g.bmp	0r_2g.bmp		0r_4g.bmp			TrialProc	TrialList	0	cvbn	-999999	16	298833	0	v	846	299679	202	-212	-10	-6	-32	10	18	5	7	66	-12	0	-3	0	4	4	2	2	0	4
Hungry_Donkey_bar_English_2	133	1	<?xml version="1.0"?>\n<Clock xmlns:dt="urn:schemas-microsoft-com:datatypes"><Description dt:dt="string">E-Prime Primary Realtime Clock</Description><StartTime><Timestamp dt:dt="int">0</Timestamp><DateUtc dt:dt="string">2016-02-22T23:28:33Z</DateUtc></StartTime><FrequencyChanges><FrequencyChange><Frequency dt:dt="r8">3507675</Frequency><Timestamp dt:dt="r8">9402480760</Timestamp><Current dt:dt="r8">0</Current><DateUtc dt:dt="string">2016-02-22T23:28:33Z</DateUtc></FrequencyChange></FrequencyChanges></Clock>\n	Hungry_Donkey_bar_English_2-133-1	60.017	-72	1.0.0.18	1	813241845	Standard	2.0.10.353	2.0.10.353	02-22-2016		18:28:33	2.0.10.248	67	Bar50-50.bmp	49	4	?	0r_4g.bmp	0r_4g.bmp	0r_2g.bmp	0r_2g.bmp				0r_2g.bmp	TrialProc	TrialList	0	cvbn	-999999	16	301716	0	n	507	302223	204	-212	-8	-6	-32	10	20	9	7	67	0	0	0	0	4	4	2	2	0	2
Hungry_Donkey_bar_English_2	133	1	<?xml version="1.0"?>\n<Clock xmlns:dt="urn:schemas-microsoft-com:datatypes"><Description dt:dt="string">E-Prime Primary Realtime Clock</Description><StartTime><Timestamp dt:dt="int">0</Timestamp><DateUtc dt:dt="string">2016-02-22T23:28:33Z</DateUtc></StartTime><FrequencyChanges><FrequencyChange><Frequency dt:dt="r8">3507675</Frequency><Timestamp dt:dt="r8">9402480760</Timestamp><Current dt:dt="r8">0</Current><DateUtc dt:dt="string">2016-02-22T23:28:33Z</DateUtc></FrequencyChange></FrequencyChanges></Clock>\n	Hungry_Donkey_bar_English_2-133-1	60.017	-72	1.0.0.18	1	813241845	Standard	2.0.10.353	2.0.10.353	02-22-2016		18:28:33	2.0.10.248	68	Bar50-50.bmp	48	1	?	10r_4g.bmp	0r_4g.bmp	2r_2g.bmp	0r_2g.bmp	10r_4g.bmp				TrialProc	TrialList	0	cvbn	-999999	16	304248	0	c	1671	305919	208	-222	-14	-12	-32	10	20	3	7	68	-10	0	-2	0	4	4	2	2	-10	4
Hungry_Donkey_bar_English_2	133	1	<?xml version="1.0"?>\n<Clock xmlns:dt="urn:schemas-microsoft-com:datatypes"><Description dt:dt="string">E-Prime Primary Realtime Clock</Description><StartTime><Timestamp dt:dt="int">0</Timestamp><DateUtc dt:dt="string">2016-02-22T23:28:33Z</DateUtc></StartTime><FrequencyChanges><FrequencyChange><Frequency dt:dt="r8">3507675</Frequency><Timestamp dt:dt="r8">9402480760</Timestamp><Current dt:dt="r8">0</Current><DateUtc dt:dt="string">2016-02-22T23:28:33Z</DateUtc></FrequencyChange></FrequencyChanges></Clock>\n	Hungry_Donkey_bar_English_2-133-1	60.017	-72	1.0.0.18	1	813241845	Standard	2.0.10.353	2.0.10.353	02-22-2016		18:28:33	2.0.10.248	69	Bar50-50.bmp	49	3	?	0r_4g.bmp	0r_4g.bmp	0r_2g.bmp	0r_2g.bmp			0r_2g.bmp		TrialProc	TrialList	0	cvbn	-999999	16	307947	0	b	995	308942	210	-222	-12	-12	-32	12	20	8	7	69	0	0	0	0	4	4	2	2	0	2
Hungry_Donkey_bar_English_2	133	1	<?xml version="1.0"?>\n<Clock xmlns:dt="urn:schemas-microsoft-com:datatypes"><Description dt:dt="string">E-Prime Primary Realtime Clock</Description><StartTime><Timestamp dt:dt="int">0</Timestamp><DateUtc dt:dt="string">2016-02-22T23:28:33Z</DateUtc></StartTime><FrequencyChanges><FrequencyChange><Frequency dt:dt="r8">3507675</Frequency><Timestamp dt:dt="r8">9402480760</Timestamp><Current dt:dt="r8">0</Current><DateUtc dt:dt="string">2016-02-22T23:28:33Z</DateUtc></FrequencyChange></FrequencyChanges></Clock>\n	Hungry_Donkey_bar_English_2-133-1	60.017	-72	1.0.0.18	1	813241845	Standard	2.0.10.353	2.0.10.353	02-22-2016		18:28:33	2.0.10.248	70	Bar50-50.bmp	49	2	?	0r_4g.bmp	0r_4g.bmp	0r_2g.bmp	0r_2g.bmp		0r_4g.bmp			TrialProc	TrialList	0	cvbn	-999999	16	310980	0	v	586	311566	214	-222	-8	-12	-28	12	20	7	7	70	0	0	0	0	4	4	2	2	0	4
Hungry_Donkey_bar_English_2	133	1	<?xml version="1.0"?>\n<Clock xmlns:dt="urn:schemas-microsoft-com:datatypes"><Description dt:dt="string">E-Prime Primary Realtime Clock</Description><StartTime><Timestamp dt:dt="int">0</Timestamp><DateUtc dt:dt="string">2016-02-22T23:28:33Z</DateUtc></StartTime><FrequencyChanges><FrequencyChange><Frequency dt:dt="r8">3507675</Frequency><Timestamp dt:dt="r8">9402480760</Timestamp><Current dt:dt="r8">0</Current><DateUtc dt:dt="string">2016-02-22T23:28:33Z</DateUtc></FrequencyChange></FrequencyChanges></Clock>\n	Hungry_Donkey_bar_English_2-133-1	60.017	-72	1.0.0.18	1	813241845	Standard	2.0.10.353	2.0.10.353	02-22-2016		18:28:33	2.0.10.248	71	Bar50-50.bmp	50	1	?	0r_4g.bmp	0r_4g.bmp	0r_2g.bmp	0r_2g.bmp	0r_4g.bmp				TrialProc	TrialList	0	cvbn	-999999	16	313596	0	c	610	314206	218	-222	-4	-8	-28	12	20	6	8	71	0	0	0	0	4	4	2	2	0	4
Hungry_Donkey_bar_English_2	133	1	<?xml version="1.0"?>\n<Clock xmlns:dt="urn:schemas-microsoft-com:datatypes"><Description dt:dt="string">E-Prime Primary Realtime Clock</Description><StartTime><Timestamp dt:dt="int">0</Timestamp><DateUtc dt:dt="string">2016-02-22T23:28:33Z</DateUtc></StartTime><FrequencyChanges><FrequencyChange><Frequency dt:dt="r8">3507675</Frequency><Timestamp dt:dt="r8">9402480760</Timestamp><Current dt:dt="r8">0</Current><DateUtc dt:dt="string">2016-02-22T23:28:33Z</DateUtc></FrequencyChange></FrequencyChanges></Clock>\n	Hungry_Donkey_bar_English_2-133-1	60.017	-72	1.0.0.18	1	813241845	Standard	2.0.10.353	2.0.10.353	02-22-2016		18:28:33	2.0.10.248	72	Bar50-50.bmp	50	4	?	0r_4g.bmp	0r_4g.bmp	0r_2g.bmp	0r_2g.bmp				0r_2g.bmp	TrialProc	TrialList	0	cvbn	-999999	16	316245	0	n	633	316878	220	-222	-2	-8	-28	12	22	10	8	72	0	0	0	0	4	4	2	2	0	2
Hungry_Donkey_bar_English_2	133	1	<?xml version="1.0"?>\n<Clock xmlns:dt="urn:schemas-microsoft-com:datatypes"><Description dt:dt="string">E-Prime Primary Realtime Clock</Description><StartTime><Timestamp dt:dt="int">0</Timestamp><DateUtc dt:dt="string">2016-02-22T23:28:33Z</DateUtc></StartTime><FrequencyChanges><FrequencyChange><Frequency dt:dt="r8">3507675</Frequency><Timestamp dt:dt="r8">9402480760</Timestamp><Current dt:dt="r8">0</Current><DateUtc dt:dt="string">2016-02-22T23:28:33Z</DateUtc></FrequencyChange></FrequencyChanges></Clock>\n	Hungry_Donkey_bar_English_2-133-1	60.017	-72	1.0.0.18	1	813241845	Standard	2.0.10.353	2.0.10.353	02-22-2016		18:28:33	2.0.10.248	73	Bar50-50.bmp	50	2	?	0r_4g.bmp	0r_4g.bmp	0r_2g.bmp	0r_2g.bmp		0r_4g.bmp			TrialProc	TrialList	0	cvbn	-999999	16	318911	0	v	1199	320110	224	-222	2	-8	-24	12	22	8	8	73	0	0	0	0	4	4	2	2	0	4
Hungry_Donkey_bar_English_2	133	1	<?xml version="1.0"?>\n<Clock xmlns:dt="urn:schemas-microsoft-com:datatypes"><Description dt:dt="string">E-Prime Primary Realtime Clock</Description><StartTime><Timestamp dt:dt="int">0</Timestamp><DateUtc dt:dt="string">2016-02-22T23:28:33Z</DateUtc></StartTime><FrequencyChanges><FrequencyChange><Frequency dt:dt="r8">3507675</Frequency><Timestamp dt:dt="r8">9402480760</Timestamp><Current dt:dt="r8">0</Current><DateUtc dt:dt="string">2016-02-22T23:28:33Z</DateUtc></FrequencyChange></FrequencyChanges></Clock>\n	Hungry_Donkey_bar_English_2-133-1	60.017	-72	1.0.0.18	1	813241845	Standard	2.0.10.353	2.0.10.353	02-22-2016		18:28:33	2.0.10.248	74	Bar50-50.bmp	50	3	?	10r_4g.bmp	0r_4g.bmp	2r_2g.bmp	0r_2g.bmp			2r_2g.bmp		TrialProc	TrialList	0	cvbn	-999999	16	322143	0	b	751	322894	226	-224	2	-8	-24	12	22	2	8	74	-10	0	-2	0	4	4	2	2	-2	2
Hungry_Donkey_bar_English_2	133	1	<?xml version="1.0"?>\n<Clock xmlns:dt="urn:schemas-microsoft-com:datatypes"><Description dt:dt="string">E-Prime Primary Realtime Clock</Description><StartTime><Timestamp dt:dt="int">0</Timestamp><DateUtc dt:dt="string">2016-02-22T23:28:33Z</DateUtc></StartTime><FrequencyChanges><FrequencyChange><Frequency dt:dt="r8">3507675</Frequency><Timestamp dt:dt="r8">9402480760</Timestamp><Current dt:dt="r8">0</Current><DateUtc dt:dt="string">2016-02-22T23:28:33Z</DateUtc></FrequencyChange></FrequencyChanges></Clock>\n	Hungry_Donkey_bar_English_2-133-1	60.017	-72	1.0.0.18	1	813241845	Standard	2.0.10.353	2.0.10.353	02-22-2016		18:28:33	2.0.10.248	75	Bar50-50.bmp	51	2	?	0r_4g.bmp	0r_4g.bmp	0r_2g.bmp	0r_2g.bmp		0r_4g.bmp			TrialProc	TrialList	0	cvbn	-999999	16	324926	0	v	1392	326318	230	-224	6	-8	-20	12	22	9	8	75	0	0	0	0	4	4	2	2	0	4
Hungry_Donkey_bar_English_2	133	1	<?xml version="1.0"?>\n<Clock xmlns:dt="urn:schemas-microsoft-com:datatypes"><Description dt:dt="string">E-Prime Primary Realtime Clock</Description><StartTime><Timestamp dt:dt="int">0</Timestamp><DateUtc dt:dt="string">2016-02-22T23:28:33Z</DateUtc></StartTime><FrequencyChanges><FrequencyChange><Frequency dt:dt="r8">3507675</Frequency><Timestamp dt:dt="r8">9402480760</Timestamp><Current dt:dt="r8">0</Current><DateUtc dt:dt="string">2016-02-22T23:28:33Z</DateUtc></FrequencyChange></FrequencyChanges></Clock>\n	Hungry_Donkey_bar_English_2-133-1	60.017	-72	1.0.0.18	1	813241845	Standard	2.0.10.353	2.0.10.353	02-22-2016		18:28:33	2.0.10.248	76	Bar50-50.bmp	50	1	?	10r_4g.bmp	0r_4g.bmp	2r_2g.bmp	0r_2g.bmp	10r_4g.bmp				TrialProc	TrialList	0	cvbn	-999999	16	328358	0	c	504	328862	234	-234	0	-14	-20	12	22	3	8	76	-10	0	-2	0	4	4	2	2	-10	4
Hungry_Donkey_bar_English_2	133	1	<?xml version="1.0"?>\n<Clock xmlns:dt="urn:schemas-microsoft-com:datatypes"><Description dt:dt="string">E-Prime Primary Realtime Clock</Description><StartTime><Timestamp dt:dt="int">0</Timestamp><DateUtc dt:dt="string">2016-02-22T23:28:33Z</DateUtc></StartTime><FrequencyChanges><FrequencyChange><Frequency dt:dt="r8">3507675</Frequency><Timestamp dt:dt="r8">9402480760</Timestamp><Current dt:dt="r8">0</Current><DateUtc dt:dt="string">2016-02-22T23:28:33Z</DateUtc></FrequencyChange></FrequencyChanges></Clock>\n	Hungry_Donkey_bar_English_2-133-1	60.017	-72	1.0.0.18	1	813241845	Standard	2.0.10.353	2.0.10.353	02-22-2016		18:28:33	2.0.10.248	77	Bar50-50.bmp	50	4	?	10r_4g.bmp	0r_4g.bmp	2r_2g.bmp	0r_2g.bmp				0r_2g.bmp	TrialProc	TrialList	0	cvbn	-999999	16	330891	0	n	386	331277	236	-234	2	-14	-20	12	24	4	8	77	-10	0	-2	0	4	4	2	2	0	2
Hungry_Donkey_bar_English_2	133	1	<?xml version="1.0"?>\n<Clock xmlns:dt="urn:schemas-microsoft-com:datatypes"><Description dt:dt="string">E-Prime Primary Realtime Clock</Description><StartTime><Timestamp dt:dt="int">0</Timestamp><DateUtc dt:dt="string">2016-02-22T23:28:33Z</DateUtc></StartTime><FrequencyChanges><FrequencyChange><Frequency dt:dt="r8">3507675</Frequency><Timestamp dt:dt="r8">9402480760</Timestamp><Current dt:dt="r8">0</Current><DateUtc dt:dt="string">2016-02-22T23:28:33Z</DateUtc></FrequencyChange></FrequencyChanges></Clock>\n	Hungry_Donkey_bar_English_2-133-1	60.017	-72	1.0.0.18	1	813241845	Standard	2.0.10.353	2.0.10.353	02-22-2016		18:28:33	2.0.10.248	78	Bar50-50.bmp	51	1	?	0r_4g.bmp	0r_4g.bmp	0r_2g.bmp	0r_2g.bmp	0r_4g.bmp				TrialProc	TrialList	0	cvbn	-999999	16	333307	0	c	898	334205	240	-234	6	-10	-20	12	24	7	8	78	0	0	0	0	4	4	2	2	0	4
Hungry_Donkey_bar_English_2	133	1	<?xml version="1.0"?>\n<Clock xmlns:dt="urn:schemas-microsoft-com:datatypes"><Description dt:dt="string">E-Prime Primary Realtime Clock</Description><StartTime><Timestamp dt:dt="int">0</Timestamp><DateUtc dt:dt="string">2016-02-22T23:28:33Z</DateUtc></StartTime><FrequencyChanges><FrequencyChange><Frequency dt:dt="r8">3507675</Frequency><Timestamp dt:dt="r8">9402480760</Timestamp><Current dt:dt="r8">0</Current><DateUtc dt:dt="string">2016-02-22T23:28:33Z</DateUtc></FrequencyChange></FrequencyChanges></Clock>\n	Hungry_Donkey_bar_English_2-133-1	60.017	-72	1.0.0.18	1	813241845	Standard	2.0.10.353	2.0.10.353	02-22-2016		18:28:33	2.0.10.248	79	Bar50-50.bmp	51	3	?	12r_4g.bmp	0r_4g.bmp	3r_2g.bmp	0r_2g.bmp			3r_2g.bmp		TrialProc	TrialList	0	cvbn	-999999	16	336239	0	b	1150	337389	242	-237	5	-10	-20	11	24	5	8	79	-12	0	-3	0	4	4	2	2	-3	2
Hungry_Donkey_bar_English_2	133	1	<?xml version="1.0"?>\n<Clock xmlns:dt="urn:schemas-microsoft-com:datatypes"><Description dt:dt="string">E-Prime Primary Realtime Clock</Description><StartTime><Timestamp dt:dt="int">0</Timestamp><DateUtc dt:dt="string">2016-02-22T23:28:33Z</DateUtc></StartTime><FrequencyChanges><FrequencyChange><Frequency dt:dt="r8">3507675</Frequency><Timestamp dt:dt="r8">9402480760</Timestamp><Current dt:dt="r8">0</Current><DateUtc dt:dt="string">2016-02-22T23:28:33Z</DateUtc></FrequencyChange></FrequencyChanges></Clock>\n	Hungry_Donkey_bar_English_2-133-1	60.017	-72	1.0.0.18	1	813241845	Standard	2.0.10.353	2.0.10.353	02-22-2016		18:28:33	2.0.10.248	80	Bar50-50.bmp	46	2	?	8r_4g.bmp	50r_4g.bmp	1r_2g.bmp	10r_2g.bmp		50r_4g.bmp			TrialProc	TrialList	0	cvbn	-999999	17	339422	0	v	831	340253	246	-287	-41	-10	-66	11	24	1	8	80	-8	-50	-1	-10	4	4	2	2	-50	4
Hungry_Donkey_bar_English_2	133	1	<?xml version="1.0"?>\n<Clock xmlns:dt="urn:schemas-microsoft-com:datatypes"><Description dt:dt="string">E-Prime Primary Realtime Clock</Description><StartTime><Timestamp dt:dt="int">0</Timestamp><DateUtc dt:dt="string">2016-02-22T23:28:33Z</DateUtc></StartTime><FrequencyChanges><FrequencyChange><Frequency dt:dt="r8">3507675</Frequency><Timestamp dt:dt="r8">9402480760</Timestamp><Current dt:dt="r8">0</Current><DateUtc dt:dt="string">2016-02-22T23:28:33Z</DateUtc></FrequencyChange></FrequencyChanges></Clock>\n	Hungry_Donkey_bar_English_2-133-1	60.017	-72	1.0.0.18	1	813241845	Standard	2.0.10.353	2.0.10.353	02-22-2016		18:28:33	2.0.10.248	81	Bar50-50.bmp	46	4	?	0r_4g.bmp	0r_4g.bmp	0r_2g.bmp	0r_2g.bmp				0r_2g.bmp	TrialProc	TrialList	0	cvbn	-999999	16	342287	0	n	1022	343309	248	-287	-39	-10	-66	11	26	8	9	81	0	0	0	0	4	4	2	2	0	2
Hungry_Donkey_bar_English_2	133	1	<?xml version="1.0"?>\n<Clock xmlns:dt="urn:schemas-microsoft-com:datatypes"><Description dt:dt="string">E-Prime Primary Realtime Clock</Description><StartTime><Timestamp dt:dt="int">0</Timestamp><DateUtc dt:dt="string">2016-02-22T23:28:33Z</DateUtc></StartTime><FrequencyChanges><FrequencyChange><Frequency dt:dt="r8">3507675</Frequency><Timestamp dt:dt="r8">9402480760</Timestamp><Current dt:dt="r8">0</Current><DateUtc dt:dt="string">2016-02-22T23:28:33Z</DateUtc></FrequencyChange></FrequencyChanges></Clock>\n	Hungry_Donkey_bar_English_2-133-1	60.017	-72	1.0.0.18	1	813241845	Standard	2.0.10.353	2.0.10.353	02-22-2016		18:28:33	2.0.10.248	82	Bar50-50.bmp	46	3	?	8r_4g.bmp	50r_4g.bmp	1r_2g.bmp	10r_2g.bmp			1r_2g.bmp		TrialProc	TrialList	0	cvbn	-999999	17	345337	0	b	1012	346349	250	-288	-38	-10	-66	12	26	1	9	82	-8	-50	-1	-10	4	4	2	2	-1	2
Hungry_Donkey_bar_English_2	133	1	<?xml version="1.0"?>\n<Clock xmlns:dt="urn:schemas-microsoft-com:datatypes"><Description dt:dt="string">E-Prime Primary Realtime Clock</Description><StartTime><Timestamp dt:dt="int">0</Timestamp><DateUtc dt:dt="string">2016-02-22T23:28:33Z</DateUtc></StartTime><FrequencyChanges><FrequencyChange><Frequency dt:dt="r8">3507675</Frequency><Timestamp dt:dt="r8">9402480760</Timestamp><Current dt:dt="r8">0</Current><DateUtc dt:dt="string">2016-02-22T23:28:33Z</DateUtc></FrequencyChange></FrequencyChanges></Clock>\n	Hungry_Donkey_bar_English_2-133-1	60.017	-72	1.0.0.18	1	813241845	Standard	2.0.10.353	2.0.10.353	02-22-2016		18:28:33	2.0.10.248	83	Bar50-50.bmp	47	2	?	10r_4g.bmp	0r_4g.bmp	2r_2g.bmp	0r_2g.bmp		0r_4g.bmp			TrialProc	TrialList	0	cvbn	-999999	16	348386	0	v	1035	349421	254	-288	-34	-10	-62	12	26	4	9	83	-10	0	-2	0	4	4	2	2	0	4
Hungry_Donkey_bar_English_2	133	1	<?xml version="1.0"?>\n<Clock xmlns:dt="urn:schemas-microsoft-com:datatypes"><Description dt:dt="string">E-Prime Primary Realtime Clock</Description><StartTime><Timestamp dt:dt="int">0</Timestamp><DateUtc dt:dt="string">2016-02-22T23:28:33Z</DateUtc></StartTime><FrequencyChanges><FrequencyChange><Frequency dt:dt="r8">3507675</Frequency><Timestamp dt:dt="r8">9402480760</Timestamp><Current dt:dt="r8">0</Current><DateUtc dt:dt="string">2016-02-22T23:28:33Z</DateUtc></FrequencyChange></FrequencyChanges></Clock>\n	Hungry_Donkey_bar_English_2-133-1	60.017	-72	1.0.0.18	1	813241845	Standard	2.0.10.353	2.0.10.353	02-22-2016		18:28:33	2.0.10.248	84	Bar50-50.bmp	47	4	?	0r_4g.bmp	0r_4g.bmp	0r_2g.bmp	0r_2g.bmp				0r_2g.bmp	TrialProc	TrialList	0	cvbn	-999999	16	351451	0	n	641	352092	256	-288	-32	-10	-62	12	28	7	9	84	0	0	0	0	4	4	2	2	0	2
Hungry_Donkey_bar_English_2	133	1	<?xml version="1.0"?>\n<Clock xmlns:dt="urn:schemas-microsoft-com:datatypes"><Description dt:dt="string">E-Prime Primary Realtime Clock</Description><StartTime><Timestamp dt:dt="int">0</Timestamp><DateUtc dt:dt="string">2016-02-22T23:28:33Z</DateUtc></StartTime><FrequencyChanges><FrequencyChange><Frequency dt:dt="r8">3507675</Frequency><Timestamp dt:dt="r8">9402480760</Timestamp><Current dt:dt="r8">0</Current><DateUtc dt:dt="string">2016-02-22T23:28:33Z</DateUtc></FrequencyChange></FrequencyChanges></Clock>\n	Hungry_Donkey_bar_English_2-133-1	60.017	-72	1.0.0.18	1	813241845	Standard	2.0.10.353	2.0.10.353	02-22-2016		18:28:33	2.0.10.248	85	Bar50-50.bmp	47	1	?	0r_4g.bmp	0r_4g.bmp	0r_2g.bmp	0r_2g.bmp	0r_4g.bmp				TrialProc	TrialList	0	cvbn	-999999	16	354117	0	c	791	354908	260	-288	-28	-6	-62	12	28	9	9	85	0	0	0	0	4	4	2	2	0	4
Hungry_Donkey_bar_English_2	133	1	<?xml version="1.0"?>\n<Clock xmlns:dt="urn:schemas-microsoft-com:datatypes"><Description dt:dt="string">E-Prime Primary Realtime Clock</Description><StartTime><Timestamp dt:dt="int">0</Timestamp><DateUtc dt:dt="string">2016-02-22T23:28:33Z</DateUtc></StartTime><FrequencyChanges><FrequencyChange><Frequency dt:dt="r8">3507675</Frequency><Timestamp dt:dt="r8">9402480760</Timestamp><Current dt:dt="r8">0</Current><DateUtc dt:dt="string">2016-02-22T23:28:33Z</DateUtc></FrequencyChange></FrequencyChanges></Clock>\n	Hungry_Donkey_bar_English_2-133-1	60.017	-72	1.0.0.18	1	813241845	Standard	2.0.10.353	2.0.10.353	02-22-2016		18:28:33	2.0.10.248	86	Bar50-50.bmp	48	3	?	0r_4g.bmp	0r_4g.bmp	0r_2g.bmp	0r_2g.bmp			0r_2g.bmp		TrialProc	TrialList	0	cvbn	-999999	16	356950	0	b	566	357516	262	-288	-26	-6	-62	14	28	6	9	86	0	0	0	0	4	4	2	2	0	2
Hungry_Donkey_bar_English_2	133	1	<?xml version="1.0"?>\n<Clock xmlns:dt="urn:schemas-microsoft-com:datatypes"><Description dt:dt="string">E-Prime Primary Realtime Clock</Description><StartTime><Timestamp dt:dt="int">0</Timestamp><DateUtc dt:dt="string">2016-02-22T23:28:33Z</DateUtc></StartTime><FrequencyChanges><FrequencyChange><Frequency dt:dt="r8">3507675</Frequency><Timestamp dt:dt="r8">9402480760</Timestamp><Current dt:dt="r8">0</Current><DateUtc dt:dt="string">2016-02-22T23:28:33Z</DateUtc></FrequencyChange></FrequencyChanges></Clock>\n	Hungry_Donkey_bar_English_2-133-1	60.017	-72	1.0.0.18	1	813241845	Standard	2.0.10.353	2.0.10.353	02-22-2016		18:28:33	2.0.10.248	87	Bar50-50.bmp	48	2	?	10r_4g.bmp	0r_4g.bmp	2r_2g.bmp	0r_2g.bmp		0r_4g.bmp			TrialProc	TrialList	0	cvbn	-999999	16	359549	0	v	831	360380	266	-288	-22	-6	-58	14	28	3	9	87	-10	0	-2	0	4	4	2	2	0	4
Hungry_Donkey_bar_English_2	133	1	<?xml version="1.0"?>\n<Clock xmlns:dt="urn:schemas-microsoft-com:datatypes"><Description dt:dt="string">E-Prime Primary Realtime Clock</Description><StartTime><Timestamp dt:dt="int">0</Timestamp><DateUtc dt:dt="string">2016-02-22T23:28:33Z</DateUtc></StartTime><FrequencyChanges><FrequencyChange><Frequency dt:dt="r8">3507675</Frequency><Timestamp dt:dt="r8">9402480760</Timestamp><Current dt:dt="r8">0</Current><DateUtc dt:dt="string">2016-02-22T23:28:33Z</DateUtc></FrequencyChange></FrequencyChanges></Clock>\n	Hungry_Donkey_bar_English_2-133-1	60.017	-72	1.0.0.18	1	813241845	Standard	2.0.10.353	2.0.10.353	02-22-2016		18:28:33	2.0.10.248	88	Bar50-50.bmp	48	4	?	12r_4g.bmp	0r_4g.bmp	3r_2g.bmp	0r_2g.bmp				0r_2g.bmp	TrialProc	TrialList	0	cvbn	-999999	16	362415	0	n	1181	363596	268	-288	-20	-6	-58	14	30	5	9	88	-12	0	-3	0	4	4	2	2	0	2
Hungry_Donkey_bar_English_2	133	1	<?xml version="1.0"?>\n<Clock xmlns:dt="urn:schemas-microsoft-com:datatypes"><Description dt:dt="string">E-Prime Primary Realtime Clock</Description><StartTime><Timestamp dt:dt="int">0</Timestamp><DateUtc dt:dt="string">2016-02-22T23:28:33Z</DateUtc></StartTime><FrequencyChanges><FrequencyChange><Frequency dt:dt="r8">3507675</Frequency><Timestamp dt:dt="r8">9402480760</Timestamp><Current dt:dt="r8">0</Current><DateUtc dt:dt="string">2016-02-22T23:28:33Z</DateUtc></FrequencyChange></FrequencyChanges></Clock>\n	Hungry_Donkey_bar_English_2-133-1	60.017	-72	1.0.0.18	1	813241845	Standard	2.0.10.353	2.0.10.353	02-22-2016		18:28:33	2.0.10.248	89	Bar50-50.bmp	49	1	?	0r_4g.bmp	0r_4g.bmp	0r_2g.bmp	0r_2g.bmp	0r_4g.bmp				TrialProc	TrialList	0	cvbn	-999999	16	365631	0	c	877	366508	272	-288	-16	-2	-58	14	30	10	9	89	0	0	0	0	4	4	2	2	0	4
Hungry_Donkey_bar_English_2	133	1	<?xml version="1.0"?>\n<Clock xmlns:dt="urn:schemas-microsoft-com:datatypes"><Description dt:dt="string">E-Prime Primary Realtime Clock</Description><StartTime><Timestamp dt:dt="int">0</Timestamp><DateUtc dt:dt="string">2016-02-22T23:28:33Z</DateUtc></StartTime><FrequencyChanges><FrequencyChange><Frequency dt:dt="r8">3507675</Frequency><Timestamp dt:dt="r8">9402480760</Timestamp><Current dt:dt="r8">0</Current><DateUtc dt:dt="string">2016-02-22T23:28:33Z</DateUtc></FrequencyChange></FrequencyChanges></Clock>\n	Hungry_Donkey_bar_English_2-133-1	60.017	-72	1.0.0.18	1	813241845	Standard	2.0.10.353	2.0.10.353	02-22-2016		18:28:33	2.0.10.248	90	Bar50-50.bmp	49	2	?	10r_4g.bmp	0r_4g.bmp	2r_2g.bmp	0r_2g.bmp		0r_4g.bmp			TrialProc	TrialList	0	cvbn	-999999	17	368547	0	v	1177	369724	276	-288	-12	-2	-54	14	30	2	9	90	-10	0	-2	0	4	4	2	2	0	4
Hungry_Donkey_bar_English_2	133	1	<?xml version="1.0"?>\n<Clock xmlns:dt="urn:schemas-microsoft-com:datatypes"><Description dt:dt="string">E-Prime Primary Realtime Clock</Description><StartTime><Timestamp dt:dt="int">0</Timestamp><DateUtc dt:dt="string">2016-02-22T23:28:33Z</DateUtc></StartTime><FrequencyChanges><FrequencyChange><Frequency dt:dt="r8">3507675</Frequency><Timestamp dt:dt="r8">9402480760</Timestamp><Current dt:dt="r8">0</Current><DateUtc dt:dt="string">2016-02-22T23:28:33Z</DateUtc></FrequencyChange></FrequencyChanges></Clock>\n	Hungry_Donkey_bar_English_2-133-1	60.017	-72	1.0.0.18	1	813241845	Standard	2.0.10.353	2.0.10.353	02-22-2016		18:28:33	2.0.10.248	91	Bar50-50.bmp	49	3	?	0r_4g.bmp	0r_4g.bmp	0r_2g.bmp	0r_2g.bmp			0r_2g.bmp		TrialProc	TrialList	0	cvbn	-999999	16	371762	0	b	1353	373115	278	-288	-10	-2	-54	16	30	10	10	91	0	0	0	0	4	4	2	2	0	2
Hungry_Donkey_bar_English_2	133	1	<?xml version="1.0"?>\n<Clock xmlns:dt="urn:schemas-microsoft-com:datatypes"><Description dt:dt="string">E-Prime Primary Realtime Clock</Description><StartTime><Timestamp dt:dt="int">0</Timestamp><DateUtc dt:dt="string">2016-02-22T23:28:33Z</DateUtc></StartTime><FrequencyChanges><FrequencyChange><Frequency dt:dt="r8">3507675</Frequency><Timestamp dt:dt="r8">9402480760</Timestamp><Current dt:dt="r8">0</Current><DateUtc dt:dt="string">2016-02-22T23:28:33Z</DateUtc></FrequencyChange></FrequencyChanges></Clock>\n	Hungry_Donkey_bar_English_2-133-1	60.017	-72	1.0.0.18	1	813241845	Standard	2.0.10.353	2.0.10.353	02-22-2016		18:28:33	2.0.10.248	92	Bar50-50.bmp	49	2	?	0r_4g.bmp	0r_4g.bmp	0r_2g.bmp	0r_2g.bmp		0r_4g.bmp			TrialProc	TrialList	0	cvbn	-999999	16	375145	0	v	1314	376459	282	-288	-6	-2	-50	16	30	7	10	92	0	0	0	0	4	4	2	2	0	4
Hungry_Donkey_bar_English_2	133	1	<?xml version="1.0"?>\n<Clock xmlns:dt="urn:schemas-microsoft-com:datatypes"><Description dt:dt="string">E-Prime Primary Realtime Clock</Description><StartTime><Timestamp dt:dt="int">0</Timestamp><DateUtc dt:dt="string">2016-02-22T23:28:33Z</DateUtc></StartTime><FrequencyChanges><FrequencyChange><Frequency dt:dt="r8">3507675</Frequency><Timestamp dt:dt="r8">9402480760</Timestamp><Current dt:dt="r8">0</Current><DateUtc dt:dt="string">2016-02-22T23:28:33Z</DateUtc></FrequencyChange></FrequencyChanges></Clock>\n	Hungry_Donkey_bar_English_2-133-1	60.017	-72	1.0.0.18	1	813241845	Standard	2.0.10.353	2.0.10.353	02-22-2016		18:28:33	2.0.10.248	93	Bar50-50.bmp	50	4	?	0r_4g.bmp	0r_4g.bmp	0r_2g.bmp	0r_2g.bmp				0r_2g.bmp	TrialProc	TrialList	0	cvbn	-999999	16	378494	0	n	781	379275	284	-288	-4	-2	-50	16	32	9	10	93	0	0	0	0	4	4	2	2	0	2
Hungry_Donkey_bar_English_2	133	1	<?xml version="1.0"?>\n<Clock xmlns:dt="urn:schemas-microsoft-com:datatypes"><Description dt:dt="string">E-Prime Primary Realtime Clock</Description><StartTime><Timestamp dt:dt="int">0</Timestamp><DateUtc dt:dt="string">2016-02-22T23:28:33Z</DateUtc></StartTime><FrequencyChanges><FrequencyChange><Frequency dt:dt="r8">3507675</Frequency><Timestamp dt:dt="r8">9402480760</Timestamp><Current dt:dt="r8">0</Current><DateUtc dt:dt="string">2016-02-22T23:28:33Z</DateUtc></FrequencyChange></FrequencyChanges></Clock>\n	Hungry_Donkey_bar_English_2-133-1	60.017	-72	1.0.0.18	1	813241845	Standard	2.0.10.353	2.0.10.353	02-22-2016		18:28:33	2.0.10.248	94	Bar50-50.bmp	50	3	?	12r_4g.bmp	0r_4g.bmp	3r_2g.bmp	0r_2g.bmp			3r_2g.bmp		TrialProc	TrialList	0	cvbn	-999999	17	381310	0	b	861	382171	286	-291	-5	-2	-50	15	32	5	10	94	-12	0	-3	0	4	4	2	2	-3	2
Hungry_Donkey_bar_English_2	133	1	<?xml version="1.0"?>\n<Clock xmlns:dt="urn:schemas-microsoft-com:datatypes"><Description dt:dt="string">E-Prime Primary Realtime Clock</Description><StartTime><Timestamp dt:dt="int">0</Timestamp><DateUtc dt:dt="string">2016-02-22T23:28:33Z</DateUtc></StartTime><FrequencyChanges><FrequencyChange><Frequency dt:dt="r8">3507675</Frequency><Timestamp dt:dt="r8">9402480760</Timestamp><Current dt:dt="r8">0</Current><DateUtc dt:dt="string">2016-02-22T23:28:33Z</DateUtc></FrequencyChange></FrequencyChanges></Clock>\n	Hungry_Donkey_bar_English_2-133-1	60.017	-72	1.0.0.18	1	813241845	Standard	2.0.10.353	2.0.10.353	02-22-2016		18:28:33	2.0.10.248	95	Bar50-50.bmp	49	1	?	10r_4g.bmp	0r_4g.bmp	2r_2g.bmp	0r_2g.bmp	10r_4g.bmp				TrialProc	TrialList	0	cvbn	-999999	16	384209	0	c	794	385003	290	-301	-11	-8	-50	15	32	3	10	95	-10	0	-2	0	4	4	2	2	-10	4
Hungry_Donkey_bar_English_2	133	1	<?xml version="1.0"?>\n<Clock xmlns:dt="urn:schemas-microsoft-com:datatypes"><Description dt:dt="string">E-Prime Primary Realtime Clock</Description><StartTime><Timestamp dt:dt="int">0</Timestamp><DateUtc dt:dt="string">2016-02-22T23:28:33Z</DateUtc></StartTime><FrequencyChanges><FrequencyChange><Frequency dt:dt="r8">3507675</Frequency><Timestamp dt:dt="r8">9402480760</Timestamp><Current dt:dt="r8">0</Current><DateUtc dt:dt="string">2016-02-22T23:28:33Z</DateUtc></FrequencyChange></FrequencyChanges></Clock>\n	Hungry_Donkey_bar_English_2-133-1	60.017	-72	1.0.0.18	1	813241845	Standard	2.0.10.353	2.0.10.353	02-22-2016		18:28:33	2.0.10.248	96	Bar50-50.bmp	46	2	?	8r_4g.bmp	50r_4g.bmp	1r_2g.bmp	10r_2g.bmp		50r_4g.bmp			TrialProc	TrialList	0	cvbn	-999999	16	387041	0	v	874	387915	294	-351	-57	-8	-96	15	32	1	10	96	-8	-50	-1	-10	4	4	2	2	-50	4
Hungry_Donkey_bar_English_2	133	1	<?xml version="1.0"?>\n<Clock xmlns:dt="urn:schemas-microsoft-com:datatypes"><Description dt:dt="string">E-Prime Primary Realtime Clock</Description><StartTime><Timestamp dt:dt="int">0</Timestamp><DateUtc dt:dt="string">2016-02-22T23:28:33Z</DateUtc></StartTime><FrequencyChanges><FrequencyChange><Frequency dt:dt="r8">3507675</Frequency><Timestamp dt:dt="r8">9402480760</Timestamp><Current dt:dt="r8">0</Current><DateUtc dt:dt="string">2016-02-22T23:28:33Z</DateUtc></FrequencyChange></FrequencyChanges></Clock>\n	Hungry_Donkey_bar_English_2-133-1	60.017	-72	1.0.0.18	1	813241845	Standard	2.0.10.353	2.0.10.353	02-22-2016		18:28:33	2.0.10.248	97	Bar50-50.bmp	46	3	?	10r_4g.bmp	0r_4g.bmp	2r_2g.bmp	0r_2g.bmp			2r_2g.bmp		TrialProc	TrialList	0	cvbn	-999999	16	389940	0	b	727	390667	296	-353	-57	-8	-96	15	32	4	10	97	-10	0	-2	0	4	4	2	2	-2	2
Hungry_Donkey_bar_English_2	133	1	<?xml version="1.0"?>\n<Clock xmlns:dt="urn:schemas-microsoft-com:datatypes"><Description dt:dt="string">E-Prime Primary Realtime Clock</Description><StartTime><Timestamp dt:dt="int">0</Timestamp><DateUtc dt:dt="string">2016-02-22T23:28:33Z</DateUtc></StartTime><FrequencyChanges><FrequencyChange><Frequency dt:dt="r8">3507675</Frequency><Timestamp dt:dt="r8">9402480760</Timestamp><Current dt:dt="r8">0</Current><DateUtc dt:dt="string">2016-02-22T23:28:33Z</DateUtc></FrequencyChange></FrequencyChanges></Clock>\n	Hungry_Donkey_bar_English_2-133-1	60.017	-72	1.0.0.18	1	813241845	Standard	2.0.10.353	2.0.10.353	02-22-2016		18:28:33	2.0.10.248	98	Bar50-50.bmp	46	1	?	0r_4g.bmp	0r_4g.bmp	0r_2g.bmp	0r_2g.bmp	0r_4g.bmp				TrialProc	TrialList	0	cvbn	-999999	16	392706	0	c	1160	393866	300	-353	-53	-4	-96	15	32	6	10	98	0	0	0	0	4	4	2	2	0	4
Hungry_Donkey_bar_English_2	133	1	<?xml version="1.0"?>\n<Clock xmlns:dt="urn:schemas-microsoft-com:datatypes"><Description dt:dt="string">E-Prime Primary Realtime Clock</Description><StartTime><Timestamp dt:dt="int">0</Timestamp><DateUtc dt:dt="string">2016-02-22T23:28:33Z</DateUtc></StartTime><FrequencyChanges><FrequencyChange><Frequency dt:dt="r8">3507675</Frequency><Timestamp dt:dt="r8">9402480760</Timestamp><Current dt:dt="r8">0</Current><DateUtc dt:dt="string">2016-02-22T23:28:33Z</DateUtc></FrequencyChange></FrequencyChanges></Clock>\n	Hungry_Donkey_bar_English_2-133-1	60.017	-72	1.0.0.18	1	813241845	Standard	2.0.10.353	2.0.10.353	02-22-2016		18:28:33	2.0.10.248	99	Bar50-50.bmp	46	4	?	10r_4g.bmp	0r_4g.bmp	2r_2g.bmp	0r_2g.bmp				0r_2g.bmp	TrialProc	TrialList	0	cvbn	-999999	16	395905	0	n	473	396378	302	-353	-51	-4	-96	15	34	2	10	99	-10	0	-2	0	4	4	2	2	0	2
Hungry_Donkey_bar_English_2	133	1	<?xml version="1.0"?>\n<Clock xmlns:dt="urn:schemas-microsoft-com:datatypes"><Description dt:dt="string">E-Prime Primary Realtime Clock</Description><StartTime><Timestamp dt:dt="int">0</Timestamp><DateUtc dt:dt="string">2016-02-22T23:28:33Z</DateUtc></StartTime><FrequencyChanges><FrequencyChange><Frequency dt:dt="r8">3507675</Frequency><Timestamp dt:dt="r8">9402480760</Timestamp><Current dt:dt="r8">0</Current><DateUtc dt:dt="string">2016-02-22T23:28:33Z</DateUtc></FrequencyChange></FrequencyChanges></Clock>\n	Hungry_Donkey_bar_English_2-133-1	60.017	-72	1.0.0.18	1	813241845	Standard	2.0.10.353	2.0.10.353	02-22-2016		18:28:33	2.0.10.248	100	Bar50-50.bmp	46	2	?	0r_4g.bmp	0r_4g.bmp	0r_2g.bmp	0r_2g.bmp		0r_4g.bmp			TrialProc	TrialList	0	cvbn	-999999	16	398405	0	v	677	399082	306	-353	-47	-4	-92	15	34	8	10	100	0	0	0	0	4	4	2	2	0	4
Hungry_Donkey_bar_English_2	133	1	<?xml version="1.0"?>\n<Clock xmlns:dt="urn:schemas-microsoft-com:datatypes"><Description dt:dt="string">E-Prime Primary Realtime Clock</Description><StartTime><Timestamp dt:dt="int">0</Timestamp><DateUtc dt:dt="string">2016-02-22T23:28:33Z</DateUtc></StartTime><FrequencyChanges><FrequencyChange><Frequency dt:dt="r8">3507675</Frequency><Timestamp dt:dt="r8">9402480760</Timestamp><Current dt:dt="r8">0</Current><DateUtc dt:dt="string">2016-02-22T23:28:33Z</DateUtc></FrequencyChange></FrequencyChanges></Clock>\n	Hungry_Donkey_bar_English_2-133-1	60.017	-72	1.0.0.18	1	813241845	Standard	2.0.10.353	2.0.10.353	02-22-2016		18:28:33	2.0.10.248	101	Bar50-50.bmp	47	4	?	0r_4g.bmp	0r_4g.bmp	0r_2g.bmp	0r_2g.bmp				0r_2g.bmp	TrialProc	TrialList	0	cvbn	-999999	17	401121	0	n	553	401674	308	-353	-45	-4	-92	15	36	6	11	101	0	0	0	0	4	4	2	2	0	2
Hungry_Donkey_bar_English_2	133	1	<?xml version="1.0"?>\n<Clock xmlns:dt="urn:schemas-microsoft-com:datatypes"><Description dt:dt="string">E-Prime Primary Realtime Clock</Description><StartTime><Timestamp dt:dt="int">0</Timestamp><DateUtc dt:dt="string">2016-02-22T23:28:33Z</DateUtc></StartTime><FrequencyChanges><FrequencyChange><Frequency dt:dt="r8">3507675</Frequency><Timestamp dt:dt="r8">9402480760</Timestamp><Current dt:dt="r8">0</Current><DateUtc dt:dt="string">2016-02-22T23:28:33Z</DateUtc></FrequencyChange></FrequencyChanges></Clock>\n	Hungry_Donkey_bar_English_2-133-1	60.017	-72	1.0.0.18	1	813241845	Standard	2.0.10.353	2.0.10.353	02-22-2016		18:28:33	2.0.10.248	102	Bar50-50.bmp	47	1	?	0r_4g.bmp	0r_4g.bmp	0r_2g.bmp	0r_2g.bmp	0r_4g.bmp				TrialProc	TrialList	0	cvbn	-999999	16	403703	0	c	691	404394	312	-353	-41	0	-92	15	36	9	11	102	0	0	0	0	4	4	2	2	0	4
Hungry_Donkey_bar_English_2	133	1	<?xml version="1.0"?>\n<Clock xmlns:dt="urn:schemas-microsoft-com:datatypes"><Description dt:dt="string">E-Prime Primary Realtime Clock</Description><StartTime><Timestamp dt:dt="int">0</Timestamp><DateUtc dt:dt="string">2016-02-22T23:28:33Z</DateUtc></StartTime><FrequencyChanges><FrequencyChange><Frequency dt:dt="r8">3507675</Frequency><Timestamp dt:dt="r8">9402480760</Timestamp><Current dt:dt="r8">0</Current><DateUtc dt:dt="string">2016-02-22T23:28:33Z</DateUtc></FrequencyChange></FrequencyChanges></Clock>\n	Hungry_Donkey_bar_English_2-133-1	60.017	-72	1.0.0.18	1	813241845	Standard	2.0.10.353	2.0.10.353	02-22-2016		18:28:33	2.0.10.248	103	Bar50-50.bmp	47	3	?	0r_4g.bmp	0r_4g.bmp	0r_2g.bmp	0r_2g.bmp			0r_2g.bmp		TrialProc	TrialList	0	cvbn	-999999	16	406436	0	b	742	407178	314	-353	-39	0	-92	17	36	7	11	103	0	0	0	0	4	4	2	2	0	2
Hungry_Donkey_bar_English_2	133	1	<?xml version="1.0"?>\n<Clock xmlns:dt="urn:schemas-microsoft-com:datatypes"><Description dt:dt="string">E-Prime Primary Realtime Clock</Description><StartTime><Timestamp dt:dt="int">0</Timestamp><DateUtc dt:dt="string">2016-02-22T23:28:33Z</DateUtc></StartTime><FrequencyChanges><FrequencyChange><Frequency dt:dt="r8">3507675</Frequency><Timestamp dt:dt="r8">9402480760</Timestamp><Current dt:dt="r8">0</Current><DateUtc dt:dt="string">2016-02-22T23:28:33Z</DateUtc></FrequencyChange></FrequencyChanges></Clock>\n	Hungry_Donkey_bar_English_2-133-1	60.017	-72	1.0.0.18	1	813241845	Standard	2.0.10.353	2.0.10.353	02-22-2016		18:28:33	2.0.10.248	104	Bar50-50.bmp	47	2	?	0r_4g.bmp	0r_4g.bmp	0r_2g.bmp	0r_2g.bmp		0r_4g.bmp			TrialProc	TrialList	0	cvbn	-999999	17	409202	0	v	840	410042	318	-353	-35	0	-88	17	36	10	11	104	0	0	0	0	4	4	2	2	0	4
Hungry_Donkey_bar_English_2	133	1	<?xml version="1.0"?>\n<Clock xmlns:dt="urn:schemas-microsoft-com:datatypes"><Description dt:dt="string">E-Prime Primary Realtime Clock</Description><StartTime><Timestamp dt:dt="int">0</Timestamp><DateUtc dt:dt="string">2016-02-22T23:28:33Z</DateUtc></StartTime><FrequencyChanges><FrequencyChange><Frequency dt:dt="r8">3507675</Frequency><Timestamp dt:dt="r8">9402480760</Timestamp><Current dt:dt="r8">0</Current><DateUtc dt:dt="string">2016-02-22T23:28:33Z</DateUtc></FrequencyChange></FrequencyChanges></Clock>\n	Hungry_Donkey_bar_English_2-133-1	60.017	-72	1.0.0.18	1	813241845	Standard	2.0.10.353	2.0.10.353	02-22-2016		18:28:33	2.0.10.248	105	Bar50-50.bmp	47	1	?	8r_4g.bmp	50r_4g.bmp	1r_2g.bmp	10r_2g.bmp	8r_4g.bmp				TrialProc	TrialList	0	cvbn	-999999	16	412067	0	c	758	412825	322	-361	-39	-4	-88	17	36	1	11	105	-8	-50	-1	-10	4	4	2	2	-8	4
Hungry_Donkey_bar_English_2	133	1	<?xml version="1.0"?>\n<Clock xmlns:dt="urn:schemas-microsoft-com:datatypes"><Description dt:dt="string">E-Prime Primary Realtime Clock</Description><StartTime><Timestamp dt:dt="int">0</Timestamp><DateUtc dt:dt="string">2016-02-22T23:28:33Z</DateUtc></StartTime><FrequencyChanges><FrequencyChange><Frequency dt:dt="r8">3507675</Frequency><Timestamp dt:dt="r8">9402480760</Timestamp><Current dt:dt="r8">0</Current><DateUtc dt:dt="string">2016-02-22T23:28:33Z</DateUtc></FrequencyChange></FrequencyChanges></Clock>\n	Hungry_Donkey_bar_English_2-133-1	60.017	-72	1.0.0.18	1	813241845	Standard	2.0.10.353	2.0.10.353	02-22-2016		18:28:33	2.0.10.248	106	Bar50-50.bmp	47	4	?	12r_4g.bmp	0r_4g.bmp	3r_2g.bmp	0r_2g.bmp				0r_2g.bmp	TrialProc	TrialList	0	cvbn	-999999	16	414867	0	n	630	415497	324	-361	-37	-4	-88	17	38	5	11	106	-12	0	-3	0	4	4	2	2	0	2
Hungry_Donkey_bar_English_2	133	1	<?xml version="1.0"?>\n<Clock xmlns:dt="urn:schemas-microsoft-com:datatypes"><Description dt:dt="string">E-Prime Primary Realtime Clock</Description><StartTime><Timestamp dt:dt="int">0</Timestamp><DateUtc dt:dt="string">2016-02-22T23:28:33Z</DateUtc></StartTime><FrequencyChanges><FrequencyChange><Frequency dt:dt="r8">3507675</Frequency><Timestamp dt:dt="r8">9402480760</Timestamp><Current dt:dt="r8">0</Current><DateUtc dt:dt="string">2016-02-22T23:28:33Z</DateUtc></FrequencyChange></FrequencyChanges></Clock>\n	Hungry_Donkey_bar_English_2-133-1	60.017	-72	1.0.0.18	1	813241845	Standard	2.0.10.353	2.0.10.353	02-22-2016		18:28:33	2.0.10.248	107	Bar50-50.bmp	47	3	?	10r_4g.bmp	0r_4g.bmp	2r_2g.bmp	0r_2g.bmp			2r_2g.bmp		TrialProc	TrialList	0	cvbn	-999999	17	417533	0	b	1036	418569	326	-363	-37	-4	-88	17	38	3	11	107	-10	0	-2	0	4	4	2	2	-2	2
Hungry_Donkey_bar_English_2	133	1	<?xml version="1.0"?>\n<Clock xmlns:dt="urn:schemas-microsoft-com:datatypes"><Description dt:dt="string">E-Prime Primary Realtime Clock</Description><StartTime><Timestamp dt:dt="int">0</Timestamp><DateUtc dt:dt="string">2016-02-22T23:28:33Z</DateUtc></StartTime><FrequencyChanges><FrequencyChange><Frequency dt:dt="r8">3507675</Frequency><Timestamp dt:dt="r8">9402480760</Timestamp><Current dt:dt="r8">0</Current><DateUtc dt:dt="string">2016-02-22T23:28:33Z</DateUtc></FrequencyChange></FrequencyChanges></Clock>\n	Hungry_Donkey_bar_English_2-133-1	60.017	-72	1.0.0.18	1	813241845	Standard	2.0.10.353	2.0.10.353	02-22-2016		18:28:33	2.0.10.248	108	Bar50-50.bmp	47	1	?	10r_4g.bmp	0r_4g.bmp	2r_2g.bmp	0r_2g.bmp	10r_4g.bmp				TrialProc	TrialList	0	cvbn	-999999	16	420598	0	c	1043	421641	330	-373	-43	-10	-88	17	38	2	11	108	-10	0	-2	0	4	4	2	2	-10	4
Hungry_Donkey_bar_English_2	133	1	<?xml version="1.0"?>\n<Clock xmlns:dt="urn:schemas-microsoft-com:datatypes"><Description dt:dt="string">E-Prime Primary Realtime Clock</Description><StartTime><Timestamp dt:dt="int">0</Timestamp><DateUtc dt:dt="string">2016-02-22T23:28:33Z</DateUtc></StartTime><FrequencyChanges><FrequencyChange><Frequency dt:dt="r8">3507675</Frequency><Timestamp dt:dt="r8">9402480760</Timestamp><Current dt:dt="r8">0</Current><DateUtc dt:dt="string">2016-02-22T23:28:33Z</DateUtc></FrequencyChange></FrequencyChanges></Clock>\n	Hungry_Donkey_bar_English_2-133-1	60.017	-72	1.0.0.18	1	813241845	Standard	2.0.10.353	2.0.10.353	02-22-2016		18:28:33	2.0.10.248	109	Bar50-50.bmp	47	2	?	10r_4g.bmp	0r_4g.bmp	2r_2g.bmp	0r_2g.bmp		0r_4g.bmp			TrialProc	TrialList	0	cvbn	-999999	16	423681	0	v	872	424553	334	-373	-39	-10	-84	17	38	4	11	109	-10	0	-2	0	4	4	2	2	0	4
Hungry_Donkey_bar_English_2	133	1	<?xml version="1.0"?>\n<Clock xmlns:dt="urn:schemas-microsoft-com:datatypes"><Description dt:dt="string">E-Prime Primary Realtime Clock</Description><StartTime><Timestamp dt:dt="int">0</Timestamp><DateUtc dt:dt="string">2016-02-22T23:28:33Z</DateUtc></StartTime><FrequencyChanges><FrequencyChange><Frequency dt:dt="r8">3507675</Frequency><Timestamp dt:dt="r8">9402480760</Timestamp><Current dt:dt="r8">0</Current><DateUtc dt:dt="string">2016-02-22T23:28:33Z</DateUtc></FrequencyChange></FrequencyChanges></Clock>\n	Hungry_Donkey_bar_English_2-133-1	60.017	-72	1.0.0.18	1	813241845	Standard	2.0.10.353	2.0.10.353	02-22-2016		18:28:33	2.0.10.248	110	Bar50-50.bmp	47	4	?	0r_4g.bmp	0r_4g.bmp	0r_2g.bmp	0r_2g.bmp				0r_2g.bmp	TrialProc	TrialList	0	cvbn	-999999	16	426580	0	n	773	427353	336	-373	-37	-10	-84	17	40	8	11	110	0	0	0	0	4	4	2	2	0	2
Hungry_Donkey_bar_English_2	133	1	<?xml version="1.0"?>\n<Clock xmlns:dt="urn:schemas-microsoft-com:datatypes"><Description dt:dt="string">E-Prime Primary Realtime Clock</Description><StartTime><Timestamp dt:dt="int">0</Timestamp><DateUtc dt:dt="string">2016-02-22T23:28:33Z</DateUtc></StartTime><FrequencyChanges><FrequencyChange><Frequency dt:dt="r8">3507675</Frequency><Timestamp dt:dt="r8">9402480760</Timestamp><Current dt:dt="r8">0</Current><DateUtc dt:dt="string">2016-02-22T23:28:33Z</DateUtc></FrequencyChange></FrequencyChanges></Clock>\n	Hungry_Donkey_bar_English_2-133-1	60.017	-72	1.0.0.18	1	813241845	Standard	2.0.10.353	2.0.10.353	02-22-2016		18:28:33	2.0.10.248	111	Bar50-50.bmp	48	2	?	10r_4g.bmp	0r_4g.bmp	2r_2g.bmp	0r_2g.bmp		0r_4g.bmp			TrialProc	TrialList	0	cvbn	-999999	16	429379	0	v	1062	430441	340	-373	-33	-10	-80	17	40	2	12	111	-10	0	-2	0	4	4	2	2	0	4
Hungry_Donkey_bar_English_2	133	1	<?xml version="1.0"?>\n<Clock xmlns:dt="urn:schemas-microsoft-com:datatypes"><Description dt:dt="string">E-Prime Primary Realtime Clock</Description><StartTime><Timestamp dt:dt="int">0</Timestamp><DateUtc dt:dt="string">2016-02-22T23:28:33Z</DateUtc></StartTime><FrequencyChanges><FrequencyChange><Frequency dt:dt="r8">3507675</Frequency><Timestamp dt:dt="r8">9402480760</Timestamp><Current dt:dt="r8">0</Current><DateUtc dt:dt="string">2016-02-22T23:28:33Z</DateUtc></FrequencyChange></FrequencyChanges></Clock>\n	Hungry_Donkey_bar_English_2-133-1	60.017	-72	1.0.0.18	1	813241845	Standard	2.0.10.353	2.0.10.353	02-22-2016		18:28:33	2.0.10.248	112	Bar50-50.bmp	48	3	?	0r_4g.bmp	0r_4g.bmp	0r_2g.bmp	0r_2g.bmp			0r_2g.bmp		TrialProc	TrialList	0	cvbn	-999999	16	432478	0	b	746	433224	342	-373	-31	-10	-80	19	40	7	12	112	0	0	0	0	4	4	2	2	0	2
Hungry_Donkey_bar_English_2	133	1	<?xml version="1.0"?>\n<Clock xmlns:dt="urn:schemas-microsoft-com:datatypes"><Description dt:dt="string">E-Prime Primary Realtime Clock</Description><StartTime><Timestamp dt:dt="int">0</Timestamp><DateUtc dt:dt="string">2016-02-22T23:28:33Z</DateUtc></StartTime><FrequencyChanges><FrequencyChange><Frequency dt:dt="r8">3507675</Frequency><Timestamp dt:dt="r8">9402480760</Timestamp><Current dt:dt="r8">0</Current><DateUtc dt:dt="string">2016-02-22T23:28:33Z</DateUtc></FrequencyChange></FrequencyChanges></Clock>\n	Hungry_Donkey_bar_English_2-133-1	60.017	-72	1.0.0.18	1	813241845	Standard	2.0.10.353	2.0.10.353	02-22-2016		18:28:33	2.0.10.248	113	Bar50-50.bmp	48	1	?	8r_4g.bmp	50r_4g.bmp	1r_2g.bmp	10r_2g.bmp	8r_4g.bmp				TrialProc	TrialList	0	cvbn	-999999	16	435261	0	c	635	435896	346	-381	-35	-14	-80	19	40	1	12	113	-8	-50	-1	-10	4	4	2	2	-8	4
Hungry_Donkey_bar_English_2	133	1	<?xml version="1.0"?>\n<Clock xmlns:dt="urn:schemas-microsoft-com:datatypes"><Description dt:dt="string">E-Prime Primary Realtime Clock</Description><StartTime><Timestamp dt:dt="int">0</Timestamp><DateUtc dt:dt="string">2016-02-22T23:28:33Z</DateUtc></StartTime><FrequencyChanges><FrequencyChange><Frequency dt:dt="r8">3507675</Frequency><Timestamp dt:dt="r8">9402480760</Timestamp><Current dt:dt="r8">0</Current><DateUtc dt:dt="string">2016-02-22T23:28:33Z</DateUtc></FrequencyChange></FrequencyChanges></Clock>\n	Hungry_Donkey_bar_English_2-133-1	60.017	-72	1.0.0.18	1	813241845	Standard	2.0.10.353	2.0.10.353	02-22-2016		18:28:33	2.0.10.248	114	Bar50-50.bmp	48	2	?	0r_4g.bmp	0r_4g.bmp	0r_2g.bmp	0r_2g.bmp		0r_4g.bmp			TrialProc	TrialList	0	cvbn	-999999	16	437927	0	v	689	438616	350	-381	-31	-14	-76	19	40	8	12	114	0	0	0	0	4	4	2	2	0	4
