ExperimentName	Subject	Session	Clock.Information	DataFile.Basename	Display.RefreshRate	Eindtotaal[Session]	ExperimentVersion	Group	RandomSeed	RuntimeCapabilities	RuntimeVersion	RuntimeVersionExpected	SessionDate	SessionStartDateTimeUtc	SessionTime	StudioVersion	Block	BarImage	BarTotalWinst	DoorChoice	Eindtotaal[Block]	FBDoor1	FBDoor2	FBDoor3	FBDoor4	Image1	Image2	Image3	Image4	Procedure	Running	spel.ACC	spel.CRESP	spel.DurationError	spel.OnsetDelay	spel.OnsetTime	spel.OnsetToOnsetTime	spel.RESP	spel.RT	spel.RTTime	TotalGain	TotalLose	Totalsum	TotalsumD1	TotalsumD2	TotalsumD3	TotalsumD4	TrialList	TrialList.Cycle	TrialList.Sample	varV1	varV2	varV3	varV4	varW1	varW2	varW3	varW4	Verliesbedrag	Winstbedrag
Hungry_Donkey_bar_English_2	104	1	<?xml version="1.0"?>\n<Clock xmlns:dt="urn:schemas-microsoft-com:datatypes"><Description dt:dt="string">E-Prime Primary Realtime Clock</Description><StartTime><Timestamp dt:dt="int">0</Timestamp><DateUtc dt:dt="string">2015-05-09T15:26:51Z</DateUtc></StartTime><FrequencyChanges><FrequencyChange><Frequency dt:dt="r8">2597666</Frequency><Timestamp dt:dt="r8">7209604158</Timestamp><Current dt:dt="r8">0</Current><DateUtc dt:dt="string">2015-05-09T15:26:51Z</DateUtc></FrequencyChange></FrequencyChanges></Clock>\n	Hungry_Donkey_bar_English_2-104-1	59.973	-33	1.0.0.18	1	-1379819049	Standard	2.0.10.353	2.0.10.353	05-09-2015	5/9/2015 3:26:51 PM	11:26:51	2.0.10.248	1	Bar100-0.bmp	100	2	?	10r_4g.bmp	0r_4g.bmp	2r_2g.bmp	0r_2g.bmp		0r_4g.bmp			TrialProc	TrialList	0	cvbn	-999999	49	93659	0	v	5103	98762	4	0	4	0	4	0	0	2	1	1	-10	0	-2	0	4	4	2	2	0	4
Hungry_Donkey_bar_English_2	104	1	<?xml version="1.0"?>\n<Clock xmlns:dt="urn:schemas-microsoft-com:datatypes"><Description dt:dt="string">E-Prime Primary Realtime Clock</Description><StartTime><Timestamp dt:dt="int">0</Timestamp><DateUtc dt:dt="string">2015-05-09T15:26:51Z</DateUtc></StartTime><FrequencyChanges><FrequencyChange><Frequency dt:dt="r8">2597666</Frequency><Timestamp dt:dt="r8">7209604158</Timestamp><Current dt:dt="r8">0</Current><DateUtc dt:dt="string">2015-05-09T15:26:51Z</DateUtc></FrequencyChange></FrequencyChanges></Clock>\n	Hungry_Donkey_bar_English_2-104-1	59.973	-33	1.0.0.18	1	-1379819049	Standard	2.0.10.353	2.0.10.353	05-09-2015	5/9/2015 3:26:51 PM	11:26:51	2.0.10.248	2	Bar100-0.bmp	100	1	?	0r_4g.bmp	0r_4g.bmp	0r_2g.bmp	0r_2g.bmp	0r_4g.bmp				TrialProc	TrialList	0	cvbn	-999999	18	100946	0	c	2808	103754	8	0	8	4	4	0	0	10	1	2	0	0	0	0	4	4	2	2	0	4
Hungry_Donkey_bar_English_2	104	1	<?xml version="1.0"?>\n<Clock xmlns:dt="urn:schemas-microsoft-com:datatypes"><Description dt:dt="string">E-Prime Primary Realtime Clock</Description><StartTime><Timestamp dt:dt="int">0</Timestamp><DateUtc dt:dt="string">2015-05-09T15:26:51Z</DateUtc></StartTime><FrequencyChanges><FrequencyChange><Frequency dt:dt="r8">2597666</Frequency><Timestamp dt:dt="r8">7209604158</Timestamp><Current dt:dt="r8">0</Current><DateUtc dt:dt="string">2015-05-09T15:26:51Z</DateUtc></FrequencyChange></FrequencyChanges></Clock>\n	Hungry_Donkey_bar_English_2-104-1	59.973	-33	1.0.0.18	1	-1379819049	Standard	2.0.10.353	2.0.10.353	05-09-2015	5/9/2015 3:26:51 PM	11:26:51	2.0.10.248	3	Bar100-0.bmp	100	4	?	10r_4g.bmp	0r_4g.bmp	2r_2g.bmp	0r_2g.bmp				0r_2g.bmp	TrialProc	TrialList	0	cvbn	-999999	18	105798	0	n	4356	110154	10	0	10	4	4	0	2	4	1	3	-10	0	-2	0	4	4	2	2	0	2
Hungry_Donkey_bar_English_2	104	1	<?xml version="1.0"?>\n<Clock xmlns:dt="urn:schemas-microsoft-com:datatypes"><Description dt:dt="string">E-Prime Primary Realtime Clock</Description><StartTime><Timestamp dt:dt="int">0</Timestamp><DateUtc dt:dt="string">2015-05-09T15:26:51Z</DateUtc></StartTime><FrequencyChanges><FrequencyChange><Frequency dt:dt="r8">2597666</Frequency><Timestamp dt:dt="r8">7209604158</Timestamp><Current dt:dt="r8">0</Current><DateUtc dt:dt="string">2015-05-09T15:26:51Z</DateUtc></FrequencyChange></FrequencyChanges></Clock>\n	Hungry_Donkey_bar_English_2-104-1	59.973	-33	1.0.0.18	1	-1379819049	Standard	2.0.10.353	2.0.10.353	05-09-2015	5/9/2015 3:26:51 PM	11:26:51	2.0.10.248	4	Bar100-0.bmp	100	2	?	10r_4g.bmp	0r_4g.bmp	2r_2g.bmp	0r_2g.bmp		0r_4g.bmp			TrialProc	TrialList	0	cvbn	-999999	17	112234	0	v	751	112985	14	0	14	4	8	0	2	3	1	4	-10	0	-2	0	4	4	2	2	0	4
Hungry_Donkey_bar_English_2	104	1	<?xml version="1.0"?>\n<Clock xmlns:dt="urn:schemas-microsoft-com:datatypes"><Description dt:dt="string">E-Prime Primary Realtime Clock</Description><StartTime><Timestamp dt:dt="int">0</Timestamp><DateUtc dt:dt="string">2015-05-09T15:26:51Z</DateUtc></StartTime><FrequencyChanges><FrequencyChange><Frequency dt:dt="r8">2597666</Frequency><Timestamp dt:dt="r8">7209604158</Timestamp><Current dt:dt="r8">0</Current><DateUtc dt:dt="string">2015-05-09T15:26:51Z</DateUtc></FrequencyChange></FrequencyChanges></Clock>\n	Hungry_Donkey_bar_English_2-104-1	59.973	-33	1.0.0.18	1	-1379819049	Standard	2.0.10.353	2.0.10.353	05-09-2015	5/9/2015 3:26:51 PM	11:26:51	2.0.10.248	5	Bar100-0.bmp	100	3	?	0r_4g.bmp	0r_4g.bmp	0r_2g.bmp	0r_2g.bmp			0r_2g.bmp		TrialProc	TrialList	0	cvbn	-999999	18	115019	0	b	798	115817	16	0	16	4	8	2	2	7	1	5	0	0	0	0	4	4	2	2	0	2
Hungry_Donkey_bar_English_2	104	1	<?xml version="1.0"?>\n<Clock xmlns:dt="urn:schemas-microsoft-com:datatypes"><Description dt:dt="string">E-Prime Primary Realtime Clock</Description><StartTime><Timestamp dt:dt="int">0</Timestamp><DateUtc dt:dt="string">2015-05-09T15:26:51Z</DateUtc></StartTime><FrequencyChanges><FrequencyChange><Frequency dt:dt="r8">2597666</Frequency><Timestamp dt:dt="r8">7209604158</Timestamp><Current dt:dt="r8">0</Current><DateUtc dt:dt="string">2015-05-09T15:26:51Z</DateUtc></FrequencyChange></FrequencyChanges></Clock>\n	Hungry_Donkey_bar_English_2-104-1	59.973	-33	1.0.0.18	1	-1379819049	Standard	2.0.10.353	2.0.10.353	05-09-2015	5/9/2015 3:26:51 PM	11:26:51	2.0.10.248	6	Bar100-0.bmp	100	1	?	0r_4g.bmp	0r_4g.bmp	0r_2g.bmp	0r_2g.bmp	0r_4g.bmp				TrialProc	TrialList	0	cvbn	-999999	18	117854	0	c	587	118441	20	0	20	8	8	2	2	8	1	6	0	0	0	0	4	4	2	2	0	4
Hungry_Donkey_bar_English_2	104	1	<?xml version="1.0"?>\n<Clock xmlns:dt="urn:schemas-microsoft-com:datatypes"><Description dt:dt="string">E-Prime Primary Realtime Clock</Description><StartTime><Timestamp dt:dt="int">0</Timestamp><DateUtc dt:dt="string">2015-05-09T15:26:51Z</DateUtc></StartTime><FrequencyChanges><FrequencyChange><Frequency dt:dt="r8">2597666</Frequency><Timestamp dt:dt="r8">7209604158</Timestamp><Current dt:dt="r8">0</Current><DateUtc dt:dt="string">2015-05-09T15:26:51Z</DateUtc></FrequencyChange></FrequencyChanges></Clock>\n	Hungry_Donkey_bar_English_2-104-1	59.973	-33	1.0.0.18	1	-1379819049	Standard	2.0.10.353	2.0.10.353	05-09-2015	5/9/2015 3:26:51 PM	11:26:51	2.0.10.248	7	Bar37-63.bmp	32	2	?	8r_4g.bmp	50r_4g.bmp	1r_2g.bmp	10r_2g.bmp		50r_4g.bmp			TrialProc	TrialList	0	cvbn	-999999	17	120471	0	v	1170	121641	24	-50	-26	8	-38	2	2	1	1	7	-8	-50	-1	-10	4	4	2	2	-50	4
Hungry_Donkey_bar_English_2	104	1	<?xml version="1.0"?>\n<Clock xmlns:dt="urn:schemas-microsoft-com:datatypes"><Description dt:dt="string">E-Prime Primary Realtime Clock</Description><StartTime><Timestamp dt:dt="int">0</Timestamp><DateUtc dt:dt="string">2015-05-09T15:26:51Z</DateUtc></StartTime><FrequencyChanges><FrequencyChange><Frequency dt:dt="r8">2597666</Frequency><Timestamp dt:dt="r8">7209604158</Timestamp><Current dt:dt="r8">0</Current><DateUtc dt:dt="string">2015-05-09T15:26:51Z</DateUtc></FrequencyChange></FrequencyChanges></Clock>\n	Hungry_Donkey_bar_English_2-104-1	59.973	-33	1.0.0.18	1	-1379819049	Standard	2.0.10.353	2.0.10.353	05-09-2015	5/9/2015 3:26:51 PM	11:26:51	2.0.10.248	8	Bar37-63.bmp	33	3	?	12r_4g.bmp	0r_4g.bmp	3r_2g.bmp	0r_2g.bmp			3r_2g.bmp		TrialProc	TrialList	0	cvbn	-999999	18	123740	0	b	1469	125209	26	-53	-27	8	-38	1	2	5	1	8	-12	0	-3	0	4	4	2	2	-3	2
Hungry_Donkey_bar_English_2	104	1	<?xml version="1.0"?>\n<Clock xmlns:dt="urn:schemas-microsoft-com:datatypes"><Description dt:dt="string">E-Prime Primary Realtime Clock</Description><StartTime><Timestamp dt:dt="int">0</Timestamp><DateUtc dt:dt="string">2015-05-09T15:26:51Z</DateUtc></StartTime><FrequencyChanges><FrequencyChange><Frequency dt:dt="r8">2597666</Frequency><Timestamp dt:dt="r8">7209604158</Timestamp><Current dt:dt="r8">0</Current><DateUtc dt:dt="string">2015-05-09T15:26:51Z</DateUtc></FrequencyChange></FrequencyChanges></Clock>\n	Hungry_Donkey_bar_English_2-104-1	59.973	-33	1.0.0.18	1	-1379819049	Standard	2.0.10.353	2.0.10.353	05-09-2015	5/9/2015 3:26:51 PM	11:26:51	2.0.10.248	9	Bar37-63.bmp	36	1	?	0r_4g.bmp	0r_4g.bmp	0r_2g.bmp	0r_2g.bmp	0r_4g.bmp				TrialProc	TrialList	0	cvbn	-999999	18	127308	0	c	1549	128857	30	-53	-23	12	-38	1	2	9	1	9	0	0	0	0	4	4	2	2	0	4
Hungry_Donkey_bar_English_2	104	1	<?xml version="1.0"?>\n<Clock xmlns:dt="urn:schemas-microsoft-com:datatypes"><Description dt:dt="string">E-Prime Primary Realtime Clock</Description><StartTime><Timestamp dt:dt="int">0</Timestamp><DateUtc dt:dt="string">2015-05-09T15:26:51Z</DateUtc></StartTime><FrequencyChanges><FrequencyChange><Frequency dt:dt="r8">2597666</Frequency><Timestamp dt:dt="r8">7209604158</Timestamp><Current dt:dt="r8">0</Current><DateUtc dt:dt="string">2015-05-09T15:26:51Z</DateUtc></FrequencyChange></FrequencyChanges></Clock>\n	Hungry_Donkey_bar_English_2-104-1	59.973	-33	1.0.0.18	1	-1379819049	Standard	2.0.10.353	2.0.10.353	05-09-2015	5/9/2015 3:26:51 PM	11:26:51	2.0.10.248	10	Bar37-63.bmp	38	4	?	0r_4g.bmp	0r_4g.bmp	0r_2g.bmp	0r_2g.bmp				0r_2g.bmp	TrialProc	TrialList	0	cvbn	-999999	18	130893	0	n	3884	134777	32	-53	-21	12	-38	1	4	6	1	10	0	0	0	0	4	4	2	2	0	2
Hungry_Donkey_bar_English_2	104	1	<?xml version="1.0"?>\n<Clock xmlns:dt="urn:schemas-microsoft-com:datatypes"><Description dt:dt="string">E-Prime Primary Realtime Clock</Description><StartTime><Timestamp dt:dt="int">0</Timestamp><DateUtc dt:dt="string">2015-05-09T15:26:51Z</DateUtc></StartTime><FrequencyChanges><FrequencyChange><Frequency dt:dt="r8">2597666</Frequency><Timestamp dt:dt="r8">7209604158</Timestamp><Current dt:dt="r8">0</Current><DateUtc dt:dt="string">2015-05-09T15:26:51Z</DateUtc></FrequencyChange></FrequencyChanges></Clock>\n	Hungry_Donkey_bar_English_2-104-1	59.973	-33	1.0.0.18	1	-1379819049	Standard	2.0.10.353	2.0.10.353	05-09-2015	5/9/2015 3:26:51 PM	11:26:51	2.0.10.248	11	Bar37-63.bmp	39	4	?	0r_4g.bmp	0r_4g.bmp	0r_2g.bmp	0r_2g.bmp				0r_2g.bmp	TrialProc	TrialList	0	cvbn	-999999	17	136812	0	n	797	137609	34	-53	-19	12	-38	1	6	7	2	11	0	0	0	0	4	4	2	2	0	2
Hungry_Donkey_bar_English_2	104	1	<?xml version="1.0"?>\n<Clock xmlns:dt="urn:schemas-microsoft-com:datatypes"><Description dt:dt="string">E-Prime Primary Realtime Clock</Description><StartTime><Timestamp dt:dt="int">0</Timestamp><DateUtc dt:dt="string">2015-05-09T15:26:51Z</DateUtc></StartTime><FrequencyChanges><FrequencyChange><Frequency dt:dt="r8">2597666</Frequency><Timestamp dt:dt="r8">7209604158</Timestamp><Current dt:dt="r8">0</Current><DateUtc dt:dt="string">2015-05-09T15:26:51Z</DateUtc></FrequencyChange></FrequencyChanges></Clock>\n	Hungry_Donkey_bar_English_2-104-1	59.973	-33	1.0.0.18	1	-1379819049	Standard	2.0.10.353	2.0.10.353	05-09-2015	5/9/2015 3:26:51 PM	11:26:51	2.0.10.248	12	Bar37-63.bmp	38	1	?	10r_4g.bmp	0r_4g.bmp	2r_2g.bmp	0r_2g.bmp	10r_4g.bmp				TrialProc	TrialList	0	cvbn	-999999	18	139647	0	c	602	140249	38	-63	-25	6	-38	1	6	3	2	12	-10	0	-2	0	4	4	2	2	-10	4
Hungry_Donkey_bar_English_2	104	1	<?xml version="1.0"?>\n<Clock xmlns:dt="urn:schemas-microsoft-com:datatypes"><Description dt:dt="string">E-Prime Primary Realtime Clock</Description><StartTime><Timestamp dt:dt="int">0</Timestamp><DateUtc dt:dt="string">2015-05-09T15:26:51Z</DateUtc></StartTime><FrequencyChanges><FrequencyChange><Frequency dt:dt="r8">2597666</Frequency><Timestamp dt:dt="r8">7209604158</Timestamp><Current dt:dt="r8">0</Current><DateUtc dt:dt="string">2015-05-09T15:26:51Z</DateUtc></FrequencyChange></FrequencyChanges></Clock>\n	Hungry_Donkey_bar_English_2-104-1	59.973	-33	1.0.0.18	1	-1379819049	Standard	2.0.10.353	2.0.10.353	05-09-2015	5/9/2015 3:26:51 PM	11:26:51	2.0.10.248	13	Bar37-63.bmp	40	2	?	10r_4g.bmp	0r_4g.bmp	2r_2g.bmp	0r_2g.bmp		0r_4g.bmp			TrialProc	TrialList	0	cvbn	-999999	17	142331	0	v	1486	143817	42	-63	-21	6	-34	1	6	2	2	13	-10	0	-2	0	4	4	2	2	0	4
Hungry_Donkey_bar_English_2	104	1	<?xml version="1.0"?>\n<Clock xmlns:dt="urn:schemas-microsoft-com:datatypes"><Description dt:dt="string">E-Prime Primary Realtime Clock</Description><StartTime><Timestamp dt:dt="int">0</Timestamp><DateUtc dt:dt="string">2015-05-09T15:26:51Z</DateUtc></StartTime><FrequencyChanges><FrequencyChange><Frequency dt:dt="r8">2597666</Frequency><Timestamp dt:dt="r8">7209604158</Timestamp><Current dt:dt="r8">0</Current><DateUtc dt:dt="string">2015-05-09T15:26:51Z</DateUtc></FrequencyChange></FrequencyChanges></Clock>\n	Hungry_Donkey_bar_English_2-104-1	59.973	-33	1.0.0.18	1	-1379819049	Standard	2.0.10.353	2.0.10.353	05-09-2015	5/9/2015 3:26:51 PM	11:26:51	2.0.10.248	14	Bar37-63.bmp	40	3	?	10r_4g.bmp	0r_4g.bmp	2r_2g.bmp	0r_2g.bmp			2r_2g.bmp		TrialProc	TrialList	0	cvbn	-999999	18	145850	0	b	623	146473	44	-65	-21	6	-34	1	6	4	2	14	-10	0	-2	0	4	4	2	2	-2	2
Hungry_Donkey_bar_English_2	104	1	<?xml version="1.0"?>\n<Clock xmlns:dt="urn:schemas-microsoft-com:datatypes"><Description dt:dt="string">E-Prime Primary Realtime Clock</Description><StartTime><Timestamp dt:dt="int">0</Timestamp><DateUtc dt:dt="string">2015-05-09T15:26:51Z</DateUtc></StartTime><FrequencyChanges><FrequencyChange><Frequency dt:dt="r8">2597666</Frequency><Timestamp dt:dt="r8">7209604158</Timestamp><Current dt:dt="r8">0</Current><DateUtc dt:dt="string">2015-05-09T15:26:51Z</DateUtc></FrequencyChange></FrequencyChanges></Clock>\n	Hungry_Donkey_bar_English_2-104-1	59.973	-33	1.0.0.18	1	-1379819049	Standard	2.0.10.353	2.0.10.353	05-09-2015	5/9/2015 3:26:51 PM	11:26:51	2.0.10.248	15	Bar37-63.bmp	41	4	?	0r_4g.bmp	0r_4g.bmp	0r_2g.bmp	0r_2g.bmp				0r_2g.bmp	TrialProc	TrialList	0	cvbn	-999999	17	148551	0	n	1106	149657	46	-65	-19	6	-34	1	8	6	2	15	0	0	0	0	4	4	2	2	0	2
Hungry_Donkey_bar_English_2	104	1	<?xml version="1.0"?>\n<Clock xmlns:dt="urn:schemas-microsoft-com:datatypes"><Description dt:dt="string">E-Prime Primary Realtime Clock</Description><StartTime><Timestamp dt:dt="int">0</Timestamp><DateUtc dt:dt="string">2015-05-09T15:26:51Z</DateUtc></StartTime><FrequencyChanges><FrequencyChange><Frequency dt:dt="r8">2597666</Frequency><Timestamp dt:dt="r8">7209604158</Timestamp><Current dt:dt="r8">0</Current><DateUtc dt:dt="string">2015-05-09T15:26:51Z</DateUtc></FrequencyChange></FrequencyChanges></Clock>\n	Hungry_Donkey_bar_English_2-104-1	59.973	-33	1.0.0.18	1	-1379819049	Standard	2.0.10.353	2.0.10.353	05-09-2015	5/9/2015 3:26:51 PM	11:26:51	2.0.10.248	16	Bar37-63.bmp	39	4	?	8r_4g.bmp	50r_4g.bmp	1r_2g.bmp	10r_2g.bmp				10r_2g.bmp	TrialProc	TrialList	0	cvbn	-999999	18	151686	0	n	483	152169	48	-75	-27	6	-34	1	0	1	2	16	-8	-50	-1	-10	4	4	2	2	-10	2
Hungry_Donkey_bar_English_2	104	1	<?xml version="1.0"?>\n<Clock xmlns:dt="urn:schemas-microsoft-com:datatypes"><Description dt:dt="string">E-Prime Primary Realtime Clock</Description><StartTime><Timestamp dt:dt="int">0</Timestamp><DateUtc dt:dt="string">2015-05-09T15:26:51Z</DateUtc></StartTime><FrequencyChanges><FrequencyChange><Frequency dt:dt="r8">2597666</Frequency><Timestamp dt:dt="r8">7209604158</Timestamp><Current dt:dt="r8">0</Current><DateUtc dt:dt="string">2015-05-09T15:26:51Z</DateUtc></FrequencyChange></FrequencyChanges></Clock>\n	Hungry_Donkey_bar_English_2-104-1	59.973	-33	1.0.0.18	1	-1379819049	Standard	2.0.10.353	2.0.10.353	05-09-2015	5/9/2015 3:26:51 PM	11:26:51	2.0.10.248	17	Bar37-63.bmp	41	1	?	0r_4g.bmp	0r_4g.bmp	0r_2g.bmp	0r_2g.bmp	0r_4g.bmp				TrialProc	TrialList	0	cvbn	-999999	17	154237	0	c	2028	156265	52	-75	-23	10	-34	1	0	9	2	17	0	0	0	0	4	4	2	2	0	4
Hungry_Donkey_bar_English_2	104	1	<?xml version="1.0"?>\n<Clock xmlns:dt="urn:schemas-microsoft-com:datatypes"><Description dt:dt="string">E-Prime Primary Realtime Clock</Description><StartTime><Timestamp dt:dt="int">0</Timestamp><DateUtc dt:dt="string">2015-05-09T15:26:51Z</DateUtc></StartTime><FrequencyChanges><FrequencyChange><Frequency dt:dt="r8">2597666</Frequency><Timestamp dt:dt="r8">7209604158</Timestamp><Current dt:dt="r8">0</Current><DateUtc dt:dt="string">2015-05-09T15:26:51Z</DateUtc></FrequencyChange></FrequencyChanges></Clock>\n	Hungry_Donkey_bar_English_2-104-1	59.973	-33	1.0.0.18	1	-1379819049	Standard	2.0.10.353	2.0.10.353	05-09-2015	5/9/2015 3:26:51 PM	11:26:51	2.0.10.248	18	Bar37-63.bmp	39	1	?	12r_4g.bmp	0r_4g.bmp	3r_2g.bmp	0r_2g.bmp	12r_4g.bmp				TrialProc	TrialList	0	cvbn	-999999	17	158305	0	c	1368	159673	56	-87	-31	2	-34	1	0	5	2	18	-12	0	-3	0	4	4	2	2	-12	4
Hungry_Donkey_bar_English_2	104	1	<?xml version="1.0"?>\n<Clock xmlns:dt="urn:schemas-microsoft-com:datatypes"><Description dt:dt="string">E-Prime Primary Realtime Clock</Description><StartTime><Timestamp dt:dt="int">0</Timestamp><DateUtc dt:dt="string">2015-05-09T15:26:51Z</DateUtc></StartTime><FrequencyChanges><FrequencyChange><Frequency dt:dt="r8">2597666</Frequency><Timestamp dt:dt="r8">7209604158</Timestamp><Current dt:dt="r8">0</Current><DateUtc dt:dt="string">2015-05-09T15:26:51Z</DateUtc></FrequencyChange></FrequencyChanges></Clock>\n	Hungry_Donkey_bar_English_2-104-1	59.973	-33	1.0.0.18	1	-1379819049	Standard	2.0.10.353	2.0.10.353	05-09-2015	5/9/2015 3:26:51 PM	11:26:51	2.0.10.248	19	Bar37-63.bmp	41	2	?	0r_4g.bmp	0r_4g.bmp	0r_2g.bmp	0r_2g.bmp		0r_4g.bmp			TrialProc	TrialList	0	cvbn	-999999	18	161774	0	v	651	162425	60	-87	-27	2	-30	1	0	10	2	19	0	0	0	0	4	4	2	2	0	4
Hungry_Donkey_bar_English_2	104	1	<?xml version="1.0"?>\n<Clock xmlns:dt="urn:schemas-microsoft-com:datatypes"><Description dt:dt="string">E-Prime Primary Realtime Clock</Description><StartTime><Timestamp dt:dt="int">0</Timestamp><DateUtc dt:dt="string">2015-05-09T15:26:51Z</DateUtc></StartTime><FrequencyChanges><FrequencyChange><Frequency dt:dt="r8">2597666</Frequency><Timestamp dt:dt="r8">7209604158</Timestamp><Current dt:dt="r8">0</Current><DateUtc dt:dt="string">2015-05-09T15:26:51Z</DateUtc></FrequencyChange></FrequencyChanges></Clock>\n	Hungry_Donkey_bar_English_2-104-1	59.973	-33	1.0.0.18	1	-1379819049	Standard	2.0.10.353	2.0.10.353	05-09-2015	5/9/2015 3:26:51 PM	11:26:51	2.0.10.248	20	Bar37-63.bmp	42	3	?	0r_4g.bmp	0r_4g.bmp	0r_2g.bmp	0r_2g.bmp			0r_2g.bmp		TrialProc	TrialList	0	cvbn	-999999	17	164458	0	b	1871	166329	62	-87	-25	2	-30	3	0	8	2	20	0	0	0	0	4	4	2	2	0	2
Hungry_Donkey_bar_English_2	104	1	<?xml version="1.0"?>\n<Clock xmlns:dt="urn:schemas-microsoft-com:datatypes"><Description dt:dt="string">E-Prime Primary Realtime Clock</Description><StartTime><Timestamp dt:dt="int">0</Timestamp><DateUtc dt:dt="string">2015-05-09T15:26:51Z</DateUtc></StartTime><FrequencyChanges><FrequencyChange><Frequency dt:dt="r8">2597666</Frequency><Timestamp dt:dt="r8">7209604158</Timestamp><Current dt:dt="r8">0</Current><DateUtc dt:dt="string">2015-05-09T15:26:51Z</DateUtc></FrequencyChange></FrequencyChanges></Clock>\n	Hungry_Donkey_bar_English_2-104-1	59.973	-33	1.0.0.18	1	-1379819049	Standard	2.0.10.353	2.0.10.353	05-09-2015	5/9/2015 3:26:51 PM	11:26:51	2.0.10.248	21	Bar37-63.bmp	42	4	?	10r_4g.bmp	0r_4g.bmp	2r_2g.bmp	0r_2g.bmp				0r_2g.bmp	TrialProc	TrialList	0	cvbn	-999999	18	168360	0	n	673	169033	64	-87	-23	2	-30	3	2	3	3	21	-10	0	-2	0	4	4	2	2	0	2
Hungry_Donkey_bar_English_2	104	1	<?xml version="1.0"?>\n<Clock xmlns:dt="urn:schemas-microsoft-com:datatypes"><Description dt:dt="string">E-Prime Primary Realtime Clock</Description><StartTime><Timestamp dt:dt="int">0</Timestamp><DateUtc dt:dt="string">2015-05-09T15:26:51Z</DateUtc></StartTime><FrequencyChanges><FrequencyChange><Frequency dt:dt="r8">2597666</Frequency><Timestamp dt:dt="r8">7209604158</Timestamp><Current dt:dt="r8">0</Current><DateUtc dt:dt="string">2015-05-09T15:26:51Z</DateUtc></FrequencyChange></FrequencyChanges></Clock>\n	Hungry_Donkey_bar_English_2-104-1	59.973	-33	1.0.0.18	1	-1379819049	Standard	2.0.10.353	2.0.10.353	05-09-2015	5/9/2015 3:26:51 PM	11:26:51	2.0.10.248	22	Bar50-50.bmp	44	1	?	0r_4g.bmp	0r_4g.bmp	0r_2g.bmp	0r_2g.bmp	0r_4g.bmp				TrialProc	TrialList	0	cvbn	-999999	17	171061	0	c	804	171865	68	-87	-19	6	-30	3	2	10	3	22	0	0	0	0	4	4	2	2	0	4
Hungry_Donkey_bar_English_2	104	1	<?xml version="1.0"?>\n<Clock xmlns:dt="urn:schemas-microsoft-com:datatypes"><Description dt:dt="string">E-Prime Primary Realtime Clock</Description><StartTime><Timestamp dt:dt="int">0</Timestamp><DateUtc dt:dt="string">2015-05-09T15:26:51Z</DateUtc></StartTime><FrequencyChanges><FrequencyChange><Frequency dt:dt="r8">2597666</Frequency><Timestamp dt:dt="r8">7209604158</Timestamp><Current dt:dt="r8">0</Current><DateUtc dt:dt="string">2015-05-09T15:26:51Z</DateUtc></FrequencyChange></FrequencyChanges></Clock>\n	Hungry_Donkey_bar_English_2-104-1	59.973	-33	1.0.0.18	1	-1379819049	Standard	2.0.10.353	2.0.10.353	05-09-2015	5/9/2015 3:26:51 PM	11:26:51	2.0.10.248	23	Bar37-63.bmp	34	2	?	8r_4g.bmp	50r_4g.bmp	1r_2g.bmp	10r_2g.bmp		50r_4g.bmp			TrialProc	TrialList	0	cvbn	-999999	17	173912	0	v	385	174297	72	-137	-65	6	-76	3	2	1	3	23	-8	-50	-1	-10	4	4	2	2	-50	4
Hungry_Donkey_bar_English_2	104	1	<?xml version="1.0"?>\n<Clock xmlns:dt="urn:schemas-microsoft-com:datatypes"><Description dt:dt="string">E-Prime Primary Realtime Clock</Description><StartTime><Timestamp dt:dt="int">0</Timestamp><DateUtc dt:dt="string">2015-05-09T15:26:51Z</DateUtc></StartTime><FrequencyChanges><FrequencyChange><Frequency dt:dt="r8">2597666</Frequency><Timestamp dt:dt="r8">7209604158</Timestamp><Current dt:dt="r8">0</Current><DateUtc dt:dt="string">2015-05-09T15:26:51Z</DateUtc></FrequencyChange></FrequencyChanges></Clock>\n	Hungry_Donkey_bar_English_2-104-1	59.973	-33	1.0.0.18	1	-1379819049	Standard	2.0.10.353	2.0.10.353	05-09-2015	5/9/2015 3:26:51 PM	11:26:51	2.0.10.248	24	Bar37-63.bmp	35	3	?	0r_4g.bmp	0r_4g.bmp	0r_2g.bmp	0r_2g.bmp			0r_2g.bmp		TrialProc	TrialList	0	cvbn	-999999	17	176330	0	b	1327	177657	74	-137	-63	6	-76	5	2	7	3	24	0	0	0	0	4	4	2	2	0	2
Hungry_Donkey_bar_English_2	104	1	<?xml version="1.0"?>\n<Clock xmlns:dt="urn:schemas-microsoft-com:datatypes"><Description dt:dt="string">E-Prime Primary Realtime Clock</Description><StartTime><Timestamp dt:dt="int">0</Timestamp><DateUtc dt:dt="string">2015-05-09T15:26:51Z</DateUtc></StartTime><FrequencyChanges><FrequencyChange><Frequency dt:dt="r8">2597666</Frequency><Timestamp dt:dt="r8">7209604158</Timestamp><Current dt:dt="r8">0</Current><DateUtc dt:dt="string">2015-05-09T15:26:51Z</DateUtc></FrequencyChange></FrequencyChanges></Clock>\n	Hungry_Donkey_bar_English_2-104-1	59.973	-33	1.0.0.18	1	-1379819049	Standard	2.0.10.353	2.0.10.353	05-09-2015	5/9/2015 3:26:51 PM	11:26:51	2.0.10.248	25	Bar37-63.bmp	36	4	?	12r_4g.bmp	0r_4g.bmp	3r_2g.bmp	0r_2g.bmp				0r_2g.bmp	TrialProc	TrialList	0	cvbn	-999999	17	179698	0	n	551	180249	76	-137	-61	6	-76	5	4	5	3	25	-12	0	-3	0	4	4	2	2	0	2
Hungry_Donkey_bar_English_2	104	1	<?xml version="1.0"?>\n<Clock xmlns:dt="urn:schemas-microsoft-com:datatypes"><Description dt:dt="string">E-Prime Primary Realtime Clock</Description><StartTime><Timestamp dt:dt="int">0</Timestamp><DateUtc dt:dt="string">2015-05-09T15:26:51Z</DateUtc></StartTime><FrequencyChanges><FrequencyChange><Frequency dt:dt="r8">2597666</Frequency><Timestamp dt:dt="r8">7209604158</Timestamp><Current dt:dt="r8">0</Current><DateUtc dt:dt="string">2015-05-09T15:26:51Z</DateUtc></FrequencyChange></FrequencyChanges></Clock>\n	Hungry_Donkey_bar_English_2-104-1	59.973	-33	1.0.0.18	1	-1379819049	Standard	2.0.10.353	2.0.10.353	05-09-2015	5/9/2015 3:26:51 PM	11:26:51	2.0.10.248	26	Bar37-63.bmp	36	4	?	0r_4g.bmp	0r_4g.bmp	0r_2g.bmp	0r_2g.bmp				0r_2g.bmp	TrialProc	TrialList	0	cvbn	-999999	18	182283	0	n	1822	184105	78	-137	-59	6	-76	5	6	9	3	26	0	0	0	0	4	4	2	2	0	2
Hungry_Donkey_bar_English_2	104	1	<?xml version="1.0"?>\n<Clock xmlns:dt="urn:schemas-microsoft-com:datatypes"><Description dt:dt="string">E-Prime Primary Realtime Clock</Description><StartTime><Timestamp dt:dt="int">0</Timestamp><DateUtc dt:dt="string">2015-05-09T15:26:51Z</DateUtc></StartTime><FrequencyChanges><FrequencyChange><Frequency dt:dt="r8">2597666</Frequency><Timestamp dt:dt="r8">7209604158</Timestamp><Current dt:dt="r8">0</Current><DateUtc dt:dt="string">2015-05-09T15:26:51Z</DateUtc></FrequencyChange></FrequencyChanges></Clock>\n	Hungry_Donkey_bar_English_2-104-1	59.973	-33	1.0.0.18	1	-1379819049	Standard	2.0.10.353	2.0.10.353	05-09-2015	5/9/2015 3:26:51 PM	11:26:51	2.0.10.248	27	Bar37-63.bmp	36	1	?	10r_4g.bmp	0r_4g.bmp	2r_2g.bmp	0r_2g.bmp	10r_4g.bmp				TrialProc	TrialList	0	cvbn	-999999	18	186135	0	c	1170	187305	82	-147	-65	0	-76	5	6	4	3	27	-10	0	-2	0	4	4	2	2	-10	4
Hungry_Donkey_bar_English_2	104	1	<?xml version="1.0"?>\n<Clock xmlns:dt="urn:schemas-microsoft-com:datatypes"><Description dt:dt="string">E-Prime Primary Realtime Clock</Description><StartTime><Timestamp dt:dt="int">0</Timestamp><DateUtc dt:dt="string">2015-05-09T15:26:51Z</DateUtc></StartTime><FrequencyChanges><FrequencyChange><Frequency dt:dt="r8">2597666</Frequency><Timestamp dt:dt="r8">7209604158</Timestamp><Current dt:dt="r8">0</Current><DateUtc dt:dt="string">2015-05-09T15:26:51Z</DateUtc></FrequencyChange></FrequencyChanges></Clock>\n	Hungry_Donkey_bar_English_2-104-1	59.973	-33	1.0.0.18	1	-1379819049	Standard	2.0.10.353	2.0.10.353	05-09-2015	5/9/2015 3:26:51 PM	11:26:51	2.0.10.248	28	Bar37-63.bmp	37	2	?	10r_4g.bmp	0r_4g.bmp	2r_2g.bmp	0r_2g.bmp		0r_4g.bmp			TrialProc	TrialList	0	cvbn	-999999	17	189336	0	v	2417	191753	86	-147	-61	0	-72	5	6	2	3	28	-10	0	-2	0	4	4	2	2	0	4
Hungry_Donkey_bar_English_2	104	1	<?xml version="1.0"?>\n<Clock xmlns:dt="urn:schemas-microsoft-com:datatypes"><Description dt:dt="string">E-Prime Primary Realtime Clock</Description><StartTime><Timestamp dt:dt="int">0</Timestamp><DateUtc dt:dt="string">2015-05-09T15:26:51Z</DateUtc></StartTime><FrequencyChanges><FrequencyChange><Frequency dt:dt="r8">2597666</Frequency><Timestamp dt:dt="r8">7209604158</Timestamp><Current dt:dt="r8">0</Current><DateUtc dt:dt="string">2015-05-09T15:26:51Z</DateUtc></FrequencyChange></FrequencyChanges></Clock>\n	Hungry_Donkey_bar_English_2-104-1	59.973	-33	1.0.0.18	1	-1379819049	Standard	2.0.10.353	2.0.10.353	05-09-2015	5/9/2015 3:26:51 PM	11:26:51	2.0.10.248	29	Bar37-63.bmp	37	3	?	0r_4g.bmp	0r_4g.bmp	0r_2g.bmp	0r_2g.bmp			0r_2g.bmp		TrialProc	TrialList	0	cvbn	-999999	17	193788	0	b	2349	196137	88	-147	-59	0	-72	7	6	6	3	29	0	0	0	0	4	4	2	2	0	2
Hungry_Donkey_bar_English_2	104	1	<?xml version="1.0"?>\n<Clock xmlns:dt="urn:schemas-microsoft-com:datatypes"><Description dt:dt="string">E-Prime Primary Realtime Clock</Description><StartTime><Timestamp dt:dt="int">0</Timestamp><DateUtc dt:dt="string">2015-05-09T15:26:51Z</DateUtc></StartTime><FrequencyChanges><FrequencyChange><Frequency dt:dt="r8">2597666</Frequency><Timestamp dt:dt="r8">7209604158</Timestamp><Current dt:dt="r8">0</Current><DateUtc dt:dt="string">2015-05-09T15:26:51Z</DateUtc></FrequencyChange></FrequencyChanges></Clock>\n	Hungry_Donkey_bar_English_2-104-1	59.973	-33	1.0.0.18	1	-1379819049	Standard	2.0.10.353	2.0.10.353	05-09-2015	5/9/2015 3:26:51 PM	11:26:51	2.0.10.248	30	Bar37-63.bmp	38	2	?	0r_4g.bmp	0r_4g.bmp	0r_2g.bmp	0r_2g.bmp		0r_4g.bmp			TrialProc	TrialList	0	cvbn	-999999	17	198173	0	v	4780	202953	92	-147	-55	0	-68	7	6	8	3	30	0	0	0	0	4	4	2	2	0	4
Hungry_Donkey_bar_English_2	104	1	<?xml version="1.0"?>\n<Clock xmlns:dt="urn:schemas-microsoft-com:datatypes"><Description dt:dt="string">E-Prime Primary Realtime Clock</Description><StartTime><Timestamp dt:dt="int">0</Timestamp><DateUtc dt:dt="string">2015-05-09T15:26:51Z</DateUtc></StartTime><FrequencyChanges><FrequencyChange><Frequency dt:dt="r8">2597666</Frequency><Timestamp dt:dt="r8">7209604158</Timestamp><Current dt:dt="r8">0</Current><DateUtc dt:dt="string">2015-05-09T15:26:51Z</DateUtc></FrequencyChange></FrequencyChanges></Clock>\n	Hungry_Donkey_bar_English_2-104-1	59.973	-33	1.0.0.18	1	-1379819049	Standard	2.0.10.353	2.0.10.353	05-09-2015	5/9/2015 3:26:51 PM	11:26:51	2.0.10.248	31	Bar37-63.bmp	39	3	?	0r_4g.bmp	0r_4g.bmp	0r_2g.bmp	0r_2g.bmp			0r_2g.bmp		TrialProc	TrialList	0	cvbn	-999999	17	204993	0	b	520	205513	94	-147	-53	0	-68	9	6	6	4	31	0	0	0	0	4	4	2	2	0	2
Hungry_Donkey_bar_English_2	104	1	<?xml version="1.0"?>\n<Clock xmlns:dt="urn:schemas-microsoft-com:datatypes"><Description dt:dt="string">E-Prime Primary Realtime Clock</Description><StartTime><Timestamp dt:dt="int">0</Timestamp><DateUtc dt:dt="string">2015-05-09T15:26:51Z</DateUtc></StartTime><FrequencyChanges><FrequencyChange><Frequency dt:dt="r8">2597666</Frequency><Timestamp dt:dt="r8">7209604158</Timestamp><Current dt:dt="r8">0</Current><DateUtc dt:dt="string">2015-05-09T15:26:51Z</DateUtc></FrequencyChange></FrequencyChanges></Clock>\n	Hungry_Donkey_bar_English_2-104-1	59.973	-33	1.0.0.18	1	-1379819049	Standard	2.0.10.353	2.0.10.353	05-09-2015	5/9/2015 3:26:51 PM	11:26:51	2.0.10.248	32	Bar37-63.bmp	39	1	?	8r_4g.bmp	50r_4g.bmp	1r_2g.bmp	10r_2g.bmp	8r_4g.bmp				TrialProc	TrialList	0	cvbn	-999999	17	207544	0	c	513	208057	98	-155	-57	-4	-68	9	6	1	4	32	-8	-50	-1	-10	4	4	2	2	-8	4
Hungry_Donkey_bar_English_2	104	1	<?xml version="1.0"?>\n<Clock xmlns:dt="urn:schemas-microsoft-com:datatypes"><Description dt:dt="string">E-Prime Primary Realtime Clock</Description><StartTime><Timestamp dt:dt="int">0</Timestamp><DateUtc dt:dt="string">2015-05-09T15:26:51Z</DateUtc></StartTime><FrequencyChanges><FrequencyChange><Frequency dt:dt="r8">2597666</Frequency><Timestamp dt:dt="r8">7209604158</Timestamp><Current dt:dt="r8">0</Current><DateUtc dt:dt="string">2015-05-09T15:26:51Z</DateUtc></FrequencyChange></FrequencyChanges></Clock>\n	Hungry_Donkey_bar_English_2-104-1	59.973	-33	1.0.0.18	1	-1379819049	Standard	2.0.10.353	2.0.10.353	05-09-2015	5/9/2015 3:26:51 PM	11:26:51	2.0.10.248	33	Bar37-63.bmp	39	4	?	0r_4g.bmp	0r_4g.bmp	0r_2g.bmp	0r_2g.bmp				0r_2g.bmp	TrialProc	TrialList	0	cvbn	-999999	18	210129	0	n	920	211049	100	-155	-55	-4	-68	9	8	9	4	33	0	0	0	0	4	4	2	2	0	2
Hungry_Donkey_bar_English_2	104	1	<?xml version="1.0"?>\n<Clock xmlns:dt="urn:schemas-microsoft-com:datatypes"><Description dt:dt="string">E-Prime Primary Realtime Clock</Description><StartTime><Timestamp dt:dt="int">0</Timestamp><DateUtc dt:dt="string">2015-05-09T15:26:51Z</DateUtc></StartTime><FrequencyChanges><FrequencyChange><Frequency dt:dt="r8">2597666</Frequency><Timestamp dt:dt="r8">7209604158</Timestamp><Current dt:dt="r8">0</Current><DateUtc dt:dt="string">2015-05-09T15:26:51Z</DateUtc></FrequencyChange></FrequencyChanges></Clock>\n	Hungry_Donkey_bar_English_2-104-1	59.973	-33	1.0.0.18	1	-1379819049	Standard	2.0.10.353	2.0.10.353	05-09-2015	5/9/2015 3:26:51 PM	11:26:51	2.0.10.248	34	Bar37-63.bmp	39	3	?	12r_4g.bmp	0r_4g.bmp	3r_2g.bmp	0r_2g.bmp			3r_2g.bmp		TrialProc	TrialList	0	cvbn	-999999	17	213080	0	b	337	213417	102	-158	-56	-4	-68	8	8	5	4	34	-12	0	-3	0	4	4	2	2	-3	2
Hungry_Donkey_bar_English_2	104	1	<?xml version="1.0"?>\n<Clock xmlns:dt="urn:schemas-microsoft-com:datatypes"><Description dt:dt="string">E-Prime Primary Realtime Clock</Description><StartTime><Timestamp dt:dt="int">0</Timestamp><DateUtc dt:dt="string">2015-05-09T15:26:51Z</DateUtc></StartTime><FrequencyChanges><FrequencyChange><Frequency dt:dt="r8">2597666</Frequency><Timestamp dt:dt="r8">7209604158</Timestamp><Current dt:dt="r8">0</Current><DateUtc dt:dt="string">2015-05-09T15:26:51Z</DateUtc></FrequencyChange></FrequencyChanges></Clock>\n	Hungry_Donkey_bar_English_2-104-1	59.973	-33	1.0.0.18	1	-1379819049	Standard	2.0.10.353	2.0.10.353	05-09-2015	5/9/2015 3:26:51 PM	11:26:51	2.0.10.248	35	Bar37-63.bmp	40	2	?	0r_4g.bmp	0r_4g.bmp	0r_2g.bmp	0r_2g.bmp		0r_4g.bmp			TrialProc	TrialList	0	cvbn	-999999	18	215448	0	v	496	215944	106	-158	-52	-4	-64	8	8	8	4	35	0	0	0	0	4	4	2	2	0	4
Hungry_Donkey_bar_English_2	104	1	<?xml version="1.0"?>\n<Clock xmlns:dt="urn:schemas-microsoft-com:datatypes"><Description dt:dt="string">E-Prime Primary Realtime Clock</Description><StartTime><Timestamp dt:dt="int">0</Timestamp><DateUtc dt:dt="string">2015-05-09T15:26:51Z</DateUtc></StartTime><FrequencyChanges><FrequencyChange><Frequency dt:dt="r8">2597666</Frequency><Timestamp dt:dt="r8">7209604158</Timestamp><Current dt:dt="r8">0</Current><DateUtc dt:dt="string">2015-05-09T15:26:51Z</DateUtc></FrequencyChange></FrequencyChanges></Clock>\n	Hungry_Donkey_bar_English_2-104-1	59.973	-33	1.0.0.18	1	-1379819049	Standard	2.0.10.353	2.0.10.353	05-09-2015	5/9/2015 3:26:51 PM	11:26:51	2.0.10.248	36	Bar37-63.bmp	41	4	?	10r_4g.bmp	0r_4g.bmp	2r_2g.bmp	0r_2g.bmp				0r_2g.bmp	TrialProc	TrialList	0	cvbn	-999999	18	217983	0	n	681	218664	108	-158	-50	-4	-64	8	10	4	4	36	-10	0	-2	0	4	4	2	2	0	2
Hungry_Donkey_bar_English_2	104	1	<?xml version="1.0"?>\n<Clock xmlns:dt="urn:schemas-microsoft-com:datatypes"><Description dt:dt="string">E-Prime Primary Realtime Clock</Description><StartTime><Timestamp dt:dt="int">0</Timestamp><DateUtc dt:dt="string">2015-05-09T15:26:51Z</DateUtc></StartTime><FrequencyChanges><FrequencyChange><Frequency dt:dt="r8">2597666</Frequency><Timestamp dt:dt="r8">7209604158</Timestamp><Current dt:dt="r8">0</Current><DateUtc dt:dt="string">2015-05-09T15:26:51Z</DateUtc></FrequencyChange></FrequencyChanges></Clock>\n	Hungry_Donkey_bar_English_2-104-1	59.973	-33	1.0.0.18	1	-1379819049	Standard	2.0.10.353	2.0.10.353	05-09-2015	5/9/2015 3:26:51 PM	11:26:51	2.0.10.248	37	Bar37-63.bmp	40	1	?	10r_4g.bmp	0r_4g.bmp	2r_2g.bmp	0r_2g.bmp	10r_4g.bmp				TrialProc	TrialList	0	cvbn	-999999	17	220700	0	c	428	221128	112	-168	-56	-10	-64	8	10	3	4	37	-10	0	-2	0	4	4	2	2	-10	4
Hungry_Donkey_bar_English_2	104	1	<?xml version="1.0"?>\n<Clock xmlns:dt="urn:schemas-microsoft-com:datatypes"><Description dt:dt="string">E-Prime Primary Realtime Clock</Description><StartTime><Timestamp dt:dt="int">0</Timestamp><DateUtc dt:dt="string">2015-05-09T15:26:51Z</DateUtc></StartTime><FrequencyChanges><FrequencyChange><Frequency dt:dt="r8">2597666</Frequency><Timestamp dt:dt="r8">7209604158</Timestamp><Current dt:dt="r8">0</Current><DateUtc dt:dt="string">2015-05-09T15:26:51Z</DateUtc></FrequencyChange></FrequencyChanges></Clock>\n	Hungry_Donkey_bar_English_2-104-1	59.973	-33	1.0.0.18	1	-1379819049	Standard	2.0.10.353	2.0.10.353	05-09-2015	5/9/2015 3:26:51 PM	11:26:51	2.0.10.248	38	Bar37-63.bmp	41	2	?	10r_4g.bmp	0r_4g.bmp	2r_2g.bmp	0r_2g.bmp		0r_4g.bmp			TrialProc	TrialList	0	cvbn	-999999	17	223168	0	v	456	223624	116	-168	-52	-10	-60	8	10	2	4	38	-10	0	-2	0	4	4	2	2	0	4
Hungry_Donkey_bar_English_2	104	1	<?xml version="1.0"?>\n<Clock xmlns:dt="urn:schemas-microsoft-com:datatypes"><Description dt:dt="string">E-Prime Primary Realtime Clock</Description><StartTime><Timestamp dt:dt="int">0</Timestamp><DateUtc dt:dt="string">2015-05-09T15:26:51Z</DateUtc></StartTime><FrequencyChanges><FrequencyChange><Frequency dt:dt="r8">2597666</Frequency><Timestamp dt:dt="r8">7209604158</Timestamp><Current dt:dt="r8">0</Current><DateUtc dt:dt="string">2015-05-09T15:26:51Z</DateUtc></FrequencyChange></FrequencyChanges></Clock>\n	Hungry_Donkey_bar_English_2-104-1	59.973	-33	1.0.0.18	1	-1379819049	Standard	2.0.10.353	2.0.10.353	05-09-2015	5/9/2015 3:26:51 PM	11:26:51	2.0.10.248	39	Bar37-63.bmp	41	3	?	0r_4g.bmp	0r_4g.bmp	0r_2g.bmp	0r_2g.bmp			0r_2g.bmp		TrialProc	TrialList	0	cvbn	-999999	18	225653	0	b	339	225992	118	-168	-50	-10	-60	10	10	10	4	39	0	0	0	0	4	4	2	2	0	2
Hungry_Donkey_bar_English_2	104	1	<?xml version="1.0"?>\n<Clock xmlns:dt="urn:schemas-microsoft-com:datatypes"><Description dt:dt="string">E-Prime Primary Realtime Clock</Description><StartTime><Timestamp dt:dt="int">0</Timestamp><DateUtc dt:dt="string">2015-05-09T15:26:51Z</DateUtc></StartTime><FrequencyChanges><FrequencyChange><Frequency dt:dt="r8">2597666</Frequency><Timestamp dt:dt="r8">7209604158</Timestamp><Current dt:dt="r8">0</Current><DateUtc dt:dt="string">2015-05-09T15:26:51Z</DateUtc></FrequencyChange></FrequencyChanges></Clock>\n	Hungry_Donkey_bar_English_2-104-1	59.973	-33	1.0.0.18	1	-1379819049	Standard	2.0.10.353	2.0.10.353	05-09-2015	5/9/2015 3:26:51 PM	11:26:51	2.0.10.248	40	Bar37-63.bmp	42	3	?	0r_4g.bmp	0r_4g.bmp	0r_2g.bmp	0r_2g.bmp			0r_2g.bmp		TrialProc	TrialList	0	cvbn	-999999	17	228020	0	b	500	228520	120	-168	-48	-10	-60	12	10	7	4	40	0	0	0	0	4	4	2	2	0	2
Hungry_Donkey_bar_English_2	104	1	<?xml version="1.0"?>\n<Clock xmlns:dt="urn:schemas-microsoft-com:datatypes"><Description dt:dt="string">E-Prime Primary Realtime Clock</Description><StartTime><Timestamp dt:dt="int">0</Timestamp><DateUtc dt:dt="string">2015-05-09T15:26:51Z</DateUtc></StartTime><FrequencyChanges><FrequencyChange><Frequency dt:dt="r8">2597666</Frequency><Timestamp dt:dt="r8">7209604158</Timestamp><Current dt:dt="r8">0</Current><DateUtc dt:dt="string">2015-05-09T15:26:51Z</DateUtc></FrequencyChange></FrequencyChanges></Clock>\n	Hungry_Donkey_bar_English_2-104-1	59.973	-33	1.0.0.18	1	-1379819049	Standard	2.0.10.353	2.0.10.353	05-09-2015	5/9/2015 3:26:51 PM	11:26:51	2.0.10.248	41	Bar37-63.bmp	42	2	?	0r_4g.bmp	0r_4g.bmp	0r_2g.bmp	0r_2g.bmp		0r_4g.bmp			TrialProc	TrialList	0	cvbn	-999999	18	230555	0	v	461	231016	124	-168	-44	-10	-56	12	10	6	5	41	0	0	0	0	4	4	2	2	0	4
Hungry_Donkey_bar_English_2	104	1	<?xml version="1.0"?>\n<Clock xmlns:dt="urn:schemas-microsoft-com:datatypes"><Description dt:dt="string">E-Prime Primary Realtime Clock</Description><StartTime><Timestamp dt:dt="int">0</Timestamp><DateUtc dt:dt="string">2015-05-09T15:26:51Z</DateUtc></StartTime><FrequencyChanges><FrequencyChange><Frequency dt:dt="r8">2597666</Frequency><Timestamp dt:dt="r8">7209604158</Timestamp><Current dt:dt="r8">0</Current><DateUtc dt:dt="string">2015-05-09T15:26:51Z</DateUtc></FrequencyChange></FrequencyChanges></Clock>\n	Hungry_Donkey_bar_English_2-104-1	59.973	-33	1.0.0.18	1	-1379819049	Standard	2.0.10.353	2.0.10.353	05-09-2015	5/9/2015 3:26:51 PM	11:26:51	2.0.10.248	42	Bar37-63.bmp	43	4	?	12r_4g.bmp	0r_4g.bmp	3r_2g.bmp	0r_2g.bmp				0r_2g.bmp	TrialProc	TrialList	0	cvbn	-999999	18	233056	0	n	920	233976	126	-168	-42	-10	-56	12	12	5	5	42	-12	0	-3	0	4	4	2	2	0	2
Hungry_Donkey_bar_English_2	104	1	<?xml version="1.0"?>\n<Clock xmlns:dt="urn:schemas-microsoft-com:datatypes"><Description dt:dt="string">E-Prime Primary Realtime Clock</Description><StartTime><Timestamp dt:dt="int">0</Timestamp><DateUtc dt:dt="string">2015-05-09T15:26:51Z</DateUtc></StartTime><FrequencyChanges><FrequencyChange><Frequency dt:dt="r8">2597666</Frequency><Timestamp dt:dt="r8">7209604158</Timestamp><Current dt:dt="r8">0</Current><DateUtc dt:dt="string">2015-05-09T15:26:51Z</DateUtc></FrequencyChange></FrequencyChanges></Clock>\n	Hungry_Donkey_bar_English_2-104-1	59.973	-33	1.0.0.18	1	-1379819049	Standard	2.0.10.353	2.0.10.353	05-09-2015	5/9/2015 3:26:51 PM	11:26:51	2.0.10.248	43	Bar37-63.bmp	37	2	?	8r_4g.bmp	50r_4g.bmp	1r_2g.bmp	10r_2g.bmp		50r_4g.bmp			TrialProc	TrialList	0	cvbn	-999999	17	236007	0	v	465	236472	130	-218	-88	-10	-102	12	12	1	5	43	-8	-50	-1	-10	4	4	2	2	-50	4
Hungry_Donkey_bar_English_2	104	1	<?xml version="1.0"?>\n<Clock xmlns:dt="urn:schemas-microsoft-com:datatypes"><Description dt:dt="string">E-Prime Primary Realtime Clock</Description><StartTime><Timestamp dt:dt="int">0</Timestamp><DateUtc dt:dt="string">2015-05-09T15:26:51Z</DateUtc></StartTime><FrequencyChanges><FrequencyChange><Frequency dt:dt="r8">2597666</Frequency><Timestamp dt:dt="r8">7209604158</Timestamp><Current dt:dt="r8">0</Current><DateUtc dt:dt="string">2015-05-09T15:26:51Z</DateUtc></FrequencyChange></FrequencyChanges></Clock>\n	Hungry_Donkey_bar_English_2-104-1	59.973	-33	1.0.0.18	1	-1379819049	Standard	2.0.10.353	2.0.10.353	05-09-2015	5/9/2015 3:26:51 PM	11:26:51	2.0.10.248	44	Bar37-63.bmp	38	3	?	0r_4g.bmp	0r_4g.bmp	0r_2g.bmp	0r_2g.bmp			0r_2g.bmp		TrialProc	TrialList	0	cvbn	-999999	18	238509	0	b	459	238968	132	-218	-86	-10	-102	14	12	8	5	44	0	0	0	0	4	4	2	2	0	2
Hungry_Donkey_bar_English_2	104	1	<?xml version="1.0"?>\n<Clock xmlns:dt="urn:schemas-microsoft-com:datatypes"><Description dt:dt="string">E-Prime Primary Realtime Clock</Description><StartTime><Timestamp dt:dt="int">0</Timestamp><DateUtc dt:dt="string">2015-05-09T15:26:51Z</DateUtc></StartTime><FrequencyChanges><FrequencyChange><Frequency dt:dt="r8">2597666</Frequency><Timestamp dt:dt="r8">7209604158</Timestamp><Current dt:dt="r8">0</Current><DateUtc dt:dt="string">2015-05-09T15:26:51Z</DateUtc></FrequencyChange></FrequencyChanges></Clock>\n	Hungry_Donkey_bar_English_2-104-1	59.973	-33	1.0.0.18	1	-1379819049	Standard	2.0.10.353	2.0.10.353	05-09-2015	5/9/2015 3:26:51 PM	11:26:51	2.0.10.248	45	Bar37-63.bmp	38	2	?	10r_4g.bmp	0r_4g.bmp	2r_2g.bmp	0r_2g.bmp		0r_4g.bmp			TrialProc	TrialList	0	cvbn	-999999	18	241010	0	v	470	241480	136	-218	-82	-10	-98	14	12	2	5	45	-10	0	-2	0	4	4	2	2	0	4
Hungry_Donkey_bar_English_2	104	1	<?xml version="1.0"?>\n<Clock xmlns:dt="urn:schemas-microsoft-com:datatypes"><Description dt:dt="string">E-Prime Primary Realtime Clock</Description><StartTime><Timestamp dt:dt="int">0</Timestamp><DateUtc dt:dt="string">2015-05-09T15:26:51Z</DateUtc></StartTime><FrequencyChanges><FrequencyChange><Frequency dt:dt="r8">2597666</Frequency><Timestamp dt:dt="r8">7209604158</Timestamp><Current dt:dt="r8">0</Current><DateUtc dt:dt="string">2015-05-09T15:26:51Z</DateUtc></FrequencyChange></FrequencyChanges></Clock>\n	Hungry_Donkey_bar_English_2-104-1	59.973	-33	1.0.0.18	1	-1379819049	Standard	2.0.10.353	2.0.10.353	05-09-2015	5/9/2015 3:26:51 PM	11:26:51	2.0.10.248	46	Bar37-63.bmp	39	1	?	0r_4g.bmp	0r_4g.bmp	0r_2g.bmp	0r_2g.bmp	0r_4g.bmp				TrialProc	TrialList	0	cvbn	-999999	18	243511	0	c	385	243896	140	-218	-78	-6	-98	14	12	7	5	46	0	0	0	0	4	4	2	2	0	4
Hungry_Donkey_bar_English_2	104	1	<?xml version="1.0"?>\n<Clock xmlns:dt="urn:schemas-microsoft-com:datatypes"><Description dt:dt="string">E-Prime Primary Realtime Clock</Description><StartTime><Timestamp dt:dt="int">0</Timestamp><DateUtc dt:dt="string">2015-05-09T15:26:51Z</DateUtc></StartTime><FrequencyChanges><FrequencyChange><Frequency dt:dt="r8">2597666</Frequency><Timestamp dt:dt="r8">7209604158</Timestamp><Current dt:dt="r8">0</Current><DateUtc dt:dt="string">2015-05-09T15:26:51Z</DateUtc></FrequencyChange></FrequencyChanges></Clock>\n	Hungry_Donkey_bar_English_2-104-1	59.973	-33	1.0.0.18	1	-1379819049	Standard	2.0.10.353	2.0.10.353	05-09-2015	5/9/2015 3:26:51 PM	11:26:51	2.0.10.248	47	Bar37-63.bmp	39	4	?	0r_4g.bmp	0r_4g.bmp	0r_2g.bmp	0r_2g.bmp				0r_2g.bmp	TrialProc	TrialList	0	cvbn	-999999	18	245929	0	n	799	246728	142	-218	-76	-6	-98	14	14	9	5	47	0	0	0	0	4	4	2	2	0	2
Hungry_Donkey_bar_English_2	104	1	<?xml version="1.0"?>\n<Clock xmlns:dt="urn:schemas-microsoft-com:datatypes"><Description dt:dt="string">E-Prime Primary Realtime Clock</Description><StartTime><Timestamp dt:dt="int">0</Timestamp><DateUtc dt:dt="string">2015-05-09T15:26:51Z</DateUtc></StartTime><FrequencyChanges><FrequencyChange><Frequency dt:dt="r8">2597666</Frequency><Timestamp dt:dt="r8">7209604158</Timestamp><Current dt:dt="r8">0</Current><DateUtc dt:dt="string">2015-05-09T15:26:51Z</DateUtc></FrequencyChange></FrequencyChanges></Clock>\n	Hungry_Donkey_bar_English_2-104-1	59.973	-33	1.0.0.18	1	-1379819049	Standard	2.0.10.353	2.0.10.353	05-09-2015	5/9/2015 3:26:51 PM	11:26:51	2.0.10.248	48	Bar37-63.bmp	40	3	?	10r_4g.bmp	0r_4g.bmp	2r_2g.bmp	0r_2g.bmp			2r_2g.bmp		TrialProc	TrialList	0	cvbn	-999999	17	248763	0	b	429	249192	144	-220	-76	-6	-98	14	14	3	5	48	-10	0	-2	0	4	4	2	2	-2	2
Hungry_Donkey_bar_English_2	104	1	<?xml version="1.0"?>\n<Clock xmlns:dt="urn:schemas-microsoft-com:datatypes"><Description dt:dt="string">E-Prime Primary Realtime Clock</Description><StartTime><Timestamp dt:dt="int">0</Timestamp><DateUtc dt:dt="string">2015-05-09T15:26:51Z</DateUtc></StartTime><FrequencyChanges><FrequencyChange><Frequency dt:dt="r8">2597666</Frequency><Timestamp dt:dt="r8">7209604158</Timestamp><Current dt:dt="r8">0</Current><DateUtc dt:dt="string">2015-05-09T15:26:51Z</DateUtc></FrequencyChange></FrequencyChanges></Clock>\n	Hungry_Donkey_bar_English_2-104-1	59.973	-33	1.0.0.18	1	-1379819049	Standard	2.0.10.353	2.0.10.353	05-09-2015	5/9/2015 3:26:51 PM	11:26:51	2.0.10.248	49	Bar37-63.bmp	40	2	?	0r_4g.bmp	0r_4g.bmp	0r_2g.bmp	0r_2g.bmp		0r_4g.bmp			TrialProc	TrialList	0	cvbn	-999999	18	251231	0	v	409	251640	148	-220	-72	-6	-94	14	14	10	5	49	0	0	0	0	4	4	2	2	0	4
Hungry_Donkey_bar_English_2	104	1	<?xml version="1.0"?>\n<Clock xmlns:dt="urn:schemas-microsoft-com:datatypes"><Description dt:dt="string">E-Prime Primary Realtime Clock</Description><StartTime><Timestamp dt:dt="int">0</Timestamp><DateUtc dt:dt="string">2015-05-09T15:26:51Z</DateUtc></StartTime><FrequencyChanges><FrequencyChange><Frequency dt:dt="r8">2597666</Frequency><Timestamp dt:dt="r8">7209604158</Timestamp><Current dt:dt="r8">0</Current><DateUtc dt:dt="string">2015-05-09T15:26:51Z</DateUtc></FrequencyChange></FrequencyChanges></Clock>\n	Hungry_Donkey_bar_English_2-104-1	59.973	-33	1.0.0.18	1	-1379819049	Standard	2.0.10.353	2.0.10.353	05-09-2015	5/9/2015 3:26:51 PM	11:26:51	2.0.10.248	50	Bar37-63.bmp	41	4	?	10r_4g.bmp	0r_4g.bmp	2r_2g.bmp	0r_2g.bmp				0r_2g.bmp	TrialProc	TrialList	0	cvbn	-999999	17	253682	0	n	454	254136	150	-220	-70	-6	-94	14	16	4	5	50	-10	0	-2	0	4	4	2	2	0	2
Hungry_Donkey_bar_English_2	104	1	<?xml version="1.0"?>\n<Clock xmlns:dt="urn:schemas-microsoft-com:datatypes"><Description dt:dt="string">E-Prime Primary Realtime Clock</Description><StartTime><Timestamp dt:dt="int">0</Timestamp><DateUtc dt:dt="string">2015-05-09T15:26:51Z</DateUtc></StartTime><FrequencyChanges><FrequencyChange><Frequency dt:dt="r8">2597666</Frequency><Timestamp dt:dt="r8">7209604158</Timestamp><Current dt:dt="r8">0</Current><DateUtc dt:dt="string">2015-05-09T15:26:51Z</DateUtc></FrequencyChange></FrequencyChanges></Clock>\n	Hungry_Donkey_bar_English_2-104-1	59.973	-33	1.0.0.18	1	-1379819049	Standard	2.0.10.353	2.0.10.353	05-09-2015	5/9/2015 3:26:51 PM	11:26:51	2.0.10.248	51	Bar37-63.bmp	40	1	?	10r_4g.bmp	0r_4g.bmp	2r_2g.bmp	0r_2g.bmp	10r_4g.bmp				TrialProc	TrialList	0	cvbn	-999999	18	256167	0	c	609	256776	154	-230	-76	-12	-94	14	16	4	6	51	-10	0	-2	0	4	4	2	2	-10	4
Hungry_Donkey_bar_English_2	104	1	<?xml version="1.0"?>\n<Clock xmlns:dt="urn:schemas-microsoft-com:datatypes"><Description dt:dt="string">E-Prime Primary Realtime Clock</Description><StartTime><Timestamp dt:dt="int">0</Timestamp><DateUtc dt:dt="string">2015-05-09T15:26:51Z</DateUtc></StartTime><FrequencyChanges><FrequencyChange><Frequency dt:dt="r8">2597666</Frequency><Timestamp dt:dt="r8">7209604158</Timestamp><Current dt:dt="r8">0</Current><DateUtc dt:dt="string">2015-05-09T15:26:51Z</DateUtc></FrequencyChange></FrequencyChanges></Clock>\n	Hungry_Donkey_bar_English_2-104-1	59.973	-33	1.0.0.18	1	-1379819049	Standard	2.0.10.353	2.0.10.353	05-09-2015	5/9/2015 3:26:51 PM	11:26:51	2.0.10.248	52	Bar37-63.bmp	41	2	?	10r_4g.bmp	0r_4g.bmp	2r_2g.bmp	0r_2g.bmp		0r_4g.bmp			TrialProc	TrialList	0	cvbn	-999999	18	258818	0	v	950	259768	158	-230	-72	-12	-90	14	16	3	6	52	-10	0	-2	0	4	4	2	2	0	4
Hungry_Donkey_bar_English_2	104	1	<?xml version="1.0"?>\n<Clock xmlns:dt="urn:schemas-microsoft-com:datatypes"><Description dt:dt="string">E-Prime Primary Realtime Clock</Description><StartTime><Timestamp dt:dt="int">0</Timestamp><DateUtc dt:dt="string">2015-05-09T15:26:51Z</DateUtc></StartTime><FrequencyChanges><FrequencyChange><Frequency dt:dt="r8">2597666</Frequency><Timestamp dt:dt="r8">7209604158</Timestamp><Current dt:dt="r8">0</Current><DateUtc dt:dt="string">2015-05-09T15:26:51Z</DateUtc></FrequencyChange></FrequencyChanges></Clock>\n	Hungry_Donkey_bar_English_2-104-1	59.973	-33	1.0.0.18	1	-1379819049	Standard	2.0.10.353	2.0.10.353	05-09-2015	5/9/2015 3:26:51 PM	11:26:51	2.0.10.248	53	Bar37-63.bmp	41	3	?	0r_4g.bmp	0r_4g.bmp	0r_2g.bmp	0r_2g.bmp			0r_2g.bmp		TrialProc	TrialList	0	cvbn	-999999	17	261802	0	b	606	262408	160	-230	-70	-12	-90	16	16	8	6	53	0	0	0	0	4	4	2	2	0	2
Hungry_Donkey_bar_English_2	104	1	<?xml version="1.0"?>\n<Clock xmlns:dt="urn:schemas-microsoft-com:datatypes"><Description dt:dt="string">E-Prime Primary Realtime Clock</Description><StartTime><Timestamp dt:dt="int">0</Timestamp><DateUtc dt:dt="string">2015-05-09T15:26:51Z</DateUtc></StartTime><FrequencyChanges><FrequencyChange><Frequency dt:dt="r8">2597666</Frequency><Timestamp dt:dt="r8">7209604158</Timestamp><Current dt:dt="r8">0</Current><DateUtc dt:dt="string">2015-05-09T15:26:51Z</DateUtc></FrequencyChange></FrequencyChanges></Clock>\n	Hungry_Donkey_bar_English_2-104-1	59.973	-33	1.0.0.18	1	-1379819049	Standard	2.0.10.353	2.0.10.353	05-09-2015	5/9/2015 3:26:51 PM	11:26:51	2.0.10.248	54	Bar37-63.bmp	37	2	?	8r_4g.bmp	50r_4g.bmp	1r_2g.bmp	10r_2g.bmp		50r_4g.bmp			TrialProc	TrialList	0	cvbn	-999999	18	264437	0	v	227	264664	164	-280	-116	-12	-136	16	16	1	6	54	-8	-50	-1	-10	4	4	2	2	-50	4
Hungry_Donkey_bar_English_2	104	1	<?xml version="1.0"?>\n<Clock xmlns:dt="urn:schemas-microsoft-com:datatypes"><Description dt:dt="string">E-Prime Primary Realtime Clock</Description><StartTime><Timestamp dt:dt="int">0</Timestamp><DateUtc dt:dt="string">2015-05-09T15:26:51Z</DateUtc></StartTime><FrequencyChanges><FrequencyChange><Frequency dt:dt="r8">2597666</Frequency><Timestamp dt:dt="r8">7209604158</Timestamp><Current dt:dt="r8">0</Current><DateUtc dt:dt="string">2015-05-09T15:26:51Z</DateUtc></FrequencyChange></FrequencyChanges></Clock>\n	Hungry_Donkey_bar_English_2-104-1	59.973	-33	1.0.0.18	1	-1379819049	Standard	2.0.10.353	2.0.10.353	05-09-2015	5/9/2015 3:26:51 PM	11:26:51	2.0.10.248	55	Bar37-63.bmp	37	3	?	10r_4g.bmp	0r_4g.bmp	2r_2g.bmp	0r_2g.bmp			2r_2g.bmp		TrialProc	TrialList	0	cvbn	-999999	18	266705	0	b	583	267288	166	-282	-116	-12	-136	16	16	2	6	55	-10	0	-2	0	4	4	2	2	-2	2
Hungry_Donkey_bar_English_2	104	1	<?xml version="1.0"?>\n<Clock xmlns:dt="urn:schemas-microsoft-com:datatypes"><Description dt:dt="string">E-Prime Primary Realtime Clock</Description><StartTime><Timestamp dt:dt="int">0</Timestamp><DateUtc dt:dt="string">2015-05-09T15:26:51Z</DateUtc></StartTime><FrequencyChanges><FrequencyChange><Frequency dt:dt="r8">2597666</Frequency><Timestamp dt:dt="r8">7209604158</Timestamp><Current dt:dt="r8">0</Current><DateUtc dt:dt="string">2015-05-09T15:26:51Z</DateUtc></FrequencyChange></FrequencyChanges></Clock>\n	Hungry_Donkey_bar_English_2-104-1	59.973	-33	1.0.0.18	1	-1379819049	Standard	2.0.10.353	2.0.10.353	05-09-2015	5/9/2015 3:26:51 PM	11:26:51	2.0.10.248	56	Bar37-63.bmp	38	2	?	12r_4g.bmp	0r_4g.bmp	3r_2g.bmp	0r_2g.bmp		0r_4g.bmp			TrialProc	TrialList	0	cvbn	-999999	18	269323	0	v	1037	270360	170	-282	-112	-12	-132	16	16	5	6	56	-12	0	-3	0	4	4	2	2	0	4
Hungry_Donkey_bar_English_2	104	1	<?xml version="1.0"?>\n<Clock xmlns:dt="urn:schemas-microsoft-com:datatypes"><Description dt:dt="string">E-Prime Primary Realtime Clock</Description><StartTime><Timestamp dt:dt="int">0</Timestamp><DateUtc dt:dt="string">2015-05-09T15:26:51Z</DateUtc></StartTime><FrequencyChanges><FrequencyChange><Frequency dt:dt="r8">2597666</Frequency><Timestamp dt:dt="r8">7209604158</Timestamp><Current dt:dt="r8">0</Current><DateUtc dt:dt="string">2015-05-09T15:26:51Z</DateUtc></FrequencyChange></FrequencyChanges></Clock>\n	Hungry_Donkey_bar_English_2-104-1	59.973	-33	1.0.0.18	1	-1379819049	Standard	2.0.10.353	2.0.10.353	05-09-2015	5/9/2015 3:26:51 PM	11:26:51	2.0.10.248	57	Bar37-63.bmp	38	4	?	0r_4g.bmp	0r_4g.bmp	0r_2g.bmp	0r_2g.bmp				0r_2g.bmp	TrialProc	TrialList	0	cvbn	-999999	18	272391	0	n	1057	273448	172	-282	-110	-12	-132	16	18	7	6	57	0	0	0	0	4	4	2	2	0	2
Hungry_Donkey_bar_English_2	104	1	<?xml version="1.0"?>\n<Clock xmlns:dt="urn:schemas-microsoft-com:datatypes"><Description dt:dt="string">E-Prime Primary Realtime Clock</Description><StartTime><Timestamp dt:dt="int">0</Timestamp><DateUtc dt:dt="string">2015-05-09T15:26:51Z</DateUtc></StartTime><FrequencyChanges><FrequencyChange><Frequency dt:dt="r8">2597666</Frequency><Timestamp dt:dt="r8">7209604158</Timestamp><Current dt:dt="r8">0</Current><DateUtc dt:dt="string">2015-05-09T15:26:51Z</DateUtc></FrequencyChange></FrequencyChanges></Clock>\n	Hungry_Donkey_bar_English_2-104-1	59.973	-33	1.0.0.18	1	-1379819049	Standard	2.0.10.353	2.0.10.353	05-09-2015	5/9/2015 3:26:51 PM	11:26:51	2.0.10.248	58	Bar37-63.bmp	38	1	?	0r_4g.bmp	0r_4g.bmp	0r_2g.bmp	0r_2g.bmp	0r_4g.bmp				TrialProc	TrialList	0	cvbn	-999999	18	275492	0	c	740	276232	176	-282	-106	-8	-132	16	18	6	6	58	0	0	0	0	4	4	2	2	0	4
Hungry_Donkey_bar_English_2	104	1	<?xml version="1.0"?>\n<Clock xmlns:dt="urn:schemas-microsoft-com:datatypes"><Description dt:dt="string">E-Prime Primary Realtime Clock</Description><StartTime><Timestamp dt:dt="int">0</Timestamp><DateUtc dt:dt="string">2015-05-09T15:26:51Z</DateUtc></StartTime><FrequencyChanges><FrequencyChange><Frequency dt:dt="r8">2597666</Frequency><Timestamp dt:dt="r8">7209604158</Timestamp><Current dt:dt="r8">0</Current><DateUtc dt:dt="string">2015-05-09T15:26:51Z</DateUtc></FrequencyChange></FrequencyChanges></Clock>\n	Hungry_Donkey_bar_English_2-104-1	59.973	-33	1.0.0.18	1	-1379819049	Standard	2.0.10.353	2.0.10.353	05-09-2015	5/9/2015 3:26:51 PM	11:26:51	2.0.10.248	59	Bar37-63.bmp	39	4	?	0r_4g.bmp	0r_4g.bmp	0r_2g.bmp	0r_2g.bmp				0r_2g.bmp	TrialProc	TrialList	0	cvbn	-999999	17	278260	0	n	916	279176	178	-282	-104	-8	-132	16	20	9	6	59	0	0	0	0	4	4	2	2	0	2
Hungry_Donkey_bar_English_2	104	1	<?xml version="1.0"?>\n<Clock xmlns:dt="urn:schemas-microsoft-com:datatypes"><Description dt:dt="string">E-Prime Primary Realtime Clock</Description><StartTime><Timestamp dt:dt="int">0</Timestamp><DateUtc dt:dt="string">2015-05-09T15:26:51Z</DateUtc></StartTime><FrequencyChanges><FrequencyChange><Frequency dt:dt="r8">2597666</Frequency><Timestamp dt:dt="r8">7209604158</Timestamp><Current dt:dt="r8">0</Current><DateUtc dt:dt="string">2015-05-09T15:26:51Z</DateUtc></FrequencyChange></FrequencyChanges></Clock>\n	Hungry_Donkey_bar_English_2-104-1	59.973	-33	1.0.0.18	1	-1379819049	Standard	2.0.10.353	2.0.10.353	05-09-2015	5/9/2015 3:26:51 PM	11:26:51	2.0.10.248	60	Bar37-63.bmp	39	3	?	0r_4g.bmp	0r_4g.bmp	0r_2g.bmp	0r_2g.bmp			0r_2g.bmp		TrialProc	TrialList	0	cvbn	-999999	17	281211	0	b	1325	282536	180	-282	-102	-8	-132	18	20	10	6	60	0	0	0	0	4	4	2	2	0	2
Hungry_Donkey_bar_English_2	104	1	<?xml version="1.0"?>\n<Clock xmlns:dt="urn:schemas-microsoft-com:datatypes"><Description dt:dt="string">E-Prime Primary Realtime Clock</Description><StartTime><Timestamp dt:dt="int">0</Timestamp><DateUtc dt:dt="string">2015-05-09T15:26:51Z</DateUtc></StartTime><FrequencyChanges><FrequencyChange><Frequency dt:dt="r8">2597666</Frequency><Timestamp dt:dt="r8">7209604158</Timestamp><Current dt:dt="r8">0</Current><DateUtc dt:dt="string">2015-05-09T15:26:51Z</DateUtc></FrequencyChange></FrequencyChanges></Clock>\n	Hungry_Donkey_bar_English_2-104-1	59.973	-33	1.0.0.18	1	-1379819049	Standard	2.0.10.353	2.0.10.353	05-09-2015	5/9/2015 3:26:51 PM	11:26:51	2.0.10.248	61	Bar37-63.bmp	39	2	?	0r_4g.bmp	0r_4g.bmp	0r_2g.bmp	0r_2g.bmp		0r_4g.bmp			TrialProc	TrialList	0	cvbn	-999999	18	284580	0	v	612	285192	184	-282	-98	-8	-128	18	20	7	7	61	0	0	0	0	4	4	2	2	0	4
Hungry_Donkey_bar_English_2	104	1	<?xml version="1.0"?>\n<Clock xmlns:dt="urn:schemas-microsoft-com:datatypes"><Description dt:dt="string">E-Prime Primary Realtime Clock</Description><StartTime><Timestamp dt:dt="int">0</Timestamp><DateUtc dt:dt="string">2015-05-09T15:26:51Z</DateUtc></StartTime><FrequencyChanges><FrequencyChange><Frequency dt:dt="r8">2597666</Frequency><Timestamp dt:dt="r8">7209604158</Timestamp><Current dt:dt="r8">0</Current><DateUtc dt:dt="string">2015-05-09T15:26:51Z</DateUtc></FrequencyChange></FrequencyChanges></Clock>\n	Hungry_Donkey_bar_English_2-104-1	59.973	-33	1.0.0.18	1	-1379819049	Standard	2.0.10.353	2.0.10.353	05-09-2015	5/9/2015 3:26:51 PM	11:26:51	2.0.10.248	62	Bar37-63.bmp	40	3	?	10r_4g.bmp	0r_4g.bmp	2r_2g.bmp	0r_2g.bmp			2r_2g.bmp		TrialProc	TrialList	0	cvbn	-999999	18	287231	0	b	137	287368	186	-284	-98	-8	-128	18	20	4	7	62	-10	0	-2	0	4	4	2	2	-2	2
Hungry_Donkey_bar_English_2	104	1	<?xml version="1.0"?>\n<Clock xmlns:dt="urn:schemas-microsoft-com:datatypes"><Description dt:dt="string">E-Prime Primary Realtime Clock</Description><StartTime><Timestamp dt:dt="int">0</Timestamp><DateUtc dt:dt="string">2015-05-09T15:26:51Z</DateUtc></StartTime><FrequencyChanges><FrequencyChange><Frequency dt:dt="r8">2597666</Frequency><Timestamp dt:dt="r8">7209604158</Timestamp><Current dt:dt="r8">0</Current><DateUtc dt:dt="string">2015-05-09T15:26:51Z</DateUtc></FrequencyChange></FrequencyChanges></Clock>\n	Hungry_Donkey_bar_English_2-104-1	59.973	-33	1.0.0.18	1	-1379819049	Standard	2.0.10.353	2.0.10.353	05-09-2015	5/9/2015 3:26:51 PM	11:26:51	2.0.10.248	63	Bar37-63.bmp	39	1	?	12r_4g.bmp	0r_4g.bmp	3r_2g.bmp	0r_2g.bmp	12r_4g.bmp				TrialProc	TrialList	0	cvbn	-999999	17	289398	0	c	306	289704	190	-296	-106	-16	-128	18	20	5	7	63	-12	0	-3	0	4	4	2	2	-12	4
Hungry_Donkey_bar_English_2	104	1	<?xml version="1.0"?>\n<Clock xmlns:dt="urn:schemas-microsoft-com:datatypes"><Description dt:dt="string">E-Prime Primary Realtime Clock</Description><StartTime><Timestamp dt:dt="int">0</Timestamp><DateUtc dt:dt="string">2015-05-09T15:26:51Z</DateUtc></StartTime><FrequencyChanges><FrequencyChange><Frequency dt:dt="r8">2597666</Frequency><Timestamp dt:dt="r8">7209604158</Timestamp><Current dt:dt="r8">0</Current><DateUtc dt:dt="string">2015-05-09T15:26:51Z</DateUtc></FrequencyChange></FrequencyChanges></Clock>\n	Hungry_Donkey_bar_English_2-104-1	59.973	-33	1.0.0.18	1	-1379819049	Standard	2.0.10.353	2.0.10.353	05-09-2015	5/9/2015 3:26:51 PM	11:26:51	2.0.10.248	64	Bar37-63.bmp	39	4	?	0r_4g.bmp	0r_4g.bmp	0r_2g.bmp	0r_2g.bmp				0r_2g.bmp	TrialProc	TrialList	0	cvbn	-999999	18	291733	0	n	2259	293992	192	-296	-104	-16	-128	18	22	6	7	64	0	0	0	0	4	4	2	2	0	2
Hungry_Donkey_bar_English_2	104	1	<?xml version="1.0"?>\n<Clock xmlns:dt="urn:schemas-microsoft-com:datatypes"><Description dt:dt="string">E-Prime Primary Realtime Clock</Description><StartTime><Timestamp dt:dt="int">0</Timestamp><DateUtc dt:dt="string">2015-05-09T15:26:51Z</DateUtc></StartTime><FrequencyChanges><FrequencyChange><Frequency dt:dt="r8">2597666</Frequency><Timestamp dt:dt="r8">7209604158</Timestamp><Current dt:dt="r8">0</Current><DateUtc dt:dt="string">2015-05-09T15:26:51Z</DateUtc></FrequencyChange></FrequencyChanges></Clock>\n	Hungry_Donkey_bar_English_2-104-1	59.973	-33	1.0.0.18	1	-1379819049	Standard	2.0.10.353	2.0.10.353	05-09-2015	5/9/2015 3:26:51 PM	11:26:51	2.0.10.248	65	Bar37-63.bmp	40	3	?	0r_4g.bmp	0r_4g.bmp	0r_2g.bmp	0r_2g.bmp			0r_2g.bmp		TrialProc	TrialList	0	cvbn	-999999	18	296035	0	b	389	296424	194	-296	-102	-16	-128	20	22	9	7	65	0	0	0	0	4	4	2	2	0	2
Hungry_Donkey_bar_English_2	104	1	<?xml version="1.0"?>\n<Clock xmlns:dt="urn:schemas-microsoft-com:datatypes"><Description dt:dt="string">E-Prime Primary Realtime Clock</Description><StartTime><Timestamp dt:dt="int">0</Timestamp><DateUtc dt:dt="string">2015-05-09T15:26:51Z</DateUtc></StartTime><FrequencyChanges><FrequencyChange><Frequency dt:dt="r8">2597666</Frequency><Timestamp dt:dt="r8">7209604158</Timestamp><Current dt:dt="r8">0</Current><DateUtc dt:dt="string">2015-05-09T15:26:51Z</DateUtc></FrequencyChange></FrequencyChanges></Clock>\n	Hungry_Donkey_bar_English_2-104-1	59.973	-33	1.0.0.18	1	-1379819049	Standard	2.0.10.353	2.0.10.353	05-09-2015	5/9/2015 3:26:51 PM	11:26:51	2.0.10.248	66	Bar37-63.bmp	40	2	?	10r_4g.bmp	0r_4g.bmp	2r_2g.bmp	0r_2g.bmp		0r_4g.bmp			TrialProc	TrialList	0	cvbn	-999999	18	298453	0	v	323	298776	198	-296	-98	-16	-124	20	22	2	7	66	-10	0	-2	0	4	4	2	2	0	4
Hungry_Donkey_bar_English_2	104	1	<?xml version="1.0"?>\n<Clock xmlns:dt="urn:schemas-microsoft-com:datatypes"><Description dt:dt="string">E-Prime Primary Realtime Clock</Description><StartTime><Timestamp dt:dt="int">0</Timestamp><DateUtc dt:dt="string">2015-05-09T15:26:51Z</DateUtc></StartTime><FrequencyChanges><FrequencyChange><Frequency dt:dt="r8">2597666</Frequency><Timestamp dt:dt="r8">7209604158</Timestamp><Current dt:dt="r8">0</Current><DateUtc dt:dt="string">2015-05-09T15:26:51Z</DateUtc></FrequencyChange></FrequencyChanges></Clock>\n	Hungry_Donkey_bar_English_2-104-1	59.973	-33	1.0.0.18	1	-1379819049	Standard	2.0.10.353	2.0.10.353	05-09-2015	5/9/2015 3:26:51 PM	11:26:51	2.0.10.248	67	Bar37-63.bmp	40	1	?	10r_4g.bmp	0r_4g.bmp	2r_2g.bmp	0r_2g.bmp	10r_4g.bmp				TrialProc	TrialList	0	cvbn	-999999	18	300804	0	c	548	301352	202	-306	-104	-22	-124	20	22	3	7	67	-10	0	-2	0	4	4	2	2	-10	4
Hungry_Donkey_bar_English_2	104	1	<?xml version="1.0"?>\n<Clock xmlns:dt="urn:schemas-microsoft-com:datatypes"><Description dt:dt="string">E-Prime Primary Realtime Clock</Description><StartTime><Timestamp dt:dt="int">0</Timestamp><DateUtc dt:dt="string">2015-05-09T15:26:51Z</DateUtc></StartTime><FrequencyChanges><FrequencyChange><Frequency dt:dt="r8">2597666</Frequency><Timestamp dt:dt="r8">7209604158</Timestamp><Current dt:dt="r8">0</Current><DateUtc dt:dt="string">2015-05-09T15:26:51Z</DateUtc></FrequencyChange></FrequencyChanges></Clock>\n	Hungry_Donkey_bar_English_2-104-1	59.973	-33	1.0.0.18	1	-1379819049	Standard	2.0.10.353	2.0.10.353	05-09-2015	5/9/2015 3:26:51 PM	11:26:51	2.0.10.248	68	Bar37-63.bmp	40	4	?	0r_4g.bmp	0r_4g.bmp	0r_2g.bmp	0r_2g.bmp				0r_2g.bmp	TrialProc	TrialList	0	cvbn	-999999	17	303388	0	n	1804	305192	204	-306	-102	-22	-124	20	24	10	7	68	0	0	0	0	4	4	2	2	0	2
Hungry_Donkey_bar_English_2	104	1	<?xml version="1.0"?>\n<Clock xmlns:dt="urn:schemas-microsoft-com:datatypes"><Description dt:dt="string">E-Prime Primary Realtime Clock</Description><StartTime><Timestamp dt:dt="int">0</Timestamp><DateUtc dt:dt="string">2015-05-09T15:26:51Z</DateUtc></StartTime><FrequencyChanges><FrequencyChange><Frequency dt:dt="r8">2597666</Frequency><Timestamp dt:dt="r8">7209604158</Timestamp><Current dt:dt="r8">0</Current><DateUtc dt:dt="string">2015-05-09T15:26:51Z</DateUtc></FrequencyChange></FrequencyChanges></Clock>\n	Hungry_Donkey_bar_English_2-104-1	59.973	-33	1.0.0.18	1	-1379819049	Standard	2.0.10.353	2.0.10.353	05-09-2015	5/9/2015 3:26:51 PM	11:26:51	2.0.10.248	69	Bar37-63.bmp	40	3	?	8r_4g.bmp	50r_4g.bmp	1r_2g.bmp	10r_2g.bmp			1r_2g.bmp		TrialProc	TrialList	0	cvbn	-999999	17	307223	0	b	353	307576	206	-307	-101	-22	-124	21	24	1	7	69	-8	-50	-1	-10	4	4	2	2	-1	2
Hungry_Donkey_bar_English_2	104	1	<?xml version="1.0"?>\n<Clock xmlns:dt="urn:schemas-microsoft-com:datatypes"><Description dt:dt="string">E-Prime Primary Realtime Clock</Description><StartTime><Timestamp dt:dt="int">0</Timestamp><DateUtc dt:dt="string">2015-05-09T15:26:51Z</DateUtc></StartTime><FrequencyChanges><FrequencyChange><Frequency dt:dt="r8">2597666</Frequency><Timestamp dt:dt="r8">7209604158</Timestamp><Current dt:dt="r8">0</Current><DateUtc dt:dt="string">2015-05-09T15:26:51Z</DateUtc></FrequencyChange></FrequencyChanges></Clock>\n	Hungry_Donkey_bar_English_2-104-1	59.973	-33	1.0.0.18	1	-1379819049	Standard	2.0.10.353	2.0.10.353	05-09-2015	5/9/2015 3:26:51 PM	11:26:51	2.0.10.248	70	Bar37-63.bmp	41	2	?	0r_4g.bmp	0r_4g.bmp	0r_2g.bmp	0r_2g.bmp		0r_4g.bmp			TrialProc	TrialList	0	cvbn	-999999	18	309658	0	v	366	310024	210	-307	-97	-22	-120	21	24	8	7	70	0	0	0	0	4	4	2	2	0	4
Hungry_Donkey_bar_English_2	104	1	<?xml version="1.0"?>\n<Clock xmlns:dt="urn:schemas-microsoft-com:datatypes"><Description dt:dt="string">E-Prime Primary Realtime Clock</Description><StartTime><Timestamp dt:dt="int">0</Timestamp><DateUtc dt:dt="string">2015-05-09T15:26:51Z</DateUtc></StartTime><FrequencyChanges><FrequencyChange><Frequency dt:dt="r8">2597666</Frequency><Timestamp dt:dt="r8">7209604158</Timestamp><Current dt:dt="r8">0</Current><DateUtc dt:dt="string">2015-05-09T15:26:51Z</DateUtc></FrequencyChange></FrequencyChanges></Clock>\n	Hungry_Donkey_bar_English_2-104-1	59.973	-33	1.0.0.18	1	-1379819049	Standard	2.0.10.353	2.0.10.353	05-09-2015	5/9/2015 3:26:51 PM	11:26:51	2.0.10.248	71	Bar37-63.bmp	41	3	?	0r_4g.bmp	0r_4g.bmp	0r_2g.bmp	0r_2g.bmp			0r_2g.bmp		TrialProc	TrialList	0	cvbn	-999999	18	312059	0	b	365	312424	212	-307	-95	-22	-120	23	24	6	8	71	0	0	0	0	4	4	2	2	0	2
Hungry_Donkey_bar_English_2	104	1	<?xml version="1.0"?>\n<Clock xmlns:dt="urn:schemas-microsoft-com:datatypes"><Description dt:dt="string">E-Prime Primary Realtime Clock</Description><StartTime><Timestamp dt:dt="int">0</Timestamp><DateUtc dt:dt="string">2015-05-09T15:26:51Z</DateUtc></StartTime><FrequencyChanges><FrequencyChange><Frequency dt:dt="r8">2597666</Frequency><Timestamp dt:dt="r8">7209604158</Timestamp><Current dt:dt="r8">0</Current><DateUtc dt:dt="string">2015-05-09T15:26:51Z</DateUtc></FrequencyChange></FrequencyChanges></Clock>\n	Hungry_Donkey_bar_English_2-104-1	59.973	-33	1.0.0.18	1	-1379819049	Standard	2.0.10.353	2.0.10.353	05-09-2015	5/9/2015 3:26:51 PM	11:26:51	2.0.10.248	72	Bar37-63.bmp	41	1	?	8r_4g.bmp	50r_4g.bmp	1r_2g.bmp	10r_2g.bmp	8r_4g.bmp				TrialProc	TrialList	0	cvbn	-999999	18	314460	0	c	427	314887	216	-315	-99	-26	-120	23	24	1	8	72	-8	-50	-1	-10	4	4	2	2	-8	4
Hungry_Donkey_bar_English_2	104	1	<?xml version="1.0"?>\n<Clock xmlns:dt="urn:schemas-microsoft-com:datatypes"><Description dt:dt="string">E-Prime Primary Realtime Clock</Description><StartTime><Timestamp dt:dt="int">0</Timestamp><DateUtc dt:dt="string">2015-05-09T15:26:51Z</DateUtc></StartTime><FrequencyChanges><FrequencyChange><Frequency dt:dt="r8">2597666</Frequency><Timestamp dt:dt="r8">7209604158</Timestamp><Current dt:dt="r8">0</Current><DateUtc dt:dt="string">2015-05-09T15:26:51Z</DateUtc></FrequencyChange></FrequencyChanges></Clock>\n	Hungry_Donkey_bar_English_2-104-1	59.973	-33	1.0.0.18	1	-1379819049	Standard	2.0.10.353	2.0.10.353	05-09-2015	5/9/2015 3:26:51 PM	11:26:51	2.0.10.248	73	Bar37-63.bmp	41	2	?	0r_4g.bmp	0r_4g.bmp	0r_2g.bmp	0r_2g.bmp		0r_4g.bmp			TrialProc	TrialList	0	cvbn	-999999	18	316928	0	v	503	317431	220	-315	-95	-26	-116	23	24	7	8	73	0	0	0	0	4	4	2	2	0	4
Hungry_Donkey_bar_English_2	104	1	<?xml version="1.0"?>\n<Clock xmlns:dt="urn:schemas-microsoft-com:datatypes"><Description dt:dt="string">E-Prime Primary Realtime Clock</Description><StartTime><Timestamp dt:dt="int">0</Timestamp><DateUtc dt:dt="string">2015-05-09T15:26:51Z</DateUtc></StartTime><FrequencyChanges><FrequencyChange><Frequency dt:dt="r8">2597666</Frequency><Timestamp dt:dt="r8">7209604158</Timestamp><Current dt:dt="r8">0</Current><DateUtc dt:dt="string">2015-05-09T15:26:51Z</DateUtc></FrequencyChange></FrequencyChanges></Clock>\n	Hungry_Donkey_bar_English_2-104-1	59.973	-33	1.0.0.18	1	-1379819049	Standard	2.0.10.353	2.0.10.353	05-09-2015	5/9/2015 3:26:51 PM	11:26:51	2.0.10.248	74	Bar37-63.bmp	41	3	?	12r_4g.bmp	0r_4g.bmp	3r_2g.bmp	0r_2g.bmp			3r_2g.bmp		TrialProc	TrialList	0	cvbn	-999999	17	319462	0	b	465	319927	222	-318	-96	-26	-116	22	24	5	8	74	-12	0	-3	0	4	4	2	2	-3	2
Hungry_Donkey_bar_English_2	104	1	<?xml version="1.0"?>\n<Clock xmlns:dt="urn:schemas-microsoft-com:datatypes"><Description dt:dt="string">E-Prime Primary Realtime Clock</Description><StartTime><Timestamp dt:dt="int">0</Timestamp><DateUtc dt:dt="string">2015-05-09T15:26:51Z</DateUtc></StartTime><FrequencyChanges><FrequencyChange><Frequency dt:dt="r8">2597666</Frequency><Timestamp dt:dt="r8">7209604158</Timestamp><Current dt:dt="r8">0</Current><DateUtc dt:dt="string">2015-05-09T15:26:51Z</DateUtc></FrequencyChange></FrequencyChanges></Clock>\n	Hungry_Donkey_bar_English_2-104-1	59.973	-33	1.0.0.18	1	-1379819049	Standard	2.0.10.353	2.0.10.353	05-09-2015	5/9/2015 3:26:51 PM	11:26:51	2.0.10.248	75	Bar37-63.bmp	41	4	?	10r_4g.bmp	0r_4g.bmp	2r_2g.bmp	0r_2g.bmp				0r_2g.bmp	TrialProc	TrialList	0	cvbn	-999999	17	321963	0	n	4284	326247	224	-318	-94	-26	-116	22	26	3	8	75	-10	0	-2	0	4	4	2	2	0	2
Hungry_Donkey_bar_English_2	104	1	<?xml version="1.0"?>\n<Clock xmlns:dt="urn:schemas-microsoft-com:datatypes"><Description dt:dt="string">E-Prime Primary Realtime Clock</Description><StartTime><Timestamp dt:dt="int">0</Timestamp><DateUtc dt:dt="string">2015-05-09T15:26:51Z</DateUtc></StartTime><FrequencyChanges><FrequencyChange><Frequency dt:dt="r8">2597666</Frequency><Timestamp dt:dt="r8">7209604158</Timestamp><Current dt:dt="r8">0</Current><DateUtc dt:dt="string">2015-05-09T15:26:51Z</DateUtc></FrequencyChange></FrequencyChanges></Clock>\n	Hungry_Donkey_bar_English_2-104-1	59.973	-33	1.0.0.18	1	-1379819049	Standard	2.0.10.353	2.0.10.353	05-09-2015	5/9/2015 3:26:51 PM	11:26:51	2.0.10.248	76	Bar37-63.bmp	42	4	?	10r_4g.bmp	0r_4g.bmp	2r_2g.bmp	0r_2g.bmp				0r_2g.bmp	TrialProc	TrialList	0	cvbn	-999999	18	328283	0	n	380	328663	226	-318	-92	-26	-116	22	28	4	8	76	-10	0	-2	0	4	4	2	2	0	2
Hungry_Donkey_bar_English_2	104	1	<?xml version="1.0"?>\n<Clock xmlns:dt="urn:schemas-microsoft-com:datatypes"><Description dt:dt="string">E-Prime Primary Realtime Clock</Description><StartTime><Timestamp dt:dt="int">0</Timestamp><DateUtc dt:dt="string">2015-05-09T15:26:51Z</DateUtc></StartTime><FrequencyChanges><FrequencyChange><Frequency dt:dt="r8">2597666</Frequency><Timestamp dt:dt="r8">7209604158</Timestamp><Current dt:dt="r8">0</Current><DateUtc dt:dt="string">2015-05-09T15:26:51Z</DateUtc></FrequencyChange></FrequencyChanges></Clock>\n	Hungry_Donkey_bar_English_2-104-1	59.973	-33	1.0.0.18	1	-1379819049	Standard	2.0.10.353	2.0.10.353	05-09-2015	5/9/2015 3:26:51 PM	11:26:51	2.0.10.248	77	Bar37-63.bmp	42	2	?	0r_4g.bmp	0r_4g.bmp	0r_2g.bmp	0r_2g.bmp		0r_4g.bmp			TrialProc	TrialList	0	cvbn	-999999	18	330701	0	v	1338	332039	230	-318	-88	-26	-112	22	28	8	8	77	0	0	0	0	4	4	2	2	0	4
Hungry_Donkey_bar_English_2	104	1	<?xml version="1.0"?>\n<Clock xmlns:dt="urn:schemas-microsoft-com:datatypes"><Description dt:dt="string">E-Prime Primary Realtime Clock</Description><StartTime><Timestamp dt:dt="int">0</Timestamp><DateUtc dt:dt="string">2015-05-09T15:26:51Z</DateUtc></StartTime><FrequencyChanges><FrequencyChange><Frequency dt:dt="r8">2597666</Frequency><Timestamp dt:dt="r8">7209604158</Timestamp><Current dt:dt="r8">0</Current><DateUtc dt:dt="string">2015-05-09T15:26:51Z</DateUtc></FrequencyChange></FrequencyChanges></Clock>\n	Hungry_Donkey_bar_English_2-104-1	59.973	-33	1.0.0.18	1	-1379819049	Standard	2.0.10.353	2.0.10.353	05-09-2015	5/9/2015 3:26:51 PM	11:26:51	2.0.10.248	78	Bar37-63.bmp	42	3	?	0r_4g.bmp	0r_4g.bmp	0r_2g.bmp	0r_2g.bmp			0r_2g.bmp		TrialProc	TrialList	0	cvbn	-999999	18	334069	0	b	546	334615	232	-318	-86	-26	-112	24	28	9	8	78	0	0	0	0	4	4	2	2	0	2
Hungry_Donkey_bar_English_2	104	1	<?xml version="1.0"?>\n<Clock xmlns:dt="urn:schemas-microsoft-com:datatypes"><Description dt:dt="string">E-Prime Primary Realtime Clock</Description><StartTime><Timestamp dt:dt="int">0</Timestamp><DateUtc dt:dt="string">2015-05-09T15:26:51Z</DateUtc></StartTime><FrequencyChanges><FrequencyChange><Frequency dt:dt="r8">2597666</Frequency><Timestamp dt:dt="r8">7209604158</Timestamp><Current dt:dt="r8">0</Current><DateUtc dt:dt="string">2015-05-09T15:26:51Z</DateUtc></FrequencyChange></FrequencyChanges></Clock>\n	Hungry_Donkey_bar_English_2-104-1	59.973	-33	1.0.0.18	1	-1379819049	Standard	2.0.10.353	2.0.10.353	05-09-2015	5/9/2015 3:26:51 PM	11:26:51	2.0.10.248	79	Bar37-63.bmp	42	4	?	0r_4g.bmp	0r_4g.bmp	0r_2g.bmp	0r_2g.bmp				0r_2g.bmp	TrialProc	TrialList	0	cvbn	-999999	17	336653	0	n	426	337079	234	-318	-84	-26	-112	24	30	10	8	79	0	0	0	0	4	4	2	2	0	2
Hungry_Donkey_bar_English_2	104	1	<?xml version="1.0"?>\n<Clock xmlns:dt="urn:schemas-microsoft-com:datatypes"><Description dt:dt="string">E-Prime Primary Realtime Clock</Description><StartTime><Timestamp dt:dt="int">0</Timestamp><DateUtc dt:dt="string">2015-05-09T15:26:51Z</DateUtc></StartTime><FrequencyChanges><FrequencyChange><Frequency dt:dt="r8">2597666</Frequency><Timestamp dt:dt="r8">7209604158</Timestamp><Current dt:dt="r8">0</Current><DateUtc dt:dt="string">2015-05-09T15:26:51Z</DateUtc></FrequencyChange></FrequencyChanges></Clock>\n	Hungry_Donkey_bar_English_2-104-1	59.973	-33	1.0.0.18	1	-1379819049	Standard	2.0.10.353	2.0.10.353	05-09-2015	5/9/2015 3:26:51 PM	11:26:51	2.0.10.248	80	Bar37-63.bmp	43	2	?	10r_4g.bmp	0r_4g.bmp	2r_2g.bmp	0r_2g.bmp		0r_4g.bmp			TrialProc	TrialList	0	cvbn	-999999	18	339121	0	v	438	339559	238	-318	-80	-26	-108	24	30	2	8	80	-10	0	-2	0	4	4	2	2	0	4
Hungry_Donkey_bar_English_2	104	1	<?xml version="1.0"?>\n<Clock xmlns:dt="urn:schemas-microsoft-com:datatypes"><Description dt:dt="string">E-Prime Primary Realtime Clock</Description><StartTime><Timestamp dt:dt="int">0</Timestamp><DateUtc dt:dt="string">2015-05-09T15:26:51Z</DateUtc></StartTime><FrequencyChanges><FrequencyChange><Frequency dt:dt="r8">2597666</Frequency><Timestamp dt:dt="r8">7209604158</Timestamp><Current dt:dt="r8">0</Current><DateUtc dt:dt="string">2015-05-09T15:26:51Z</DateUtc></FrequencyChange></FrequencyChanges></Clock>\n	Hungry_Donkey_bar_English_2-104-1	59.973	-33	1.0.0.18	1	-1379819049	Standard	2.0.10.353	2.0.10.353	05-09-2015	5/9/2015 3:26:51 PM	11:26:51	2.0.10.248	81	Bar37-63.bmp	43	3	?	10r_4g.bmp	0r_4g.bmp	2r_2g.bmp	0r_2g.bmp			2r_2g.bmp		TrialProc	TrialList	0	cvbn	-999999	18	341589	0	b	370	341959	240	-320	-80	-26	-108	24	30	3	9	81	-10	0	-2	0	4	4	2	2	-2	2
Hungry_Donkey_bar_English_2	104	1	<?xml version="1.0"?>\n<Clock xmlns:dt="urn:schemas-microsoft-com:datatypes"><Description dt:dt="string">E-Prime Primary Realtime Clock</Description><StartTime><Timestamp dt:dt="int">0</Timestamp><DateUtc dt:dt="string">2015-05-09T15:26:51Z</DateUtc></StartTime><FrequencyChanges><FrequencyChange><Frequency dt:dt="r8">2597666</Frequency><Timestamp dt:dt="r8">7209604158</Timestamp><Current dt:dt="r8">0</Current><DateUtc dt:dt="string">2015-05-09T15:26:51Z</DateUtc></FrequencyChange></FrequencyChanges></Clock>\n	Hungry_Donkey_bar_English_2-104-1	59.973	-33	1.0.0.18	1	-1379819049	Standard	2.0.10.353	2.0.10.353	05-09-2015	5/9/2015 3:26:51 PM	11:26:51	2.0.10.248	82	Bar37-63.bmp	43	4	?	0r_4g.bmp	0r_4g.bmp	0r_2g.bmp	0r_2g.bmp				0r_2g.bmp	TrialProc	TrialList	0	cvbn	-999999	18	343990	0	n	161	344151	242	-320	-78	-26	-108	24	32	8	9	82	0	0	0	0	4	4	2	2	0	2
Hungry_Donkey_bar_English_2	104	1	<?xml version="1.0"?>\n<Clock xmlns:dt="urn:schemas-microsoft-com:datatypes"><Description dt:dt="string">E-Prime Primary Realtime Clock</Description><StartTime><Timestamp dt:dt="int">0</Timestamp><DateUtc dt:dt="string">2015-05-09T15:26:51Z</DateUtc></StartTime><FrequencyChanges><FrequencyChange><Frequency dt:dt="r8">2597666</Frequency><Timestamp dt:dt="r8">7209604158</Timestamp><Current dt:dt="r8">0</Current><DateUtc dt:dt="string">2015-05-09T15:26:51Z</DateUtc></FrequencyChange></FrequencyChanges></Clock>\n	Hungry_Donkey_bar_English_2-104-1	59.973	-33	1.0.0.18	1	-1379819049	Standard	2.0.10.353	2.0.10.353	05-09-2015	5/9/2015 3:26:51 PM	11:26:51	2.0.10.248	83	Bar37-63.bmp	43	1	?	10r_4g.bmp	0r_4g.bmp	2r_2g.bmp	0r_2g.bmp	10r_4g.bmp				TrialProc	TrialList	0	cvbn	-999999	18	346191	0	c	40	346231	246	-330	-84	-32	-108	24	32	2	9	83	-10	0	-2	0	4	4	2	2	-10	4
Hungry_Donkey_bar_English_2	104	1	<?xml version="1.0"?>\n<Clock xmlns:dt="urn:schemas-microsoft-com:datatypes"><Description dt:dt="string">E-Prime Primary Realtime Clock</Description><StartTime><Timestamp dt:dt="int">0</Timestamp><DateUtc dt:dt="string">2015-05-09T15:26:51Z</DateUtc></StartTime><FrequencyChanges><FrequencyChange><Frequency dt:dt="r8">2597666</Frequency><Timestamp dt:dt="r8">7209604158</Timestamp><Current dt:dt="r8">0</Current><DateUtc dt:dt="string">2015-05-09T15:26:51Z</DateUtc></FrequencyChange></FrequencyChanges></Clock>\n	Hungry_Donkey_bar_English_2-104-1	59.973	-33	1.0.0.18	1	-1379819049	Standard	2.0.10.353	2.0.10.353	05-09-2015	5/9/2015 3:26:51 PM	11:26:51	2.0.10.248	84	Bar37-63.bmp	43	2	?	12r_4g.bmp	0r_4g.bmp	3r_2g.bmp	0r_2g.bmp		0r_4g.bmp			TrialProc	TrialList	0	cvbn	-999999	17	348275	0	v	116	348391	250	-330	-80	-32	-104	24	32	5	9	84	-12	0	-3	0	4	4	2	2	0	4
Hungry_Donkey_bar_English_2	104	1	<?xml version="1.0"?>\n<Clock xmlns:dt="urn:schemas-microsoft-com:datatypes"><Description dt:dt="string">E-Prime Primary Realtime Clock</Description><StartTime><Timestamp dt:dt="int">0</Timestamp><DateUtc dt:dt="string">2015-05-09T15:26:51Z</DateUtc></StartTime><FrequencyChanges><FrequencyChange><Frequency dt:dt="r8">2597666</Frequency><Timestamp dt:dt="r8">7209604158</Timestamp><Current dt:dt="r8">0</Current><DateUtc dt:dt="string">2015-05-09T15:26:51Z</DateUtc></FrequencyChange></FrequencyChanges></Clock>\n	Hungry_Donkey_bar_English_2-104-1	59.973	-33	1.0.0.18	1	-1379819049	Standard	2.0.10.353	2.0.10.353	05-09-2015	5/9/2015 3:26:51 PM	11:26:51	2.0.10.248	85	Bar37-63.bmp	43	3	?	8r_4g.bmp	50r_4g.bmp	1r_2g.bmp	10r_2g.bmp			1r_2g.bmp		TrialProc	TrialList	0	cvbn	-999999	17	350426	0	b	1005	351431	252	-331	-79	-32	-104	25	32	1	9	85	-8	-50	-1	-10	4	4	2	2	-1	2
Hungry_Donkey_bar_English_2	104	1	<?xml version="1.0"?>\n<Clock xmlns:dt="urn:schemas-microsoft-com:datatypes"><Description dt:dt="string">E-Prime Primary Realtime Clock</Description><StartTime><Timestamp dt:dt="int">0</Timestamp><DateUtc dt:dt="string">2015-05-09T15:26:51Z</DateUtc></StartTime><FrequencyChanges><FrequencyChange><Frequency dt:dt="r8">2597666</Frequency><Timestamp dt:dt="r8">7209604158</Timestamp><Current dt:dt="r8">0</Current><DateUtc dt:dt="string">2015-05-09T15:26:51Z</DateUtc></FrequencyChange></FrequencyChanges></Clock>\n	Hungry_Donkey_bar_English_2-104-1	59.973	-33	1.0.0.18	1	-1379819049	Standard	2.0.10.353	2.0.10.353	05-09-2015	5/9/2015 3:26:51 PM	11:26:51	2.0.10.248	86	Bar37-63.bmp	43	4	?	10r_4g.bmp	0r_4g.bmp	2r_2g.bmp	0r_2g.bmp				0r_2g.bmp	TrialProc	TrialList	0	cvbn	-999999	18	353461	0	n	66	353527	254	-331	-77	-32	-104	25	34	4	9	86	-10	0	-2	0	4	4	2	2	0	2
Hungry_Donkey_bar_English_2	104	1	<?xml version="1.0"?>\n<Clock xmlns:dt="urn:schemas-microsoft-com:datatypes"><Description dt:dt="string">E-Prime Primary Realtime Clock</Description><StartTime><Timestamp dt:dt="int">0</Timestamp><DateUtc dt:dt="string">2015-05-09T15:26:51Z</DateUtc></StartTime><FrequencyChanges><FrequencyChange><Frequency dt:dt="r8">2597666</Frequency><Timestamp dt:dt="r8">7209604158</Timestamp><Current dt:dt="r8">0</Current><DateUtc dt:dt="string">2015-05-09T15:26:51Z</DateUtc></FrequencyChange></FrequencyChanges></Clock>\n	Hungry_Donkey_bar_English_2-104-1	59.973	-33	1.0.0.18	1	-1379819049	Standard	2.0.10.353	2.0.10.353	05-09-2015	5/9/2015 3:26:51 PM	11:26:51	2.0.10.248	87	Bar50-50.bmp	44	3	?	0r_4g.bmp	0r_4g.bmp	0r_2g.bmp	0r_2g.bmp			0r_2g.bmp		TrialProc	TrialList	0	cvbn	-999999	18	355562	0	b	45	355607	256	-331	-75	-32	-104	27	34	9	9	87	0	0	0	0	4	4	2	2	0	2
Hungry_Donkey_bar_English_2	104	1	<?xml version="1.0"?>\n<Clock xmlns:dt="urn:schemas-microsoft-com:datatypes"><Description dt:dt="string">E-Prime Primary Realtime Clock</Description><StartTime><Timestamp dt:dt="int">0</Timestamp><DateUtc dt:dt="string">2015-05-09T15:26:51Z</DateUtc></StartTime><FrequencyChanges><FrequencyChange><Frequency dt:dt="r8">2597666</Frequency><Timestamp dt:dt="r8">7209604158</Timestamp><Current dt:dt="r8">0</Current><DateUtc dt:dt="string">2015-05-09T15:26:51Z</DateUtc></FrequencyChange></FrequencyChanges></Clock>\n	Hungry_Donkey_bar_English_2-104-1	59.973	-33	1.0.0.18	1	-1379819049	Standard	2.0.10.353	2.0.10.353	05-09-2015	5/9/2015 3:26:51 PM	11:26:51	2.0.10.248	88	Bar50-50.bmp	44	2	?	0r_4g.bmp	0r_4g.bmp	0r_2g.bmp	0r_2g.bmp		0r_4g.bmp			TrialProc	TrialList	0	cvbn	-999999	17	357646	0	v	105	357751	260	-331	-71	-32	-100	27	34	10	9	88	0	0	0	0	4	4	2	2	0	4
Hungry_Donkey_bar_English_2	104	1	<?xml version="1.0"?>\n<Clock xmlns:dt="urn:schemas-microsoft-com:datatypes"><Description dt:dt="string">E-Prime Primary Realtime Clock</Description><StartTime><Timestamp dt:dt="int">0</Timestamp><DateUtc dt:dt="string">2015-05-09T15:26:51Z</DateUtc></StartTime><FrequencyChanges><FrequencyChange><Frequency dt:dt="r8">2597666</Frequency><Timestamp dt:dt="r8">7209604158</Timestamp><Current dt:dt="r8">0</Current><DateUtc dt:dt="string">2015-05-09T15:26:51Z</DateUtc></FrequencyChange></FrequencyChanges></Clock>\n	Hungry_Donkey_bar_English_2-104-1	59.973	-33	1.0.0.18	1	-1379819049	Standard	2.0.10.353	2.0.10.353	05-09-2015	5/9/2015 3:26:51 PM	11:26:51	2.0.10.248	89	Bar50-50.bmp	44	1	?	0r_4g.bmp	0r_4g.bmp	0r_2g.bmp	0r_2g.bmp	0r_4g.bmp				TrialProc	TrialList	0	cvbn	-999999	17	359780	0	c	403	360183	264	-331	-67	-28	-100	27	34	6	9	89	0	0	0	0	4	4	2	2	0	4
Hungry_Donkey_bar_English_2	104	1	<?xml version="1.0"?>\n<Clock xmlns:dt="urn:schemas-microsoft-com:datatypes"><Description dt:dt="string">E-Prime Primary Realtime Clock</Description><StartTime><Timestamp dt:dt="int">0</Timestamp><DateUtc dt:dt="string">2015-05-09T15:26:51Z</DateUtc></StartTime><FrequencyChanges><FrequencyChange><Frequency dt:dt="r8">2597666</Frequency><Timestamp dt:dt="r8">7209604158</Timestamp><Current dt:dt="r8">0</Current><DateUtc dt:dt="string">2015-05-09T15:26:51Z</DateUtc></FrequencyChange></FrequencyChanges></Clock>\n	Hungry_Donkey_bar_English_2-104-1	59.973	-33	1.0.0.18	1	-1379819049	Standard	2.0.10.353	2.0.10.353	05-09-2015	5/9/2015 3:26:51 PM	11:26:51	2.0.10.248	90	Bar50-50.bmp	45	3	?	0r_4g.bmp	0r_4g.bmp	0r_2g.bmp	0r_2g.bmp			0r_2g.bmp		TrialProc	TrialList	0	cvbn	-999999	18	362215	0	b	144	362359	266	-331	-65	-28	-100	29	34	7	9	90	0	0	0	0	4	4	2	2	0	2
Hungry_Donkey_bar_English_2	104	1	<?xml version="1.0"?>\n<Clock xmlns:dt="urn:schemas-microsoft-com:datatypes"><Description dt:dt="string">E-Prime Primary Realtime Clock</Description><StartTime><Timestamp dt:dt="int">0</Timestamp><DateUtc dt:dt="string">2015-05-09T15:26:51Z</DateUtc></StartTime><FrequencyChanges><FrequencyChange><Frequency dt:dt="r8">2597666</Frequency><Timestamp dt:dt="r8">7209604158</Timestamp><Current dt:dt="r8">0</Current><DateUtc dt:dt="string">2015-05-09T15:26:51Z</DateUtc></FrequencyChange></FrequencyChanges></Clock>\n	Hungry_Donkey_bar_English_2-104-1	59.973	-33	1.0.0.18	1	-1379819049	Standard	2.0.10.353	2.0.10.353	05-09-2015	5/9/2015 3:26:51 PM	11:26:51	2.0.10.248	91	Bar50-50.bmp	45	2	?	0r_4g.bmp	0r_4g.bmp	0r_2g.bmp	0r_2g.bmp		0r_4g.bmp			TrialProc	TrialList	0	cvbn	-999999	17	364399	0	v	56	364455	270	-331	-61	-28	-96	29	34	9	10	91	0	0	0	0	4	4	2	2	0	4
Hungry_Donkey_bar_English_2	104	1	<?xml version="1.0"?>\n<Clock xmlns:dt="urn:schemas-microsoft-com:datatypes"><Description dt:dt="string">E-Prime Primary Realtime Clock</Description><StartTime><Timestamp dt:dt="int">0</Timestamp><DateUtc dt:dt="string">2015-05-09T15:26:51Z</DateUtc></StartTime><FrequencyChanges><FrequencyChange><Frequency dt:dt="r8">2597666</Frequency><Timestamp dt:dt="r8">7209604158</Timestamp><Current dt:dt="r8">0</Current><DateUtc dt:dt="string">2015-05-09T15:26:51Z</DateUtc></FrequencyChange></FrequencyChanges></Clock>\n	Hungry_Donkey_bar_English_2-104-1	59.973	-33	1.0.0.18	1	-1379819049	Standard	2.0.10.353	2.0.10.353	05-09-2015	5/9/2015 3:26:51 PM	11:26:51	2.0.10.248	92	Bar50-50.bmp	45	4	?	0r_4g.bmp	0r_4g.bmp	0r_2g.bmp	0r_2g.bmp				0r_2g.bmp	TrialProc	TrialList	0	cvbn	-999999	18	366484	0	n	531	367015	272	-331	-59	-28	-96	29	36	7	10	92	0	0	0	0	4	4	2	2	0	2
Hungry_Donkey_bar_English_2	104	1	<?xml version="1.0"?>\n<Clock xmlns:dt="urn:schemas-microsoft-com:datatypes"><Description dt:dt="string">E-Prime Primary Realtime Clock</Description><StartTime><Timestamp dt:dt="int">0</Timestamp><DateUtc dt:dt="string">2015-05-09T15:26:51Z</DateUtc></StartTime><FrequencyChanges><FrequencyChange><Frequency dt:dt="r8">2597666</Frequency><Timestamp dt:dt="r8">7209604158</Timestamp><Current dt:dt="r8">0</Current><DateUtc dt:dt="string">2015-05-09T15:26:51Z</DateUtc></FrequencyChange></FrequencyChanges></Clock>\n	Hungry_Donkey_bar_English_2-104-1	59.973	-33	1.0.0.18	1	-1379819049	Standard	2.0.10.353	2.0.10.353	05-09-2015	5/9/2015 3:26:51 PM	11:26:51	2.0.10.248	93	Bar50-50.bmp	45	3	?	0r_4g.bmp	0r_4g.bmp	0r_2g.bmp	0r_2g.bmp			0r_2g.bmp		TrialProc	TrialList	0	cvbn	-999999	17	369051	0	b	444	369495	274	-331	-57	-28	-96	31	36	8	10	93	0	0	0	0	4	4	2	2	0	2
Hungry_Donkey_bar_English_2	104	1	<?xml version="1.0"?>\n<Clock xmlns:dt="urn:schemas-microsoft-com:datatypes"><Description dt:dt="string">E-Prime Primary Realtime Clock</Description><StartTime><Timestamp dt:dt="int">0</Timestamp><DateUtc dt:dt="string">2015-05-09T15:26:51Z</DateUtc></StartTime><FrequencyChanges><FrequencyChange><Frequency dt:dt="r8">2597666</Frequency><Timestamp dt:dt="r8">7209604158</Timestamp><Current dt:dt="r8">0</Current><DateUtc dt:dt="string">2015-05-09T15:26:51Z</DateUtc></FrequencyChange></FrequencyChanges></Clock>\n	Hungry_Donkey_bar_English_2-104-1	59.973	-33	1.0.0.18	1	-1379819049	Standard	2.0.10.353	2.0.10.353	05-09-2015	5/9/2015 3:26:51 PM	11:26:51	2.0.10.248	94	Bar50-50.bmp	46	2	?	12r_4g.bmp	0r_4g.bmp	3r_2g.bmp	0r_2g.bmp		0r_4g.bmp			TrialProc	TrialList	0	cvbn	-999999	18	371536	0	v	375	371911	278	-331	-53	-28	-92	31	36	5	10	94	-12	0	-3	0	4	4	2	2	0	4
Hungry_Donkey_bar_English_2	104	1	<?xml version="1.0"?>\n<Clock xmlns:dt="urn:schemas-microsoft-com:datatypes"><Description dt:dt="string">E-Prime Primary Realtime Clock</Description><StartTime><Timestamp dt:dt="int">0</Timestamp><DateUtc dt:dt="string">2015-05-09T15:26:51Z</DateUtc></StartTime><FrequencyChanges><FrequencyChange><Frequency dt:dt="r8">2597666</Frequency><Timestamp dt:dt="r8">7209604158</Timestamp><Current dt:dt="r8">0</Current><DateUtc dt:dt="string">2015-05-09T15:26:51Z</DateUtc></FrequencyChange></FrequencyChanges></Clock>\n	Hungry_Donkey_bar_English_2-104-1	59.973	-33	1.0.0.18	1	-1379819049	Standard	2.0.10.353	2.0.10.353	05-09-2015	5/9/2015 3:26:51 PM	11:26:51	2.0.10.248	95	Bar50-50.bmp	46	4	?	0r_4g.bmp	0r_4g.bmp	0r_2g.bmp	0r_2g.bmp				0r_2g.bmp	TrialProc	TrialList	0	cvbn	-999999	18	373954	0	n	309	374263	280	-331	-51	-28	-92	31	38	6	10	95	0	0	0	0	4	4	2	2	0	2
Hungry_Donkey_bar_English_2	104	1	<?xml version="1.0"?>\n<Clock xmlns:dt="urn:schemas-microsoft-com:datatypes"><Description dt:dt="string">E-Prime Primary Realtime Clock</Description><StartTime><Timestamp dt:dt="int">0</Timestamp><DateUtc dt:dt="string">2015-05-09T15:26:51Z</DateUtc></StartTime><FrequencyChanges><FrequencyChange><Frequency dt:dt="r8">2597666</Frequency><Timestamp dt:dt="r8">7209604158</Timestamp><Current dt:dt="r8">0</Current><DateUtc dt:dt="string">2015-05-09T15:26:51Z</DateUtc></FrequencyChange></FrequencyChanges></Clock>\n	Hungry_Donkey_bar_English_2-104-1	59.973	-33	1.0.0.18	1	-1379819049	Standard	2.0.10.353	2.0.10.353	05-09-2015	5/9/2015 3:26:51 PM	11:26:51	2.0.10.248	96	Bar50-50.bmp	46	3	?	10r_4g.bmp	0r_4g.bmp	2r_2g.bmp	0r_2g.bmp			2r_2g.bmp		TrialProc	TrialList	0	cvbn	-999999	18	376305	0	b	182	376487	282	-333	-51	-28	-92	31	38	4	10	96	-10	0	-2	0	4	4	2	2	-2	2
Hungry_Donkey_bar_English_2	104	1	<?xml version="1.0"?>\n<Clock xmlns:dt="urn:schemas-microsoft-com:datatypes"><Description dt:dt="string">E-Prime Primary Realtime Clock</Description><StartTime><Timestamp dt:dt="int">0</Timestamp><DateUtc dt:dt="string">2015-05-09T15:26:51Z</DateUtc></StartTime><FrequencyChanges><FrequencyChange><Frequency dt:dt="r8">2597666</Frequency><Timestamp dt:dt="r8">7209604158</Timestamp><Current dt:dt="r8">0</Current><DateUtc dt:dt="string">2015-05-09T15:26:51Z</DateUtc></FrequencyChange></FrequencyChanges></Clock>\n	Hungry_Donkey_bar_English_2-104-1	59.973	-33	1.0.0.18	1	-1379819049	Standard	2.0.10.353	2.0.10.353	05-09-2015	5/9/2015 3:26:51 PM	11:26:51	2.0.10.248	97	Bar50-50.bmp	46	1	?	8r_4g.bmp	50r_4g.bmp	1r_2g.bmp	10r_2g.bmp	8r_4g.bmp				TrialProc	TrialList	0	cvbn	-999999	17	378522	0	c	477	378999	286	-341	-55	-32	-92	31	38	1	10	97	-8	-50	-1	-10	4	4	2	2	-8	4
Hungry_Donkey_bar_English_2	104	1	<?xml version="1.0"?>\n<Clock xmlns:dt="urn:schemas-microsoft-com:datatypes"><Description dt:dt="string">E-Prime Primary Realtime Clock</Description><StartTime><Timestamp dt:dt="int">0</Timestamp><DateUtc dt:dt="string">2015-05-09T15:26:51Z</DateUtc></StartTime><FrequencyChanges><FrequencyChange><Frequency dt:dt="r8">2597666</Frequency><Timestamp dt:dt="r8">7209604158</Timestamp><Current dt:dt="r8">0</Current><DateUtc dt:dt="string">2015-05-09T15:26:51Z</DateUtc></FrequencyChange></FrequencyChanges></Clock>\n	Hungry_Donkey_bar_English_2-104-1	59.973	-33	1.0.0.18	1	-1379819049	Standard	2.0.10.353	2.0.10.353	05-09-2015	5/9/2015 3:26:51 PM	11:26:51	2.0.10.248	98	Bar50-50.bmp	46	2	?	0r_4g.bmp	0r_4g.bmp	0r_2g.bmp	0r_2g.bmp		0r_4g.bmp			TrialProc	TrialList	0	cvbn	-999999	17	381040	0	v	391	381431	290	-341	-51	-32	-88	31	38	10	10	98	0	0	0	0	4	4	2	2	0	4
Hungry_Donkey_bar_English_2	104	1	<?xml version="1.0"?>\n<Clock xmlns:dt="urn:schemas-microsoft-com:datatypes"><Description dt:dt="string">E-Prime Primary Realtime Clock</Description><StartTime><Timestamp dt:dt="int">0</Timestamp><DateUtc dt:dt="string">2015-05-09T15:26:51Z</DateUtc></StartTime><FrequencyChanges><FrequencyChange><Frequency dt:dt="r8">2597666</Frequency><Timestamp dt:dt="r8">7209604158</Timestamp><Current dt:dt="r8">0</Current><DateUtc dt:dt="string">2015-05-09T15:26:51Z</DateUtc></FrequencyChange></FrequencyChanges></Clock>\n	Hungry_Donkey_bar_English_2-104-1	59.973	-33	1.0.0.18	1	-1379819049	Standard	2.0.10.353	2.0.10.353	05-09-2015	5/9/2015 3:26:51 PM	11:26:51	2.0.10.248	99	Bar50-50.bmp	46	3	?	10r_4g.bmp	0r_4g.bmp	2r_2g.bmp	0r_2g.bmp			2r_2g.bmp		TrialProc	TrialList	0	cvbn	-999999	18	383475	0	b	484	383959	292	-343	-51	-32	-88	31	38	3	10	99	-10	0	-2	0	4	4	2	2	-2	2
Hungry_Donkey_bar_English_2	104	1	<?xml version="1.0"?>\n<Clock xmlns:dt="urn:schemas-microsoft-com:datatypes"><Description dt:dt="string">E-Prime Primary Realtime Clock</Description><StartTime><Timestamp dt:dt="int">0</Timestamp><DateUtc dt:dt="string">2015-05-09T15:26:51Z</DateUtc></StartTime><FrequencyChanges><FrequencyChange><Frequency dt:dt="r8">2597666</Frequency><Timestamp dt:dt="r8">7209604158</Timestamp><Current dt:dt="r8">0</Current><DateUtc dt:dt="string">2015-05-09T15:26:51Z</DateUtc></FrequencyChange></FrequencyChanges></Clock>\n	Hungry_Donkey_bar_English_2-104-1	59.973	-33	1.0.0.18	1	-1379819049	Standard	2.0.10.353	2.0.10.353	05-09-2015	5/9/2015 3:26:51 PM	11:26:51	2.0.10.248	100	Bar50-50.bmp	46	4	?	10r_4g.bmp	0r_4g.bmp	2r_2g.bmp	0r_2g.bmp				0r_2g.bmp	TrialProc	TrialList	0	cvbn	-999999	17	385992	0	n	191	386183	294	-343	-49	-32	-88	31	40	2	10	100	-10	0	-2	0	4	4	2	2	0	2
Hungry_Donkey_bar_English_2	104	1	<?xml version="1.0"?>\n<Clock xmlns:dt="urn:schemas-microsoft-com:datatypes"><Description dt:dt="string">E-Prime Primary Realtime Clock</Description><StartTime><Timestamp dt:dt="int">0</Timestamp><DateUtc dt:dt="string">2015-05-09T15:26:51Z</DateUtc></StartTime><FrequencyChanges><FrequencyChange><Frequency dt:dt="r8">2597666</Frequency><Timestamp dt:dt="r8">7209604158</Timestamp><Current dt:dt="r8">0</Current><DateUtc dt:dt="string">2015-05-09T15:26:51Z</DateUtc></FrequencyChange></FrequencyChanges></Clock>\n	Hungry_Donkey_bar_English_2-104-1	59.973	-33	1.0.0.18	1	-1379819049	Standard	2.0.10.353	2.0.10.353	05-09-2015	5/9/2015 3:26:51 PM	11:26:51	2.0.10.248	101	Bar50-50.bmp	46	2	?	0r_4g.bmp	0r_4g.bmp	0r_2g.bmp	0r_2g.bmp		0r_4g.bmp			TrialProc	TrialList	0	cvbn	-999999	17	388210	0	v	853	389063	298	-343	-45	-32	-84	31	40	8	11	101	0	0	0	0	4	4	2	2	0	4
Hungry_Donkey_bar_English_2	104	1	<?xml version="1.0"?>\n<Clock xmlns:dt="urn:schemas-microsoft-com:datatypes"><Description dt:dt="string">E-Prime Primary Realtime Clock</Description><StartTime><Timestamp dt:dt="int">0</Timestamp><DateUtc dt:dt="string">2015-05-09T15:26:51Z</DateUtc></StartTime><FrequencyChanges><FrequencyChange><Frequency dt:dt="r8">2597666</Frequency><Timestamp dt:dt="r8">7209604158</Timestamp><Current dt:dt="r8">0</Current><DateUtc dt:dt="string">2015-05-09T15:26:51Z</DateUtc></FrequencyChange></FrequencyChanges></Clock>\n	Hungry_Donkey_bar_English_2-104-1	59.973	-33	1.0.0.18	1	-1379819049	Standard	2.0.10.353	2.0.10.353	05-09-2015	5/9/2015 3:26:51 PM	11:26:51	2.0.10.248	102	Bar50-50.bmp	47	3	?	10r_4g.bmp	0r_4g.bmp	2r_2g.bmp	0r_2g.bmp			2r_2g.bmp		TrialProc	TrialList	0	cvbn	-999999	18	391095	0	b	720	391815	300	-345	-45	-32	-84	31	40	4	11	102	-10	0	-2	0	4	4	2	2	-2	2
Hungry_Donkey_bar_English_2	104	1	<?xml version="1.0"?>\n<Clock xmlns:dt="urn:schemas-microsoft-com:datatypes"><Description dt:dt="string">E-Prime Primary Realtime Clock</Description><StartTime><Timestamp dt:dt="int">0</Timestamp><DateUtc dt:dt="string">2015-05-09T15:26:51Z</DateUtc></StartTime><FrequencyChanges><FrequencyChange><Frequency dt:dt="r8">2597666</Frequency><Timestamp dt:dt="r8">7209604158</Timestamp><Current dt:dt="r8">0</Current><DateUtc dt:dt="string">2015-05-09T15:26:51Z</DateUtc></FrequencyChange></FrequencyChanges></Clock>\n	Hungry_Donkey_bar_English_2-104-1	59.973	-33	1.0.0.18	1	-1379819049	Standard	2.0.10.353	2.0.10.353	05-09-2015	5/9/2015 3:26:51 PM	11:26:51	2.0.10.248	103	Bar50-50.bmp	47	4	?	10r_4g.bmp	0r_4g.bmp	2r_2g.bmp	0r_2g.bmp				0r_2g.bmp	TrialProc	TrialList	0	cvbn	-999999	18	393846	0	n	481	394327	302	-345	-43	-32	-84	31	42	2	11	103	-10	0	-2	0	4	4	2	2	0	2
Hungry_Donkey_bar_English_2	104	1	<?xml version="1.0"?>\n<Clock xmlns:dt="urn:schemas-microsoft-com:datatypes"><Description dt:dt="string">E-Prime Primary Realtime Clock</Description><StartTime><Timestamp dt:dt="int">0</Timestamp><DateUtc dt:dt="string">2015-05-09T15:26:51Z</DateUtc></StartTime><FrequencyChanges><FrequencyChange><Frequency dt:dt="r8">2597666</Frequency><Timestamp dt:dt="r8">7209604158</Timestamp><Current dt:dt="r8">0</Current><DateUtc dt:dt="string">2015-05-09T15:26:51Z</DateUtc></FrequencyChange></FrequencyChanges></Clock>\n	Hungry_Donkey_bar_English_2-104-1	59.973	-33	1.0.0.18	1	-1379819049	Standard	2.0.10.353	2.0.10.353	05-09-2015	5/9/2015 3:26:51 PM	11:26:51	2.0.10.248	104	Bar50-50.bmp	47	4	?	0r_4g.bmp	0r_4g.bmp	0r_2g.bmp	0r_2g.bmp				0r_2g.bmp	TrialProc	TrialList	0	cvbn	-999999	18	396364	0	n	715	397079	304	-345	-41	-32	-84	31	44	9	11	104	0	0	0	0	4	4	2	2	0	2
Hungry_Donkey_bar_English_2	104	1	<?xml version="1.0"?>\n<Clock xmlns:dt="urn:schemas-microsoft-com:datatypes"><Description dt:dt="string">E-Prime Primary Realtime Clock</Description><StartTime><Timestamp dt:dt="int">0</Timestamp><DateUtc dt:dt="string">2015-05-09T15:26:51Z</DateUtc></StartTime><FrequencyChanges><FrequencyChange><Frequency dt:dt="r8">2597666</Frequency><Timestamp dt:dt="r8">7209604158</Timestamp><Current dt:dt="r8">0</Current><DateUtc dt:dt="string">2015-05-09T15:26:51Z</DateUtc></FrequencyChange></FrequencyChanges></Clock>\n	Hungry_Donkey_bar_English_2-104-1	59.973	-33	1.0.0.18	1	-1379819049	Standard	2.0.10.353	2.0.10.353	05-09-2015	5/9/2015 3:26:51 PM	11:26:51	2.0.10.248	105	Bar50-50.bmp	47	4	?	0r_4g.bmp	0r_4g.bmp	0r_2g.bmp	0r_2g.bmp				0r_2g.bmp	TrialProc	TrialList	0	cvbn	-999999	17	399115	0	n	444	399559	306	-345	-39	-32	-84	31	46	10	11	105	0	0	0	0	4	4	2	2	0	2
Hungry_Donkey_bar_English_2	104	1	<?xml version="1.0"?>\n<Clock xmlns:dt="urn:schemas-microsoft-com:datatypes"><Description dt:dt="string">E-Prime Primary Realtime Clock</Description><StartTime><Timestamp dt:dt="int">0</Timestamp><DateUtc dt:dt="string">2015-05-09T15:26:51Z</DateUtc></StartTime><FrequencyChanges><FrequencyChange><Frequency dt:dt="r8">2597666</Frequency><Timestamp dt:dt="r8">7209604158</Timestamp><Current dt:dt="r8">0</Current><DateUtc dt:dt="string">2015-05-09T15:26:51Z</DateUtc></FrequencyChange></FrequencyChanges></Clock>\n	Hungry_Donkey_bar_English_2-104-1	59.973	-33	1.0.0.18	1	-1379819049	Standard	2.0.10.353	2.0.10.353	05-09-2015	5/9/2015 3:26:51 PM	11:26:51	2.0.10.248	106	Bar50-50.bmp	47	4	?	10r_4g.bmp	0r_4g.bmp	2r_2g.bmp	0r_2g.bmp				0r_2g.bmp	TrialProc	TrialList	0	cvbn	-999999	18	401600	0	n	375	401975	308	-345	-37	-32	-84	31	48	3	11	106	-10	0	-2	0	4	4	2	2	0	2
Hungry_Donkey_bar_English_2	104	1	<?xml version="1.0"?>\n<Clock xmlns:dt="urn:schemas-microsoft-com:datatypes"><Description dt:dt="string">E-Prime Primary Realtime Clock</Description><StartTime><Timestamp dt:dt="int">0</Timestamp><DateUtc dt:dt="string">2015-05-09T15:26:51Z</DateUtc></StartTime><FrequencyChanges><FrequencyChange><Frequency dt:dt="r8">2597666</Frequency><Timestamp dt:dt="r8">7209604158</Timestamp><Current dt:dt="r8">0</Current><DateUtc dt:dt="string">2015-05-09T15:26:51Z</DateUtc></FrequencyChange></FrequencyChanges></Clock>\n	Hungry_Donkey_bar_English_2-104-1	59.973	-33	1.0.0.18	1	-1379819049	Standard	2.0.10.353	2.0.10.353	05-09-2015	5/9/2015 3:26:51 PM	11:26:51	2.0.10.248	107	Bar50-50.bmp	47	2	?	0r_4g.bmp	0r_4g.bmp	0r_2g.bmp	0r_2g.bmp		0r_4g.bmp			TrialProc	TrialList	0	cvbn	-999999	17	404017	0	v	470	404487	312	-345	-33	-32	-80	31	48	6	11	107	0	0	0	0	4	4	2	2	0	4
Hungry_Donkey_bar_English_2	104	1	<?xml version="1.0"?>\n<Clock xmlns:dt="urn:schemas-microsoft-com:datatypes"><Description dt:dt="string">E-Prime Primary Realtime Clock</Description><StartTime><Timestamp dt:dt="int">0</Timestamp><DateUtc dt:dt="string">2015-05-09T15:26:51Z</DateUtc></StartTime><FrequencyChanges><FrequencyChange><Frequency dt:dt="r8">2597666</Frequency><Timestamp dt:dt="r8">7209604158</Timestamp><Current dt:dt="r8">0</Current><DateUtc dt:dt="string">2015-05-09T15:26:51Z</DateUtc></FrequencyChange></FrequencyChanges></Clock>\n	Hungry_Donkey_bar_English_2-104-1	59.973	-33	1.0.0.18	1	-1379819049	Standard	2.0.10.353	2.0.10.353	05-09-2015	5/9/2015 3:26:51 PM	11:26:51	2.0.10.248	108	Bar50-50.bmp	44	2	?	8r_4g.bmp	50r_4g.bmp	1r_2g.bmp	10r_2g.bmp		50r_4g.bmp			TrialProc	TrialList	0	cvbn	-999999	17	406518	0	v	881	407399	316	-395	-79	-32	-126	31	48	1	11	108	-8	-50	-1	-10	4	4	2	2	-50	4
Hungry_Donkey_bar_English_2	104	1	<?xml version="1.0"?>\n<Clock xmlns:dt="urn:schemas-microsoft-com:datatypes"><Description dt:dt="string">E-Prime Primary Realtime Clock</Description><StartTime><Timestamp dt:dt="int">0</Timestamp><DateUtc dt:dt="string">2015-05-09T15:26:51Z</DateUtc></StartTime><FrequencyChanges><FrequencyChange><Frequency dt:dt="r8">2597666</Frequency><Timestamp dt:dt="r8">7209604158</Timestamp><Current dt:dt="r8">0</Current><DateUtc dt:dt="string">2015-05-09T15:26:51Z</DateUtc></FrequencyChange></FrequencyChanges></Clock>\n	Hungry_Donkey_bar_English_2-104-1	59.973	-33	1.0.0.18	1	-1379819049	Standard	2.0.10.353	2.0.10.353	05-09-2015	5/9/2015 3:26:51 PM	11:26:51	2.0.10.248	109	Bar50-50.bmp	45	4	?	12r_4g.bmp	0r_4g.bmp	3r_2g.bmp	0r_2g.bmp				0r_2g.bmp	TrialProc	TrialList	0	cvbn	-999999	17	409436	0	n	731	410167	318	-395	-77	-32	-126	31	50	5	11	109	-12	0	-3	0	4	4	2	2	0	2
Hungry_Donkey_bar_English_2	104	1	<?xml version="1.0"?>\n<Clock xmlns:dt="urn:schemas-microsoft-com:datatypes"><Description dt:dt="string">E-Prime Primary Realtime Clock</Description><StartTime><Timestamp dt:dt="int">0</Timestamp><DateUtc dt:dt="string">2015-05-09T15:26:51Z</DateUtc></StartTime><FrequencyChanges><FrequencyChange><Frequency dt:dt="r8">2597666</Frequency><Timestamp dt:dt="r8">7209604158</Timestamp><Current dt:dt="r8">0</Current><DateUtc dt:dt="string">2015-05-09T15:26:51Z</DateUtc></FrequencyChange></FrequencyChanges></Clock>\n	Hungry_Donkey_bar_English_2-104-1	59.973	-33	1.0.0.18	1	-1379819049	Standard	2.0.10.353	2.0.10.353	05-09-2015	5/9/2015 3:26:51 PM	11:26:51	2.0.10.248	110	Bar50-50.bmp	45	4	?	0r_4g.bmp	0r_4g.bmp	0r_2g.bmp	0r_2g.bmp				0r_2g.bmp	TrialProc	TrialList	0	cvbn	-999999	17	412204	0	n	683	412887	320	-395	-75	-32	-126	31	52	7	11	110	0	0	0	0	4	4	2	2	0	2
Hungry_Donkey_bar_English_2	104	1	<?xml version="1.0"?>\n<Clock xmlns:dt="urn:schemas-microsoft-com:datatypes"><Description dt:dt="string">E-Prime Primary Realtime Clock</Description><StartTime><Timestamp dt:dt="int">0</Timestamp><DateUtc dt:dt="string">2015-05-09T15:26:51Z</DateUtc></StartTime><FrequencyChanges><FrequencyChange><Frequency dt:dt="r8">2597666</Frequency><Timestamp dt:dt="r8">7209604158</Timestamp><Current dt:dt="r8">0</Current><DateUtc dt:dt="string">2015-05-09T15:26:51Z</DateUtc></FrequencyChange></FrequencyChanges></Clock>\n	Hungry_Donkey_bar_English_2-104-1	59.973	-33	1.0.0.18	1	-1379819049	Standard	2.0.10.353	2.0.10.353	05-09-2015	5/9/2015 3:26:51 PM	11:26:51	2.0.10.248	111	Bar50-50.bmp	45	3	?	10r_4g.bmp	0r_4g.bmp	2r_2g.bmp	0r_2g.bmp			2r_2g.bmp		TrialProc	TrialList	0	cvbn	-999999	17	414922	0	b	573	415495	322	-397	-75	-32	-126	31	52	4	12	111	-10	0	-2	0	4	4	2	2	-2	2
