ExperimentName	Subject	Session	Clock.Information	DataFile.Basename	Display.RefreshRate	Eindtotaal[Session]	ExperimentVersion	Group	RandomSeed	RuntimeCapabilities	RuntimeVersion	RuntimeVersionExpected	SessionDate	SessionStartDateTimeUtc	SessionTime	StudioVersion	Block	BarImage	BarTotalWinst	DoorChoice	Eindtotaal[Block]	FBDoor1	FBDoor2	FBDoor3	FBDoor4	Image1	Image2	Image3	Image4	Procedure	Running	spel.ACC	spel.CRESP	spel.DurationError	spel.OnsetDelay	spel.OnsetTime	spel.OnsetToOnsetTime	spel.RESP	spel.RT	spel.RTTime	TotalGain	TotalLose	Totalsum	TotalsumD1	TotalsumD2	TotalsumD3	TotalsumD4	TrialList	TrialList.Cycle	TrialList.Sample	varV1	varV2	varV3	varV4	varW1	varW2	varW3	varW4	Verliesbedrag	Winstbedrag
Hungry_Donkey_bar_English_2	150	1	<?xml version="1.0"?>\n<Clock xmlns:dt="urn:schemas-microsoft-com:datatypes"><Description dt:dt="string">E-Prime Primary Realtime Clock</Description><StartTime><Timestamp dt:dt="int">0</Timestamp><DateUtc dt:dt="string">2016-07-18T16:12:01Z</DateUtc></StartTime><FrequencyChanges><FrequencyChange><Frequency dt:dt="r8">3507705</Frequency><Timestamp dt:dt="r8">1443384102010</Timestamp><Current dt:dt="r8">0</Current><DateUtc dt:dt="string">2016-07-18T16:12:01Z</DateUtc></FrequencyChange></FrequencyChanges></Clock>\n	Hungry_Donkey_bar_English_2-150-1	60.018	-38	1.0.0.18	1	275752747	Standard	2.0.10.353	2.0.10.353	07-18-2016	7/18/2016 4:12:02 PM	12:12:02	2.0.10.248	1	Bar100-0.bmp	100	3	?	0r_4g.bmp	0r_4g.bmp	0r_2g.bmp	0r_2g.bmp			0r_2g.bmp		TrialProc	TrialList	0	cvbn	-999999	20	13308	0	b	10700	24008	2	0	2	0	0	2	0	9	1	1	0	0	0	0	4	4	2	2	0	2
Hungry_Donkey_bar_English_2	150	1	<?xml version="1.0"?>\n<Clock xmlns:dt="urn:schemas-microsoft-com:datatypes"><Description dt:dt="string">E-Prime Primary Realtime Clock</Description><StartTime><Timestamp dt:dt="int">0</Timestamp><DateUtc dt:dt="string">2016-07-18T16:12:01Z</DateUtc></StartTime><FrequencyChanges><FrequencyChange><Frequency dt:dt="r8">3507705</Frequency><Timestamp dt:dt="r8">1443384102010</Timestamp><Current dt:dt="r8">0</Current><DateUtc dt:dt="string">2016-07-18T16:12:01Z</DateUtc></FrequencyChange></FrequencyChanges></Clock>\n	Hungry_Donkey_bar_English_2-150-1	60.018	-38	1.0.0.18	1	275752747	Standard	2.0.10.353	2.0.10.353	07-18-2016	7/18/2016 4:12:02 PM	12:12:02	2.0.10.248	2	Bar100-0.bmp	100	1	?	0r_4g.bmp	0r_4g.bmp	0r_2g.bmp	0r_2g.bmp	0r_4g.bmp				TrialProc	TrialList	0	cvbn	-999999	16	26037	0	c	4546	30583	6	0	6	4	0	2	0	10	1	2	0	0	0	0	4	4	2	2	0	4
Hungry_Donkey_bar_English_2	150	1	<?xml version="1.0"?>\n<Clock xmlns:dt="urn:schemas-microsoft-com:datatypes"><Description dt:dt="string">E-Prime Primary Realtime Clock</Description><StartTime><Timestamp dt:dt="int">0</Timestamp><DateUtc dt:dt="string">2016-07-18T16:12:01Z</DateUtc></StartTime><FrequencyChanges><FrequencyChange><Frequency dt:dt="r8">3507705</Frequency><Timestamp dt:dt="r8">1443384102010</Timestamp><Current dt:dt="r8">0</Current><DateUtc dt:dt="string">2016-07-18T16:12:01Z</DateUtc></FrequencyChange></FrequencyChanges></Clock>\n	Hungry_Donkey_bar_English_2-150-1	60.018	-38	1.0.0.18	1	275752747	Standard	2.0.10.353	2.0.10.353	07-18-2016	7/18/2016 4:12:02 PM	12:12:02	2.0.10.248	3	Bar100-0.bmp	100	4	?	10r_4g.bmp	0r_4g.bmp	2r_2g.bmp	0r_2g.bmp				0r_2g.bmp	TrialProc	TrialList	0	cvbn	-999999	16	32619	0	n	3228	35847	8	0	8	4	0	2	2	3	1	3	-10	0	-2	0	4	4	2	2	0	2
Hungry_Donkey_bar_English_2	150	1	<?xml version="1.0"?>\n<Clock xmlns:dt="urn:schemas-microsoft-com:datatypes"><Description dt:dt="string">E-Prime Primary Realtime Clock</Description><StartTime><Timestamp dt:dt="int">0</Timestamp><DateUtc dt:dt="string">2016-07-18T16:12:01Z</DateUtc></StartTime><FrequencyChanges><FrequencyChange><Frequency dt:dt="r8">3507705</Frequency><Timestamp dt:dt="r8">1443384102010</Timestamp><Current dt:dt="r8">0</Current><DateUtc dt:dt="string">2016-07-18T16:12:01Z</DateUtc></FrequencyChange></FrequencyChanges></Clock>\n	Hungry_Donkey_bar_English_2-150-1	60.018	-38	1.0.0.18	1	275752747	Standard	2.0.10.353	2.0.10.353	07-18-2016	7/18/2016 4:12:02 PM	12:12:02	2.0.10.248	4	Bar87-13.bmp	91	3	?	8r_4g.bmp	50r_4g.bmp	1r_2g.bmp	10r_2g.bmp			1r_2g.bmp		TrialProc	TrialList	0	cvbn	-999999	16	37884	0	b	2107	39991	10	-1	9	4	0	3	2	1	1	4	-8	-50	-1	-10	4	4	2	2	-1	2
Hungry_Donkey_bar_English_2	150	1	<?xml version="1.0"?>\n<Clock xmlns:dt="urn:schemas-microsoft-com:datatypes"><Description dt:dt="string">E-Prime Primary Realtime Clock</Description><StartTime><Timestamp dt:dt="int">0</Timestamp><DateUtc dt:dt="string">2016-07-18T16:12:01Z</DateUtc></StartTime><FrequencyChanges><FrequencyChange><Frequency dt:dt="r8">3507705</Frequency><Timestamp dt:dt="r8">1443384102010</Timestamp><Current dt:dt="r8">0</Current><DateUtc dt:dt="string">2016-07-18T16:12:01Z</DateUtc></FrequencyChange></FrequencyChanges></Clock>\n	Hungry_Donkey_bar_English_2-150-1	60.018	-38	1.0.0.18	1	275752747	Standard	2.0.10.353	2.0.10.353	07-18-2016	7/18/2016 4:12:02 PM	12:12:02	2.0.10.248	5	Bar50-50.bmp	56	1	?	10r_4g.bmp	0r_4g.bmp	2r_2g.bmp	0r_2g.bmp	10r_4g.bmp				TrialProc	TrialList	0	cvbn	-999999	16	42033	0	c	3461	45494	14	-11	3	-2	0	3	2	2	1	5	-10	0	-2	0	4	4	2	2	-10	4
Hungry_Donkey_bar_English_2	150	1	<?xml version="1.0"?>\n<Clock xmlns:dt="urn:schemas-microsoft-com:datatypes"><Description dt:dt="string">E-Prime Primary Realtime Clock</Description><StartTime><Timestamp dt:dt="int">0</Timestamp><DateUtc dt:dt="string">2016-07-18T16:12:01Z</DateUtc></StartTime><FrequencyChanges><FrequencyChange><Frequency dt:dt="r8">3507705</Frequency><Timestamp dt:dt="r8">1443384102010</Timestamp><Current dt:dt="r8">0</Current><DateUtc dt:dt="string">2016-07-18T16:12:01Z</DateUtc></FrequencyChange></FrequencyChanges></Clock>\n	Hungry_Donkey_bar_English_2-150-1	60.018	-38	1.0.0.18	1	275752747	Standard	2.0.10.353	2.0.10.353	07-18-2016	7/18/2016 4:12:02 PM	12:12:02	2.0.10.248	6	Bar63-37.bmp	62	2	?	0r_4g.bmp	0r_4g.bmp	0r_2g.bmp	0r_2g.bmp		0r_4g.bmp			TrialProc	TrialList	0	cvbn	-999999	16	47531	0	v	1963	49494	18	-11	7	-2	4	3	2	7	1	6	0	0	0	0	4	4	2	2	0	4
Hungry_Donkey_bar_English_2	150	1	<?xml version="1.0"?>\n<Clock xmlns:dt="urn:schemas-microsoft-com:datatypes"><Description dt:dt="string">E-Prime Primary Realtime Clock</Description><StartTime><Timestamp dt:dt="int">0</Timestamp><DateUtc dt:dt="string">2016-07-18T16:12:01Z</DateUtc></StartTime><FrequencyChanges><FrequencyChange><Frequency dt:dt="r8">3507705</Frequency><Timestamp dt:dt="r8">1443384102010</Timestamp><Current dt:dt="r8">0</Current><DateUtc dt:dt="string">2016-07-18T16:12:01Z</DateUtc></FrequencyChange></FrequencyChanges></Clock>\n	Hungry_Donkey_bar_English_2-150-1	60.018	-38	1.0.0.18	1	275752747	Standard	2.0.10.353	2.0.10.353	07-18-2016	7/18/2016 4:12:02 PM	12:12:02	2.0.10.248	7	Bar63-37.bmp	65	4	?	0r_4g.bmp	0r_4g.bmp	0r_2g.bmp	0r_2g.bmp				0r_2g.bmp	TrialProc	TrialList	0	cvbn	-999999	16	51530	0	n	1676	53206	20	-11	9	-2	4	3	4	8	1	7	0	0	0	0	4	4	2	2	0	2
Hungry_Donkey_bar_English_2	150	1	<?xml version="1.0"?>\n<Clock xmlns:dt="urn:schemas-microsoft-com:datatypes"><Description dt:dt="string">E-Prime Primary Realtime Clock</Description><StartTime><Timestamp dt:dt="int">0</Timestamp><DateUtc dt:dt="string">2016-07-18T16:12:01Z</DateUtc></StartTime><FrequencyChanges><FrequencyChange><Frequency dt:dt="r8">3507705</Frequency><Timestamp dt:dt="r8">1443384102010</Timestamp><Current dt:dt="r8">0</Current><DateUtc dt:dt="string">2016-07-18T16:12:01Z</DateUtc></FrequencyChange></FrequencyChanges></Clock>\n	Hungry_Donkey_bar_English_2-150-1	60.018	-38	1.0.0.18	1	275752747	Standard	2.0.10.353	2.0.10.353	07-18-2016	7/18/2016 4:12:02 PM	12:12:02	2.0.10.248	8	Bar63-37.bmp	69	2	?	0r_4g.bmp	0r_4g.bmp	0r_2g.bmp	0r_2g.bmp		0r_4g.bmp			TrialProc	TrialList	0	cvbn	-999999	16	55245	0	v	825	56070	24	-11	13	-2	8	3	4	6	1	8	0	0	0	0	4	4	2	2	0	4
Hungry_Donkey_bar_English_2	150	1	<?xml version="1.0"?>\n<Clock xmlns:dt="urn:schemas-microsoft-com:datatypes"><Description dt:dt="string">E-Prime Primary Realtime Clock</Description><StartTime><Timestamp dt:dt="int">0</Timestamp><DateUtc dt:dt="string">2016-07-18T16:12:01Z</DateUtc></StartTime><FrequencyChanges><FrequencyChange><Frequency dt:dt="r8">3507705</Frequency><Timestamp dt:dt="r8">1443384102010</Timestamp><Current dt:dt="r8">0</Current><DateUtc dt:dt="string">2016-07-18T16:12:01Z</DateUtc></FrequencyChange></FrequencyChanges></Clock>\n	Hungry_Donkey_bar_English_2-150-1	60.018	-38	1.0.0.18	1	275752747	Standard	2.0.10.353	2.0.10.353	07-18-2016	7/18/2016 4:12:02 PM	12:12:02	2.0.10.248	9	Bar63-37.bmp	67	3	?	10r_4g.bmp	0r_4g.bmp	2r_2g.bmp	0r_2g.bmp			2r_2g.bmp		TrialProc	TrialList	0	cvbn	-999999	16	58111	0	b	455	58566	26	-13	13	-2	8	3	4	4	1	9	-10	0	-2	0	4	4	2	2	-2	2
Hungry_Donkey_bar_English_2	150	1	<?xml version="1.0"?>\n<Clock xmlns:dt="urn:schemas-microsoft-com:datatypes"><Description dt:dt="string">E-Prime Primary Realtime Clock</Description><StartTime><Timestamp dt:dt="int">0</Timestamp><DateUtc dt:dt="string">2016-07-18T16:12:01Z</DateUtc></StartTime><FrequencyChanges><FrequencyChange><Frequency dt:dt="r8">3507705</Frequency><Timestamp dt:dt="r8">1443384102010</Timestamp><Current dt:dt="r8">0</Current><DateUtc dt:dt="string">2016-07-18T16:12:01Z</DateUtc></FrequencyChange></FrequencyChanges></Clock>\n	Hungry_Donkey_bar_English_2-150-1	60.018	-38	1.0.0.18	1	275752747	Standard	2.0.10.353	2.0.10.353	07-18-2016	7/18/2016 4:12:02 PM	12:12:02	2.0.10.248	10	Bar63-37.bmp	68	4	?	12r_4g.bmp	0r_4g.bmp	3r_2g.bmp	0r_2g.bmp				0r_2g.bmp	TrialProc	TrialList	0	cvbn	-999999	16	60594	0	n	5475	66069	28	-13	15	-2	8	3	6	5	1	10	-12	0	-3	0	4	4	2	2	0	2
Hungry_Donkey_bar_English_2	150	1	<?xml version="1.0"?>\n<Clock xmlns:dt="urn:schemas-microsoft-com:datatypes"><Description dt:dt="string">E-Prime Primary Realtime Clock</Description><StartTime><Timestamp dt:dt="int">0</Timestamp><DateUtc dt:dt="string">2016-07-18T16:12:01Z</DateUtc></StartTime><FrequencyChanges><FrequencyChange><Frequency dt:dt="r8">3507705</Frequency><Timestamp dt:dt="r8">1443384102010</Timestamp><Current dt:dt="r8">0</Current><DateUtc dt:dt="string">2016-07-18T16:12:01Z</DateUtc></FrequencyChange></FrequencyChanges></Clock>\n	Hungry_Donkey_bar_English_2-150-1	60.018	-38	1.0.0.18	1	275752747	Standard	2.0.10.353	2.0.10.353	07-18-2016	7/18/2016 4:12:02 PM	12:12:02	2.0.10.248	11	Bar63-37.bmp	58	1	?	10r_4g.bmp	0r_4g.bmp	2r_2g.bmp	0r_2g.bmp	10r_4g.bmp				TrialProc	TrialList	0	cvbn	-999999	16	68108	0	c	1545	69653	32	-23	9	-8	8	3	6	3	2	11	-10	0	-2	0	4	4	2	2	-10	4
Hungry_Donkey_bar_English_2	150	1	<?xml version="1.0"?>\n<Clock xmlns:dt="urn:schemas-microsoft-com:datatypes"><Description dt:dt="string">E-Prime Primary Realtime Clock</Description><StartTime><Timestamp dt:dt="int">0</Timestamp><DateUtc dt:dt="string">2016-07-18T16:12:01Z</DateUtc></StartTime><FrequencyChanges><FrequencyChange><Frequency dt:dt="r8">3507705</Frequency><Timestamp dt:dt="r8">1443384102010</Timestamp><Current dt:dt="r8">0</Current><DateUtc dt:dt="string">2016-07-18T16:12:01Z</DateUtc></FrequencyChange></FrequencyChanges></Clock>\n	Hungry_Donkey_bar_English_2-150-1	60.018	-38	1.0.0.18	1	275752747	Standard	2.0.10.353	2.0.10.353	07-18-2016	7/18/2016 4:12:02 PM	12:12:02	2.0.10.248	12	Bar63-37.bmp	60	3	?	0r_4g.bmp	0r_4g.bmp	0r_2g.bmp	0r_2g.bmp			0r_2g.bmp		TrialProc	TrialList	0	cvbn	-999999	16	71691	0	b	3146	74837	34	-23	11	-8	8	5	6	10	2	12	0	0	0	0	4	4	2	2	0	2
Hungry_Donkey_bar_English_2	150	1	<?xml version="1.0"?>\n<Clock xmlns:dt="urn:schemas-microsoft-com:datatypes"><Description dt:dt="string">E-Prime Primary Realtime Clock</Description><StartTime><Timestamp dt:dt="int">0</Timestamp><DateUtc dt:dt="string">2016-07-18T16:12:01Z</DateUtc></StartTime><FrequencyChanges><FrequencyChange><Frequency dt:dt="r8">3507705</Frequency><Timestamp dt:dt="r8">1443384102010</Timestamp><Current dt:dt="r8">0</Current><DateUtc dt:dt="string">2016-07-18T16:12:01Z</DateUtc></FrequencyChange></FrequencyChanges></Clock>\n	Hungry_Donkey_bar_English_2-150-1	60.018	-38	1.0.0.18	1	275752747	Standard	2.0.10.353	2.0.10.353	07-18-2016	7/18/2016 4:12:02 PM	12:12:02	2.0.10.248	13	Bar63-37.bmp	62	2	?	0r_4g.bmp	0r_4g.bmp	0r_2g.bmp	0r_2g.bmp		0r_4g.bmp			TrialProc	TrialList	0	cvbn	-999999	16	76872	0	v	669	77541	38	-23	15	-8	12	5	6	9	2	13	0	0	0	0	4	4	2	2	0	4
Hungry_Donkey_bar_English_2	150	1	<?xml version="1.0"?>\n<Clock xmlns:dt="urn:schemas-microsoft-com:datatypes"><Description dt:dt="string">E-Prime Primary Realtime Clock</Description><StartTime><Timestamp dt:dt="int">0</Timestamp><DateUtc dt:dt="string">2016-07-18T16:12:01Z</DateUtc></StartTime><FrequencyChanges><FrequencyChange><Frequency dt:dt="r8">3507705</Frequency><Timestamp dt:dt="r8">1443384102010</Timestamp><Current dt:dt="r8">0</Current><DateUtc dt:dt="string">2016-07-18T16:12:01Z</DateUtc></FrequencyChange></FrequencyChanges></Clock>\n	Hungry_Donkey_bar_English_2-150-1	60.018	-38	1.0.0.18	1	275752747	Standard	2.0.10.353	2.0.10.353	07-18-2016	7/18/2016 4:12:02 PM	12:12:02	2.0.10.248	14	Bar63-37.bmp	63	4	?	0r_4g.bmp	0r_4g.bmp	0r_2g.bmp	0r_2g.bmp				0r_2g.bmp	TrialProc	TrialList	0	cvbn	-999999	16	79572	0	n	1648	81220	40	-23	17	-8	12	5	8	7	2	14	0	0	0	0	4	4	2	2	0	2
Hungry_Donkey_bar_English_2	150	1	<?xml version="1.0"?>\n<Clock xmlns:dt="urn:schemas-microsoft-com:datatypes"><Description dt:dt="string">E-Prime Primary Realtime Clock</Description><StartTime><Timestamp dt:dt="int">0</Timestamp><DateUtc dt:dt="string">2016-07-18T16:12:01Z</DateUtc></StartTime><FrequencyChanges><FrequencyChange><Frequency dt:dt="r8">3507705</Frequency><Timestamp dt:dt="r8">1443384102010</Timestamp><Current dt:dt="r8">0</Current><DateUtc dt:dt="string">2016-07-18T16:12:01Z</DateUtc></FrequencyChange></FrequencyChanges></Clock>\n	Hungry_Donkey_bar_English_2-150-1	60.018	-38	1.0.0.18	1	275752747	Standard	2.0.10.353	2.0.10.353	07-18-2016	7/18/2016 4:12:02 PM	12:12:02	2.0.10.248	15	Bar63-37.bmp	65	3	?	0r_4g.bmp	0r_4g.bmp	0r_2g.bmp	0r_2g.bmp			0r_2g.bmp		TrialProc	TrialList	0	cvbn	-999999	16	83254	0	b	2126	85380	42	-23	19	-8	12	7	8	8	2	15	0	0	0	0	4	4	2	2	0	2
Hungry_Donkey_bar_English_2	150	1	<?xml version="1.0"?>\n<Clock xmlns:dt="urn:schemas-microsoft-com:datatypes"><Description dt:dt="string">E-Prime Primary Realtime Clock</Description><StartTime><Timestamp dt:dt="int">0</Timestamp><DateUtc dt:dt="string">2016-07-18T16:12:01Z</DateUtc></StartTime><FrequencyChanges><FrequencyChange><Frequency dt:dt="r8">3507705</Frequency><Timestamp dt:dt="r8">1443384102010</Timestamp><Current dt:dt="r8">0</Current><DateUtc dt:dt="string">2016-07-18T16:12:01Z</DateUtc></FrequencyChange></FrequencyChanges></Clock>\n	Hungry_Donkey_bar_English_2-150-1	60.018	-38	1.0.0.18	1	275752747	Standard	2.0.10.353	2.0.10.353	07-18-2016	7/18/2016 4:12:02 PM	12:12:02	2.0.10.248	16	Bar63-37.bmp	66	3	?	0r_4g.bmp	0r_4g.bmp	0r_2g.bmp	0r_2g.bmp			0r_2g.bmp		TrialProc	TrialList	0	cvbn	-999999	16	87419	0	b	1177	88596	44	-23	21	-8	12	9	8	6	2	16	0	0	0	0	4	4	2	2	0	2
Hungry_Donkey_bar_English_2	150	1	<?xml version="1.0"?>\n<Clock xmlns:dt="urn:schemas-microsoft-com:datatypes"><Description dt:dt="string">E-Prime Primary Realtime Clock</Description><StartTime><Timestamp dt:dt="int">0</Timestamp><DateUtc dt:dt="string">2016-07-18T16:12:01Z</DateUtc></StartTime><FrequencyChanges><FrequencyChange><Frequency dt:dt="r8">3507705</Frequency><Timestamp dt:dt="r8">1443384102010</Timestamp><Current dt:dt="r8">0</Current><DateUtc dt:dt="string">2016-07-18T16:12:01Z</DateUtc></FrequencyChange></FrequencyChanges></Clock>\n	Hungry_Donkey_bar_English_2-150-1	60.018	-38	1.0.0.18	1	275752747	Standard	2.0.10.353	2.0.10.353	07-18-2016	7/18/2016 4:12:02 PM	12:12:02	2.0.10.248	17	Bar63-37.bmp	65	3	?	10r_4g.bmp	0r_4g.bmp	2r_2g.bmp	0r_2g.bmp			2r_2g.bmp		TrialProc	TrialList	0	cvbn	-999999	16	90635	0	b	1353	91988	46	-25	21	-8	12	9	8	2	2	17	-10	0	-2	0	4	4	2	2	-2	2
Hungry_Donkey_bar_English_2	150	1	<?xml version="1.0"?>\n<Clock xmlns:dt="urn:schemas-microsoft-com:datatypes"><Description dt:dt="string">E-Prime Primary Realtime Clock</Description><StartTime><Timestamp dt:dt="int">0</Timestamp><DateUtc dt:dt="string">2016-07-18T16:12:01Z</DateUtc></StartTime><FrequencyChanges><FrequencyChange><Frequency dt:dt="r8">3507705</Frequency><Timestamp dt:dt="r8">1443384102010</Timestamp><Current dt:dt="r8">0</Current><DateUtc dt:dt="string">2016-07-18T16:12:01Z</DateUtc></FrequencyChange></FrequencyChanges></Clock>\n	Hungry_Donkey_bar_English_2-150-1	60.018	-38	1.0.0.18	1	275752747	Standard	2.0.10.353	2.0.10.353	07-18-2016	7/18/2016 4:12:02 PM	12:12:02	2.0.10.248	18	Bar63-37.bmp	67	2	?	12r_4g.bmp	0r_4g.bmp	3r_2g.bmp	0r_2g.bmp		0r_4g.bmp			TrialProc	TrialList	0	cvbn	-999999	16	94017	0	v	579	94596	50	-25	25	-8	16	9	8	5	2	18	-12	0	-3	0	4	4	2	2	0	4
Hungry_Donkey_bar_English_2	150	1	<?xml version="1.0"?>\n<Clock xmlns:dt="urn:schemas-microsoft-com:datatypes"><Description dt:dt="string">E-Prime Primary Realtime Clock</Description><StartTime><Timestamp dt:dt="int">0</Timestamp><DateUtc dt:dt="string">2016-07-18T16:12:01Z</DateUtc></StartTime><FrequencyChanges><FrequencyChange><Frequency dt:dt="r8">3507705</Frequency><Timestamp dt:dt="r8">1443384102010</Timestamp><Current dt:dt="r8">0</Current><DateUtc dt:dt="string">2016-07-18T16:12:01Z</DateUtc></FrequencyChange></FrequencyChanges></Clock>\n	Hungry_Donkey_bar_English_2-150-1	60.018	-38	1.0.0.18	1	275752747	Standard	2.0.10.353	2.0.10.353	07-18-2016	7/18/2016 4:12:02 PM	12:12:02	2.0.10.248	19	Bar63-37.bmp	68	2	?	10r_4g.bmp	0r_4g.bmp	2r_2g.bmp	0r_2g.bmp		0r_4g.bmp			TrialProc	TrialList	0	cvbn	-999999	16	96633	0	v	1419	98052	54	-25	29	-8	20	9	8	4	2	19	-10	0	-2	0	4	4	2	2	0	4
Hungry_Donkey_bar_English_2	150	1	<?xml version="1.0"?>\n<Clock xmlns:dt="urn:schemas-microsoft-com:datatypes"><Description dt:dt="string">E-Prime Primary Realtime Clock</Description><StartTime><Timestamp dt:dt="int">0</Timestamp><DateUtc dt:dt="string">2016-07-18T16:12:01Z</DateUtc></StartTime><FrequencyChanges><FrequencyChange><Frequency dt:dt="r8">3507705</Frequency><Timestamp dt:dt="r8">1443384102010</Timestamp><Current dt:dt="r8">0</Current><DateUtc dt:dt="string">2016-07-18T16:12:01Z</DateUtc></FrequencyChange></FrequencyChanges></Clock>\n	Hungry_Donkey_bar_English_2-150-1	60.018	-38	1.0.0.18	1	275752747	Standard	2.0.10.353	2.0.10.353	07-18-2016	7/18/2016 4:12:02 PM	12:12:02	2.0.10.248	20	Bar50-50.bmp	44	2	?	8r_4g.bmp	50r_4g.bmp	1r_2g.bmp	10r_2g.bmp		50r_4g.bmp			TrialProc	TrialList	0	cvbn	-999999	16	100082	0	v	1313	101395	58	-75	-17	-8	-26	9	8	1	2	20	-8	-50	-1	-10	4	4	2	2	-50	4
Hungry_Donkey_bar_English_2	150	1	<?xml version="1.0"?>\n<Clock xmlns:dt="urn:schemas-microsoft-com:datatypes"><Description dt:dt="string">E-Prime Primary Realtime Clock</Description><StartTime><Timestamp dt:dt="int">0</Timestamp><DateUtc dt:dt="string">2016-07-18T16:12:01Z</DateUtc></StartTime><FrequencyChanges><FrequencyChange><Frequency dt:dt="r8">3507705</Frequency><Timestamp dt:dt="r8">1443384102010</Timestamp><Current dt:dt="r8">0</Current><DateUtc dt:dt="string">2016-07-18T16:12:01Z</DateUtc></FrequencyChange></FrequencyChanges></Clock>\n	Hungry_Donkey_bar_English_2-150-1	60.018	-38	1.0.0.18	1	275752747	Standard	2.0.10.353	2.0.10.353	07-18-2016	7/18/2016 4:12:02 PM	12:12:02	2.0.10.248	21	Bar50-50.bmp	45	1	?	0r_4g.bmp	0r_4g.bmp	0r_2g.bmp	0r_2g.bmp	0r_4g.bmp				TrialProc	TrialList	0	cvbn	-999999	16	103431	0	c	1884	105315	62	-75	-13	-4	-26	9	8	8	3	21	0	0	0	0	4	4	2	2	0	4
Hungry_Donkey_bar_English_2	150	1	<?xml version="1.0"?>\n<Clock xmlns:dt="urn:schemas-microsoft-com:datatypes"><Description dt:dt="string">E-Prime Primary Realtime Clock</Description><StartTime><Timestamp dt:dt="int">0</Timestamp><DateUtc dt:dt="string">2016-07-18T16:12:01Z</DateUtc></StartTime><FrequencyChanges><FrequencyChange><Frequency dt:dt="r8">3507705</Frequency><Timestamp dt:dt="r8">1443384102010</Timestamp><Current dt:dt="r8">0</Current><DateUtc dt:dt="string">2016-07-18T16:12:01Z</DateUtc></FrequencyChange></FrequencyChanges></Clock>\n	Hungry_Donkey_bar_English_2-150-1	60.018	-38	1.0.0.18	1	275752747	Standard	2.0.10.353	2.0.10.353	07-18-2016	7/18/2016 4:12:02 PM	12:12:02	2.0.10.248	22	Bar50-50.bmp	46	3	?	8r_4g.bmp	50r_4g.bmp	1r_2g.bmp	10r_2g.bmp			1r_2g.bmp		TrialProc	TrialList	0	cvbn	-999999	16	107347	0	b	1600	108947	64	-76	-12	-4	-26	10	8	1	3	22	-8	-50	-1	-10	4	4	2	2	-1	2
Hungry_Donkey_bar_English_2	150	1	<?xml version="1.0"?>\n<Clock xmlns:dt="urn:schemas-microsoft-com:datatypes"><Description dt:dt="string">E-Prime Primary Realtime Clock</Description><StartTime><Timestamp dt:dt="int">0</Timestamp><DateUtc dt:dt="string">2016-07-18T16:12:01Z</DateUtc></StartTime><FrequencyChanges><FrequencyChange><Frequency dt:dt="r8">3507705</Frequency><Timestamp dt:dt="r8">1443384102010</Timestamp><Current dt:dt="r8">0</Current><DateUtc dt:dt="string">2016-07-18T16:12:01Z</DateUtc></FrequencyChange></FrequencyChanges></Clock>\n	Hungry_Donkey_bar_English_2-150-1	60.018	-38	1.0.0.18	1	275752747	Standard	2.0.10.353	2.0.10.353	07-18-2016	7/18/2016 4:12:02 PM	12:12:02	2.0.10.248	23	Bar50-50.bmp	46	4	?	10r_4g.bmp	0r_4g.bmp	2r_2g.bmp	0r_2g.bmp				0r_2g.bmp	TrialProc	TrialList	0	cvbn	-999999	16	110979	0	n	1888	112867	66	-76	-10	-4	-26	10	10	2	3	23	-10	0	-2	0	4	4	2	2	0	2
Hungry_Donkey_bar_English_2	150	1	<?xml version="1.0"?>\n<Clock xmlns:dt="urn:schemas-microsoft-com:datatypes"><Description dt:dt="string">E-Prime Primary Realtime Clock</Description><StartTime><Timestamp dt:dt="int">0</Timestamp><DateUtc dt:dt="string">2016-07-18T16:12:01Z</DateUtc></StartTime><FrequencyChanges><FrequencyChange><Frequency dt:dt="r8">3507705</Frequency><Timestamp dt:dt="r8">1443384102010</Timestamp><Current dt:dt="r8">0</Current><DateUtc dt:dt="string">2016-07-18T16:12:01Z</DateUtc></FrequencyChange></FrequencyChanges></Clock>\n	Hungry_Donkey_bar_English_2-150-1	60.018	-38	1.0.0.18	1	275752747	Standard	2.0.10.353	2.0.10.353	07-18-2016	7/18/2016 4:12:02 PM	12:12:02	2.0.10.248	24	Bar50-50.bmp	48	2	?	10r_4g.bmp	0r_4g.bmp	2r_2g.bmp	0r_2g.bmp		0r_4g.bmp			TrialProc	TrialList	0	cvbn	-999999	17	114895	0	v	2627	117522	70	-76	-6	-4	-22	10	10	4	3	24	-10	0	-2	0	4	4	2	2	0	4
Hungry_Donkey_bar_English_2	150	1	<?xml version="1.0"?>\n<Clock xmlns:dt="urn:schemas-microsoft-com:datatypes"><Description dt:dt="string">E-Prime Primary Realtime Clock</Description><StartTime><Timestamp dt:dt="int">0</Timestamp><DateUtc dt:dt="string">2016-07-18T16:12:01Z</DateUtc></StartTime><FrequencyChanges><FrequencyChange><Frequency dt:dt="r8">3507705</Frequency><Timestamp dt:dt="r8">1443384102010</Timestamp><Current dt:dt="r8">0</Current><DateUtc dt:dt="string">2016-07-18T16:12:01Z</DateUtc></FrequencyChange></FrequencyChanges></Clock>\n	Hungry_Donkey_bar_English_2-150-1	60.018	-38	1.0.0.18	1	275752747	Standard	2.0.10.353	2.0.10.353	07-18-2016	7/18/2016 4:12:02 PM	12:12:02	2.0.10.248	25	Bar50-50.bmp	46	1	?	12r_4g.bmp	0r_4g.bmp	3r_2g.bmp	0r_2g.bmp	12r_4g.bmp				TrialProc	TrialList	0	cvbn	-999999	16	119560	0	c	8474	128034	74	-88	-14	-12	-22	10	10	5	3	25	-12	0	-3	0	4	4	2	2	-12	4
Hungry_Donkey_bar_English_2	150	1	<?xml version="1.0"?>\n<Clock xmlns:dt="urn:schemas-microsoft-com:datatypes"><Description dt:dt="string">E-Prime Primary Realtime Clock</Description><StartTime><Timestamp dt:dt="int">0</Timestamp><DateUtc dt:dt="string">2016-07-18T16:12:01Z</DateUtc></StartTime><FrequencyChanges><FrequencyChange><Frequency dt:dt="r8">3507705</Frequency><Timestamp dt:dt="r8">1443384102010</Timestamp><Current dt:dt="r8">0</Current><DateUtc dt:dt="string">2016-07-18T16:12:01Z</DateUtc></FrequencyChange></FrequencyChanges></Clock>\n	Hungry_Donkey_bar_English_2-150-1	60.018	-38	1.0.0.18	1	275752747	Standard	2.0.10.353	2.0.10.353	07-18-2016	7/18/2016 4:12:02 PM	12:12:02	2.0.10.248	26	Bar50-50.bmp	47	2	?	10r_4g.bmp	0r_4g.bmp	2r_2g.bmp	0r_2g.bmp		0r_4g.bmp			TrialProc	TrialList	0	cvbn	-999999	16	130073	0	v	2025	132098	78	-88	-10	-12	-18	10	10	3	3	26	-10	0	-2	0	4	4	2	2	0	4
Hungry_Donkey_bar_English_2	150	1	<?xml version="1.0"?>\n<Clock xmlns:dt="urn:schemas-microsoft-com:datatypes"><Description dt:dt="string">E-Prime Primary Realtime Clock</Description><StartTime><Timestamp dt:dt="int">0</Timestamp><DateUtc dt:dt="string">2016-07-18T16:12:01Z</DateUtc></StartTime><FrequencyChanges><FrequencyChange><Frequency dt:dt="r8">3507705</Frequency><Timestamp dt:dt="r8">1443384102010</Timestamp><Current dt:dt="r8">0</Current><DateUtc dt:dt="string">2016-07-18T16:12:01Z</DateUtc></FrequencyChange></FrequencyChanges></Clock>\n	Hungry_Donkey_bar_English_2-150-1	60.018	-38	1.0.0.18	1	275752747	Standard	2.0.10.353	2.0.10.353	07-18-2016	7/18/2016 4:12:02 PM	12:12:02	2.0.10.248	27	Bar50-50.bmp	48	4	?	0r_4g.bmp	0r_4g.bmp	0r_2g.bmp	0r_2g.bmp				0r_2g.bmp	TrialProc	TrialList	0	cvbn	-999999	16	134139	0	n	4214	138353	80	-88	-8	-12	-18	10	12	9	3	27	0	0	0	0	4	4	2	2	0	2
Hungry_Donkey_bar_English_2	150	1	<?xml version="1.0"?>\n<Clock xmlns:dt="urn:schemas-microsoft-com:datatypes"><Description dt:dt="string">E-Prime Primary Realtime Clock</Description><StartTime><Timestamp dt:dt="int">0</Timestamp><DateUtc dt:dt="string">2016-07-18T16:12:01Z</DateUtc></StartTime><FrequencyChanges><FrequencyChange><Frequency dt:dt="r8">3507705</Frequency><Timestamp dt:dt="r8">1443384102010</Timestamp><Current dt:dt="r8">0</Current><DateUtc dt:dt="string">2016-07-18T16:12:01Z</DateUtc></FrequencyChange></FrequencyChanges></Clock>\n	Hungry_Donkey_bar_English_2-150-1	60.018	-38	1.0.0.18	1	275752747	Standard	2.0.10.353	2.0.10.353	07-18-2016	7/18/2016 4:12:02 PM	12:12:02	2.0.10.248	28	Bar50-50.bmp	48	4	?	0r_4g.bmp	0r_4g.bmp	0r_2g.bmp	0r_2g.bmp				0r_2g.bmp	TrialProc	TrialList	0	cvbn	-999999	16	140387	0	n	2030	142417	82	-88	-6	-12	-18	10	14	7	3	28	0	0	0	0	4	4	2	2	0	2
Hungry_Donkey_bar_English_2	150	1	<?xml version="1.0"?>\n<Clock xmlns:dt="urn:schemas-microsoft-com:datatypes"><Description dt:dt="string">E-Prime Primary Realtime Clock</Description><StartTime><Timestamp dt:dt="int">0</Timestamp><DateUtc dt:dt="string">2016-07-18T16:12:01Z</DateUtc></StartTime><FrequencyChanges><FrequencyChange><Frequency dt:dt="r8">3507705</Frequency><Timestamp dt:dt="r8">1443384102010</Timestamp><Current dt:dt="r8">0</Current><DateUtc dt:dt="string">2016-07-18T16:12:01Z</DateUtc></FrequencyChange></FrequencyChanges></Clock>\n	Hungry_Donkey_bar_English_2-150-1	60.018	-38	1.0.0.18	1	275752747	Standard	2.0.10.353	2.0.10.353	07-18-2016	7/18/2016 4:12:02 PM	12:12:02	2.0.10.248	29	Bar50-50.bmp	49	3	?	0r_4g.bmp	0r_4g.bmp	0r_2g.bmp	0r_2g.bmp			0r_2g.bmp		TrialProc	TrialList	0	cvbn	-999999	16	144452	0	b	3981	148433	84	-88	-4	-12	-18	12	14	10	3	29	0	0	0	0	4	4	2	2	0	2
Hungry_Donkey_bar_English_2	150	1	<?xml version="1.0"?>\n<Clock xmlns:dt="urn:schemas-microsoft-com:datatypes"><Description dt:dt="string">E-Prime Primary Realtime Clock</Description><StartTime><Timestamp dt:dt="int">0</Timestamp><DateUtc dt:dt="string">2016-07-18T16:12:01Z</DateUtc></StartTime><FrequencyChanges><FrequencyChange><Frequency dt:dt="r8">3507705</Frequency><Timestamp dt:dt="r8">1443384102010</Timestamp><Current dt:dt="r8">0</Current><DateUtc dt:dt="string">2016-07-18T16:12:01Z</DateUtc></FrequencyChange></FrequencyChanges></Clock>\n	Hungry_Donkey_bar_English_2-150-1	60.018	-38	1.0.0.18	1	275752747	Standard	2.0.10.353	2.0.10.353	07-18-2016	7/18/2016 4:12:02 PM	12:12:02	2.0.10.248	30	Bar50-50.bmp	50	2	?	0r_4g.bmp	0r_4g.bmp	0r_2g.bmp	0r_2g.bmp		0r_4g.bmp			TrialProc	TrialList	0	cvbn	-999999	16	150467	0	v	1133	151600	88	-88	0	-12	-14	12	14	6	3	30	0	0	0	0	4	4	2	2	0	4
Hungry_Donkey_bar_English_2	150	1	<?xml version="1.0"?>\n<Clock xmlns:dt="urn:schemas-microsoft-com:datatypes"><Description dt:dt="string">E-Prime Primary Realtime Clock</Description><StartTime><Timestamp dt:dt="int">0</Timestamp><DateUtc dt:dt="string">2016-07-18T16:12:01Z</DateUtc></StartTime><FrequencyChanges><FrequencyChange><Frequency dt:dt="r8">3507705</Frequency><Timestamp dt:dt="r8">1443384102010</Timestamp><Current dt:dt="r8">0</Current><DateUtc dt:dt="string">2016-07-18T16:12:01Z</DateUtc></FrequencyChange></FrequencyChanges></Clock>\n	Hungry_Donkey_bar_English_2-150-1	60.018	-38	1.0.0.18	1	275752747	Standard	2.0.10.353	2.0.10.353	07-18-2016	7/18/2016 4:12:02 PM	12:12:02	2.0.10.248	31	Bar50-50.bmp	51	4	?	12r_4g.bmp	0r_4g.bmp	3r_2g.bmp	0r_2g.bmp				0r_2g.bmp	TrialProc	TrialList	0	cvbn	-999999	16	153633	0	n	879	154512	90	-88	2	-12	-14	12	16	5	4	31	-12	0	-3	0	4	4	2	2	0	2
Hungry_Donkey_bar_English_2	150	1	<?xml version="1.0"?>\n<Clock xmlns:dt="urn:schemas-microsoft-com:datatypes"><Description dt:dt="string">E-Prime Primary Realtime Clock</Description><StartTime><Timestamp dt:dt="int">0</Timestamp><DateUtc dt:dt="string">2016-07-18T16:12:01Z</DateUtc></StartTime><FrequencyChanges><FrequencyChange><Frequency dt:dt="r8">3507705</Frequency><Timestamp dt:dt="r8">1443384102010</Timestamp><Current dt:dt="r8">0</Current><DateUtc dt:dt="string">2016-07-18T16:12:01Z</DateUtc></FrequencyChange></FrequencyChanges></Clock>\n	Hungry_Donkey_bar_English_2-150-1	60.018	-38	1.0.0.18	1	275752747	Standard	2.0.10.353	2.0.10.353	07-18-2016	7/18/2016 4:12:02 PM	12:12:02	2.0.10.248	32	Bar50-50.bmp	51	3	?	8r_4g.bmp	50r_4g.bmp	1r_2g.bmp	10r_2g.bmp			1r_2g.bmp		TrialProc	TrialList	0	cvbn	-999999	16	156549	0	b	523	157072	92	-89	3	-12	-14	13	16	1	4	32	-8	-50	-1	-10	4	4	2	2	-1	2
Hungry_Donkey_bar_English_2	150	1	<?xml version="1.0"?>\n<Clock xmlns:dt="urn:schemas-microsoft-com:datatypes"><Description dt:dt="string">E-Prime Primary Realtime Clock</Description><StartTime><Timestamp dt:dt="int">0</Timestamp><DateUtc dt:dt="string">2016-07-18T16:12:01Z</DateUtc></StartTime><FrequencyChanges><FrequencyChange><Frequency dt:dt="r8">3507705</Frequency><Timestamp dt:dt="r8">1443384102010</Timestamp><Current dt:dt="r8">0</Current><DateUtc dt:dt="string">2016-07-18T16:12:01Z</DateUtc></FrequencyChange></FrequencyChanges></Clock>\n	Hungry_Donkey_bar_English_2-150-1	60.018	-38	1.0.0.18	1	275752747	Standard	2.0.10.353	2.0.10.353	07-18-2016	7/18/2016 4:12:02 PM	12:12:02	2.0.10.248	33	Bar50-50.bmp	52	1	?	0r_4g.bmp	0r_4g.bmp	0r_2g.bmp	0r_2g.bmp	0r_4g.bmp				TrialProc	TrialList	0	cvbn	-999999	16	159098	0	c	4630	163728	96	-89	7	-8	-14	13	16	6	4	33	0	0	0	0	4	4	2	2	0	4
Hungry_Donkey_bar_English_2	150	1	<?xml version="1.0"?>\n<Clock xmlns:dt="urn:schemas-microsoft-com:datatypes"><Description dt:dt="string">E-Prime Primary Realtime Clock</Description><StartTime><Timestamp dt:dt="int">0</Timestamp><DateUtc dt:dt="string">2016-07-18T16:12:01Z</DateUtc></StartTime><FrequencyChanges><FrequencyChange><Frequency dt:dt="r8">3507705</Frequency><Timestamp dt:dt="r8">1443384102010</Timestamp><Current dt:dt="r8">0</Current><DateUtc dt:dt="string">2016-07-18T16:12:01Z</DateUtc></FrequencyChange></FrequencyChanges></Clock>\n	Hungry_Donkey_bar_English_2-150-1	60.018	-38	1.0.0.18	1	275752747	Standard	2.0.10.353	2.0.10.353	07-18-2016	7/18/2016 4:12:02 PM	12:12:02	2.0.10.248	34	Bar50-50.bmp	52	3	?	0r_4g.bmp	0r_4g.bmp	0r_2g.bmp	0r_2g.bmp			0r_2g.bmp		TrialProc	TrialList	0	cvbn	-999999	16	165763	0	b	3245	169008	98	-89	9	-8	-14	15	16	9	4	34	0	0	0	0	4	4	2	2	0	2
Hungry_Donkey_bar_English_2	150	1	<?xml version="1.0"?>\n<Clock xmlns:dt="urn:schemas-microsoft-com:datatypes"><Description dt:dt="string">E-Prime Primary Realtime Clock</Description><StartTime><Timestamp dt:dt="int">0</Timestamp><DateUtc dt:dt="string">2016-07-18T16:12:01Z</DateUtc></StartTime><FrequencyChanges><FrequencyChange><Frequency dt:dt="r8">3507705</Frequency><Timestamp dt:dt="r8">1443384102010</Timestamp><Current dt:dt="r8">0</Current><DateUtc dt:dt="string">2016-07-18T16:12:01Z</DateUtc></FrequencyChange></FrequencyChanges></Clock>\n	Hungry_Donkey_bar_English_2-150-1	60.018	-38	1.0.0.18	1	275752747	Standard	2.0.10.353	2.0.10.353	07-18-2016	7/18/2016 4:12:02 PM	12:12:02	2.0.10.248	35	Bar50-50.bmp	52	3	?	10r_4g.bmp	0r_4g.bmp	2r_2g.bmp	0r_2g.bmp			2r_2g.bmp		TrialProc	TrialList	0	cvbn	-999999	16	171045	0	b	906	171951	100	-91	9	-8	-14	15	16	3	4	35	-10	0	-2	0	4	4	2	2	-2	2
Hungry_Donkey_bar_English_2	150	1	<?xml version="1.0"?>\n<Clock xmlns:dt="urn:schemas-microsoft-com:datatypes"><Description dt:dt="string">E-Prime Primary Realtime Clock</Description><StartTime><Timestamp dt:dt="int">0</Timestamp><DateUtc dt:dt="string">2016-07-18T16:12:01Z</DateUtc></StartTime><FrequencyChanges><FrequencyChange><Frequency dt:dt="r8">3507705</Frequency><Timestamp dt:dt="r8">1443384102010</Timestamp><Current dt:dt="r8">0</Current><DateUtc dt:dt="string">2016-07-18T16:12:01Z</DateUtc></FrequencyChange></FrequencyChanges></Clock>\n	Hungry_Donkey_bar_English_2-150-1	60.018	-38	1.0.0.18	1	275752747	Standard	2.0.10.353	2.0.10.353	07-18-2016	7/18/2016 4:12:02 PM	12:12:02	2.0.10.248	36	Bar50-50.bmp	53	2	?	10r_4g.bmp	0r_4g.bmp	2r_2g.bmp	0r_2g.bmp		0r_4g.bmp			TrialProc	TrialList	0	cvbn	-999999	16	173977	0	v	1110	175087	104	-91	13	-8	-10	15	16	4	4	36	-10	0	-2	0	4	4	2	2	0	4
Hungry_Donkey_bar_English_2	150	1	<?xml version="1.0"?>\n<Clock xmlns:dt="urn:schemas-microsoft-com:datatypes"><Description dt:dt="string">E-Prime Primary Realtime Clock</Description><StartTime><Timestamp dt:dt="int">0</Timestamp><DateUtc dt:dt="string">2016-07-18T16:12:01Z</DateUtc></StartTime><FrequencyChanges><FrequencyChange><Frequency dt:dt="r8">3507705</Frequency><Timestamp dt:dt="r8">1443384102010</Timestamp><Current dt:dt="r8">0</Current><DateUtc dt:dt="string">2016-07-18T16:12:01Z</DateUtc></FrequencyChange></FrequencyChanges></Clock>\n	Hungry_Donkey_bar_English_2-150-1	60.018	-38	1.0.0.18	1	275752747	Standard	2.0.10.353	2.0.10.353	07-18-2016	7/18/2016 4:12:02 PM	12:12:02	2.0.10.248	37	Bar50-50.bmp	54	4	?	0r_4g.bmp	0r_4g.bmp	0r_2g.bmp	0r_2g.bmp				0r_2g.bmp	TrialProc	TrialList	0	cvbn	-999999	16	177126	0	n	4217	181343	106	-91	15	-8	-10	15	18	10	4	37	0	0	0	0	4	4	2	2	0	2
Hungry_Donkey_bar_English_2	150	1	<?xml version="1.0"?>\n<Clock xmlns:dt="urn:schemas-microsoft-com:datatypes"><Description dt:dt="string">E-Prime Primary Realtime Clock</Description><StartTime><Timestamp dt:dt="int">0</Timestamp><DateUtc dt:dt="string">2016-07-18T16:12:01Z</DateUtc></StartTime><FrequencyChanges><FrequencyChange><Frequency dt:dt="r8">3507705</Frequency><Timestamp dt:dt="r8">1443384102010</Timestamp><Current dt:dt="r8">0</Current><DateUtc dt:dt="string">2016-07-18T16:12:01Z</DateUtc></FrequencyChange></FrequencyChanges></Clock>\n	Hungry_Donkey_bar_English_2-150-1	60.018	-38	1.0.0.18	1	275752747	Standard	2.0.10.353	2.0.10.353	07-18-2016	7/18/2016 4:12:02 PM	12:12:02	2.0.10.248	38	Bar50-50.bmp	55	2	?	0r_4g.bmp	0r_4g.bmp	0r_2g.bmp	0r_2g.bmp		0r_4g.bmp			TrialProc	TrialList	0	cvbn	-999999	16	183374	0	v	1665	185039	110	-91	19	-8	-6	15	18	7	4	38	0	0	0	0	4	4	2	2	0	4
Hungry_Donkey_bar_English_2	150	1	<?xml version="1.0"?>\n<Clock xmlns:dt="urn:schemas-microsoft-com:datatypes"><Description dt:dt="string">E-Prime Primary Realtime Clock</Description><StartTime><Timestamp dt:dt="int">0</Timestamp><DateUtc dt:dt="string">2016-07-18T16:12:01Z</DateUtc></StartTime><FrequencyChanges><FrequencyChange><Frequency dt:dt="r8">3507705</Frequency><Timestamp dt:dt="r8">1443384102010</Timestamp><Current dt:dt="r8">0</Current><DateUtc dt:dt="string">2016-07-18T16:12:01Z</DateUtc></FrequencyChange></FrequencyChanges></Clock>\n	Hungry_Donkey_bar_English_2-150-1	60.018	-38	1.0.0.18	1	275752747	Standard	2.0.10.353	2.0.10.353	07-18-2016	7/18/2016 4:12:02 PM	12:12:02	2.0.10.248	39	Bar50-50.bmp	55	4	?	0r_4g.bmp	0r_4g.bmp	0r_2g.bmp	0r_2g.bmp				0r_2g.bmp	TrialProc	TrialList	0	cvbn	-999999	16	187073	0	n	2733	189806	112	-91	21	-8	-6	15	20	8	4	39	0	0	0	0	4	4	2	2	0	2
Hungry_Donkey_bar_English_2	150	1	<?xml version="1.0"?>\n<Clock xmlns:dt="urn:schemas-microsoft-com:datatypes"><Description dt:dt="string">E-Prime Primary Realtime Clock</Description><StartTime><Timestamp dt:dt="int">0</Timestamp><DateUtc dt:dt="string">2016-07-18T16:12:01Z</DateUtc></StartTime><FrequencyChanges><FrequencyChange><Frequency dt:dt="r8">3507705</Frequency><Timestamp dt:dt="r8">1443384102010</Timestamp><Current dt:dt="r8">0</Current><DateUtc dt:dt="string">2016-07-18T16:12:01Z</DateUtc></FrequencyChange></FrequencyChanges></Clock>\n	Hungry_Donkey_bar_English_2-150-1	60.018	-38	1.0.0.18	1	275752747	Standard	2.0.10.353	2.0.10.353	07-18-2016	7/18/2016 4:12:02 PM	12:12:02	2.0.10.248	40	Bar50-50.bmp	56	4	?	10r_4g.bmp	0r_4g.bmp	2r_2g.bmp	0r_2g.bmp				0r_2g.bmp	TrialProc	TrialList	0	cvbn	-999999	17	191839	0	n	1839	193678	114	-91	23	-8	-6	15	22	2	4	40	-10	0	-2	0	4	4	2	2	0	2
Hungry_Donkey_bar_English_2	150	1	<?xml version="1.0"?>\n<Clock xmlns:dt="urn:schemas-microsoft-com:datatypes"><Description dt:dt="string">E-Prime Primary Realtime Clock</Description><StartTime><Timestamp dt:dt="int">0</Timestamp><DateUtc dt:dt="string">2016-07-18T16:12:01Z</DateUtc></StartTime><FrequencyChanges><FrequencyChange><Frequency dt:dt="r8">3507705</Frequency><Timestamp dt:dt="r8">1443384102010</Timestamp><Current dt:dt="r8">0</Current><DateUtc dt:dt="string">2016-07-18T16:12:01Z</DateUtc></FrequencyChange></FrequencyChanges></Clock>\n	Hungry_Donkey_bar_English_2-150-1	60.018	-38	1.0.0.18	1	275752747	Standard	2.0.10.353	2.0.10.353	07-18-2016	7/18/2016 4:12:02 PM	12:12:02	2.0.10.248	41	Bar50-50.bmp	56	3	?	8r_4g.bmp	50r_4g.bmp	1r_2g.bmp	10r_2g.bmp			1r_2g.bmp		TrialProc	TrialList	0	cvbn	-999999	16	195721	0	b	4069	199790	116	-92	24	-8	-6	16	22	1	5	41	-8	-50	-1	-10	4	4	2	2	-1	2
Hungry_Donkey_bar_English_2	150	1	<?xml version="1.0"?>\n<Clock xmlns:dt="urn:schemas-microsoft-com:datatypes"><Description dt:dt="string">E-Prime Primary Realtime Clock</Description><StartTime><Timestamp dt:dt="int">0</Timestamp><DateUtc dt:dt="string">2016-07-18T16:12:01Z</DateUtc></StartTime><FrequencyChanges><FrequencyChange><Frequency dt:dt="r8">3507705</Frequency><Timestamp dt:dt="r8">1443384102010</Timestamp><Current dt:dt="r8">0</Current><DateUtc dt:dt="string">2016-07-18T16:12:01Z</DateUtc></FrequencyChange></FrequencyChanges></Clock>\n	Hungry_Donkey_bar_English_2-150-1	60.018	-38	1.0.0.18	1	275752747	Standard	2.0.10.353	2.0.10.353	07-18-2016	7/18/2016 4:12:02 PM	12:12:02	2.0.10.248	42	Bar63-37.bmp	57	2	?	0r_4g.bmp	0r_4g.bmp	0r_2g.bmp	0r_2g.bmp		0r_4g.bmp			TrialProc	TrialList	0	cvbn	-999999	16	201819	0	v	2786	204605	120	-92	28	-8	-2	16	22	8	5	42	0	0	0	0	4	4	2	2	0	4
Hungry_Donkey_bar_English_2	150	1	<?xml version="1.0"?>\n<Clock xmlns:dt="urn:schemas-microsoft-com:datatypes"><Description dt:dt="string">E-Prime Primary Realtime Clock</Description><StartTime><Timestamp dt:dt="int">0</Timestamp><DateUtc dt:dt="string">2016-07-18T16:12:01Z</DateUtc></StartTime><FrequencyChanges><FrequencyChange><Frequency dt:dt="r8">3507705</Frequency><Timestamp dt:dt="r8">1443384102010</Timestamp><Current dt:dt="r8">0</Current><DateUtc dt:dt="string">2016-07-18T16:12:01Z</DateUtc></FrequencyChange></FrequencyChanges></Clock>\n	Hungry_Donkey_bar_English_2-150-1	60.018	-38	1.0.0.18	1	275752747	Standard	2.0.10.353	2.0.10.353	07-18-2016	7/18/2016 4:12:02 PM	12:12:02	2.0.10.248	43	Bar50-50.bmp	55	1	?	10r_4g.bmp	0r_4g.bmp	2r_2g.bmp	0r_2g.bmp	10r_4g.bmp				TrialProc	TrialList	0	cvbn	-999999	16	206634	0	c	2835	209469	124	-102	22	-14	-2	16	22	3	5	43	-10	0	-2	0	4	4	2	2	-10	4
Hungry_Donkey_bar_English_2	150	1	<?xml version="1.0"?>\n<Clock xmlns:dt="urn:schemas-microsoft-com:datatypes"><Description dt:dt="string">E-Prime Primary Realtime Clock</Description><StartTime><Timestamp dt:dt="int">0</Timestamp><DateUtc dt:dt="string">2016-07-18T16:12:01Z</DateUtc></StartTime><FrequencyChanges><FrequencyChange><Frequency dt:dt="r8">3507705</Frequency><Timestamp dt:dt="r8">1443384102010</Timestamp><Current dt:dt="r8">0</Current><DateUtc dt:dt="string">2016-07-18T16:12:01Z</DateUtc></FrequencyChange></FrequencyChanges></Clock>\n	Hungry_Donkey_bar_English_2-150-1	60.018	-38	1.0.0.18	1	275752747	Standard	2.0.10.353	2.0.10.353	07-18-2016	7/18/2016 4:12:02 PM	12:12:02	2.0.10.248	44	Bar50-50.bmp	55	4	?	0r_4g.bmp	0r_4g.bmp	0r_2g.bmp	0r_2g.bmp				0r_2g.bmp	TrialProc	TrialList	0	cvbn	-999999	16	211499	0	n	4002	215501	126	-102	24	-14	-2	16	24	10	5	44	0	0	0	0	4	4	2	2	0	2
Hungry_Donkey_bar_English_2	150	1	<?xml version="1.0"?>\n<Clock xmlns:dt="urn:schemas-microsoft-com:datatypes"><Description dt:dt="string">E-Prime Primary Realtime Clock</Description><StartTime><Timestamp dt:dt="int">0</Timestamp><DateUtc dt:dt="string">2016-07-18T16:12:01Z</DateUtc></StartTime><FrequencyChanges><FrequencyChange><Frequency dt:dt="r8">3507705</Frequency><Timestamp dt:dt="r8">1443384102010</Timestamp><Current dt:dt="r8">0</Current><DateUtc dt:dt="string">2016-07-18T16:12:01Z</DateUtc></FrequencyChange></FrequencyChanges></Clock>\n	Hungry_Donkey_bar_English_2-150-1	60.018	-38	1.0.0.18	1	275752747	Standard	2.0.10.353	2.0.10.353	07-18-2016	7/18/2016 4:12:02 PM	12:12:02	2.0.10.248	45	Bar50-50.bmp	55	3	?	10r_4g.bmp	0r_4g.bmp	2r_2g.bmp	0r_2g.bmp			2r_2g.bmp		TrialProc	TrialList	0	cvbn	-999999	16	217531	0	b	2642	220173	128	-104	24	-14	-2	16	24	2	5	45	-10	0	-2	0	4	4	2	2	-2	2
Hungry_Donkey_bar_English_2	150	1	<?xml version="1.0"?>\n<Clock xmlns:dt="urn:schemas-microsoft-com:datatypes"><Description dt:dt="string">E-Prime Primary Realtime Clock</Description><StartTime><Timestamp dt:dt="int">0</Timestamp><DateUtc dt:dt="string">2016-07-18T16:12:01Z</DateUtc></StartTime><FrequencyChanges><FrequencyChange><Frequency dt:dt="r8">3507705</Frequency><Timestamp dt:dt="r8">1443384102010</Timestamp><Current dt:dt="r8">0</Current><DateUtc dt:dt="string">2016-07-18T16:12:01Z</DateUtc></FrequencyChange></FrequencyChanges></Clock>\n	Hungry_Donkey_bar_English_2-150-1	60.018	-38	1.0.0.18	1	275752747	Standard	2.0.10.353	2.0.10.353	07-18-2016	7/18/2016 4:12:02 PM	12:12:02	2.0.10.248	46	Bar50-50.bmp	56	1	?	0r_4g.bmp	0r_4g.bmp	0r_2g.bmp	0r_2g.bmp	0r_4g.bmp				TrialProc	TrialList	0	cvbn	-999999	16	222196	0	c	1240	223436	132	-104	28	-10	-2	16	24	7	5	46	0	0	0	0	4	4	2	2	0	4
Hungry_Donkey_bar_English_2	150	1	<?xml version="1.0"?>\n<Clock xmlns:dt="urn:schemas-microsoft-com:datatypes"><Description dt:dt="string">E-Prime Primary Realtime Clock</Description><StartTime><Timestamp dt:dt="int">0</Timestamp><DateUtc dt:dt="string">2016-07-18T16:12:01Z</DateUtc></StartTime><FrequencyChanges><FrequencyChange><Frequency dt:dt="r8">3507705</Frequency><Timestamp dt:dt="r8">1443384102010</Timestamp><Current dt:dt="r8">0</Current><DateUtc dt:dt="string">2016-07-18T16:12:01Z</DateUtc></FrequencyChange></FrequencyChanges></Clock>\n	Hungry_Donkey_bar_English_2-150-1	60.018	-38	1.0.0.18	1	275752747	Standard	2.0.10.353	2.0.10.353	07-18-2016	7/18/2016 4:12:02 PM	12:12:02	2.0.10.248	47	Bar50-50.bmp	54	1	?	10r_4g.bmp	0r_4g.bmp	2r_2g.bmp	0r_2g.bmp	10r_4g.bmp				TrialProc	TrialList	0	cvbn	-999999	16	225462	0	c	2006	227468	136	-114	22	-16	-2	16	24	4	5	47	-10	0	-2	0	4	4	2	2	-10	4
Hungry_Donkey_bar_English_2	150	1	<?xml version="1.0"?>\n<Clock xmlns:dt="urn:schemas-microsoft-com:datatypes"><Description dt:dt="string">E-Prime Primary Realtime Clock</Description><StartTime><Timestamp dt:dt="int">0</Timestamp><DateUtc dt:dt="string">2016-07-18T16:12:01Z</DateUtc></StartTime><FrequencyChanges><FrequencyChange><Frequency dt:dt="r8">3507705</Frequency><Timestamp dt:dt="r8">1443384102010</Timestamp><Current dt:dt="r8">0</Current><DateUtc dt:dt="string">2016-07-18T16:12:01Z</DateUtc></FrequencyChange></FrequencyChanges></Clock>\n	Hungry_Donkey_bar_English_2-150-1	60.018	-38	1.0.0.18	1	275752747	Standard	2.0.10.353	2.0.10.353	07-18-2016	7/18/2016 4:12:02 PM	12:12:02	2.0.10.248	48	Bar50-50.bmp	55	4	?	0r_4g.bmp	0r_4g.bmp	0r_2g.bmp	0r_2g.bmp				0r_2g.bmp	TrialProc	TrialList	0	cvbn	-999999	16	229494	0	n	3270	232764	138	-114	24	-16	-2	16	26	6	5	48	0	0	0	0	4	4	2	2	0	2
Hungry_Donkey_bar_English_2	150	1	<?xml version="1.0"?>\n<Clock xmlns:dt="urn:schemas-microsoft-com:datatypes"><Description dt:dt="string">E-Prime Primary Realtime Clock</Description><StartTime><Timestamp dt:dt="int">0</Timestamp><DateUtc dt:dt="string">2016-07-18T16:12:01Z</DateUtc></StartTime><FrequencyChanges><FrequencyChange><Frequency dt:dt="r8">3507705</Frequency><Timestamp dt:dt="r8">1443384102010</Timestamp><Current dt:dt="r8">0</Current><DateUtc dt:dt="string">2016-07-18T16:12:01Z</DateUtc></FrequencyChange></FrequencyChanges></Clock>\n	Hungry_Donkey_bar_English_2-150-1	60.018	-38	1.0.0.18	1	275752747	Standard	2.0.10.353	2.0.10.353	07-18-2016	7/18/2016 4:12:02 PM	12:12:02	2.0.10.248	49	Bar50-50.bmp	55	4	?	0r_4g.bmp	0r_4g.bmp	0r_2g.bmp	0r_2g.bmp				0r_2g.bmp	TrialProc	TrialList	0	cvbn	-999999	17	234793	0	n	1651	236444	140	-114	26	-16	-2	16	28	9	5	49	0	0	0	0	4	4	2	2	0	2
Hungry_Donkey_bar_English_2	150	1	<?xml version="1.0"?>\n<Clock xmlns:dt="urn:schemas-microsoft-com:datatypes"><Description dt:dt="string">E-Prime Primary Realtime Clock</Description><StartTime><Timestamp dt:dt="int">0</Timestamp><DateUtc dt:dt="string">2016-07-18T16:12:01Z</DateUtc></StartTime><FrequencyChanges><FrequencyChange><Frequency dt:dt="r8">3507705</Frequency><Timestamp dt:dt="r8">1443384102010</Timestamp><Current dt:dt="r8">0</Current><DateUtc dt:dt="string">2016-07-18T16:12:01Z</DateUtc></FrequencyChange></FrequencyChanges></Clock>\n	Hungry_Donkey_bar_English_2-150-1	60.018	-38	1.0.0.18	1	275752747	Standard	2.0.10.353	2.0.10.353	07-18-2016	7/18/2016 4:12:02 PM	12:12:02	2.0.10.248	50	Bar50-50.bmp	55	3	?	12r_4g.bmp	0r_4g.bmp	3r_2g.bmp	0r_2g.bmp			3r_2g.bmp		TrialProc	TrialList	0	cvbn	-999999	16	238475	0	b	497	238972	142	-117	25	-16	-2	15	28	5	5	50	-12	0	-3	0	4	4	2	2	-3	2
Hungry_Donkey_bar_English_2	150	1	<?xml version="1.0"?>\n<Clock xmlns:dt="urn:schemas-microsoft-com:datatypes"><Description dt:dt="string">E-Prime Primary Realtime Clock</Description><StartTime><Timestamp dt:dt="int">0</Timestamp><DateUtc dt:dt="string">2016-07-18T16:12:01Z</DateUtc></StartTime><FrequencyChanges><FrequencyChange><Frequency dt:dt="r8">3507705</Frequency><Timestamp dt:dt="r8">1443384102010</Timestamp><Current dt:dt="r8">0</Current><DateUtc dt:dt="string">2016-07-18T16:12:01Z</DateUtc></FrequencyChange></FrequencyChanges></Clock>\n	Hungry_Donkey_bar_English_2-150-1	60.018	-38	1.0.0.18	1	275752747	Standard	2.0.10.353	2.0.10.353	07-18-2016	7/18/2016 4:12:02 PM	12:12:02	2.0.10.248	51	Bar50-50.bmp	55	4	?	0r_4g.bmp	0r_4g.bmp	0r_2g.bmp	0r_2g.bmp				0r_2g.bmp	TrialProc	TrialList	0	cvbn	-999999	16	241007	0	n	4012	245019	144	-117	27	-16	-2	15	30	7	6	51	0	0	0	0	4	4	2	2	0	2
Hungry_Donkey_bar_English_2	150	1	<?xml version="1.0"?>\n<Clock xmlns:dt="urn:schemas-microsoft-com:datatypes"><Description dt:dt="string">E-Prime Primary Realtime Clock</Description><StartTime><Timestamp dt:dt="int">0</Timestamp><DateUtc dt:dt="string">2016-07-18T16:12:01Z</DateUtc></StartTime><FrequencyChanges><FrequencyChange><Frequency dt:dt="r8">3507705</Frequency><Timestamp dt:dt="r8">1443384102010</Timestamp><Current dt:dt="r8">0</Current><DateUtc dt:dt="string">2016-07-18T16:12:01Z</DateUtc></FrequencyChange></FrequencyChanges></Clock>\n	Hungry_Donkey_bar_English_2-150-1	60.018	-38	1.0.0.18	1	275752747	Standard	2.0.10.353	2.0.10.353	07-18-2016	7/18/2016 4:12:02 PM	12:12:02	2.0.10.248	52	Bar50-50.bmp	56	3	?	0r_4g.bmp	0r_4g.bmp	0r_2g.bmp	0r_2g.bmp			0r_2g.bmp		TrialProc	TrialList	0	cvbn	-999999	16	247056	0	b	1883	248939	146	-117	29	-16	-2	17	30	9	6	52	0	0	0	0	4	4	2	2	0	2
Hungry_Donkey_bar_English_2	150	1	<?xml version="1.0"?>\n<Clock xmlns:dt="urn:schemas-microsoft-com:datatypes"><Description dt:dt="string">E-Prime Primary Realtime Clock</Description><StartTime><Timestamp dt:dt="int">0</Timestamp><DateUtc dt:dt="string">2016-07-18T16:12:01Z</DateUtc></StartTime><FrequencyChanges><FrequencyChange><Frequency dt:dt="r8">3507705</Frequency><Timestamp dt:dt="r8">1443384102010</Timestamp><Current dt:dt="r8">0</Current><DateUtc dt:dt="string">2016-07-18T16:12:01Z</DateUtc></FrequencyChange></FrequencyChanges></Clock>\n	Hungry_Donkey_bar_English_2-150-1	60.018	-38	1.0.0.18	1	275752747	Standard	2.0.10.353	2.0.10.353	07-18-2016	7/18/2016 4:12:02 PM	12:12:02	2.0.10.248	53	Bar50-50.bmp	56	2	?	10r_4g.bmp	0r_4g.bmp	2r_2g.bmp	0r_2g.bmp		0r_4g.bmp			TrialProc	TrialList	0	cvbn	-999999	16	250971	0	v	2512	253483	150	-117	33	-16	2	17	30	2	6	53	-10	0	-2	0	4	4	2	2	0	4
Hungry_Donkey_bar_English_2	150	1	<?xml version="1.0"?>\n<Clock xmlns:dt="urn:schemas-microsoft-com:datatypes"><Description dt:dt="string">E-Prime Primary Realtime Clock</Description><StartTime><Timestamp dt:dt="int">0</Timestamp><DateUtc dt:dt="string">2016-07-18T16:12:01Z</DateUtc></StartTime><FrequencyChanges><FrequencyChange><Frequency dt:dt="r8">3507705</Frequency><Timestamp dt:dt="r8">1443384102010</Timestamp><Current dt:dt="r8">0</Current><DateUtc dt:dt="string">2016-07-18T16:12:01Z</DateUtc></FrequencyChange></FrequencyChanges></Clock>\n	Hungry_Donkey_bar_English_2-150-1	60.018	-38	1.0.0.18	1	275752747	Standard	2.0.10.353	2.0.10.353	07-18-2016	7/18/2016 4:12:02 PM	12:12:02	2.0.10.248	54	Bar50-50.bmp	54	4	?	8r_4g.bmp	50r_4g.bmp	1r_2g.bmp	10r_2g.bmp				10r_2g.bmp	TrialProc	TrialList	0	cvbn	-999999	16	255520	0	n	4282	259802	152	-127	25	-16	2	17	22	1	6	54	-8	-50	-1	-10	4	4	2	2	-10	2
Hungry_Donkey_bar_English_2	150	1	<?xml version="1.0"?>\n<Clock xmlns:dt="urn:schemas-microsoft-com:datatypes"><Description dt:dt="string">E-Prime Primary Realtime Clock</Description><StartTime><Timestamp dt:dt="int">0</Timestamp><DateUtc dt:dt="string">2016-07-18T16:12:01Z</DateUtc></StartTime><FrequencyChanges><FrequencyChange><Frequency dt:dt="r8">3507705</Frequency><Timestamp dt:dt="r8">1443384102010</Timestamp><Current dt:dt="r8">0</Current><DateUtc dt:dt="string">2016-07-18T16:12:01Z</DateUtc></FrequencyChange></FrequencyChanges></Clock>\n	Hungry_Donkey_bar_English_2-150-1	60.018	-38	1.0.0.18	1	275752747	Standard	2.0.10.353	2.0.10.353	07-18-2016	7/18/2016 4:12:02 PM	12:12:02	2.0.10.248	55	Bar50-50.bmp	55	3	?	0r_4g.bmp	0r_4g.bmp	0r_2g.bmp	0r_2g.bmp			0r_2g.bmp		TrialProc	TrialList	0	cvbn	-999999	16	261835	0	b	2383	264218	154	-127	27	-16	2	19	22	6	6	55	0	0	0	0	4	4	2	2	0	2
Hungry_Donkey_bar_English_2	150	1	<?xml version="1.0"?>\n<Clock xmlns:dt="urn:schemas-microsoft-com:datatypes"><Description dt:dt="string">E-Prime Primary Realtime Clock</Description><StartTime><Timestamp dt:dt="int">0</Timestamp><DateUtc dt:dt="string">2016-07-18T16:12:01Z</DateUtc></StartTime><FrequencyChanges><FrequencyChange><Frequency dt:dt="r8">3507705</Frequency><Timestamp dt:dt="r8">1443384102010</Timestamp><Current dt:dt="r8">0</Current><DateUtc dt:dt="string">2016-07-18T16:12:01Z</DateUtc></FrequencyChange></FrequencyChanges></Clock>\n	Hungry_Donkey_bar_English_2-150-1	60.018	-38	1.0.0.18	1	275752747	Standard	2.0.10.353	2.0.10.353	07-18-2016	7/18/2016 4:12:02 PM	12:12:02	2.0.10.248	56	Bar50-50.bmp	55	2	?	0r_4g.bmp	0r_4g.bmp	0r_2g.bmp	0r_2g.bmp		0r_4g.bmp			TrialProc	TrialList	0	cvbn	-999999	16	266250	0	v	656	266906	158	-127	31	-16	6	19	22	8	6	56	0	0	0	0	4	4	2	2	0	4
Hungry_Donkey_bar_English_2	150	1	<?xml version="1.0"?>\n<Clock xmlns:dt="urn:schemas-microsoft-com:datatypes"><Description dt:dt="string">E-Prime Primary Realtime Clock</Description><StartTime><Timestamp dt:dt="int">0</Timestamp><DateUtc dt:dt="string">2016-07-18T16:12:01Z</DateUtc></StartTime><FrequencyChanges><FrequencyChange><Frequency dt:dt="r8">3507705</Frequency><Timestamp dt:dt="r8">1443384102010</Timestamp><Current dt:dt="r8">0</Current><DateUtc dt:dt="string">2016-07-18T16:12:01Z</DateUtc></FrequencyChange></FrequencyChanges></Clock>\n	Hungry_Donkey_bar_English_2-150-1	60.018	-38	1.0.0.18	1	275752747	Standard	2.0.10.353	2.0.10.353	07-18-2016	7/18/2016 4:12:02 PM	12:12:02	2.0.10.248	57	Bar50-50.bmp	56	2	?	12r_4g.bmp	0r_4g.bmp	3r_2g.bmp	0r_2g.bmp		0r_4g.bmp			TrialProc	TrialList	0	cvbn	-999999	16	268932	0	v	2230	271162	162	-127	35	-16	10	19	22	5	6	57	-12	0	-3	0	4	4	2	2	0	4
Hungry_Donkey_bar_English_2	150	1	<?xml version="1.0"?>\n<Clock xmlns:dt="urn:schemas-microsoft-com:datatypes"><Description dt:dt="string">E-Prime Primary Realtime Clock</Description><StartTime><Timestamp dt:dt="int">0</Timestamp><DateUtc dt:dt="string">2016-07-18T16:12:01Z</DateUtc></StartTime><FrequencyChanges><FrequencyChange><Frequency dt:dt="r8">3507705</Frequency><Timestamp dt:dt="r8">1443384102010</Timestamp><Current dt:dt="r8">0</Current><DateUtc dt:dt="string">2016-07-18T16:12:01Z</DateUtc></FrequencyChange></FrequencyChanges></Clock>\n	Hungry_Donkey_bar_English_2-150-1	60.018	-38	1.0.0.18	1	275752747	Standard	2.0.10.353	2.0.10.353	07-18-2016	7/18/2016 4:12:02 PM	12:12:02	2.0.10.248	58	Bar50-50.bmp	55	1	?	10r_4g.bmp	0r_4g.bmp	2r_2g.bmp	0r_2g.bmp	10r_4g.bmp				TrialProc	TrialList	0	cvbn	-999999	16	273198	0	c	1275	274473	166	-137	29	-22	10	19	22	3	6	58	-10	0	-2	0	4	4	2	2	-10	4
Hungry_Donkey_bar_English_2	150	1	<?xml version="1.0"?>\n<Clock xmlns:dt="urn:schemas-microsoft-com:datatypes"><Description dt:dt="string">E-Prime Primary Realtime Clock</Description><StartTime><Timestamp dt:dt="int">0</Timestamp><DateUtc dt:dt="string">2016-07-18T16:12:01Z</DateUtc></StartTime><FrequencyChanges><FrequencyChange><Frequency dt:dt="r8">3507705</Frequency><Timestamp dt:dt="r8">1443384102010</Timestamp><Current dt:dt="r8">0</Current><DateUtc dt:dt="string">2016-07-18T16:12:01Z</DateUtc></FrequencyChange></FrequencyChanges></Clock>\n	Hungry_Donkey_bar_English_2-150-1	60.018	-38	1.0.0.18	1	275752747	Standard	2.0.10.353	2.0.10.353	07-18-2016	7/18/2016 4:12:02 PM	12:12:02	2.0.10.248	59	Bar50-50.bmp	55	4	?	10r_4g.bmp	0r_4g.bmp	2r_2g.bmp	0r_2g.bmp				0r_2g.bmp	TrialProc	TrialList	0	cvbn	-999999	16	276497	0	n	2488	278985	168	-137	31	-22	10	19	24	4	6	59	-10	0	-2	0	4	4	2	2	0	2
Hungry_Donkey_bar_English_2	150	1	<?xml version="1.0"?>\n<Clock xmlns:dt="urn:schemas-microsoft-com:datatypes"><Description dt:dt="string">E-Prime Primary Realtime Clock</Description><StartTime><Timestamp dt:dt="int">0</Timestamp><DateUtc dt:dt="string">2016-07-18T16:12:01Z</DateUtc></StartTime><FrequencyChanges><FrequencyChange><Frequency dt:dt="r8">3507705</Frequency><Timestamp dt:dt="r8">1443384102010</Timestamp><Current dt:dt="r8">0</Current><DateUtc dt:dt="string">2016-07-18T16:12:01Z</DateUtc></FrequencyChange></FrequencyChanges></Clock>\n	Hungry_Donkey_bar_English_2-150-1	60.018	-38	1.0.0.18	1	275752747	Standard	2.0.10.353	2.0.10.353	07-18-2016	7/18/2016 4:12:02 PM	12:12:02	2.0.10.248	60	Bar50-50.bmp	55	4	?	0r_4g.bmp	0r_4g.bmp	0r_2g.bmp	0r_2g.bmp				0r_2g.bmp	TrialProc	TrialList	0	cvbn	-999999	16	281012	0	n	629	281641	170	-137	33	-22	10	19	26	10	6	60	0	0	0	0	4	4	2	2	0	2
Hungry_Donkey_bar_English_2	150	1	<?xml version="1.0"?>\n<Clock xmlns:dt="urn:schemas-microsoft-com:datatypes"><Description dt:dt="string">E-Prime Primary Realtime Clock</Description><StartTime><Timestamp dt:dt="int">0</Timestamp><DateUtc dt:dt="string">2016-07-18T16:12:01Z</DateUtc></StartTime><FrequencyChanges><FrequencyChange><Frequency dt:dt="r8">3507705</Frequency><Timestamp dt:dt="r8">1443384102010</Timestamp><Current dt:dt="r8">0</Current><DateUtc dt:dt="string">2016-07-18T16:12:01Z</DateUtc></FrequencyChange></FrequencyChanges></Clock>\n	Hungry_Donkey_bar_English_2-150-1	60.018	-38	1.0.0.18	1	275752747	Standard	2.0.10.353	2.0.10.353	07-18-2016	7/18/2016 4:12:02 PM	12:12:02	2.0.10.248	61	Bar50-50.bmp	55	3	?	10r_4g.bmp	0r_4g.bmp	2r_2g.bmp	0r_2g.bmp			2r_2g.bmp		TrialProc	TrialList	0	cvbn	-999999	16	283678	0	b	507	284185	172	-139	33	-22	10	19	26	4	7	61	-10	0	-2	0	4	4	2	2	-2	2
Hungry_Donkey_bar_English_2	150	1	<?xml version="1.0"?>\n<Clock xmlns:dt="urn:schemas-microsoft-com:datatypes"><Description dt:dt="string">E-Prime Primary Realtime Clock</Description><StartTime><Timestamp dt:dt="int">0</Timestamp><DateUtc dt:dt="string">2016-07-18T16:12:01Z</DateUtc></StartTime><FrequencyChanges><FrequencyChange><Frequency dt:dt="r8">3507705</Frequency><Timestamp dt:dt="r8">1443384102010</Timestamp><Current dt:dt="r8">0</Current><DateUtc dt:dt="string">2016-07-18T16:12:01Z</DateUtc></FrequencyChange></FrequencyChanges></Clock>\n	Hungry_Donkey_bar_English_2-150-1	60.018	-38	1.0.0.18	1	275752747	Standard	2.0.10.353	2.0.10.353	07-18-2016	7/18/2016 4:12:02 PM	12:12:02	2.0.10.248	62	Bar50-50.bmp	55	3	?	12r_4g.bmp	0r_4g.bmp	3r_2g.bmp	0r_2g.bmp			3r_2g.bmp		TrialProc	TrialList	0	cvbn	-999999	16	286211	0	b	518	286729	174	-142	32	-22	10	18	26	5	7	62	-12	0	-3	0	4	4	2	2	-3	2
Hungry_Donkey_bar_English_2	150	1	<?xml version="1.0"?>\n<Clock xmlns:dt="urn:schemas-microsoft-com:datatypes"><Description dt:dt="string">E-Prime Primary Realtime Clock</Description><StartTime><Timestamp dt:dt="int">0</Timestamp><DateUtc dt:dt="string">2016-07-18T16:12:01Z</DateUtc></StartTime><FrequencyChanges><FrequencyChange><Frequency dt:dt="r8">3507705</Frequency><Timestamp dt:dt="r8">1443384102010</Timestamp><Current dt:dt="r8">0</Current><DateUtc dt:dt="string">2016-07-18T16:12:01Z</DateUtc></FrequencyChange></FrequencyChanges></Clock>\n	Hungry_Donkey_bar_English_2-150-1	60.018	-38	1.0.0.18	1	275752747	Standard	2.0.10.353	2.0.10.353	07-18-2016	7/18/2016 4:12:02 PM	12:12:02	2.0.10.248	63	Bar50-50.bmp	55	4	?	0r_4g.bmp	0r_4g.bmp	0r_2g.bmp	0r_2g.bmp				0r_2g.bmp	TrialProc	TrialList	0	cvbn	-999999	16	288760	0	n	1281	290041	176	-142	34	-22	10	18	28	10	7	63	0	0	0	0	4	4	2	2	0	2
Hungry_Donkey_bar_English_2	150	1	<?xml version="1.0"?>\n<Clock xmlns:dt="urn:schemas-microsoft-com:datatypes"><Description dt:dt="string">E-Prime Primary Realtime Clock</Description><StartTime><Timestamp dt:dt="int">0</Timestamp><DateUtc dt:dt="string">2016-07-18T16:12:01Z</DateUtc></StartTime><FrequencyChanges><FrequencyChange><Frequency dt:dt="r8">3507705</Frequency><Timestamp dt:dt="r8">1443384102010</Timestamp><Current dt:dt="r8">0</Current><DateUtc dt:dt="string">2016-07-18T16:12:01Z</DateUtc></FrequencyChange></FrequencyChanges></Clock>\n	Hungry_Donkey_bar_English_2-150-1	60.018	-38	1.0.0.18	1	275752747	Standard	2.0.10.353	2.0.10.353	07-18-2016	7/18/2016 4:12:02 PM	12:12:02	2.0.10.248	64	Bar50-50.bmp	56	4	?	0r_4g.bmp	0r_4g.bmp	0r_2g.bmp	0r_2g.bmp				0r_2g.bmp	TrialProc	TrialList	0	cvbn	-999999	16	292076	0	n	1052	293128	178	-142	36	-22	10	18	30	7	7	64	0	0	0	0	4	4	2	2	0	2
Hungry_Donkey_bar_English_2	150	1	<?xml version="1.0"?>\n<Clock xmlns:dt="urn:schemas-microsoft-com:datatypes"><Description dt:dt="string">E-Prime Primary Realtime Clock</Description><StartTime><Timestamp dt:dt="int">0</Timestamp><DateUtc dt:dt="string">2016-07-18T16:12:01Z</DateUtc></StartTime><FrequencyChanges><FrequencyChange><Frequency dt:dt="r8">3507705</Frequency><Timestamp dt:dt="r8">1443384102010</Timestamp><Current dt:dt="r8">0</Current><DateUtc dt:dt="string">2016-07-18T16:12:01Z</DateUtc></FrequencyChange></FrequencyChanges></Clock>\n	Hungry_Donkey_bar_English_2-150-1	60.018	-38	1.0.0.18	1	275752747	Standard	2.0.10.353	2.0.10.353	07-18-2016	7/18/2016 4:12:02 PM	12:12:02	2.0.10.248	65	Bar50-50.bmp	56	1	?	0r_4g.bmp	0r_4g.bmp	0r_2g.bmp	0r_2g.bmp	0r_4g.bmp				TrialProc	TrialList	0	cvbn	-999999	16	295158	0	c	2706	297864	182	-142	40	-18	10	18	30	9	7	65	0	0	0	0	4	4	2	2	0	4
Hungry_Donkey_bar_English_2	150	1	<?xml version="1.0"?>\n<Clock xmlns:dt="urn:schemas-microsoft-com:datatypes"><Description dt:dt="string">E-Prime Primary Realtime Clock</Description><StartTime><Timestamp dt:dt="int">0</Timestamp><DateUtc dt:dt="string">2016-07-18T16:12:01Z</DateUtc></StartTime><FrequencyChanges><FrequencyChange><Frequency dt:dt="r8">3507705</Frequency><Timestamp dt:dt="r8">1443384102010</Timestamp><Current dt:dt="r8">0</Current><DateUtc dt:dt="string">2016-07-18T16:12:01Z</DateUtc></FrequencyChange></FrequencyChanges></Clock>\n	Hungry_Donkey_bar_English_2-150-1	60.018	-38	1.0.0.18	1	275752747	Standard	2.0.10.353	2.0.10.353	07-18-2016	7/18/2016 4:12:02 PM	12:12:02	2.0.10.248	66	Bar50-50.bmp	55	1	?	10r_4g.bmp	0r_4g.bmp	2r_2g.bmp	0r_2g.bmp	10r_4g.bmp				TrialProc	TrialList	0	cvbn	-999999	16	299890	0	c	8822	308712	186	-152	34	-24	10	18	30	3	7	66	-10	0	-2	0	4	4	2	2	-10	4
Hungry_Donkey_bar_English_2	150	1	<?xml version="1.0"?>\n<Clock xmlns:dt="urn:schemas-microsoft-com:datatypes"><Description dt:dt="string">E-Prime Primary Realtime Clock</Description><StartTime><Timestamp dt:dt="int">0</Timestamp><DateUtc dt:dt="string">2016-07-18T16:12:01Z</DateUtc></StartTime><FrequencyChanges><FrequencyChange><Frequency dt:dt="r8">3507705</Frequency><Timestamp dt:dt="r8">1443384102010</Timestamp><Current dt:dt="r8">0</Current><DateUtc dt:dt="string">2016-07-18T16:12:01Z</DateUtc></FrequencyChange></FrequencyChanges></Clock>\n	Hungry_Donkey_bar_English_2-150-1	60.018	-38	1.0.0.18	1	275752747	Standard	2.0.10.353	2.0.10.353	07-18-2016	7/18/2016 4:12:02 PM	12:12:02	2.0.10.248	67	Bar50-50.bmp	55	4	?	0r_4g.bmp	0r_4g.bmp	0r_2g.bmp	0r_2g.bmp				0r_2g.bmp	TrialProc	TrialList	0	cvbn	-999999	16	310737	0	n	1942	312679	188	-152	36	-24	10	18	32	8	7	67	0	0	0	0	4	4	2	2	0	2
Hungry_Donkey_bar_English_2	150	1	<?xml version="1.0"?>\n<Clock xmlns:dt="urn:schemas-microsoft-com:datatypes"><Description dt:dt="string">E-Prime Primary Realtime Clock</Description><StartTime><Timestamp dt:dt="int">0</Timestamp><DateUtc dt:dt="string">2016-07-18T16:12:01Z</DateUtc></StartTime><FrequencyChanges><FrequencyChange><Frequency dt:dt="r8">3507705</Frequency><Timestamp dt:dt="r8">1443384102010</Timestamp><Current dt:dt="r8">0</Current><DateUtc dt:dt="string">2016-07-18T16:12:01Z</DateUtc></FrequencyChange></FrequencyChanges></Clock>\n	Hungry_Donkey_bar_English_2-150-1	60.018	-38	1.0.0.18	1	275752747	Standard	2.0.10.353	2.0.10.353	07-18-2016	7/18/2016 4:12:02 PM	12:12:02	2.0.10.248	68	Bar50-50.bmp	56	4	?	0r_4g.bmp	0r_4g.bmp	0r_2g.bmp	0r_2g.bmp				0r_2g.bmp	TrialProc	TrialList	0	cvbn	-999999	16	314719	0	n	3656	318375	190	-152	38	-24	10	18	34	6	7	68	0	0	0	0	4	4	2	2	0	2
Hungry_Donkey_bar_English_2	150	1	<?xml version="1.0"?>\n<Clock xmlns:dt="urn:schemas-microsoft-com:datatypes"><Description dt:dt="string">E-Prime Primary Realtime Clock</Description><StartTime><Timestamp dt:dt="int">0</Timestamp><DateUtc dt:dt="string">2016-07-18T16:12:01Z</DateUtc></StartTime><FrequencyChanges><FrequencyChange><Frequency dt:dt="r8">3507705</Frequency><Timestamp dt:dt="r8">1443384102010</Timestamp><Current dt:dt="r8">0</Current><DateUtc dt:dt="string">2016-07-18T16:12:01Z</DateUtc></FrequencyChange></FrequencyChanges></Clock>\n	Hungry_Donkey_bar_English_2-150-1	60.018	-38	1.0.0.18	1	275752747	Standard	2.0.10.353	2.0.10.353	07-18-2016	7/18/2016 4:12:02 PM	12:12:02	2.0.10.248	69	Bar50-50.bmp	56	3	?	8r_4g.bmp	50r_4g.bmp	1r_2g.bmp	10r_2g.bmp			1r_2g.bmp		TrialProc	TrialList	0	cvbn	-999999	16	320401	0	b	4102	324503	192	-153	39	-24	10	19	34	1	7	69	-8	-50	-1	-10	4	4	2	2	-1	2
Hungry_Donkey_bar_English_2	150	1	<?xml version="1.0"?>\n<Clock xmlns:dt="urn:schemas-microsoft-com:datatypes"><Description dt:dt="string">E-Prime Primary Realtime Clock</Description><StartTime><Timestamp dt:dt="int">0</Timestamp><DateUtc dt:dt="string">2016-07-18T16:12:01Z</DateUtc></StartTime><FrequencyChanges><FrequencyChange><Frequency dt:dt="r8">3507705</Frequency><Timestamp dt:dt="r8">1443384102010</Timestamp><Current dt:dt="r8">0</Current><DateUtc dt:dt="string">2016-07-18T16:12:01Z</DateUtc></FrequencyChange></FrequencyChanges></Clock>\n	Hungry_Donkey_bar_English_2-150-1	60.018	-38	1.0.0.18	1	275752747	Standard	2.0.10.353	2.0.10.353	07-18-2016	7/18/2016 4:12:02 PM	12:12:02	2.0.10.248	70	Bar50-50.bmp	55	1	?	10r_4g.bmp	0r_4g.bmp	2r_2g.bmp	0r_2g.bmp	10r_4g.bmp				TrialProc	TrialList	0	cvbn	-999999	16	326532	0	c	1490	328022	196	-163	33	-30	10	19	34	2	7	70	-10	0	-2	0	4	4	2	2	-10	4
Hungry_Donkey_bar_English_2	150	1	<?xml version="1.0"?>\n<Clock xmlns:dt="urn:schemas-microsoft-com:datatypes"><Description dt:dt="string">E-Prime Primary Realtime Clock</Description><StartTime><Timestamp dt:dt="int">0</Timestamp><DateUtc dt:dt="string">2016-07-18T16:12:01Z</DateUtc></StartTime><FrequencyChanges><FrequencyChange><Frequency dt:dt="r8">3507705</Frequency><Timestamp dt:dt="r8">1443384102010</Timestamp><Current dt:dt="r8">0</Current><DateUtc dt:dt="string">2016-07-18T16:12:01Z</DateUtc></FrequencyChange></FrequencyChanges></Clock>\n	Hungry_Donkey_bar_English_2-150-1	60.018	-38	1.0.0.18	1	275752747	Standard	2.0.10.353	2.0.10.353	07-18-2016	7/18/2016 4:12:02 PM	12:12:02	2.0.10.248	71	Bar50-50.bmp	55	1	?	0r_4g.bmp	0r_4g.bmp	0r_2g.bmp	0r_2g.bmp	0r_4g.bmp				TrialProc	TrialList	0	cvbn	-999999	16	330048	0	c	1990	332038	200	-163	37	-26	10	19	34	9	8	71	0	0	0	0	4	4	2	2	0	4
Hungry_Donkey_bar_English_2	150	1	<?xml version="1.0"?>\n<Clock xmlns:dt="urn:schemas-microsoft-com:datatypes"><Description dt:dt="string">E-Prime Primary Realtime Clock</Description><StartTime><Timestamp dt:dt="int">0</Timestamp><DateUtc dt:dt="string">2016-07-18T16:12:01Z</DateUtc></StartTime><FrequencyChanges><FrequencyChange><Frequency dt:dt="r8">3507705</Frequency><Timestamp dt:dt="r8">1443384102010</Timestamp><Current dt:dt="r8">0</Current><DateUtc dt:dt="string">2016-07-18T16:12:01Z</DateUtc></FrequencyChange></FrequencyChanges></Clock>\n	Hungry_Donkey_bar_English_2-150-1	60.018	-38	1.0.0.18	1	275752747	Standard	2.0.10.353	2.0.10.353	07-18-2016	7/18/2016 4:12:02 PM	12:12:02	2.0.10.248	72	Bar50-50.bmp	56	1	?	0r_4g.bmp	0r_4g.bmp	0r_2g.bmp	0r_2g.bmp	0r_4g.bmp				TrialProc	TrialList	0	cvbn	-999999	16	334063	0	c	823	334886	204	-163	41	-22	10	19	34	6	8	72	0	0	0	0	4	4	2	2	0	4
Hungry_Donkey_bar_English_2	150	1	<?xml version="1.0"?>\n<Clock xmlns:dt="urn:schemas-microsoft-com:datatypes"><Description dt:dt="string">E-Prime Primary Realtime Clock</Description><StartTime><Timestamp dt:dt="int">0</Timestamp><DateUtc dt:dt="string">2016-07-18T16:12:01Z</DateUtc></StartTime><FrequencyChanges><FrequencyChange><Frequency dt:dt="r8">3507705</Frequency><Timestamp dt:dt="r8">1443384102010</Timestamp><Current dt:dt="r8">0</Current><DateUtc dt:dt="string">2016-07-18T16:12:01Z</DateUtc></FrequencyChange></FrequencyChanges></Clock>\n	Hungry_Donkey_bar_English_2-150-1	60.018	-38	1.0.0.18	1	275752747	Standard	2.0.10.353	2.0.10.353	07-18-2016	7/18/2016 4:12:02 PM	12:12:02	2.0.10.248	73	Bar50-50.bmp	56	2	?	0r_4g.bmp	0r_4g.bmp	0r_2g.bmp	0r_2g.bmp		0r_4g.bmp			TrialProc	TrialList	0	cvbn	-999999	16	336912	0	v	2198	339110	208	-163	45	-22	14	19	34	8	8	73	0	0	0	0	4	4	2	2	0	4
Hungry_Donkey_bar_English_2	150	1	<?xml version="1.0"?>\n<Clock xmlns:dt="urn:schemas-microsoft-com:datatypes"><Description dt:dt="string">E-Prime Primary Realtime Clock</Description><StartTime><Timestamp dt:dt="int">0</Timestamp><DateUtc dt:dt="string">2016-07-18T16:12:01Z</DateUtc></StartTime><FrequencyChanges><FrequencyChange><Frequency dt:dt="r8">3507705</Frequency><Timestamp dt:dt="r8">1443384102010</Timestamp><Current dt:dt="r8">0</Current><DateUtc dt:dt="string">2016-07-18T16:12:01Z</DateUtc></FrequencyChange></FrequencyChanges></Clock>\n	Hungry_Donkey_bar_English_2-150-1	60.018	-38	1.0.0.18	1	275752747	Standard	2.0.10.353	2.0.10.353	07-18-2016	7/18/2016 4:12:02 PM	12:12:02	2.0.10.248	74	Bar50-50.bmp	55	4	?	8r_4g.bmp	50r_4g.bmp	1r_2g.bmp	10r_2g.bmp				10r_2g.bmp	TrialProc	TrialList	0	cvbn	-999999	17	341145	0	n	7676	348821	210	-173	37	-22	14	19	26	1	8	74	-8	-50	-1	-10	4	4	2	2	-10	2
Hungry_Donkey_bar_English_2	150	1	<?xml version="1.0"?>\n<Clock xmlns:dt="urn:schemas-microsoft-com:datatypes"><Description dt:dt="string">E-Prime Primary Realtime Clock</Description><StartTime><Timestamp dt:dt="int">0</Timestamp><DateUtc dt:dt="string">2016-07-18T16:12:01Z</DateUtc></StartTime><FrequencyChanges><FrequencyChange><Frequency dt:dt="r8">3507705</Frequency><Timestamp dt:dt="r8">1443384102010</Timestamp><Current dt:dt="r8">0</Current><DateUtc dt:dt="string">2016-07-18T16:12:01Z</DateUtc></FrequencyChange></FrequencyChanges></Clock>\n	Hungry_Donkey_bar_English_2-150-1	60.018	-38	1.0.0.18	1	275752747	Standard	2.0.10.353	2.0.10.353	07-18-2016	7/18/2016 4:12:02 PM	12:12:02	2.0.10.248	75	Bar50-50.bmp	54	1	?	10r_4g.bmp	0r_4g.bmp	2r_2g.bmp	0r_2g.bmp	10r_4g.bmp				TrialProc	TrialList	0	cvbn	-999999	16	350858	0	c	2507	353365	214	-183	31	-28	14	19	26	4	8	75	-10	0	-2	0	4	4	2	2	-10	4
Hungry_Donkey_bar_English_2	150	1	<?xml version="1.0"?>\n<Clock xmlns:dt="urn:schemas-microsoft-com:datatypes"><Description dt:dt="string">E-Prime Primary Realtime Clock</Description><StartTime><Timestamp dt:dt="int">0</Timestamp><DateUtc dt:dt="string">2016-07-18T16:12:01Z</DateUtc></StartTime><FrequencyChanges><FrequencyChange><Frequency dt:dt="r8">3507705</Frequency><Timestamp dt:dt="r8">1443384102010</Timestamp><Current dt:dt="r8">0</Current><DateUtc dt:dt="string">2016-07-18T16:12:01Z</DateUtc></FrequencyChange></FrequencyChanges></Clock>\n	Hungry_Donkey_bar_English_2-150-1	60.018	-38	1.0.0.18	1	275752747	Standard	2.0.10.353	2.0.10.353	07-18-2016	7/18/2016 4:12:02 PM	12:12:02	2.0.10.248	76	Bar50-50.bmp	54	3	?	10r_4g.bmp	0r_4g.bmp	2r_2g.bmp	0r_2g.bmp			2r_2g.bmp		TrialProc	TrialList	0	cvbn	-999999	16	355390	0	b	2071	357461	216	-185	31	-28	14	19	26	3	8	76	-10	0	-2	0	4	4	2	2	-2	2
Hungry_Donkey_bar_English_2	150	1	<?xml version="1.0"?>\n<Clock xmlns:dt="urn:schemas-microsoft-com:datatypes"><Description dt:dt="string">E-Prime Primary Realtime Clock</Description><StartTime><Timestamp dt:dt="int">0</Timestamp><DateUtc dt:dt="string">2016-07-18T16:12:01Z</DateUtc></StartTime><FrequencyChanges><FrequencyChange><Frequency dt:dt="r8">3507705</Frequency><Timestamp dt:dt="r8">1443384102010</Timestamp><Current dt:dt="r8">0</Current><DateUtc dt:dt="string">2016-07-18T16:12:01Z</DateUtc></FrequencyChange></FrequencyChanges></Clock>\n	Hungry_Donkey_bar_English_2-150-1	60.018	-38	1.0.0.18	1	275752747	Standard	2.0.10.353	2.0.10.353	07-18-2016	7/18/2016 4:12:02 PM	12:12:02	2.0.10.248	77	Bar50-50.bmp	54	2	?	10r_4g.bmp	0r_4g.bmp	2r_2g.bmp	0r_2g.bmp		0r_4g.bmp			TrialProc	TrialList	0	cvbn	-999999	16	359489	0	v	948	360437	220	-185	35	-28	18	19	26	2	8	77	-10	0	-2	0	4	4	2	2	0	4
Hungry_Donkey_bar_English_2	150	1	<?xml version="1.0"?>\n<Clock xmlns:dt="urn:schemas-microsoft-com:datatypes"><Description dt:dt="string">E-Prime Primary Realtime Clock</Description><StartTime><Timestamp dt:dt="int">0</Timestamp><DateUtc dt:dt="string">2016-07-18T16:12:01Z</DateUtc></StartTime><FrequencyChanges><FrequencyChange><Frequency dt:dt="r8">3507705</Frequency><Timestamp dt:dt="r8">1443384102010</Timestamp><Current dt:dt="r8">0</Current><DateUtc dt:dt="string">2016-07-18T16:12:01Z</DateUtc></FrequencyChange></FrequencyChanges></Clock>\n	Hungry_Donkey_bar_English_2-150-1	60.018	-38	1.0.0.18	1	275752747	Standard	2.0.10.353	2.0.10.353	07-18-2016	7/18/2016 4:12:02 PM	12:12:02	2.0.10.248	78	Bar50-50.bmp	55	1	?	0r_4g.bmp	0r_4g.bmp	0r_2g.bmp	0r_2g.bmp	0r_4g.bmp				TrialProc	TrialList	0	cvbn	-999999	16	362472	0	c	2444	364916	224	-185	39	-24	18	19	26	7	8	78	0	0	0	0	4	4	2	2	0	4
Hungry_Donkey_bar_English_2	150	1	<?xml version="1.0"?>\n<Clock xmlns:dt="urn:schemas-microsoft-com:datatypes"><Description dt:dt="string">E-Prime Primary Realtime Clock</Description><StartTime><Timestamp dt:dt="int">0</Timestamp><DateUtc dt:dt="string">2016-07-18T16:12:01Z</DateUtc></StartTime><FrequencyChanges><FrequencyChange><Frequency dt:dt="r8">3507705</Frequency><Timestamp dt:dt="r8">1443384102010</Timestamp><Current dt:dt="r8">0</Current><DateUtc dt:dt="string">2016-07-18T16:12:01Z</DateUtc></FrequencyChange></FrequencyChanges></Clock>\n	Hungry_Donkey_bar_English_2-150-1	60.018	-38	1.0.0.18	1	275752747	Standard	2.0.10.353	2.0.10.353	07-18-2016	7/18/2016 4:12:02 PM	12:12:02	2.0.10.248	79	Bar50-50.bmp	54	1	?	12r_4g.bmp	0r_4g.bmp	3r_2g.bmp	0r_2g.bmp	12r_4g.bmp				TrialProc	TrialList	0	cvbn	-999999	16	366954	0	c	586	367540	228	-197	31	-32	18	19	26	5	8	79	-12	0	-3	0	4	4	2	2	-12	4
Hungry_Donkey_bar_English_2	150	1	<?xml version="1.0"?>\n<Clock xmlns:dt="urn:schemas-microsoft-com:datatypes"><Description dt:dt="string">E-Prime Primary Realtime Clock</Description><StartTime><Timestamp dt:dt="int">0</Timestamp><DateUtc dt:dt="string">2016-07-18T16:12:01Z</DateUtc></StartTime><FrequencyChanges><FrequencyChange><Frequency dt:dt="r8">3507705</Frequency><Timestamp dt:dt="r8">1443384102010</Timestamp><Current dt:dt="r8">0</Current><DateUtc dt:dt="string">2016-07-18T16:12:01Z</DateUtc></FrequencyChange></FrequencyChanges></Clock>\n	Hungry_Donkey_bar_English_2-150-1	60.018	-38	1.0.0.18	1	275752747	Standard	2.0.10.353	2.0.10.353	07-18-2016	7/18/2016 4:12:02 PM	12:12:02	2.0.10.248	80	Bar50-50.bmp	54	2	?	0r_4g.bmp	0r_4g.bmp	0r_2g.bmp	0r_2g.bmp		0r_4g.bmp			TrialProc	TrialList	0	cvbn	-999999	17	369570	0	v	3186	372756	232	-197	35	-32	22	19	26	10	8	80	0	0	0	0	4	4	2	2	0	4
Hungry_Donkey_bar_English_2	150	1	<?xml version="1.0"?>\n<Clock xmlns:dt="urn:schemas-microsoft-com:datatypes"><Description dt:dt="string">E-Prime Primary Realtime Clock</Description><StartTime><Timestamp dt:dt="int">0</Timestamp><DateUtc dt:dt="string">2016-07-18T16:12:01Z</DateUtc></StartTime><FrequencyChanges><FrequencyChange><Frequency dt:dt="r8">3507705</Frequency><Timestamp dt:dt="r8">1443384102010</Timestamp><Current dt:dt="r8">0</Current><DateUtc dt:dt="string">2016-07-18T16:12:01Z</DateUtc></FrequencyChange></FrequencyChanges></Clock>\n	Hungry_Donkey_bar_English_2-150-1	60.018	-38	1.0.0.18	1	275752747	Standard	2.0.10.353	2.0.10.353	07-18-2016	7/18/2016 4:12:02 PM	12:12:02	2.0.10.248	81	Bar50-50.bmp	49	2	?	8r_4g.bmp	50r_4g.bmp	1r_2g.bmp	10r_2g.bmp		50r_4g.bmp			TrialProc	TrialList	0	cvbn	-999999	16	374785	0	v	1827	376612	236	-247	-11	-32	-24	19	26	1	9	81	-8	-50	-1	-10	4	4	2	2	-50	4
Hungry_Donkey_bar_English_2	150	1	<?xml version="1.0"?>\n<Clock xmlns:dt="urn:schemas-microsoft-com:datatypes"><Description dt:dt="string">E-Prime Primary Realtime Clock</Description><StartTime><Timestamp dt:dt="int">0</Timestamp><DateUtc dt:dt="string">2016-07-18T16:12:01Z</DateUtc></StartTime><FrequencyChanges><FrequencyChange><Frequency dt:dt="r8">3507705</Frequency><Timestamp dt:dt="r8">1443384102010</Timestamp><Current dt:dt="r8">0</Current><DateUtc dt:dt="string">2016-07-18T16:12:01Z</DateUtc></FrequencyChange></FrequencyChanges></Clock>\n	Hungry_Donkey_bar_English_2-150-1	60.018	-38	1.0.0.18	1	275752747	Standard	2.0.10.353	2.0.10.353	07-18-2016	7/18/2016 4:12:02 PM	12:12:02	2.0.10.248	82	Bar50-50.bmp	49	1	?	0r_4g.bmp	0r_4g.bmp	0r_2g.bmp	0r_2g.bmp	0r_4g.bmp				TrialProc	TrialList	0	cvbn	-999999	16	378650	0	c	1769	380419	240	-247	-7	-28	-24	19	26	7	9	82	0	0	0	0	4	4	2	2	0	4
Hungry_Donkey_bar_English_2	150	1	<?xml version="1.0"?>\n<Clock xmlns:dt="urn:schemas-microsoft-com:datatypes"><Description dt:dt="string">E-Prime Primary Realtime Clock</Description><StartTime><Timestamp dt:dt="int">0</Timestamp><DateUtc dt:dt="string">2016-07-18T16:12:01Z</DateUtc></StartTime><FrequencyChanges><FrequencyChange><Frequency dt:dt="r8">3507705</Frequency><Timestamp dt:dt="r8">1443384102010</Timestamp><Current dt:dt="r8">0</Current><DateUtc dt:dt="string">2016-07-18T16:12:01Z</DateUtc></FrequencyChange></FrequencyChanges></Clock>\n	Hungry_Donkey_bar_English_2-150-1	60.018	-38	1.0.0.18	1	275752747	Standard	2.0.10.353	2.0.10.353	07-18-2016	7/18/2016 4:12:02 PM	12:12:02	2.0.10.248	83	Bar50-50.bmp	49	4	?	12r_4g.bmp	0r_4g.bmp	3r_2g.bmp	0r_2g.bmp				0r_2g.bmp	TrialProc	TrialList	0	cvbn	-999999	16	382449	0	n	1282	383731	242	-247	-5	-28	-24	19	28	5	9	83	-12	0	-3	0	4	4	2	2	0	2
Hungry_Donkey_bar_English_2	150	1	<?xml version="1.0"?>\n<Clock xmlns:dt="urn:schemas-microsoft-com:datatypes"><Description dt:dt="string">E-Prime Primary Realtime Clock</Description><StartTime><Timestamp dt:dt="int">0</Timestamp><DateUtc dt:dt="string">2016-07-18T16:12:01Z</DateUtc></StartTime><FrequencyChanges><FrequencyChange><Frequency dt:dt="r8">3507705</Frequency><Timestamp dt:dt="r8">1443384102010</Timestamp><Current dt:dt="r8">0</Current><DateUtc dt:dt="string">2016-07-18T16:12:01Z</DateUtc></FrequencyChange></FrequencyChanges></Clock>\n	Hungry_Donkey_bar_English_2-150-1	60.018	-38	1.0.0.18	1	275752747	Standard	2.0.10.353	2.0.10.353	07-18-2016	7/18/2016 4:12:02 PM	12:12:02	2.0.10.248	84	Bar50-50.bmp	50	3	?	0r_4g.bmp	0r_4g.bmp	0r_2g.bmp	0r_2g.bmp			0r_2g.bmp		TrialProc	TrialList	0	cvbn	-999999	16	385765	0	b	1022	386787	244	-247	-3	-28	-24	21	28	8	9	84	0	0	0	0	4	4	2	2	0	2
Hungry_Donkey_bar_English_2	150	1	<?xml version="1.0"?>\n<Clock xmlns:dt="urn:schemas-microsoft-com:datatypes"><Description dt:dt="string">E-Prime Primary Realtime Clock</Description><StartTime><Timestamp dt:dt="int">0</Timestamp><DateUtc dt:dt="string">2016-07-18T16:12:01Z</DateUtc></StartTime><FrequencyChanges><FrequencyChange><Frequency dt:dt="r8">3507705</Frequency><Timestamp dt:dt="r8">1443384102010</Timestamp><Current dt:dt="r8">0</Current><DateUtc dt:dt="string">2016-07-18T16:12:01Z</DateUtc></FrequencyChange></FrequencyChanges></Clock>\n	Hungry_Donkey_bar_English_2-150-1	60.018	-38	1.0.0.18	1	275752747	Standard	2.0.10.353	2.0.10.353	07-18-2016	7/18/2016 4:12:02 PM	12:12:02	2.0.10.248	85	Bar50-50.bmp	50	2	?	0r_4g.bmp	0r_4g.bmp	0r_2g.bmp	0r_2g.bmp		0r_4g.bmp			TrialProc	TrialList	0	cvbn	-999999	16	388814	0	v	309	389123	248	-247	1	-28	-20	21	28	10	9	85	0	0	0	0	4	4	2	2	0	4
Hungry_Donkey_bar_English_2	150	1	<?xml version="1.0"?>\n<Clock xmlns:dt="urn:schemas-microsoft-com:datatypes"><Description dt:dt="string">E-Prime Primary Realtime Clock</Description><StartTime><Timestamp dt:dt="int">0</Timestamp><DateUtc dt:dt="string">2016-07-18T16:12:01Z</DateUtc></StartTime><FrequencyChanges><FrequencyChange><Frequency dt:dt="r8">3507705</Frequency><Timestamp dt:dt="r8">1443384102010</Timestamp><Current dt:dt="r8">0</Current><DateUtc dt:dt="string">2016-07-18T16:12:01Z</DateUtc></FrequencyChange></FrequencyChanges></Clock>\n	Hungry_Donkey_bar_English_2-150-1	60.018	-38	1.0.0.18	1	275752747	Standard	2.0.10.353	2.0.10.353	07-18-2016	7/18/2016 4:12:02 PM	12:12:02	2.0.10.248	86	Bar50-50.bmp	50	1	?	10r_4g.bmp	0r_4g.bmp	2r_2g.bmp	0r_2g.bmp	10r_4g.bmp				TrialProc	TrialList	0	cvbn	-999999	16	391147	0	c	408	391555	252	-257	-5	-34	-20	21	28	4	9	86	-10	0	-2	0	4	4	2	2	-10	4
Hungry_Donkey_bar_English_2	150	1	<?xml version="1.0"?>\n<Clock xmlns:dt="urn:schemas-microsoft-com:datatypes"><Description dt:dt="string">E-Prime Primary Realtime Clock</Description><StartTime><Timestamp dt:dt="int">0</Timestamp><DateUtc dt:dt="string">2016-07-18T16:12:01Z</DateUtc></StartTime><FrequencyChanges><FrequencyChange><Frequency dt:dt="r8">3507705</Frequency><Timestamp dt:dt="r8">1443384102010</Timestamp><Current dt:dt="r8">0</Current><DateUtc dt:dt="string">2016-07-18T16:12:01Z</DateUtc></FrequencyChange></FrequencyChanges></Clock>\n	Hungry_Donkey_bar_English_2-150-1	60.018	-38	1.0.0.18	1	275752747	Standard	2.0.10.353	2.0.10.353	07-18-2016	7/18/2016 4:12:02 PM	12:12:02	2.0.10.248	87	Bar50-50.bmp	50	1	?	0r_4g.bmp	0r_4g.bmp	0r_2g.bmp	0r_2g.bmp	0r_4g.bmp				TrialProc	TrialList	0	cvbn	-999999	16	393579	0	c	4839	398418	256	-257	-1	-30	-20	21	28	6	9	87	0	0	0	0	4	4	2	2	0	4
Hungry_Donkey_bar_English_2	150	1	<?xml version="1.0"?>\n<Clock xmlns:dt="urn:schemas-microsoft-com:datatypes"><Description dt:dt="string">E-Prime Primary Realtime Clock</Description><StartTime><Timestamp dt:dt="int">0</Timestamp><DateUtc dt:dt="string">2016-07-18T16:12:01Z</DateUtc></StartTime><FrequencyChanges><FrequencyChange><Frequency dt:dt="r8">3507705</Frequency><Timestamp dt:dt="r8">1443384102010</Timestamp><Current dt:dt="r8">0</Current><DateUtc dt:dt="string">2016-07-18T16:12:01Z</DateUtc></FrequencyChange></FrequencyChanges></Clock>\n	Hungry_Donkey_bar_English_2-150-1	60.018	-38	1.0.0.18	1	275752747	Standard	2.0.10.353	2.0.10.353	07-18-2016	7/18/2016 4:12:02 PM	12:12:02	2.0.10.248	88	Bar50-50.bmp	50	2	?	10r_4g.bmp	0r_4g.bmp	2r_2g.bmp	0r_2g.bmp		0r_4g.bmp			TrialProc	TrialList	0	cvbn	-999999	16	400444	0	v	550	400994	260	-257	3	-30	-16	21	28	3	9	88	-10	0	-2	0	4	4	2	2	0	4
Hungry_Donkey_bar_English_2	150	1	<?xml version="1.0"?>\n<Clock xmlns:dt="urn:schemas-microsoft-com:datatypes"><Description dt:dt="string">E-Prime Primary Realtime Clock</Description><StartTime><Timestamp dt:dt="int">0</Timestamp><DateUtc dt:dt="string">2016-07-18T16:12:01Z</DateUtc></StartTime><FrequencyChanges><FrequencyChange><Frequency dt:dt="r8">3507705</Frequency><Timestamp dt:dt="r8">1443384102010</Timestamp><Current dt:dt="r8">0</Current><DateUtc dt:dt="string">2016-07-18T16:12:01Z</DateUtc></FrequencyChange></FrequencyChanges></Clock>\n	Hungry_Donkey_bar_English_2-150-1	60.018	-38	1.0.0.18	1	275752747	Standard	2.0.10.353	2.0.10.353	07-18-2016	7/18/2016 4:12:02 PM	12:12:02	2.0.10.248	89	Bar50-50.bmp	50	3	?	10r_4g.bmp	0r_4g.bmp	2r_2g.bmp	0r_2g.bmp			2r_2g.bmp		TrialProc	TrialList	0	cvbn	-999999	16	403026	0	b	496	403522	262	-259	3	-30	-16	21	28	2	9	89	-10	0	-2	0	4	4	2	2	-2	2
Hungry_Donkey_bar_English_2	150	1	<?xml version="1.0"?>\n<Clock xmlns:dt="urn:schemas-microsoft-com:datatypes"><Description dt:dt="string">E-Prime Primary Realtime Clock</Description><StartTime><Timestamp dt:dt="int">0</Timestamp><DateUtc dt:dt="string">2016-07-18T16:12:01Z</DateUtc></StartTime><FrequencyChanges><FrequencyChange><Frequency dt:dt="r8">3507705</Frequency><Timestamp dt:dt="r8">1443384102010</Timestamp><Current dt:dt="r8">0</Current><DateUtc dt:dt="string">2016-07-18T16:12:01Z</DateUtc></FrequencyChange></FrequencyChanges></Clock>\n	Hungry_Donkey_bar_English_2-150-1	60.018	-38	1.0.0.18	1	275752747	Standard	2.0.10.353	2.0.10.353	07-18-2016	7/18/2016 4:12:02 PM	12:12:02	2.0.10.248	90	Bar50-50.bmp	50	4	?	0r_4g.bmp	0r_4g.bmp	0r_2g.bmp	0r_2g.bmp				0r_2g.bmp	TrialProc	TrialList	0	cvbn	-999999	16	405559	0	n	2795	408354	264	-259	5	-30	-16	21	30	9	9	90	0	0	0	0	4	4	2	2	0	2
Hungry_Donkey_bar_English_2	150	1	<?xml version="1.0"?>\n<Clock xmlns:dt="urn:schemas-microsoft-com:datatypes"><Description dt:dt="string">E-Prime Primary Realtime Clock</Description><StartTime><Timestamp dt:dt="int">0</Timestamp><DateUtc dt:dt="string">2016-07-18T16:12:01Z</DateUtc></StartTime><FrequencyChanges><FrequencyChange><Frequency dt:dt="r8">3507705</Frequency><Timestamp dt:dt="r8">1443384102010</Timestamp><Current dt:dt="r8">0</Current><DateUtc dt:dt="string">2016-07-18T16:12:01Z</DateUtc></FrequencyChange></FrequencyChanges></Clock>\n	Hungry_Donkey_bar_English_2-150-1	60.018	-38	1.0.0.18	1	275752747	Standard	2.0.10.353	2.0.10.353	07-18-2016	7/18/2016 4:12:02 PM	12:12:02	2.0.10.248	91	Bar50-50.bmp	50	3	?	12r_4g.bmp	0r_4g.bmp	3r_2g.bmp	0r_2g.bmp			3r_2g.bmp		TrialProc	TrialList	0	cvbn	-999999	16	410391	0	b	139	410530	266	-262	4	-30	-16	20	30	5	10	91	-12	0	-3	0	4	4	2	2	-3	2
Hungry_Donkey_bar_English_2	150	1	<?xml version="1.0"?>\n<Clock xmlns:dt="urn:schemas-microsoft-com:datatypes"><Description dt:dt="string">E-Prime Primary Realtime Clock</Description><StartTime><Timestamp dt:dt="int">0</Timestamp><DateUtc dt:dt="string">2016-07-18T16:12:01Z</DateUtc></StartTime><FrequencyChanges><FrequencyChange><Frequency dt:dt="r8">3507705</Frequency><Timestamp dt:dt="r8">1443384102010</Timestamp><Current dt:dt="r8">0</Current><DateUtc dt:dt="string">2016-07-18T16:12:01Z</DateUtc></FrequencyChange></FrequencyChanges></Clock>\n	Hungry_Donkey_bar_English_2-150-1	60.018	-38	1.0.0.18	1	275752747	Standard	2.0.10.353	2.0.10.353	07-18-2016	7/18/2016 4:12:02 PM	12:12:02	2.0.10.248	92	Bar50-50.bmp	51	2	?	0r_4g.bmp	0r_4g.bmp	0r_2g.bmp	0r_2g.bmp		0r_4g.bmp			TrialProc	TrialList	0	cvbn	-999999	16	412557	0	v	453	413010	270	-262	8	-30	-12	20	30	7	10	92	0	0	0	0	4	4	2	2	0	4
Hungry_Donkey_bar_English_2	150	1	<?xml version="1.0"?>\n<Clock xmlns:dt="urn:schemas-microsoft-com:datatypes"><Description dt:dt="string">E-Prime Primary Realtime Clock</Description><StartTime><Timestamp dt:dt="int">0</Timestamp><DateUtc dt:dt="string">2016-07-18T16:12:01Z</DateUtc></StartTime><FrequencyChanges><FrequencyChange><Frequency dt:dt="r8">3507705</Frequency><Timestamp dt:dt="r8">1443384102010</Timestamp><Current dt:dt="r8">0</Current><DateUtc dt:dt="string">2016-07-18T16:12:01Z</DateUtc></FrequencyChange></FrequencyChanges></Clock>\n	Hungry_Donkey_bar_English_2-150-1	60.018	-38	1.0.0.18	1	275752747	Standard	2.0.10.353	2.0.10.353	07-18-2016	7/18/2016 4:12:02 PM	12:12:02	2.0.10.248	93	Bar50-50.bmp	51	1	?	0r_4g.bmp	0r_4g.bmp	0r_2g.bmp	0r_2g.bmp	0r_4g.bmp				TrialProc	TrialList	0	cvbn	-999999	16	415039	0	c	1666	416705	274	-262	12	-26	-12	20	30	8	10	93	0	0	0	0	4	4	2	2	0	4
Hungry_Donkey_bar_English_2	150	1	<?xml version="1.0"?>\n<Clock xmlns:dt="urn:schemas-microsoft-com:datatypes"><Description dt:dt="string">E-Prime Primary Realtime Clock</Description><StartTime><Timestamp dt:dt="int">0</Timestamp><DateUtc dt:dt="string">2016-07-18T16:12:01Z</DateUtc></StartTime><FrequencyChanges><FrequencyChange><Frequency dt:dt="r8">3507705</Frequency><Timestamp dt:dt="r8">1443384102010</Timestamp><Current dt:dt="r8">0</Current><DateUtc dt:dt="string">2016-07-18T16:12:01Z</DateUtc></FrequencyChange></FrequencyChanges></Clock>\n	Hungry_Donkey_bar_English_2-150-1	60.018	-38	1.0.0.18	1	275752747	Standard	2.0.10.353	2.0.10.353	07-18-2016	7/18/2016 4:12:02 PM	12:12:02	2.0.10.248	94	Bar50-50.bmp	51	1	?	0r_4g.bmp	0r_4g.bmp	0r_2g.bmp	0r_2g.bmp	0r_4g.bmp				TrialProc	TrialList	0	cvbn	-999999	16	418738	0	c	879	419617	278	-262	16	-22	-12	20	30	6	10	94	0	0	0	0	4	4	2	2	0	4
Hungry_Donkey_bar_English_2	150	1	<?xml version="1.0"?>\n<Clock xmlns:dt="urn:schemas-microsoft-com:datatypes"><Description dt:dt="string">E-Prime Primary Realtime Clock</Description><StartTime><Timestamp dt:dt="int">0</Timestamp><DateUtc dt:dt="string">2016-07-18T16:12:01Z</DateUtc></StartTime><FrequencyChanges><FrequencyChange><Frequency dt:dt="r8">3507705</Frequency><Timestamp dt:dt="r8">1443384102010</Timestamp><Current dt:dt="r8">0</Current><DateUtc dt:dt="string">2016-07-18T16:12:01Z</DateUtc></FrequencyChange></FrequencyChanges></Clock>\n	Hungry_Donkey_bar_English_2-150-1	60.018	-38	1.0.0.18	1	275752747	Standard	2.0.10.353	2.0.10.353	07-18-2016	7/18/2016 4:12:02 PM	12:12:02	2.0.10.248	95	Bar50-50.bmp	51	1	?	8r_4g.bmp	50r_4g.bmp	1r_2g.bmp	10r_2g.bmp	8r_4g.bmp				TrialProc	TrialList	0	cvbn	-999999	16	421654	0	c	411	422065	282	-270	12	-26	-12	20	30	1	10	95	-8	-50	-1	-10	4	4	2	2	-8	4
Hungry_Donkey_bar_English_2	150	1	<?xml version="1.0"?>\n<Clock xmlns:dt="urn:schemas-microsoft-com:datatypes"><Description dt:dt="string">E-Prime Primary Realtime Clock</Description><StartTime><Timestamp dt:dt="int">0</Timestamp><DateUtc dt:dt="string">2016-07-18T16:12:01Z</DateUtc></StartTime><FrequencyChanges><FrequencyChange><Frequency dt:dt="r8">3507705</Frequency><Timestamp dt:dt="r8">1443384102010</Timestamp><Current dt:dt="r8">0</Current><DateUtc dt:dt="string">2016-07-18T16:12:01Z</DateUtc></FrequencyChange></FrequencyChanges></Clock>\n	Hungry_Donkey_bar_English_2-150-1	60.018	-38	1.0.0.18	1	275752747	Standard	2.0.10.353	2.0.10.353	07-18-2016	7/18/2016 4:12:02 PM	12:12:02	2.0.10.248	96	Bar50-50.bmp	51	1	?	0r_4g.bmp	0r_4g.bmp	0r_2g.bmp	0r_2g.bmp	0r_4g.bmp				TrialProc	TrialList	0	cvbn	-999999	16	424103	0	c	314	424417	286	-270	16	-22	-12	20	30	10	10	96	0	0	0	0	4	4	2	2	0	4
Hungry_Donkey_bar_English_2	150	1	<?xml version="1.0"?>\n<Clock xmlns:dt="urn:schemas-microsoft-com:datatypes"><Description dt:dt="string">E-Prime Primary Realtime Clock</Description><StartTime><Timestamp dt:dt="int">0</Timestamp><DateUtc dt:dt="string">2016-07-18T16:12:01Z</DateUtc></StartTime><FrequencyChanges><FrequencyChange><Frequency dt:dt="r8">3507705</Frequency><Timestamp dt:dt="r8">1443384102010</Timestamp><Current dt:dt="r8">0</Current><DateUtc dt:dt="string">2016-07-18T16:12:01Z</DateUtc></FrequencyChange></FrequencyChanges></Clock>\n	Hungry_Donkey_bar_English_2-150-1	60.018	-38	1.0.0.18	1	275752747	Standard	2.0.10.353	2.0.10.353	07-18-2016	7/18/2016 4:12:02 PM	12:12:02	2.0.10.248	97	Bar50-50.bmp	51	1	?	10r_4g.bmp	0r_4g.bmp	2r_2g.bmp	0r_2g.bmp	10r_4g.bmp				TrialProc	TrialList	0	cvbn	-999999	16	426453	0	c	700	427153	290	-280	10	-28	-12	20	30	4	10	97	-10	0	-2	0	4	4	2	2	-10	4
Hungry_Donkey_bar_English_2	150	1	<?xml version="1.0"?>\n<Clock xmlns:dt="urn:schemas-microsoft-com:datatypes"><Description dt:dt="string">E-Prime Primary Realtime Clock</Description><StartTime><Timestamp dt:dt="int">0</Timestamp><DateUtc dt:dt="string">2016-07-18T16:12:01Z</DateUtc></StartTime><FrequencyChanges><FrequencyChange><Frequency dt:dt="r8">3507705</Frequency><Timestamp dt:dt="r8">1443384102010</Timestamp><Current dt:dt="r8">0</Current><DateUtc dt:dt="string">2016-07-18T16:12:01Z</DateUtc></FrequencyChange></FrequencyChanges></Clock>\n	Hungry_Donkey_bar_English_2-150-1	60.018	-38	1.0.0.18	1	275752747	Standard	2.0.10.353	2.0.10.353	07-18-2016	7/18/2016 4:12:02 PM	12:12:02	2.0.10.248	98	Bar50-50.bmp	50	1	?	10r_4g.bmp	0r_4g.bmp	2r_2g.bmp	0r_2g.bmp	10r_4g.bmp				TrialProc	TrialList	0	cvbn	-999999	16	429185	0	c	448	429633	294	-290	4	-34	-12	20	30	3	10	98	-10	0	-2	0	4	4	2	2	-10	4
Hungry_Donkey_bar_English_2	150	1	<?xml version="1.0"?>\n<Clock xmlns:dt="urn:schemas-microsoft-com:datatypes"><Description dt:dt="string">E-Prime Primary Realtime Clock</Description><StartTime><Timestamp dt:dt="int">0</Timestamp><DateUtc dt:dt="string">2016-07-18T16:12:01Z</DateUtc></StartTime><FrequencyChanges><FrequencyChange><Frequency dt:dt="r8">3507705</Frequency><Timestamp dt:dt="r8">1443384102010</Timestamp><Current dt:dt="r8">0</Current><DateUtc dt:dt="string">2016-07-18T16:12:01Z</DateUtc></FrequencyChange></FrequencyChanges></Clock>\n	Hungry_Donkey_bar_English_2-150-1	60.018	-38	1.0.0.18	1	275752747	Standard	2.0.10.353	2.0.10.353	07-18-2016	7/18/2016 4:12:02 PM	12:12:02	2.0.10.248	99	Bar50-50.bmp	51	1	?	0r_4g.bmp	0r_4g.bmp	0r_2g.bmp	0r_2g.bmp	0r_4g.bmp				TrialProc	TrialList	0	cvbn	-999999	16	431668	0	c	477	432145	298	-290	8	-30	-12	20	30	9	10	99	0	0	0	0	4	4	2	2	0	4
Hungry_Donkey_bar_English_2	150	1	<?xml version="1.0"?>\n<Clock xmlns:dt="urn:schemas-microsoft-com:datatypes"><Description dt:dt="string">E-Prime Primary Realtime Clock</Description><StartTime><Timestamp dt:dt="int">0</Timestamp><DateUtc dt:dt="string">2016-07-18T16:12:01Z</DateUtc></StartTime><FrequencyChanges><FrequencyChange><Frequency dt:dt="r8">3507705</Frequency><Timestamp dt:dt="r8">1443384102010</Timestamp><Current dt:dt="r8">0</Current><DateUtc dt:dt="string">2016-07-18T16:12:01Z</DateUtc></FrequencyChange></FrequencyChanges></Clock>\n	Hungry_Donkey_bar_English_2-150-1	60.018	-38	1.0.0.18	1	275752747	Standard	2.0.10.353	2.0.10.353	07-18-2016	7/18/2016 4:12:02 PM	12:12:02	2.0.10.248	100	Bar50-50.bmp	50	1	?	10r_4g.bmp	0r_4g.bmp	2r_2g.bmp	0r_2g.bmp	10r_4g.bmp				TrialProc	TrialList	0	cvbn	-999999	16	434184	0	c	328	434512	302	-300	2	-36	-12	20	30	2	10	100	-10	0	-2	0	4	4	2	2	-10	4
Hungry_Donkey_bar_English_2	150	1	<?xml version="1.0"?>\n<Clock xmlns:dt="urn:schemas-microsoft-com:datatypes"><Description dt:dt="string">E-Prime Primary Realtime Clock</Description><StartTime><Timestamp dt:dt="int">0</Timestamp><DateUtc dt:dt="string">2016-07-18T16:12:01Z</DateUtc></StartTime><FrequencyChanges><FrequencyChange><Frequency dt:dt="r8">3507705</Frequency><Timestamp dt:dt="r8">1443384102010</Timestamp><Current dt:dt="r8">0</Current><DateUtc dt:dt="string">2016-07-18T16:12:01Z</DateUtc></FrequencyChange></FrequencyChanges></Clock>\n	Hungry_Donkey_bar_English_2-150-1	60.018	-38	1.0.0.18	1	275752747	Standard	2.0.10.353	2.0.10.353	07-18-2016	7/18/2016 4:12:02 PM	12:12:02	2.0.10.248	101	Bar50-50.bmp	50	1	?	0r_4g.bmp	0r_4g.bmp	0r_2g.bmp	0r_2g.bmp	0r_4g.bmp				TrialProc	TrialList	0	cvbn	-999999	16	436550	0	c	650	437200	306	-300	6	-32	-12	20	30	10	11	101	0	0	0	0	4	4	2	2	0	4
Hungry_Donkey_bar_English_2	150	1	<?xml version="1.0"?>\n<Clock xmlns:dt="urn:schemas-microsoft-com:datatypes"><Description dt:dt="string">E-Prime Primary Realtime Clock</Description><StartTime><Timestamp dt:dt="int">0</Timestamp><DateUtc dt:dt="string">2016-07-18T16:12:01Z</DateUtc></StartTime><FrequencyChanges><FrequencyChange><Frequency dt:dt="r8">3507705</Frequency><Timestamp dt:dt="r8">1443384102010</Timestamp><Current dt:dt="r8">0</Current><DateUtc dt:dt="string">2016-07-18T16:12:01Z</DateUtc></FrequencyChange></FrequencyChanges></Clock>\n	Hungry_Donkey_bar_English_2-150-1	60.018	-38	1.0.0.18	1	275752747	Standard	2.0.10.353	2.0.10.353	07-18-2016	7/18/2016 4:12:02 PM	12:12:02	2.0.10.248	102	Bar50-50.bmp	50	1	?	12r_4g.bmp	0r_4g.bmp	3r_2g.bmp	0r_2g.bmp	12r_4g.bmp				TrialProc	TrialList	0	cvbn	-999999	16	439232	0	c	336	439568	310	-312	-2	-40	-12	20	30	5	11	102	-12	0	-3	0	4	4	2	2	-12	4
Hungry_Donkey_bar_English_2	150	1	<?xml version="1.0"?>\n<Clock xmlns:dt="urn:schemas-microsoft-com:datatypes"><Description dt:dt="string">E-Prime Primary Realtime Clock</Description><StartTime><Timestamp dt:dt="int">0</Timestamp><DateUtc dt:dt="string">2016-07-18T16:12:01Z</DateUtc></StartTime><FrequencyChanges><FrequencyChange><Frequency dt:dt="r8">3507705</Frequency><Timestamp dt:dt="r8">1443384102010</Timestamp><Current dt:dt="r8">0</Current><DateUtc dt:dt="string">2016-07-18T16:12:01Z</DateUtc></FrequencyChange></FrequencyChanges></Clock>\n	Hungry_Donkey_bar_English_2-150-1	60.018	-38	1.0.0.18	1	275752747	Standard	2.0.10.353	2.0.10.353	07-18-2016	7/18/2016 4:12:02 PM	12:12:02	2.0.10.248	103	Bar50-50.bmp	49	1	?	10r_4g.bmp	0r_4g.bmp	2r_2g.bmp	0r_2g.bmp	10r_4g.bmp				TrialProc	TrialList	0	cvbn	-999999	16	441598	0	c	1938	443536	314	-322	-8	-46	-12	20	30	2	11	103	-10	0	-2	0	4	4	2	2	-10	4
Hungry_Donkey_bar_English_2	150	1	<?xml version="1.0"?>\n<Clock xmlns:dt="urn:schemas-microsoft-com:datatypes"><Description dt:dt="string">E-Prime Primary Realtime Clock</Description><StartTime><Timestamp dt:dt="int">0</Timestamp><DateUtc dt:dt="string">2016-07-18T16:12:01Z</DateUtc></StartTime><FrequencyChanges><FrequencyChange><Frequency dt:dt="r8">3507705</Frequency><Timestamp dt:dt="r8">1443384102010</Timestamp><Current dt:dt="r8">0</Current><DateUtc dt:dt="string">2016-07-18T16:12:01Z</DateUtc></FrequencyChange></FrequencyChanges></Clock>\n	Hungry_Donkey_bar_English_2-150-1	60.018	-38	1.0.0.18	1	275752747	Standard	2.0.10.353	2.0.10.353	07-18-2016	7/18/2016 4:12:02 PM	12:12:02	2.0.10.248	104	Bar50-50.bmp	50	1	?	0r_4g.bmp	0r_4g.bmp	0r_2g.bmp	0r_2g.bmp	0r_4g.bmp				TrialProc	TrialList	0	cvbn	-999999	16	445580	0	c	836	446416	318	-322	-4	-42	-12	20	30	8	11	104	0	0	0	0	4	4	2	2	0	4
Hungry_Donkey_bar_English_2	150	1	<?xml version="1.0"?>\n<Clock xmlns:dt="urn:schemas-microsoft-com:datatypes"><Description dt:dt="string">E-Prime Primary Realtime Clock</Description><StartTime><Timestamp dt:dt="int">0</Timestamp><DateUtc dt:dt="string">2016-07-18T16:12:01Z</DateUtc></StartTime><FrequencyChanges><FrequencyChange><Frequency dt:dt="r8">3507705</Frequency><Timestamp dt:dt="r8">1443384102010</Timestamp><Current dt:dt="r8">0</Current><DateUtc dt:dt="string">2016-07-18T16:12:01Z</DateUtc></FrequencyChange></FrequencyChanges></Clock>\n	Hungry_Donkey_bar_English_2-150-1	60.018	-38	1.0.0.18	1	275752747	Standard	2.0.10.353	2.0.10.353	07-18-2016	7/18/2016 4:12:02 PM	12:12:02	2.0.10.248	105	Bar50-50.bmp	50	1	?	0r_4g.bmp	0r_4g.bmp	0r_2g.bmp	0r_2g.bmp	0r_4g.bmp				TrialProc	TrialList	0	cvbn	-999999	16	448446	0	c	594	449040	322	-322	0	-38	-12	20	30	7	11	105	0	0	0	0	4	4	2	2	0	4
Hungry_Donkey_bar_English_2	150	1	<?xml version="1.0"?>\n<Clock xmlns:dt="urn:schemas-microsoft-com:datatypes"><Description dt:dt="string">E-Prime Primary Realtime Clock</Description><StartTime><Timestamp dt:dt="int">0</Timestamp><DateUtc dt:dt="string">2016-07-18T16:12:01Z</DateUtc></StartTime><FrequencyChanges><FrequencyChange><Frequency dt:dt="r8">3507705</Frequency><Timestamp dt:dt="r8">1443384102010</Timestamp><Current dt:dt="r8">0</Current><DateUtc dt:dt="string">2016-07-18T16:12:01Z</DateUtc></FrequencyChange></FrequencyChanges></Clock>\n	Hungry_Donkey_bar_English_2-150-1	60.018	-38	1.0.0.18	1	275752747	Standard	2.0.10.353	2.0.10.353	07-18-2016	7/18/2016 4:12:02 PM	12:12:02	2.0.10.248	106	Bar50-50.bmp	50	3	?	0r_4g.bmp	0r_4g.bmp	0r_2g.bmp	0r_2g.bmp			0r_2g.bmp		TrialProc	TrialList	0	cvbn	-999999	16	451079	0	b	2216	453295	324	-322	2	-38	-12	22	30	9	11	106	0	0	0	0	4	4	2	2	0	2
Hungry_Donkey_bar_English_2	150	1	<?xml version="1.0"?>\n<Clock xmlns:dt="urn:schemas-microsoft-com:datatypes"><Description dt:dt="string">E-Prime Primary Realtime Clock</Description><StartTime><Timestamp dt:dt="int">0</Timestamp><DateUtc dt:dt="string">2016-07-18T16:12:01Z</DateUtc></StartTime><FrequencyChanges><FrequencyChange><Frequency dt:dt="r8">3507705</Frequency><Timestamp dt:dt="r8">1443384102010</Timestamp><Current dt:dt="r8">0</Current><DateUtc dt:dt="string">2016-07-18T16:12:01Z</DateUtc></FrequencyChange></FrequencyChanges></Clock>\n	Hungry_Donkey_bar_English_2-150-1	60.018	-38	1.0.0.18	1	275752747	Standard	2.0.10.353	2.0.10.353	07-18-2016	7/18/2016 4:12:02 PM	12:12:02	2.0.10.248	107	Bar50-50.bmp	50	4	?	10r_4g.bmp	0r_4g.bmp	2r_2g.bmp	0r_2g.bmp				0r_2g.bmp	TrialProc	TrialList	0	cvbn	-999999	16	455328	0	n	1759	457087	326	-322	4	-38	-12	22	32	3	11	107	-10	0	-2	0	4	4	2	2	0	2
Hungry_Donkey_bar_English_2	150	1	<?xml version="1.0"?>\n<Clock xmlns:dt="urn:schemas-microsoft-com:datatypes"><Description dt:dt="string">E-Prime Primary Realtime Clock</Description><StartTime><Timestamp dt:dt="int">0</Timestamp><DateUtc dt:dt="string">2016-07-18T16:12:01Z</DateUtc></StartTime><FrequencyChanges><FrequencyChange><Frequency dt:dt="r8">3507705</Frequency><Timestamp dt:dt="r8">1443384102010</Timestamp><Current dt:dt="r8">0</Current><DateUtc dt:dt="string">2016-07-18T16:12:01Z</DateUtc></FrequencyChange></FrequencyChanges></Clock>\n	Hungry_Donkey_bar_English_2-150-1	60.018	-38	1.0.0.18	1	275752747	Standard	2.0.10.353	2.0.10.353	07-18-2016	7/18/2016 4:12:02 PM	12:12:02	2.0.10.248	108	Bar50-50.bmp	50	3	?	0r_4g.bmp	0r_4g.bmp	0r_2g.bmp	0r_2g.bmp			0r_2g.bmp		TrialProc	TrialList	0	cvbn	-999999	16	459110	0	b	937	460047	328	-322	6	-38	-12	24	32	6	11	108	0	0	0	0	4	4	2	2	0	2
Hungry_Donkey_bar_English_2	150	1	<?xml version="1.0"?>\n<Clock xmlns:dt="urn:schemas-microsoft-com:datatypes"><Description dt:dt="string">E-Prime Primary Realtime Clock</Description><StartTime><Timestamp dt:dt="int">0</Timestamp><DateUtc dt:dt="string">2016-07-18T16:12:01Z</DateUtc></StartTime><FrequencyChanges><FrequencyChange><Frequency dt:dt="r8">3507705</Frequency><Timestamp dt:dt="r8">1443384102010</Timestamp><Current dt:dt="r8">0</Current><DateUtc dt:dt="string">2016-07-18T16:12:01Z</DateUtc></FrequencyChange></FrequencyChanges></Clock>\n	Hungry_Donkey_bar_English_2-150-1	60.018	-38	1.0.0.18	1	275752747	Standard	2.0.10.353	2.0.10.353	07-18-2016	7/18/2016 4:12:02 PM	12:12:02	2.0.10.248	109	Bar50-50.bmp	50	1	?	10r_4g.bmp	0r_4g.bmp	2r_2g.bmp	0r_2g.bmp	10r_4g.bmp				TrialProc	TrialList	0	cvbn	-999999	16	462076	0	c	2707	464783	332	-332	0	-44	-12	24	32	4	11	109	-10	0	-2	0	4	4	2	2	-10	4
Hungry_Donkey_bar_English_2	150	1	<?xml version="1.0"?>\n<Clock xmlns:dt="urn:schemas-microsoft-com:datatypes"><Description dt:dt="string">E-Prime Primary Realtime Clock</Description><StartTime><Timestamp dt:dt="int">0</Timestamp><DateUtc dt:dt="string">2016-07-18T16:12:01Z</DateUtc></StartTime><FrequencyChanges><FrequencyChange><Frequency dt:dt="r8">3507705</Frequency><Timestamp dt:dt="r8">1443384102010</Timestamp><Current dt:dt="r8">0</Current><DateUtc dt:dt="string">2016-07-18T16:12:01Z</DateUtc></FrequencyChange></FrequencyChanges></Clock>\n	Hungry_Donkey_bar_English_2-150-1	60.018	-38	1.0.0.18	1	275752747	Standard	2.0.10.353	2.0.10.353	07-18-2016	7/18/2016 4:12:02 PM	12:12:02	2.0.10.248	110	Bar50-50.bmp	47	2	?	8r_4g.bmp	50r_4g.bmp	1r_2g.bmp	10r_2g.bmp		50r_4g.bmp			TrialProc	TrialList	0	cvbn	-999999	17	466808	0	v	807	467615	336	-382	-46	-44	-58	24	32	1	11	110	-8	-50	-1	-10	4	4	2	2	-50	4
Hungry_Donkey_bar_English_2	150	1	<?xml version="1.0"?>\n<Clock xmlns:dt="urn:schemas-microsoft-com:datatypes"><Description dt:dt="string">E-Prime Primary Realtime Clock</Description><StartTime><Timestamp dt:dt="int">0</Timestamp><DateUtc dt:dt="string">2016-07-18T16:12:01Z</DateUtc></StartTime><FrequencyChanges><FrequencyChange><Frequency dt:dt="r8">3507705</Frequency><Timestamp dt:dt="r8">1443384102010</Timestamp><Current dt:dt="r8">0</Current><DateUtc dt:dt="string">2016-07-18T16:12:01Z</DateUtc></FrequencyChange></FrequencyChanges></Clock>\n	Hungry_Donkey_bar_English_2-150-1	60.018	-38	1.0.0.18	1	275752747	Standard	2.0.10.353	2.0.10.353	07-18-2016	7/18/2016 4:12:02 PM	12:12:02	2.0.10.248	111	Bar50-50.bmp	47	1	?	8r_4g.bmp	50r_4g.bmp	1r_2g.bmp	10r_2g.bmp	8r_4g.bmp				TrialProc	TrialList	0	cvbn	-999999	16	469640	0	c	678	470318	340	-390	-50	-48	-58	24	32	1	12	111	-8	-50	-1	-10	4	4	2	2	-8	4
