ExperimentName	Subject	Session	Clock.Information	DataFile.Basename	Display.RefreshRate	Eindtotaal[Session]	ExperimentVersion	Group	RandomSeed	RuntimeCapabilities	RuntimeVersion	RuntimeVersionExpected	SessionDate	SessionStartDateTimeUtc	SessionTime	StudioVersion	Block	BarImage	BarTotalWinst	DoorChoice	Eindtotaal[Block]	FBDoor1	FBDoor2	FBDoor3	FBDoor4	Image1	Image2	Image3	Image4	Procedure	Running	spel.ACC	spel.CRESP	spel.DurationError	spel.OnsetDelay	spel.OnsetTime	spel.OnsetToOnsetTime	spel.RESP	spel.RT	spel.RTTime	TotalGain	TotalLose	Totalsum	TotalsumD1	TotalsumD2	TotalsumD3	TotalsumD4	TrialList	TrialList.Cycle	TrialList.Sample	varV1	varV2	varV3	varV4	varW1	varW2	varW3	varW4	Verliesbedrag	Winstbedrag
Hungry_Donkey_bar_English_2	160	1	<?xml version="1.0"?>\n<Clock xmlns:dt="urn:schemas-microsoft-com:datatypes"><Description dt:dt="string">E-Prime Primary Realtime Clock</Description><StartTime><Timestamp dt:dt="int">0</Timestamp><DateUtc dt:dt="string">2016-07-14T21:33:29Z</DateUtc></StartTime><FrequencyChanges><FrequencyChange><Frequency dt:dt="r8">3507705</Frequency><Timestamp dt:dt="r8">298851170022</Timestamp><Current dt:dt="r8">0</Current><DateUtc dt:dt="string">2016-07-14T21:33:29Z</DateUtc></FrequencyChange></FrequencyChanges></Clock>\n	Hungry_Donkey_bar_English_2-160-1	60.018	101	1.0.0.18	1	-1795834646	Standard	2.0.10.353	2.0.10.353	07-14-2016	7/14/2016 9:33:29 PM	17:33:29	2.0.10.248	1	Bar100-0.bmp	100	2	?	0r_4g.bmp	0r_4g.bmp	0r_2g.bmp	0r_2g.bmp		0r_4g.bmp			TrialProc	TrialList	0	cvbn	-999999	33	124119	0	v	10142	134261	4	0	4	0	4	0	0	6	1	1	0	0	0	0	4	4	2	2	0	4
Hungry_Donkey_bar_English_2	160	1	<?xml version="1.0"?>\n<Clock xmlns:dt="urn:schemas-microsoft-com:datatypes"><Description dt:dt="string">E-Prime Primary Realtime Clock</Description><StartTime><Timestamp dt:dt="int">0</Timestamp><DateUtc dt:dt="string">2016-07-14T21:33:29Z</DateUtc></StartTime><FrequencyChanges><FrequencyChange><Frequency dt:dt="r8">3507705</Frequency><Timestamp dt:dt="r8">298851170022</Timestamp><Current dt:dt="r8">0</Current><DateUtc dt:dt="string">2016-07-14T21:33:29Z</DateUtc></FrequencyChange></FrequencyChanges></Clock>\n	Hungry_Donkey_bar_English_2-160-1	60.018	101	1.0.0.18	1	-1795834646	Standard	2.0.10.353	2.0.10.353	07-14-2016	7/14/2016 9:33:29 PM	17:33:29	2.0.10.248	2	Bar50-50.bmp	44	1	?	10r_4g.bmp	0r_4g.bmp	2r_2g.bmp	0r_2g.bmp	10r_4g.bmp				TrialProc	TrialList	0	cvbn	-999999	16	136315	0	c	3354	139669	8	-10	-2	-6	4	0	0	3	1	2	-10	0	-2	0	4	4	2	2	-10	4
Hungry_Donkey_bar_English_2	160	1	<?xml version="1.0"?>\n<Clock xmlns:dt="urn:schemas-microsoft-com:datatypes"><Description dt:dt="string">E-Prime Primary Realtime Clock</Description><StartTime><Timestamp dt:dt="int">0</Timestamp><DateUtc dt:dt="string">2016-07-14T21:33:29Z</DateUtc></StartTime><FrequencyChanges><FrequencyChange><Frequency dt:dt="r8">3507705</Frequency><Timestamp dt:dt="r8">298851170022</Timestamp><Current dt:dt="r8">0</Current><DateUtc dt:dt="string">2016-07-14T21:33:29Z</DateUtc></FrequencyChange></FrequencyChanges></Clock>\n	Hungry_Donkey_bar_English_2-160-1	60.018	101	1.0.0.18	1	-1795834646	Standard	2.0.10.353	2.0.10.353	07-14-2016	7/14/2016 9:33:29 PM	17:33:29	2.0.10.248	3	Bar50-50.bmp	50	4	?	12r_4g.bmp	0r_4g.bmp	3r_2g.bmp	0r_2g.bmp				0r_2g.bmp	TrialProc	TrialList	0	cvbn	-999999	16	141713	0	n	4724	146437	10	-10	0	-6	4	0	2	5	1	3	-12	0	-3	0	4	4	2	2	0	2
Hungry_Donkey_bar_English_2	160	1	<?xml version="1.0"?>\n<Clock xmlns:dt="urn:schemas-microsoft-com:datatypes"><Description dt:dt="string">E-Prime Primary Realtime Clock</Description><StartTime><Timestamp dt:dt="int">0</Timestamp><DateUtc dt:dt="string">2016-07-14T21:33:29Z</DateUtc></StartTime><FrequencyChanges><FrequencyChange><Frequency dt:dt="r8">3507705</Frequency><Timestamp dt:dt="r8">298851170022</Timestamp><Current dt:dt="r8">0</Current><DateUtc dt:dt="string">2016-07-14T21:33:29Z</DateUtc></FrequencyChange></FrequencyChanges></Clock>\n	Hungry_Donkey_bar_English_2-160-1	60.018	101	1.0.0.18	1	-1795834646	Standard	2.0.10.353	2.0.10.353	07-14-2016	7/14/2016 9:33:29 PM	17:33:29	2.0.10.248	4	Bar50-50.bmp	55	3	?	0r_4g.bmp	0r_4g.bmp	0r_2g.bmp	0r_2g.bmp			0r_2g.bmp		TrialProc	TrialList	0	cvbn	-999999	16	148478	0	b	8358	156836	12	-10	2	-6	4	2	2	10	1	4	0	0	0	0	4	4	2	2	0	2
Hungry_Donkey_bar_English_2	160	1	<?xml version="1.0"?>\n<Clock xmlns:dt="urn:schemas-microsoft-com:datatypes"><Description dt:dt="string">E-Prime Primary Realtime Clock</Description><StartTime><Timestamp dt:dt="int">0</Timestamp><DateUtc dt:dt="string">2016-07-14T21:33:29Z</DateUtc></StartTime><FrequencyChanges><FrequencyChange><Frequency dt:dt="r8">3507705</Frequency><Timestamp dt:dt="r8">298851170022</Timestamp><Current dt:dt="r8">0</Current><DateUtc dt:dt="string">2016-07-14T21:33:29Z</DateUtc></FrequencyChange></FrequencyChanges></Clock>\n	Hungry_Donkey_bar_English_2-160-1	60.018	101	1.0.0.18	1	-1795834646	Standard	2.0.10.353	2.0.10.353	07-14-2016	7/14/2016 9:33:29 PM	17:33:29	2.0.10.248	5	Bar50-50.bmp	56	3	?	8r_4g.bmp	50r_4g.bmp	1r_2g.bmp	10r_2g.bmp			1r_2g.bmp		TrialProc	TrialList	0	cvbn	-999999	16	158875	0	b	1625	160500	14	-11	3	-6	4	3	2	1	1	5	-8	-50	-1	-10	4	4	2	2	-1	2
Hungry_Donkey_bar_English_2	160	1	<?xml version="1.0"?>\n<Clock xmlns:dt="urn:schemas-microsoft-com:datatypes"><Description dt:dt="string">E-Prime Primary Realtime Clock</Description><StartTime><Timestamp dt:dt="int">0</Timestamp><DateUtc dt:dt="string">2016-07-14T21:33:29Z</DateUtc></StartTime><FrequencyChanges><FrequencyChange><Frequency dt:dt="r8">3507705</Frequency><Timestamp dt:dt="r8">298851170022</Timestamp><Current dt:dt="r8">0</Current><DateUtc dt:dt="string">2016-07-14T21:33:29Z</DateUtc></FrequencyChange></FrequencyChanges></Clock>\n	Hungry_Donkey_bar_English_2-160-1	60.018	101	1.0.0.18	1	-1795834646	Standard	2.0.10.353	2.0.10.353	07-14-2016	7/14/2016 9:33:29 PM	17:33:29	2.0.10.248	6	Bar63-37.bmp	62	1	?	0r_4g.bmp	0r_4g.bmp	0r_2g.bmp	0r_2g.bmp	0r_4g.bmp				TrialProc	TrialList	0	cvbn	-999999	16	162541	0	c	7590	170131	18	-11	7	-2	4	3	2	7	1	6	0	0	0	0	4	4	2	2	0	4
Hungry_Donkey_bar_English_2	160	1	<?xml version="1.0"?>\n<Clock xmlns:dt="urn:schemas-microsoft-com:datatypes"><Description dt:dt="string">E-Prime Primary Realtime Clock</Description><StartTime><Timestamp dt:dt="int">0</Timestamp><DateUtc dt:dt="string">2016-07-14T21:33:29Z</DateUtc></StartTime><FrequencyChanges><FrequencyChange><Frequency dt:dt="r8">3507705</Frequency><Timestamp dt:dt="r8">298851170022</Timestamp><Current dt:dt="r8">0</Current><DateUtc dt:dt="string">2016-07-14T21:33:29Z</DateUtc></FrequencyChange></FrequencyChanges></Clock>\n	Hungry_Donkey_bar_English_2-160-1	60.018	101	1.0.0.18	1	-1795834646	Standard	2.0.10.353	2.0.10.353	07-14-2016	7/14/2016 9:33:29 PM	17:33:29	2.0.10.248	7	Bar50-50.bmp	51	1	?	10r_4g.bmp	0r_4g.bmp	2r_2g.bmp	0r_2g.bmp	10r_4g.bmp				TrialProc	TrialList	0	cvbn	-999999	16	172171	0	c	1496	173667	22	-21	1	-8	4	3	2	2	1	7	-10	0	-2	0	4	4	2	2	-10	4
Hungry_Donkey_bar_English_2	160	1	<?xml version="1.0"?>\n<Clock xmlns:dt="urn:schemas-microsoft-com:datatypes"><Description dt:dt="string">E-Prime Primary Realtime Clock</Description><StartTime><Timestamp dt:dt="int">0</Timestamp><DateUtc dt:dt="string">2016-07-14T21:33:29Z</DateUtc></StartTime><FrequencyChanges><FrequencyChange><Frequency dt:dt="r8">3507705</Frequency><Timestamp dt:dt="r8">298851170022</Timestamp><Current dt:dt="r8">0</Current><DateUtc dt:dt="string">2016-07-14T21:33:29Z</DateUtc></FrequencyChange></FrequencyChanges></Clock>\n	Hungry_Donkey_bar_English_2-160-1	60.018	101	1.0.0.18	1	-1795834646	Standard	2.0.10.353	2.0.10.353	07-14-2016	7/14/2016 9:33:29 PM	17:33:29	2.0.10.248	8	Bar50-50.bmp	55	2	?	10r_4g.bmp	0r_4g.bmp	2r_2g.bmp	0r_2g.bmp		0r_4g.bmp			TrialProc	TrialList	0	cvbn	-999999	16	175703	0	v	2972	178675	26	-21	5	-8	8	3	2	4	1	8	-10	0	-2	0	4	4	2	2	0	4
Hungry_Donkey_bar_English_2	160	1	<?xml version="1.0"?>\n<Clock xmlns:dt="urn:schemas-microsoft-com:datatypes"><Description dt:dt="string">E-Prime Primary Realtime Clock</Description><StartTime><Timestamp dt:dt="int">0</Timestamp><DateUtc dt:dt="string">2016-07-14T21:33:29Z</DateUtc></StartTime><FrequencyChanges><FrequencyChange><Frequency dt:dt="r8">3507705</Frequency><Timestamp dt:dt="r8">298851170022</Timestamp><Current dt:dt="r8">0</Current><DateUtc dt:dt="string">2016-07-14T21:33:29Z</DateUtc></FrequencyChange></FrequencyChanges></Clock>\n	Hungry_Donkey_bar_English_2-160-1	60.018	101	1.0.0.18	1	-1795834646	Standard	2.0.10.353	2.0.10.353	07-14-2016	7/14/2016 9:33:29 PM	17:33:29	2.0.10.248	9	Bar63-37.bmp	57	4	?	0r_4g.bmp	0r_4g.bmp	0r_2g.bmp	0r_2g.bmp				0r_2g.bmp	TrialProc	TrialList	0	cvbn	-999999	16	180702	0	n	2149	182851	28	-21	7	-8	8	3	4	9	1	9	0	0	0	0	4	4	2	2	0	2
Hungry_Donkey_bar_English_2	160	1	<?xml version="1.0"?>\n<Clock xmlns:dt="urn:schemas-microsoft-com:datatypes"><Description dt:dt="string">E-Prime Primary Realtime Clock</Description><StartTime><Timestamp dt:dt="int">0</Timestamp><DateUtc dt:dt="string">2016-07-14T21:33:29Z</DateUtc></StartTime><FrequencyChanges><FrequencyChange><Frequency dt:dt="r8">3507705</Frequency><Timestamp dt:dt="r8">298851170022</Timestamp><Current dt:dt="r8">0</Current><DateUtc dt:dt="string">2016-07-14T21:33:29Z</DateUtc></FrequencyChange></FrequencyChanges></Clock>\n	Hungry_Donkey_bar_English_2-160-1	60.018	101	1.0.0.18	1	-1795834646	Standard	2.0.10.353	2.0.10.353	07-14-2016	7/14/2016 9:33:29 PM	17:33:29	2.0.10.248	10	Bar63-37.bmp	59	3	?	0r_4g.bmp	0r_4g.bmp	0r_2g.bmp	0r_2g.bmp			0r_2g.bmp		TrialProc	TrialList	0	cvbn	-999999	16	184884	0	b	1230	186114	30	-21	9	-8	8	5	4	8	1	10	0	0	0	0	4	4	2	2	0	2
Hungry_Donkey_bar_English_2	160	1	<?xml version="1.0"?>\n<Clock xmlns:dt="urn:schemas-microsoft-com:datatypes"><Description dt:dt="string">E-Prime Primary Realtime Clock</Description><StartTime><Timestamp dt:dt="int">0</Timestamp><DateUtc dt:dt="string">2016-07-14T21:33:29Z</DateUtc></StartTime><FrequencyChanges><FrequencyChange><Frequency dt:dt="r8">3507705</Frequency><Timestamp dt:dt="r8">298851170022</Timestamp><Current dt:dt="r8">0</Current><DateUtc dt:dt="string">2016-07-14T21:33:29Z</DateUtc></FrequencyChange></FrequencyChanges></Clock>\n	Hungry_Donkey_bar_English_2-160-1	60.018	101	1.0.0.18	1	-1795834646	Standard	2.0.10.353	2.0.10.353	07-14-2016	7/14/2016 9:33:29 PM	17:33:29	2.0.10.248	11	Bar63-37.bmp	62	2	?	12r_4g.bmp	0r_4g.bmp	3r_2g.bmp	0r_2g.bmp		0r_4g.bmp			TrialProc	TrialList	0	cvbn	-999999	16	188150	0	v	1196	189346	34	-21	13	-8	12	5	4	5	2	11	-12	0	-3	0	4	4	2	2	0	4
Hungry_Donkey_bar_English_2	160	1	<?xml version="1.0"?>\n<Clock xmlns:dt="urn:schemas-microsoft-com:datatypes"><Description dt:dt="string">E-Prime Primary Realtime Clock</Description><StartTime><Timestamp dt:dt="int">0</Timestamp><DateUtc dt:dt="string">2016-07-14T21:33:29Z</DateUtc></StartTime><FrequencyChanges><FrequencyChange><Frequency dt:dt="r8">3507705</Frequency><Timestamp dt:dt="r8">298851170022</Timestamp><Current dt:dt="r8">0</Current><DateUtc dt:dt="string">2016-07-14T21:33:29Z</DateUtc></FrequencyChange></FrequencyChanges></Clock>\n	Hungry_Donkey_bar_English_2-160-1	60.018	101	1.0.0.18	1	-1795834646	Standard	2.0.10.353	2.0.10.353	07-14-2016	7/14/2016 9:33:29 PM	17:33:29	2.0.10.248	12	Bar63-37.bmp	63	4	?	0r_4g.bmp	0r_4g.bmp	0r_2g.bmp	0r_2g.bmp				0r_2g.bmp	TrialProc	TrialList	0	cvbn	-999999	16	191382	0	n	1724	193106	36	-21	15	-8	12	5	6	8	2	12	0	0	0	0	4	4	2	2	0	2
Hungry_Donkey_bar_English_2	160	1	<?xml version="1.0"?>\n<Clock xmlns:dt="urn:schemas-microsoft-com:datatypes"><Description dt:dt="string">E-Prime Primary Realtime Clock</Description><StartTime><Timestamp dt:dt="int">0</Timestamp><DateUtc dt:dt="string">2016-07-14T21:33:29Z</DateUtc></StartTime><FrequencyChanges><FrequencyChange><Frequency dt:dt="r8">3507705</Frequency><Timestamp dt:dt="r8">298851170022</Timestamp><Current dt:dt="r8">0</Current><DateUtc dt:dt="string">2016-07-14T21:33:29Z</DateUtc></FrequencyChange></FrequencyChanges></Clock>\n	Hungry_Donkey_bar_English_2-160-1	60.018	101	1.0.0.18	1	-1795834646	Standard	2.0.10.353	2.0.10.353	07-14-2016	7/14/2016 9:33:29 PM	17:33:29	2.0.10.248	13	Bar63-37.bmp	63	3	?	8r_4g.bmp	50r_4g.bmp	1r_2g.bmp	10r_2g.bmp			1r_2g.bmp		TrialProc	TrialList	0	cvbn	-999999	16	195131	0	b	1415	196546	38	-22	16	-8	12	6	6	1	2	13	-8	-50	-1	-10	4	4	2	2	-1	2
Hungry_Donkey_bar_English_2	160	1	<?xml version="1.0"?>\n<Clock xmlns:dt="urn:schemas-microsoft-com:datatypes"><Description dt:dt="string">E-Prime Primary Realtime Clock</Description><StartTime><Timestamp dt:dt="int">0</Timestamp><DateUtc dt:dt="string">2016-07-14T21:33:29Z</DateUtc></StartTime><FrequencyChanges><FrequencyChange><Frequency dt:dt="r8">3507705</Frequency><Timestamp dt:dt="r8">298851170022</Timestamp><Current dt:dt="r8">0</Current><DateUtc dt:dt="string">2016-07-14T21:33:29Z</DateUtc></FrequencyChange></FrequencyChanges></Clock>\n	Hungry_Donkey_bar_English_2-160-1	60.018	101	1.0.0.18	1	-1795834646	Standard	2.0.10.353	2.0.10.353	07-14-2016	7/14/2016 9:33:29 PM	17:33:29	2.0.10.248	14	Bar63-37.bmp	66	2	?	0r_4g.bmp	0r_4g.bmp	0r_2g.bmp	0r_2g.bmp		0r_4g.bmp			TrialProc	TrialList	0	cvbn	-999999	16	198580	0	v	1630	200210	42	-22	20	-8	16	6	6	7	2	14	0	0	0	0	4	4	2	2	0	4
Hungry_Donkey_bar_English_2	160	1	<?xml version="1.0"?>\n<Clock xmlns:dt="urn:schemas-microsoft-com:datatypes"><Description dt:dt="string">E-Prime Primary Realtime Clock</Description><StartTime><Timestamp dt:dt="int">0</Timestamp><DateUtc dt:dt="string">2016-07-14T21:33:29Z</DateUtc></StartTime><FrequencyChanges><FrequencyChange><Frequency dt:dt="r8">3507705</Frequency><Timestamp dt:dt="r8">298851170022</Timestamp><Current dt:dt="r8">0</Current><DateUtc dt:dt="string">2016-07-14T21:33:29Z</DateUtc></FrequencyChange></FrequencyChanges></Clock>\n	Hungry_Donkey_bar_English_2-160-1	60.018	101	1.0.0.18	1	-1795834646	Standard	2.0.10.353	2.0.10.353	07-14-2016	7/14/2016 9:33:29 PM	17:33:29	2.0.10.248	15	Bar63-37.bmp	68	1	?	0r_4g.bmp	0r_4g.bmp	0r_2g.bmp	0r_2g.bmp	0r_4g.bmp				TrialProc	TrialList	0	cvbn	-999999	16	202246	0	c	779	203025	46	-22	24	-4	16	6	6	9	2	15	0	0	0	0	4	4	2	2	0	4
Hungry_Donkey_bar_English_2	160	1	<?xml version="1.0"?>\n<Clock xmlns:dt="urn:schemas-microsoft-com:datatypes"><Description dt:dt="string">E-Prime Primary Realtime Clock</Description><StartTime><Timestamp dt:dt="int">0</Timestamp><DateUtc dt:dt="string">2016-07-14T21:33:29Z</DateUtc></StartTime><FrequencyChanges><FrequencyChange><Frequency dt:dt="r8">3507705</Frequency><Timestamp dt:dt="r8">298851170022</Timestamp><Current dt:dt="r8">0</Current><DateUtc dt:dt="string">2016-07-14T21:33:29Z</DateUtc></FrequencyChange></FrequencyChanges></Clock>\n	Hungry_Donkey_bar_English_2-160-1	60.018	101	1.0.0.18	1	-1795834646	Standard	2.0.10.353	2.0.10.353	07-14-2016	7/14/2016 9:33:29 PM	17:33:29	2.0.10.248	16	Bar63-37.bmp	69	4	?	10r_4g.bmp	0r_4g.bmp	2r_2g.bmp	0r_2g.bmp				0r_2g.bmp	TrialProc	TrialList	0	cvbn	-999999	16	205061	0	n	2012	207073	48	-22	26	-4	16	6	8	3	2	16	-10	0	-2	0	4	4	2	2	0	2
Hungry_Donkey_bar_English_2	160	1	<?xml version="1.0"?>\n<Clock xmlns:dt="urn:schemas-microsoft-com:datatypes"><Description dt:dt="string">E-Prime Primary Realtime Clock</Description><StartTime><Timestamp dt:dt="int">0</Timestamp><DateUtc dt:dt="string">2016-07-14T21:33:29Z</DateUtc></StartTime><FrequencyChanges><FrequencyChange><Frequency dt:dt="r8">3507705</Frequency><Timestamp dt:dt="r8">298851170022</Timestamp><Current dt:dt="r8">0</Current><DateUtc dt:dt="string">2016-07-14T21:33:29Z</DateUtc></FrequencyChange></FrequencyChanges></Clock>\n	Hungry_Donkey_bar_English_2-160-1	60.018	101	1.0.0.18	1	-1795834646	Standard	2.0.10.353	2.0.10.353	07-14-2016	7/14/2016 9:33:29 PM	17:33:29	2.0.10.248	17	Bar63-37.bmp	69	3	?	0r_4g.bmp	0r_4g.bmp	0r_2g.bmp	0r_2g.bmp			0r_2g.bmp		TrialProc	TrialList	0	cvbn	-999999	16	209110	0	b	1979	211089	50	-22	28	-4	16	8	8	10	2	17	0	0	0	0	4	4	2	2	0	2
Hungry_Donkey_bar_English_2	160	1	<?xml version="1.0"?>\n<Clock xmlns:dt="urn:schemas-microsoft-com:datatypes"><Description dt:dt="string">E-Prime Primary Realtime Clock</Description><StartTime><Timestamp dt:dt="int">0</Timestamp><DateUtc dt:dt="string">2016-07-14T21:33:29Z</DateUtc></StartTime><FrequencyChanges><FrequencyChange><Frequency dt:dt="r8">3507705</Frequency><Timestamp dt:dt="r8">298851170022</Timestamp><Current dt:dt="r8">0</Current><DateUtc dt:dt="string">2016-07-14T21:33:29Z</DateUtc></FrequencyChange></FrequencyChanges></Clock>\n	Hungry_Donkey_bar_English_2-160-1	60.018	101	1.0.0.18	1	-1795834646	Standard	2.0.10.353	2.0.10.353	07-14-2016	7/14/2016 9:33:29 PM	17:33:29	2.0.10.248	18	Bar75-25.bmp	70	4	?	10r_4g.bmp	0r_4g.bmp	2r_2g.bmp	0r_2g.bmp				0r_2g.bmp	TrialProc	TrialList	0	cvbn	-999999	16	213126	0	n	987	214113	52	-22	30	-4	16	8	10	4	2	18	-10	0	-2	0	4	4	2	2	0	2
Hungry_Donkey_bar_English_2	160	1	<?xml version="1.0"?>\n<Clock xmlns:dt="urn:schemas-microsoft-com:datatypes"><Description dt:dt="string">E-Prime Primary Realtime Clock</Description><StartTime><Timestamp dt:dt="int">0</Timestamp><DateUtc dt:dt="string">2016-07-14T21:33:29Z</DateUtc></StartTime><FrequencyChanges><FrequencyChange><Frequency dt:dt="r8">3507705</Frequency><Timestamp dt:dt="r8">298851170022</Timestamp><Current dt:dt="r8">0</Current><DateUtc dt:dt="string">2016-07-14T21:33:29Z</DateUtc></FrequencyChange></FrequencyChanges></Clock>\n	Hungry_Donkey_bar_English_2-160-1	60.018	101	1.0.0.18	1	-1795834646	Standard	2.0.10.353	2.0.10.353	07-14-2016	7/14/2016 9:33:29 PM	17:33:29	2.0.10.248	19	Bar63-37.bmp	64	1	?	10r_4g.bmp	0r_4g.bmp	2r_2g.bmp	0r_2g.bmp	10r_4g.bmp				TrialProc	TrialList	0	cvbn	-999999	16	216158	0	c	883	217041	56	-32	24	-10	16	8	10	2	2	19	-10	0	-2	0	4	4	2	2	-10	4
Hungry_Donkey_bar_English_2	160	1	<?xml version="1.0"?>\n<Clock xmlns:dt="urn:schemas-microsoft-com:datatypes"><Description dt:dt="string">E-Prime Primary Realtime Clock</Description><StartTime><Timestamp dt:dt="int">0</Timestamp><DateUtc dt:dt="string">2016-07-14T21:33:29Z</DateUtc></StartTime><FrequencyChanges><FrequencyChange><Frequency dt:dt="r8">3507705</Frequency><Timestamp dt:dt="r8">298851170022</Timestamp><Current dt:dt="r8">0</Current><DateUtc dt:dt="string">2016-07-14T21:33:29Z</DateUtc></FrequencyChange></FrequencyChanges></Clock>\n	Hungry_Donkey_bar_English_2-160-1	60.018	101	1.0.0.18	1	-1795834646	Standard	2.0.10.353	2.0.10.353	07-14-2016	7/14/2016 9:33:29 PM	17:33:29	2.0.10.248	20	Bar63-37.bmp	65	1	?	0r_4g.bmp	0r_4g.bmp	0r_2g.bmp	0r_2g.bmp	0r_4g.bmp				TrialProc	TrialList	0	cvbn	-999999	16	219074	0	c	4638	223712	60	-32	28	-6	16	8	10	6	2	20	0	0	0	0	4	4	2	2	0	4
Hungry_Donkey_bar_English_2	160	1	<?xml version="1.0"?>\n<Clock xmlns:dt="urn:schemas-microsoft-com:datatypes"><Description dt:dt="string">E-Prime Primary Realtime Clock</Description><StartTime><Timestamp dt:dt="int">0</Timestamp><DateUtc dt:dt="string">2016-07-14T21:33:29Z</DateUtc></StartTime><FrequencyChanges><FrequencyChange><Frequency dt:dt="r8">3507705</Frequency><Timestamp dt:dt="r8">298851170022</Timestamp><Current dt:dt="r8">0</Current><DateUtc dt:dt="string">2016-07-14T21:33:29Z</DateUtc></FrequencyChange></FrequencyChanges></Clock>\n	Hungry_Donkey_bar_English_2-160-1	60.018	101	1.0.0.18	1	-1795834646	Standard	2.0.10.353	2.0.10.353	07-14-2016	7/14/2016 9:33:29 PM	17:33:29	2.0.10.248	21	Bar63-37.bmp	67	2	?	10r_4g.bmp	0r_4g.bmp	2r_2g.bmp	0r_2g.bmp		0r_4g.bmp			TrialProc	TrialList	0	cvbn	-999999	16	225739	0	v	1941	227680	64	-32	32	-6	20	8	10	3	3	21	-10	0	-2	0	4	4	2	2	0	4
Hungry_Donkey_bar_English_2	160	1	<?xml version="1.0"?>\n<Clock xmlns:dt="urn:schemas-microsoft-com:datatypes"><Description dt:dt="string">E-Prime Primary Realtime Clock</Description><StartTime><Timestamp dt:dt="int">0</Timestamp><DateUtc dt:dt="string">2016-07-14T21:33:29Z</DateUtc></StartTime><FrequencyChanges><FrequencyChange><Frequency dt:dt="r8">3507705</Frequency><Timestamp dt:dt="r8">298851170022</Timestamp><Current dt:dt="r8">0</Current><DateUtc dt:dt="string">2016-07-14T21:33:29Z</DateUtc></FrequencyChange></FrequencyChanges></Clock>\n	Hungry_Donkey_bar_English_2-160-1	60.018	101	1.0.0.18	1	-1795834646	Standard	2.0.10.353	2.0.10.353	07-14-2016	7/14/2016 9:33:29 PM	17:33:29	2.0.10.248	22	Bar63-37.bmp	67	4	?	12r_4g.bmp	0r_4g.bmp	3r_2g.bmp	0r_2g.bmp				0r_2g.bmp	TrialProc	TrialList	0	cvbn	-999999	16	229704	0	n	1704	231408	66	-32	34	-6	20	8	12	5	3	22	-12	0	-3	0	4	4	2	2	0	2
Hungry_Donkey_bar_English_2	160	1	<?xml version="1.0"?>\n<Clock xmlns:dt="urn:schemas-microsoft-com:datatypes"><Description dt:dt="string">E-Prime Primary Realtime Clock</Description><StartTime><Timestamp dt:dt="int">0</Timestamp><DateUtc dt:dt="string">2016-07-14T21:33:29Z</DateUtc></StartTime><FrequencyChanges><FrequencyChange><Frequency dt:dt="r8">3507705</Frequency><Timestamp dt:dt="r8">298851170022</Timestamp><Current dt:dt="r8">0</Current><DateUtc dt:dt="string">2016-07-14T21:33:29Z</DateUtc></FrequencyChange></FrequencyChanges></Clock>\n	Hungry_Donkey_bar_English_2-160-1	60.018	101	1.0.0.18	1	-1795834646	Standard	2.0.10.353	2.0.10.353	07-14-2016	7/14/2016 9:33:29 PM	17:33:29	2.0.10.248	23	Bar63-37.bmp	67	3	?	10r_4g.bmp	0r_4g.bmp	2r_2g.bmp	0r_2g.bmp			2r_2g.bmp		TrialProc	TrialList	0	cvbn	-999999	16	233436	0	b	1044	234480	68	-34	34	-6	20	8	12	2	3	23	-10	0	-2	0	4	4	2	2	-2	2
Hungry_Donkey_bar_English_2	160	1	<?xml version="1.0"?>\n<Clock xmlns:dt="urn:schemas-microsoft-com:datatypes"><Description dt:dt="string">E-Prime Primary Realtime Clock</Description><StartTime><Timestamp dt:dt="int">0</Timestamp><DateUtc dt:dt="string">2016-07-14T21:33:29Z</DateUtc></StartTime><FrequencyChanges><FrequencyChange><Frequency dt:dt="r8">3507705</Frequency><Timestamp dt:dt="r8">298851170022</Timestamp><Current dt:dt="r8">0</Current><DateUtc dt:dt="string">2016-07-14T21:33:29Z</DateUtc></FrequencyChange></FrequencyChanges></Clock>\n	Hungry_Donkey_bar_English_2-160-1	60.018	101	1.0.0.18	1	-1795834646	Standard	2.0.10.353	2.0.10.353	07-14-2016	7/14/2016 9:33:29 PM	17:33:29	2.0.10.248	24	Bar63-37.bmp	67	3	?	0r_4g.bmp	0r_4g.bmp	0r_2g.bmp	0r_2g.bmp			0r_2g.bmp		TrialProc	TrialList	0	cvbn	-999999	16	236519	0	b	1832	238351	70	-34	36	-6	20	10	12	8	3	24	0	0	0	0	4	4	2	2	0	2
Hungry_Donkey_bar_English_2	160	1	<?xml version="1.0"?>\n<Clock xmlns:dt="urn:schemas-microsoft-com:datatypes"><Description dt:dt="string">E-Prime Primary Realtime Clock</Description><StartTime><Timestamp dt:dt="int">0</Timestamp><DateUtc dt:dt="string">2016-07-14T21:33:29Z</DateUtc></StartTime><FrequencyChanges><FrequencyChange><Frequency dt:dt="r8">3507705</Frequency><Timestamp dt:dt="r8">298851170022</Timestamp><Current dt:dt="r8">0</Current><DateUtc dt:dt="string">2016-07-14T21:33:29Z</DateUtc></FrequencyChange></FrequencyChanges></Clock>\n	Hungry_Donkey_bar_English_2-160-1	60.018	101	1.0.0.18	1	-1795834646	Standard	2.0.10.353	2.0.10.353	07-14-2016	7/14/2016 9:33:29 PM	17:33:29	2.0.10.248	25	Bar63-37.bmp	69	2	?	0r_4g.bmp	0r_4g.bmp	0r_2g.bmp	0r_2g.bmp		0r_4g.bmp			TrialProc	TrialList	0	cvbn	-999999	16	240384	0	v	959	241343	74	-34	40	-6	24	10	12	9	3	25	0	0	0	0	4	4	2	2	0	4
Hungry_Donkey_bar_English_2	160	1	<?xml version="1.0"?>\n<Clock xmlns:dt="urn:schemas-microsoft-com:datatypes"><Description dt:dt="string">E-Prime Primary Realtime Clock</Description><StartTime><Timestamp dt:dt="int">0</Timestamp><DateUtc dt:dt="string">2016-07-14T21:33:29Z</DateUtc></StartTime><FrequencyChanges><FrequencyChange><Frequency dt:dt="r8">3507705</Frequency><Timestamp dt:dt="r8">298851170022</Timestamp><Current dt:dt="r8">0</Current><DateUtc dt:dt="string">2016-07-14T21:33:29Z</DateUtc></FrequencyChange></FrequencyChanges></Clock>\n	Hungry_Donkey_bar_English_2-160-1	60.018	101	1.0.0.18	1	-1795834646	Standard	2.0.10.353	2.0.10.353	07-14-2016	7/14/2016 9:33:29 PM	17:33:29	2.0.10.248	26	Bar63-37.bmp	63	4	?	8r_4g.bmp	50r_4g.bmp	1r_2g.bmp	10r_2g.bmp				10r_2g.bmp	TrialProc	TrialList	0	cvbn	-999999	17	243384	0	n	2279	245663	76	-44	32	-6	24	10	4	1	3	26	-8	-50	-1	-10	4	4	2	2	-10	2
Hungry_Donkey_bar_English_2	160	1	<?xml version="1.0"?>\n<Clock xmlns:dt="urn:schemas-microsoft-com:datatypes"><Description dt:dt="string">E-Prime Primary Realtime Clock</Description><StartTime><Timestamp dt:dt="int">0</Timestamp><DateUtc dt:dt="string">2016-07-14T21:33:29Z</DateUtc></StartTime><FrequencyChanges><FrequencyChange><Frequency dt:dt="r8">3507705</Frequency><Timestamp dt:dt="r8">298851170022</Timestamp><Current dt:dt="r8">0</Current><DateUtc dt:dt="string">2016-07-14T21:33:29Z</DateUtc></FrequencyChange></FrequencyChanges></Clock>\n	Hungry_Donkey_bar_English_2-160-1	60.018	101	1.0.0.18	1	-1795834646	Standard	2.0.10.353	2.0.10.353	07-14-2016	7/14/2016 9:33:29 PM	17:33:29	2.0.10.248	27	Bar63-37.bmp	65	1	?	0r_4g.bmp	0r_4g.bmp	0r_2g.bmp	0r_2g.bmp	0r_4g.bmp				TrialProc	TrialList	0	cvbn	-999999	16	247699	0	c	1724	249423	80	-44	36	-2	24	10	4	6	3	27	0	0	0	0	4	4	2	2	0	4
Hungry_Donkey_bar_English_2	160	1	<?xml version="1.0"?>\n<Clock xmlns:dt="urn:schemas-microsoft-com:datatypes"><Description dt:dt="string">E-Prime Primary Realtime Clock</Description><StartTime><Timestamp dt:dt="int">0</Timestamp><DateUtc dt:dt="string">2016-07-14T21:33:29Z</DateUtc></StartTime><FrequencyChanges><FrequencyChange><Frequency dt:dt="r8">3507705</Frequency><Timestamp dt:dt="r8">298851170022</Timestamp><Current dt:dt="r8">0</Current><DateUtc dt:dt="string">2016-07-14T21:33:29Z</DateUtc></FrequencyChange></FrequencyChanges></Clock>\n	Hungry_Donkey_bar_English_2-160-1	60.018	101	1.0.0.18	1	-1795834646	Standard	2.0.10.353	2.0.10.353	07-14-2016	7/14/2016 9:33:29 PM	17:33:29	2.0.10.248	28	Bar63-37.bmp	66	2	?	0r_4g.bmp	0r_4g.bmp	0r_2g.bmp	0r_2g.bmp		0r_4g.bmp			TrialProc	TrialList	0	cvbn	-999999	16	251464	0	v	1671	253135	84	-44	40	-2	28	10	4	7	3	28	0	0	0	0	4	4	2	2	0	4
Hungry_Donkey_bar_English_2	160	1	<?xml version="1.0"?>\n<Clock xmlns:dt="urn:schemas-microsoft-com:datatypes"><Description dt:dt="string">E-Prime Primary Realtime Clock</Description><StartTime><Timestamp dt:dt="int">0</Timestamp><DateUtc dt:dt="string">2016-07-14T21:33:29Z</DateUtc></StartTime><FrequencyChanges><FrequencyChange><Frequency dt:dt="r8">3507705</Frequency><Timestamp dt:dt="r8">298851170022</Timestamp><Current dt:dt="r8">0</Current><DateUtc dt:dt="string">2016-07-14T21:33:29Z</DateUtc></FrequencyChange></FrequencyChanges></Clock>\n	Hungry_Donkey_bar_English_2-160-1	60.018	101	1.0.0.18	1	-1795834646	Standard	2.0.10.353	2.0.10.353	07-14-2016	7/14/2016 9:33:29 PM	17:33:29	2.0.10.248	29	Bar63-37.bmp	66	4	?	10r_4g.bmp	0r_4g.bmp	2r_2g.bmp	0r_2g.bmp				0r_2g.bmp	TrialProc	TrialList	0	cvbn	-999999	16	255163	0	n	211	255374	86	-44	42	-2	28	10	6	4	3	29	-10	0	-2	0	4	4	2	2	0	2
Hungry_Donkey_bar_English_2	160	1	<?xml version="1.0"?>\n<Clock xmlns:dt="urn:schemas-microsoft-com:datatypes"><Description dt:dt="string">E-Prime Primary Realtime Clock</Description><StartTime><Timestamp dt:dt="int">0</Timestamp><DateUtc dt:dt="string">2016-07-14T21:33:29Z</DateUtc></StartTime><FrequencyChanges><FrequencyChange><Frequency dt:dt="r8">3507705</Frequency><Timestamp dt:dt="r8">298851170022</Timestamp><Current dt:dt="r8">0</Current><DateUtc dt:dt="string">2016-07-14T21:33:29Z</DateUtc></FrequencyChange></FrequencyChanges></Clock>\n	Hungry_Donkey_bar_English_2-160-1	60.018	101	1.0.0.18	1	-1795834646	Standard	2.0.10.353	2.0.10.353	07-14-2016	7/14/2016 9:33:29 PM	17:33:29	2.0.10.248	30	Bar63-37.bmp	67	4	?	0r_4g.bmp	0r_4g.bmp	0r_2g.bmp	0r_2g.bmp				0r_2g.bmp	TrialProc	TrialList	0	cvbn	-999999	16	257413	0	n	6233	263646	88	-44	44	-2	28	10	8	10	3	30	0	0	0	0	4	4	2	2	0	2
Hungry_Donkey_bar_English_2	160	1	<?xml version="1.0"?>\n<Clock xmlns:dt="urn:schemas-microsoft-com:datatypes"><Description dt:dt="string">E-Prime Primary Realtime Clock</Description><StartTime><Timestamp dt:dt="int">0</Timestamp><DateUtc dt:dt="string">2016-07-14T21:33:29Z</DateUtc></StartTime><FrequencyChanges><FrequencyChange><Frequency dt:dt="r8">3507705</Frequency><Timestamp dt:dt="r8">298851170022</Timestamp><Current dt:dt="r8">0</Current><DateUtc dt:dt="string">2016-07-14T21:33:29Z</DateUtc></FrequencyChange></FrequencyChanges></Clock>\n	Hungry_Donkey_bar_English_2-160-1	60.018	101	1.0.0.18	1	-1795834646	Standard	2.0.10.353	2.0.10.353	07-14-2016	7/14/2016 9:33:29 PM	17:33:29	2.0.10.248	31	Bar63-37.bmp	67	3	?	0r_4g.bmp	0r_4g.bmp	0r_2g.bmp	0r_2g.bmp			0r_2g.bmp		TrialProc	TrialList	0	cvbn	-999999	16	265677	0	b	2065	267742	90	-44	46	-2	28	12	8	10	4	31	0	0	0	0	4	4	2	2	0	2
Hungry_Donkey_bar_English_2	160	1	<?xml version="1.0"?>\n<Clock xmlns:dt="urn:schemas-microsoft-com:datatypes"><Description dt:dt="string">E-Prime Primary Realtime Clock</Description><StartTime><Timestamp dt:dt="int">0</Timestamp><DateUtc dt:dt="string">2016-07-14T21:33:29Z</DateUtc></StartTime><FrequencyChanges><FrequencyChange><Frequency dt:dt="r8">3507705</Frequency><Timestamp dt:dt="r8">298851170022</Timestamp><Current dt:dt="r8">0</Current><DateUtc dt:dt="string">2016-07-14T21:33:29Z</DateUtc></FrequencyChange></FrequencyChanges></Clock>\n	Hungry_Donkey_bar_English_2-160-1	60.018	101	1.0.0.18	1	-1795834646	Standard	2.0.10.353	2.0.10.353	07-14-2016	7/14/2016 9:33:29 PM	17:33:29	2.0.10.248	32	Bar63-37.bmp	68	1	?	0r_4g.bmp	0r_4g.bmp	0r_2g.bmp	0r_2g.bmp	0r_4g.bmp				TrialProc	TrialList	0	cvbn	-999999	16	269776	0	c	8477	278253	94	-44	50	2	28	12	8	7	4	32	0	0	0	0	4	4	2	2	0	4
Hungry_Donkey_bar_English_2	160	1	<?xml version="1.0"?>\n<Clock xmlns:dt="urn:schemas-microsoft-com:datatypes"><Description dt:dt="string">E-Prime Primary Realtime Clock</Description><StartTime><Timestamp dt:dt="int">0</Timestamp><DateUtc dt:dt="string">2016-07-14T21:33:29Z</DateUtc></StartTime><FrequencyChanges><FrequencyChange><Frequency dt:dt="r8">3507705</Frequency><Timestamp dt:dt="r8">298851170022</Timestamp><Current dt:dt="r8">0</Current><DateUtc dt:dt="string">2016-07-14T21:33:29Z</DateUtc></FrequencyChange></FrequencyChanges></Clock>\n	Hungry_Donkey_bar_English_2-160-1	60.018	101	1.0.0.18	1	-1795834646	Standard	2.0.10.353	2.0.10.353	07-14-2016	7/14/2016 9:33:29 PM	17:33:29	2.0.10.248	33	Bar63-37.bmp	69	2	?	12r_4g.bmp	0r_4g.bmp	3r_2g.bmp	0r_2g.bmp		0r_4g.bmp			TrialProc	TrialList	0	cvbn	-999999	16	280289	0	v	4380	284669	98	-44	54	2	32	12	8	5	4	33	-12	0	-3	0	4	4	2	2	0	4
Hungry_Donkey_bar_English_2	160	1	<?xml version="1.0"?>\n<Clock xmlns:dt="urn:schemas-microsoft-com:datatypes"><Description dt:dt="string">E-Prime Primary Realtime Clock</Description><StartTime><Timestamp dt:dt="int">0</Timestamp><DateUtc dt:dt="string">2016-07-14T21:33:29Z</DateUtc></StartTime><FrequencyChanges><FrequencyChange><Frequency dt:dt="r8">3507705</Frequency><Timestamp dt:dt="r8">298851170022</Timestamp><Current dt:dt="r8">0</Current><DateUtc dt:dt="string">2016-07-14T21:33:29Z</DateUtc></FrequencyChange></FrequencyChanges></Clock>\n	Hungry_Donkey_bar_English_2-160-1	60.018	101	1.0.0.18	1	-1795834646	Standard	2.0.10.353	2.0.10.353	07-14-2016	7/14/2016 9:33:29 PM	17:33:29	2.0.10.248	34	Bar63-37.bmp	65	1	?	10r_4g.bmp	0r_4g.bmp	2r_2g.bmp	0r_2g.bmp	10r_4g.bmp				TrialProc	TrialList	0	cvbn	-999999	16	286704	0	c	2093	288797	102	-54	48	-4	32	12	8	3	4	34	-10	0	-2	0	4	4	2	2	-10	4
Hungry_Donkey_bar_English_2	160	1	<?xml version="1.0"?>\n<Clock xmlns:dt="urn:schemas-microsoft-com:datatypes"><Description dt:dt="string">E-Prime Primary Realtime Clock</Description><StartTime><Timestamp dt:dt="int">0</Timestamp><DateUtc dt:dt="string">2016-07-14T21:33:29Z</DateUtc></StartTime><FrequencyChanges><FrequencyChange><Frequency dt:dt="r8">3507705</Frequency><Timestamp dt:dt="r8">298851170022</Timestamp><Current dt:dt="r8">0</Current><DateUtc dt:dt="string">2016-07-14T21:33:29Z</DateUtc></FrequencyChange></FrequencyChanges></Clock>\n	Hungry_Donkey_bar_English_2-160-1	60.018	101	1.0.0.18	1	-1795834646	Standard	2.0.10.353	2.0.10.353	07-14-2016	7/14/2016 9:33:29 PM	17:33:29	2.0.10.248	35	Bar63-37.bmp	62	4	?	8r_4g.bmp	50r_4g.bmp	1r_2g.bmp	10r_2g.bmp				10r_2g.bmp	TrialProc	TrialList	0	cvbn	-999999	16	290836	0	n	2104	292940	104	-64	40	-4	32	12	0	1	4	35	-8	-50	-1	-10	4	4	2	2	-10	2
Hungry_Donkey_bar_English_2	160	1	<?xml version="1.0"?>\n<Clock xmlns:dt="urn:schemas-microsoft-com:datatypes"><Description dt:dt="string">E-Prime Primary Realtime Clock</Description><StartTime><Timestamp dt:dt="int">0</Timestamp><DateUtc dt:dt="string">2016-07-14T21:33:29Z</DateUtc></StartTime><FrequencyChanges><FrequencyChange><Frequency dt:dt="r8">3507705</Frequency><Timestamp dt:dt="r8">298851170022</Timestamp><Current dt:dt="r8">0</Current><DateUtc dt:dt="string">2016-07-14T21:33:29Z</DateUtc></FrequencyChange></FrequencyChanges></Clock>\n	Hungry_Donkey_bar_English_2-160-1	60.018	101	1.0.0.18	1	-1795834646	Standard	2.0.10.353	2.0.10.353	07-14-2016	7/14/2016 9:33:29 PM	17:33:29	2.0.10.248	36	Bar63-37.bmp	62	3	?	0r_4g.bmp	0r_4g.bmp	0r_2g.bmp	0r_2g.bmp			0r_2g.bmp		TrialProc	TrialList	0	cvbn	-999999	16	294968	0	b	1556	296524	106	-64	42	-4	32	14	0	8	4	36	0	0	0	0	4	4	2	2	0	2
Hungry_Donkey_bar_English_2	160	1	<?xml version="1.0"?>\n<Clock xmlns:dt="urn:schemas-microsoft-com:datatypes"><Description dt:dt="string">E-Prime Primary Realtime Clock</Description><StartTime><Timestamp dt:dt="int">0</Timestamp><DateUtc dt:dt="string">2016-07-14T21:33:29Z</DateUtc></StartTime><FrequencyChanges><FrequencyChange><Frequency dt:dt="r8">3507705</Frequency><Timestamp dt:dt="r8">298851170022</Timestamp><Current dt:dt="r8">0</Current><DateUtc dt:dt="string">2016-07-14T21:33:29Z</DateUtc></FrequencyChange></FrequencyChanges></Clock>\n	Hungry_Donkey_bar_English_2-160-1	60.018	101	1.0.0.18	1	-1795834646	Standard	2.0.10.353	2.0.10.353	07-14-2016	7/14/2016 9:33:29 PM	17:33:29	2.0.10.248	37	Bar63-37.bmp	63	4	?	0r_4g.bmp	0r_4g.bmp	0r_2g.bmp	0r_2g.bmp				0r_2g.bmp	TrialProc	TrialList	0	cvbn	-999999	16	298551	0	n	917	299468	108	-64	44	-4	32	14	2	6	4	37	0	0	0	0	4	4	2	2	0	2
Hungry_Donkey_bar_English_2	160	1	<?xml version="1.0"?>\n<Clock xmlns:dt="urn:schemas-microsoft-com:datatypes"><Description dt:dt="string">E-Prime Primary Realtime Clock</Description><StartTime><Timestamp dt:dt="int">0</Timestamp><DateUtc dt:dt="string">2016-07-14T21:33:29Z</DateUtc></StartTime><FrequencyChanges><FrequencyChange><Frequency dt:dt="r8">3507705</Frequency><Timestamp dt:dt="r8">298851170022</Timestamp><Current dt:dt="r8">0</Current><DateUtc dt:dt="string">2016-07-14T21:33:29Z</DateUtc></FrequencyChange></FrequencyChanges></Clock>\n	Hungry_Donkey_bar_English_2-160-1	60.018	101	1.0.0.18	1	-1795834646	Standard	2.0.10.353	2.0.10.353	07-14-2016	7/14/2016 9:33:29 PM	17:33:29	2.0.10.248	38	Bar63-37.bmp	63	4	?	10r_4g.bmp	0r_4g.bmp	2r_2g.bmp	0r_2g.bmp				0r_2g.bmp	TrialProc	TrialList	0	cvbn	-999999	16	301500	0	n	3168	304668	110	-64	46	-4	32	14	4	4	4	38	-10	0	-2	0	4	4	2	2	0	2
Hungry_Donkey_bar_English_2	160	1	<?xml version="1.0"?>\n<Clock xmlns:dt="urn:schemas-microsoft-com:datatypes"><Description dt:dt="string">E-Prime Primary Realtime Clock</Description><StartTime><Timestamp dt:dt="int">0</Timestamp><DateUtc dt:dt="string">2016-07-14T21:33:29Z</DateUtc></StartTime><FrequencyChanges><FrequencyChange><Frequency dt:dt="r8">3507705</Frequency><Timestamp dt:dt="r8">298851170022</Timestamp><Current dt:dt="r8">0</Current><DateUtc dt:dt="string">2016-07-14T21:33:29Z</DateUtc></FrequencyChange></FrequencyChanges></Clock>\n	Hungry_Donkey_bar_English_2-160-1	60.018	101	1.0.0.18	1	-1795834646	Standard	2.0.10.353	2.0.10.353	07-14-2016	7/14/2016 9:33:29 PM	17:33:29	2.0.10.248	39	Bar63-37.bmp	64	3	?	0r_4g.bmp	0r_4g.bmp	0r_2g.bmp	0r_2g.bmp			0r_2g.bmp		TrialProc	TrialList	0	cvbn	-999999	16	306698	0	b	738	307436	112	-64	48	-4	32	16	4	9	4	39	0	0	0	0	4	4	2	2	0	2
Hungry_Donkey_bar_English_2	160	1	<?xml version="1.0"?>\n<Clock xmlns:dt="urn:schemas-microsoft-com:datatypes"><Description dt:dt="string">E-Prime Primary Realtime Clock</Description><StartTime><Timestamp dt:dt="int">0</Timestamp><DateUtc dt:dt="string">2016-07-14T21:33:29Z</DateUtc></StartTime><FrequencyChanges><FrequencyChange><Frequency dt:dt="r8">3507705</Frequency><Timestamp dt:dt="r8">298851170022</Timestamp><Current dt:dt="r8">0</Current><DateUtc dt:dt="string">2016-07-14T21:33:29Z</DateUtc></FrequencyChange></FrequencyChanges></Clock>\n	Hungry_Donkey_bar_English_2-160-1	60.018	101	1.0.0.18	1	-1795834646	Standard	2.0.10.353	2.0.10.353	07-14-2016	7/14/2016 9:33:29 PM	17:33:29	2.0.10.248	40	Bar63-37.bmp	64	2	?	10r_4g.bmp	0r_4g.bmp	2r_2g.bmp	0r_2g.bmp		0r_4g.bmp			TrialProc	TrialList	0	cvbn	-999999	16	309464	0	v	579	310043	116	-64	52	-4	36	16	4	2	4	40	-10	0	-2	0	4	4	2	2	0	4
Hungry_Donkey_bar_English_2	160	1	<?xml version="1.0"?>\n<Clock xmlns:dt="urn:schemas-microsoft-com:datatypes"><Description dt:dt="string">E-Prime Primary Realtime Clock</Description><StartTime><Timestamp dt:dt="int">0</Timestamp><DateUtc dt:dt="string">2016-07-14T21:33:29Z</DateUtc></StartTime><FrequencyChanges><FrequencyChange><Frequency dt:dt="r8">3507705</Frequency><Timestamp dt:dt="r8">298851170022</Timestamp><Current dt:dt="r8">0</Current><DateUtc dt:dt="string">2016-07-14T21:33:29Z</DateUtc></FrequencyChange></FrequencyChanges></Clock>\n	Hungry_Donkey_bar_English_2-160-1	60.018	101	1.0.0.18	1	-1795834646	Standard	2.0.10.353	2.0.10.353	07-14-2016	7/14/2016 9:33:29 PM	17:33:29	2.0.10.248	41	Bar63-37.bmp	62	1	?	10r_4g.bmp	0r_4g.bmp	2r_2g.bmp	0r_2g.bmp	10r_4g.bmp				TrialProc	TrialList	0	cvbn	-999999	16	312080	0	c	411	312491	120	-74	46	-10	36	16	4	2	5	41	-10	0	-2	0	4	4	2	2	-10	4
Hungry_Donkey_bar_English_2	160	1	<?xml version="1.0"?>\n<Clock xmlns:dt="urn:schemas-microsoft-com:datatypes"><Description dt:dt="string">E-Prime Primary Realtime Clock</Description><StartTime><Timestamp dt:dt="int">0</Timestamp><DateUtc dt:dt="string">2016-07-14T21:33:29Z</DateUtc></StartTime><FrequencyChanges><FrequencyChange><Frequency dt:dt="r8">3507705</Frequency><Timestamp dt:dt="r8">298851170022</Timestamp><Current dt:dt="r8">0</Current><DateUtc dt:dt="string">2016-07-14T21:33:29Z</DateUtc></FrequencyChange></FrequencyChanges></Clock>\n	Hungry_Donkey_bar_English_2-160-1	60.018	101	1.0.0.18	1	-1795834646	Standard	2.0.10.353	2.0.10.353	07-14-2016	7/14/2016 9:33:29 PM	17:33:29	2.0.10.248	42	Bar63-37.bmp	62	3	?	10r_4g.bmp	0r_4g.bmp	2r_2g.bmp	0r_2g.bmp			2r_2g.bmp		TrialProc	TrialList	0	cvbn	-999999	16	314529	0	b	1482	316011	122	-76	46	-10	36	16	4	3	5	42	-10	0	-2	0	4	4	2	2	-2	2
Hungry_Donkey_bar_English_2	160	1	<?xml version="1.0"?>\n<Clock xmlns:dt="urn:schemas-microsoft-com:datatypes"><Description dt:dt="string">E-Prime Primary Realtime Clock</Description><StartTime><Timestamp dt:dt="int">0</Timestamp><DateUtc dt:dt="string">2016-07-14T21:33:29Z</DateUtc></StartTime><FrequencyChanges><FrequencyChange><Frequency dt:dt="r8">3507705</Frequency><Timestamp dt:dt="r8">298851170022</Timestamp><Current dt:dt="r8">0</Current><DateUtc dt:dt="string">2016-07-14T21:33:29Z</DateUtc></FrequencyChange></FrequencyChanges></Clock>\n	Hungry_Donkey_bar_English_2-160-1	60.018	101	1.0.0.18	1	-1795834646	Standard	2.0.10.353	2.0.10.353	07-14-2016	7/14/2016 9:33:29 PM	17:33:29	2.0.10.248	43	Bar63-37.bmp	62	4	?	0r_4g.bmp	0r_4g.bmp	0r_2g.bmp	0r_2g.bmp				0r_2g.bmp	TrialProc	TrialList	0	cvbn	-999999	16	318045	0	n	1134	319179	124	-76	48	-10	36	16	6	6	5	43	0	0	0	0	4	4	2	2	0	2
Hungry_Donkey_bar_English_2	160	1	<?xml version="1.0"?>\n<Clock xmlns:dt="urn:schemas-microsoft-com:datatypes"><Description dt:dt="string">E-Prime Primary Realtime Clock</Description><StartTime><Timestamp dt:dt="int">0</Timestamp><DateUtc dt:dt="string">2016-07-14T21:33:29Z</DateUtc></StartTime><FrequencyChanges><FrequencyChange><Frequency dt:dt="r8">3507705</Frequency><Timestamp dt:dt="r8">298851170022</Timestamp><Current dt:dt="r8">0</Current><DateUtc dt:dt="string">2016-07-14T21:33:29Z</DateUtc></FrequencyChange></FrequencyChanges></Clock>\n	Hungry_Donkey_bar_English_2-160-1	60.018	101	1.0.0.18	1	-1795834646	Standard	2.0.10.353	2.0.10.353	07-14-2016	7/14/2016 9:33:29 PM	17:33:29	2.0.10.248	44	Bar63-37.bmp	62	4	?	0r_4g.bmp	0r_4g.bmp	0r_2g.bmp	0r_2g.bmp				0r_2g.bmp	TrialProc	TrialList	0	cvbn	-999999	16	321211	0	n	1936	323147	126	-76	50	-10	36	16	8	10	5	44	0	0	0	0	4	4	2	2	0	2
Hungry_Donkey_bar_English_2	160	1	<?xml version="1.0"?>\n<Clock xmlns:dt="urn:schemas-microsoft-com:datatypes"><Description dt:dt="string">E-Prime Primary Realtime Clock</Description><StartTime><Timestamp dt:dt="int">0</Timestamp><DateUtc dt:dt="string">2016-07-14T21:33:29Z</DateUtc></StartTime><FrequencyChanges><FrequencyChange><Frequency dt:dt="r8">3507705</Frequency><Timestamp dt:dt="r8">298851170022</Timestamp><Current dt:dt="r8">0</Current><DateUtc dt:dt="string">2016-07-14T21:33:29Z</DateUtc></FrequencyChange></FrequencyChanges></Clock>\n	Hungry_Donkey_bar_English_2-160-1	60.018	101	1.0.0.18	1	-1795834646	Standard	2.0.10.353	2.0.10.353	07-14-2016	7/14/2016 9:33:29 PM	17:33:29	2.0.10.248	45	Bar63-37.bmp	63	2	?	12r_4g.bmp	0r_4g.bmp	3r_2g.bmp	0r_2g.bmp		0r_4g.bmp			TrialProc	TrialList	0	cvbn	-999999	16	325176	0	v	2914	328090	130	-76	54	-10	40	16	8	5	5	45	-12	0	-3	0	4	4	2	2	0	4
Hungry_Donkey_bar_English_2	160	1	<?xml version="1.0"?>\n<Clock xmlns:dt="urn:schemas-microsoft-com:datatypes"><Description dt:dt="string">E-Prime Primary Realtime Clock</Description><StartTime><Timestamp dt:dt="int">0</Timestamp><DateUtc dt:dt="string">2016-07-14T21:33:29Z</DateUtc></StartTime><FrequencyChanges><FrequencyChange><Frequency dt:dt="r8">3507705</Frequency><Timestamp dt:dt="r8">298851170022</Timestamp><Current dt:dt="r8">0</Current><DateUtc dt:dt="string">2016-07-14T21:33:29Z</DateUtc></FrequencyChange></FrequencyChanges></Clock>\n	Hungry_Donkey_bar_English_2-160-1	60.018	101	1.0.0.18	1	-1795834646	Standard	2.0.10.353	2.0.10.353	07-14-2016	7/14/2016 9:33:29 PM	17:33:29	2.0.10.248	46	Bar63-37.bmp	61	1	?	8r_4g.bmp	50r_4g.bmp	1r_2g.bmp	10r_2g.bmp	8r_4g.bmp				TrialProc	TrialList	0	cvbn	-999999	16	330125	0	c	1485	331610	134	-84	50	-14	40	16	8	1	5	46	-8	-50	-1	-10	4	4	2	2	-8	4
Hungry_Donkey_bar_English_2	160	1	<?xml version="1.0"?>\n<Clock xmlns:dt="urn:schemas-microsoft-com:datatypes"><Description dt:dt="string">E-Prime Primary Realtime Clock</Description><StartTime><Timestamp dt:dt="int">0</Timestamp><DateUtc dt:dt="string">2016-07-14T21:33:29Z</DateUtc></StartTime><FrequencyChanges><FrequencyChange><Frequency dt:dt="r8">3507705</Frequency><Timestamp dt:dt="r8">298851170022</Timestamp><Current dt:dt="r8">0</Current><DateUtc dt:dt="string">2016-07-14T21:33:29Z</DateUtc></FrequencyChange></FrequencyChanges></Clock>\n	Hungry_Donkey_bar_English_2-160-1	60.018	101	1.0.0.18	1	-1795834646	Standard	2.0.10.353	2.0.10.353	07-14-2016	7/14/2016 9:33:29 PM	17:33:29	2.0.10.248	47	Bar63-37.bmp	62	2	?	0r_4g.bmp	0r_4g.bmp	0r_2g.bmp	0r_2g.bmp		0r_4g.bmp			TrialProc	TrialList	0	cvbn	-999999	16	333657	0	v	1409	335066	138	-84	54	-14	44	16	8	7	5	47	0	0	0	0	4	4	2	2	0	4
Hungry_Donkey_bar_English_2	160	1	<?xml version="1.0"?>\n<Clock xmlns:dt="urn:schemas-microsoft-com:datatypes"><Description dt:dt="string">E-Prime Primary Realtime Clock</Description><StartTime><Timestamp dt:dt="int">0</Timestamp><DateUtc dt:dt="string">2016-07-14T21:33:29Z</DateUtc></StartTime><FrequencyChanges><FrequencyChange><Frequency dt:dt="r8">3507705</Frequency><Timestamp dt:dt="r8">298851170022</Timestamp><Current dt:dt="r8">0</Current><DateUtc dt:dt="string">2016-07-14T21:33:29Z</DateUtc></FrequencyChange></FrequencyChanges></Clock>\n	Hungry_Donkey_bar_English_2-160-1	60.018	101	1.0.0.18	1	-1795834646	Standard	2.0.10.353	2.0.10.353	07-14-2016	7/14/2016 9:33:29 PM	17:33:29	2.0.10.248	48	Bar63-37.bmp	63	2	?	10r_4g.bmp	0r_4g.bmp	2r_2g.bmp	0r_2g.bmp		0r_4g.bmp			TrialProc	TrialList	0	cvbn	-999999	16	337089	0	v	22568	359657	142	-84	58	-14	48	16	8	4	5	48	-10	0	-2	0	4	4	2	2	0	4
Hungry_Donkey_bar_English_2	160	1	<?xml version="1.0"?>\n<Clock xmlns:dt="urn:schemas-microsoft-com:datatypes"><Description dt:dt="string">E-Prime Primary Realtime Clock</Description><StartTime><Timestamp dt:dt="int">0</Timestamp><DateUtc dt:dt="string">2016-07-14T21:33:29Z</DateUtc></StartTime><FrequencyChanges><FrequencyChange><Frequency dt:dt="r8">3507705</Frequency><Timestamp dt:dt="r8">298851170022</Timestamp><Current dt:dt="r8">0</Current><DateUtc dt:dt="string">2016-07-14T21:33:29Z</DateUtc></FrequencyChange></FrequencyChanges></Clock>\n	Hungry_Donkey_bar_English_2-160-1	60.018	101	1.0.0.18	1	-1795834646	Standard	2.0.10.353	2.0.10.353	07-14-2016	7/14/2016 9:33:29 PM	17:33:29	2.0.10.248	49	Bar63-37.bmp	63	4	?	0r_4g.bmp	0r_4g.bmp	0r_2g.bmp	0r_2g.bmp				0r_2g.bmp	TrialProc	TrialList	0	cvbn	-999999	16	361682	0	n	7366	369048	144	-84	60	-14	48	16	10	8	5	49	0	0	0	0	4	4	2	2	0	2
Hungry_Donkey_bar_English_2	160	1	<?xml version="1.0"?>\n<Clock xmlns:dt="urn:schemas-microsoft-com:datatypes"><Description dt:dt="string">E-Prime Primary Realtime Clock</Description><StartTime><Timestamp dt:dt="int">0</Timestamp><DateUtc dt:dt="string">2016-07-14T21:33:29Z</DateUtc></StartTime><FrequencyChanges><FrequencyChange><Frequency dt:dt="r8">3507705</Frequency><Timestamp dt:dt="r8">298851170022</Timestamp><Current dt:dt="r8">0</Current><DateUtc dt:dt="string">2016-07-14T21:33:29Z</DateUtc></FrequencyChange></FrequencyChanges></Clock>\n	Hungry_Donkey_bar_English_2-160-1	60.018	101	1.0.0.18	1	-1795834646	Standard	2.0.10.353	2.0.10.353	07-14-2016	7/14/2016 9:33:29 PM	17:33:29	2.0.10.248	50	Bar63-37.bmp	63	3	?	0r_4g.bmp	0r_4g.bmp	0r_2g.bmp	0r_2g.bmp			0r_2g.bmp		TrialProc	TrialList	0	cvbn	-999999	16	371079	0	b	817	371896	146	-84	62	-14	48	18	10	9	5	50	0	0	0	0	4	4	2	2	0	2
Hungry_Donkey_bar_English_2	160	1	<?xml version="1.0"?>\n<Clock xmlns:dt="urn:schemas-microsoft-com:datatypes"><Description dt:dt="string">E-Prime Primary Realtime Clock</Description><StartTime><Timestamp dt:dt="int">0</Timestamp><DateUtc dt:dt="string">2016-07-14T21:33:29Z</DateUtc></StartTime><FrequencyChanges><FrequencyChange><Frequency dt:dt="r8">3507705</Frequency><Timestamp dt:dt="r8">298851170022</Timestamp><Current dt:dt="r8">0</Current><DateUtc dt:dt="string">2016-07-14T21:33:29Z</DateUtc></FrequencyChange></FrequencyChanges></Clock>\n	Hungry_Donkey_bar_English_2-160-1	60.018	101	1.0.0.18	1	-1795834646	Standard	2.0.10.353	2.0.10.353	07-14-2016	7/14/2016 9:33:29 PM	17:33:29	2.0.10.248	51	Bar63-37.bmp	64	2	?	0r_4g.bmp	0r_4g.bmp	0r_2g.bmp	0r_2g.bmp		0r_4g.bmp			TrialProc	TrialList	0	cvbn	-999999	16	373928	0	v	560	374488	150	-84	66	-14	52	18	10	7	6	51	0	0	0	0	4	4	2	2	0	4
Hungry_Donkey_bar_English_2	160	1	<?xml version="1.0"?>\n<Clock xmlns:dt="urn:schemas-microsoft-com:datatypes"><Description dt:dt="string">E-Prime Primary Realtime Clock</Description><StartTime><Timestamp dt:dt="int">0</Timestamp><DateUtc dt:dt="string">2016-07-14T21:33:29Z</DateUtc></StartTime><FrequencyChanges><FrequencyChange><Frequency dt:dt="r8">3507705</Frequency><Timestamp dt:dt="r8">298851170022</Timestamp><Current dt:dt="r8">0</Current><DateUtc dt:dt="string">2016-07-14T21:33:29Z</DateUtc></FrequencyChange></FrequencyChanges></Clock>\n	Hungry_Donkey_bar_English_2-160-1	60.018	101	1.0.0.18	1	-1795834646	Standard	2.0.10.353	2.0.10.353	07-14-2016	7/14/2016 9:33:29 PM	17:33:29	2.0.10.248	52	Bar63-37.bmp	64	4	?	0r_4g.bmp	0r_4g.bmp	0r_2g.bmp	0r_2g.bmp				0r_2g.bmp	TrialProc	TrialList	0	cvbn	-999999	16	376511	0	n	1417	377928	152	-84	68	-14	52	18	12	8	6	52	0	0	0	0	4	4	2	2	0	2
Hungry_Donkey_bar_English_2	160	1	<?xml version="1.0"?>\n<Clock xmlns:dt="urn:schemas-microsoft-com:datatypes"><Description dt:dt="string">E-Prime Primary Realtime Clock</Description><StartTime><Timestamp dt:dt="int">0</Timestamp><DateUtc dt:dt="string">2016-07-14T21:33:29Z</DateUtc></StartTime><FrequencyChanges><FrequencyChange><Frequency dt:dt="r8">3507705</Frequency><Timestamp dt:dt="r8">298851170022</Timestamp><Current dt:dt="r8">0</Current><DateUtc dt:dt="string">2016-07-14T21:33:29Z</DateUtc></FrequencyChange></FrequencyChanges></Clock>\n	Hungry_Donkey_bar_English_2-160-1	60.018	101	1.0.0.18	1	-1795834646	Standard	2.0.10.353	2.0.10.353	07-14-2016	7/14/2016 9:33:29 PM	17:33:29	2.0.10.248	53	Bar63-37.bmp	64	3	?	8r_4g.bmp	50r_4g.bmp	1r_2g.bmp	10r_2g.bmp			1r_2g.bmp		TrialProc	TrialList	0	cvbn	-999999	16	379960	0	b	447	380407	154	-85	69	-14	52	19	12	1	6	53	-8	-50	-1	-10	4	4	2	2	-1	2
Hungry_Donkey_bar_English_2	160	1	<?xml version="1.0"?>\n<Clock xmlns:dt="urn:schemas-microsoft-com:datatypes"><Description dt:dt="string">E-Prime Primary Realtime Clock</Description><StartTime><Timestamp dt:dt="int">0</Timestamp><DateUtc dt:dt="string">2016-07-14T21:33:29Z</DateUtc></StartTime><FrequencyChanges><FrequencyChange><Frequency dt:dt="r8">3507705</Frequency><Timestamp dt:dt="r8">298851170022</Timestamp><Current dt:dt="r8">0</Current><DateUtc dt:dt="string">2016-07-14T21:33:29Z</DateUtc></FrequencyChange></FrequencyChanges></Clock>\n	Hungry_Donkey_bar_English_2-160-1	60.018	101	1.0.0.18	1	-1795834646	Standard	2.0.10.353	2.0.10.353	07-14-2016	7/14/2016 9:33:29 PM	17:33:29	2.0.10.248	54	Bar63-37.bmp	62	1	?	12r_4g.bmp	0r_4g.bmp	3r_2g.bmp	0r_2g.bmp	12r_4g.bmp				TrialProc	TrialList	0	cvbn	-999999	16	382443	0	c	30491	412934	158	-97	61	-22	52	19	12	5	6	54	-12	0	-3	0	4	4	2	2	-12	4
Hungry_Donkey_bar_English_2	160	1	<?xml version="1.0"?>\n<Clock xmlns:dt="urn:schemas-microsoft-com:datatypes"><Description dt:dt="string">E-Prime Primary Realtime Clock</Description><StartTime><Timestamp dt:dt="int">0</Timestamp><DateUtc dt:dt="string">2016-07-14T21:33:29Z</DateUtc></StartTime><FrequencyChanges><FrequencyChange><Frequency dt:dt="r8">3507705</Frequency><Timestamp dt:dt="r8">298851170022</Timestamp><Current dt:dt="r8">0</Current><DateUtc dt:dt="string">2016-07-14T21:33:29Z</DateUtc></FrequencyChange></FrequencyChanges></Clock>\n	Hungry_Donkey_bar_English_2-160-1	60.018	101	1.0.0.18	1	-1795834646	Standard	2.0.10.353	2.0.10.353	07-14-2016	7/14/2016 9:33:29 PM	17:33:29	2.0.10.248	55	Bar63-37.bmp	63	2	?	0r_4g.bmp	0r_4g.bmp	0r_2g.bmp	0r_2g.bmp		0r_4g.bmp			TrialProc	TrialList	0	cvbn	-999999	16	414966	0	v	1391	416357	162	-97	65	-22	56	19	12	6	6	55	0	0	0	0	4	4	2	2	0	4
Hungry_Donkey_bar_English_2	160	1	<?xml version="1.0"?>\n<Clock xmlns:dt="urn:schemas-microsoft-com:datatypes"><Description dt:dt="string">E-Prime Primary Realtime Clock</Description><StartTime><Timestamp dt:dt="int">0</Timestamp><DateUtc dt:dt="string">2016-07-14T21:33:29Z</DateUtc></StartTime><FrequencyChanges><FrequencyChange><Frequency dt:dt="r8">3507705</Frequency><Timestamp dt:dt="r8">298851170022</Timestamp><Current dt:dt="r8">0</Current><DateUtc dt:dt="string">2016-07-14T21:33:29Z</DateUtc></FrequencyChange></FrequencyChanges></Clock>\n	Hungry_Donkey_bar_English_2-160-1	60.018	101	1.0.0.18	1	-1795834646	Standard	2.0.10.353	2.0.10.353	07-14-2016	7/14/2016 9:33:29 PM	17:33:29	2.0.10.248	56	Bar63-37.bmp	62	3	?	10r_4g.bmp	0r_4g.bmp	2r_2g.bmp	0r_2g.bmp			2r_2g.bmp		TrialProc	TrialList	0	cvbn	-999999	16	418382	0	b	3239	421621	164	-99	65	-22	56	19	12	3	6	56	-10	0	-2	0	4	4	2	2	-2	2
Hungry_Donkey_bar_English_2	160	1	<?xml version="1.0"?>\n<Clock xmlns:dt="urn:schemas-microsoft-com:datatypes"><Description dt:dt="string">E-Prime Primary Realtime Clock</Description><StartTime><Timestamp dt:dt="int">0</Timestamp><DateUtc dt:dt="string">2016-07-14T21:33:29Z</DateUtc></StartTime><FrequencyChanges><FrequencyChange><Frequency dt:dt="r8">3507705</Frequency><Timestamp dt:dt="r8">298851170022</Timestamp><Current dt:dt="r8">0</Current><DateUtc dt:dt="string">2016-07-14T21:33:29Z</DateUtc></FrequencyChange></FrequencyChanges></Clock>\n	Hungry_Donkey_bar_English_2-160-1	60.018	101	1.0.0.18	1	-1795834646	Standard	2.0.10.353	2.0.10.353	07-14-2016	7/14/2016 9:33:29 PM	17:33:29	2.0.10.248	57	Bar63-37.bmp	63	4	?	10r_4g.bmp	0r_4g.bmp	2r_2g.bmp	0r_2g.bmp				0r_2g.bmp	TrialProc	TrialList	0	cvbn	-999999	16	423647	0	n	2998	426645	166	-99	67	-22	56	19	14	4	6	57	-10	0	-2	0	4	4	2	2	0	2
Hungry_Donkey_bar_English_2	160	1	<?xml version="1.0"?>\n<Clock xmlns:dt="urn:schemas-microsoft-com:datatypes"><Description dt:dt="string">E-Prime Primary Realtime Clock</Description><StartTime><Timestamp dt:dt="int">0</Timestamp><DateUtc dt:dt="string">2016-07-14T21:33:29Z</DateUtc></StartTime><FrequencyChanges><FrequencyChange><Frequency dt:dt="r8">3507705</Frequency><Timestamp dt:dt="r8">298851170022</Timestamp><Current dt:dt="r8">0</Current><DateUtc dt:dt="string">2016-07-14T21:33:29Z</DateUtc></FrequencyChange></FrequencyChanges></Clock>\n	Hungry_Donkey_bar_English_2-160-1	60.018	101	1.0.0.18	1	-1795834646	Standard	2.0.10.353	2.0.10.353	07-14-2016	7/14/2016 9:33:29 PM	17:33:29	2.0.10.248	58	Bar63-37.bmp	63	1	?	0r_4g.bmp	0r_4g.bmp	0r_2g.bmp	0r_2g.bmp	0r_4g.bmp				TrialProc	TrialList	0	cvbn	-999999	16	428679	0	c	798	429477	170	-99	71	-18	56	19	14	9	6	58	0	0	0	0	4	4	2	2	0	4
Hungry_Donkey_bar_English_2	160	1	<?xml version="1.0"?>\n<Clock xmlns:dt="urn:schemas-microsoft-com:datatypes"><Description dt:dt="string">E-Prime Primary Realtime Clock</Description><StartTime><Timestamp dt:dt="int">0</Timestamp><DateUtc dt:dt="string">2016-07-14T21:33:29Z</DateUtc></StartTime><FrequencyChanges><FrequencyChange><Frequency dt:dt="r8">3507705</Frequency><Timestamp dt:dt="r8">298851170022</Timestamp><Current dt:dt="r8">0</Current><DateUtc dt:dt="string">2016-07-14T21:33:29Z</DateUtc></FrequencyChange></FrequencyChanges></Clock>\n	Hungry_Donkey_bar_English_2-160-1	60.018	101	1.0.0.18	1	-1795834646	Standard	2.0.10.353	2.0.10.353	07-14-2016	7/14/2016 9:33:29 PM	17:33:29	2.0.10.248	59	Bar63-37.bmp	64	2	?	10r_4g.bmp	0r_4g.bmp	2r_2g.bmp	0r_2g.bmp		0r_4g.bmp			TrialProc	TrialList	0	cvbn	-999999	16	431511	0	v	1085	432596	174	-99	75	-18	60	19	14	2	6	59	-10	0	-2	0	4	4	2	2	0	4
Hungry_Donkey_bar_English_2	160	1	<?xml version="1.0"?>\n<Clock xmlns:dt="urn:schemas-microsoft-com:datatypes"><Description dt:dt="string">E-Prime Primary Realtime Clock</Description><StartTime><Timestamp dt:dt="int">0</Timestamp><DateUtc dt:dt="string">2016-07-14T21:33:29Z</DateUtc></StartTime><FrequencyChanges><FrequencyChange><Frequency dt:dt="r8">3507705</Frequency><Timestamp dt:dt="r8">298851170022</Timestamp><Current dt:dt="r8">0</Current><DateUtc dt:dt="string">2016-07-14T21:33:29Z</DateUtc></FrequencyChange></FrequencyChanges></Clock>\n	Hungry_Donkey_bar_English_2-160-1	60.018	101	1.0.0.18	1	-1795834646	Standard	2.0.10.353	2.0.10.353	07-14-2016	7/14/2016 9:33:29 PM	17:33:29	2.0.10.248	60	Bar63-37.bmp	64	4	?	0r_4g.bmp	0r_4g.bmp	0r_2g.bmp	0r_2g.bmp				0r_2g.bmp	TrialProc	TrialList	0	cvbn	-999999	16	434627	0	n	1873	436500	176	-99	77	-18	60	19	16	10	6	60	0	0	0	0	4	4	2	2	0	2
Hungry_Donkey_bar_English_2	160	1	<?xml version="1.0"?>\n<Clock xmlns:dt="urn:schemas-microsoft-com:datatypes"><Description dt:dt="string">E-Prime Primary Realtime Clock</Description><StartTime><Timestamp dt:dt="int">0</Timestamp><DateUtc dt:dt="string">2016-07-14T21:33:29Z</DateUtc></StartTime><FrequencyChanges><FrequencyChange><Frequency dt:dt="r8">3507705</Frequency><Timestamp dt:dt="r8">298851170022</Timestamp><Current dt:dt="r8">0</Current><DateUtc dt:dt="string">2016-07-14T21:33:29Z</DateUtc></FrequencyChange></FrequencyChanges></Clock>\n	Hungry_Donkey_bar_English_2-160-1	60.018	101	1.0.0.18	1	-1795834646	Standard	2.0.10.353	2.0.10.353	07-14-2016	7/14/2016 9:33:29 PM	17:33:29	2.0.10.248	61	Bar63-37.bmp	64	3	?	10r_4g.bmp	0r_4g.bmp	2r_2g.bmp	0r_2g.bmp			2r_2g.bmp		TrialProc	TrialList	0	cvbn	-999999	16	438526	0	b	9414	447940	178	-101	77	-18	60	19	16	3	7	61	-10	0	-2	0	4	4	2	2	-2	2
Hungry_Donkey_bar_English_2	160	1	<?xml version="1.0"?>\n<Clock xmlns:dt="urn:schemas-microsoft-com:datatypes"><Description dt:dt="string">E-Prime Primary Realtime Clock</Description><StartTime><Timestamp dt:dt="int">0</Timestamp><DateUtc dt:dt="string">2016-07-14T21:33:29Z</DateUtc></StartTime><FrequencyChanges><FrequencyChange><Frequency dt:dt="r8">3507705</Frequency><Timestamp dt:dt="r8">298851170022</Timestamp><Current dt:dt="r8">0</Current><DateUtc dt:dt="string">2016-07-14T21:33:29Z</DateUtc></FrequencyChange></FrequencyChanges></Clock>\n	Hungry_Donkey_bar_English_2-160-1	60.018	101	1.0.0.18	1	-1795834646	Standard	2.0.10.353	2.0.10.353	07-14-2016	7/14/2016 9:33:29 PM	17:33:29	2.0.10.248	62	Bar63-37.bmp	64	1	?	0r_4g.bmp	0r_4g.bmp	0r_2g.bmp	0r_2g.bmp	0r_4g.bmp				TrialProc	TrialList	0	cvbn	-999999	16	449973	0	c	1966	451939	182	-101	81	-14	60	19	16	7	7	62	0	0	0	0	4	4	2	2	0	4
Hungry_Donkey_bar_English_2	160	1	<?xml version="1.0"?>\n<Clock xmlns:dt="urn:schemas-microsoft-com:datatypes"><Description dt:dt="string">E-Prime Primary Realtime Clock</Description><StartTime><Timestamp dt:dt="int">0</Timestamp><DateUtc dt:dt="string">2016-07-14T21:33:29Z</DateUtc></StartTime><FrequencyChanges><FrequencyChange><Frequency dt:dt="r8">3507705</Frequency><Timestamp dt:dt="r8">298851170022</Timestamp><Current dt:dt="r8">0</Current><DateUtc dt:dt="string">2016-07-14T21:33:29Z</DateUtc></FrequencyChange></FrequencyChanges></Clock>\n	Hungry_Donkey_bar_English_2-160-1	60.018	101	1.0.0.18	1	-1795834646	Standard	2.0.10.353	2.0.10.353	07-14-2016	7/14/2016 9:33:29 PM	17:33:29	2.0.10.248	63	Bar63-37.bmp	63	1	?	8r_4g.bmp	50r_4g.bmp	1r_2g.bmp	10r_2g.bmp	8r_4g.bmp				TrialProc	TrialList	0	cvbn	-999999	17	453972	0	c	9503	463475	186	-109	77	-18	60	19	16	1	7	63	-8	-50	-1	-10	4	4	2	2	-8	4
Hungry_Donkey_bar_English_2	160	1	<?xml version="1.0"?>\n<Clock xmlns:dt="urn:schemas-microsoft-com:datatypes"><Description dt:dt="string">E-Prime Primary Realtime Clock</Description><StartTime><Timestamp dt:dt="int">0</Timestamp><DateUtc dt:dt="string">2016-07-14T21:33:29Z</DateUtc></StartTime><FrequencyChanges><FrequencyChange><Frequency dt:dt="r8">3507705</Frequency><Timestamp dt:dt="r8">298851170022</Timestamp><Current dt:dt="r8">0</Current><DateUtc dt:dt="string">2016-07-14T21:33:29Z</DateUtc></FrequencyChange></FrequencyChanges></Clock>\n	Hungry_Donkey_bar_English_2-160-1	60.018	101	1.0.0.18	1	-1795834646	Standard	2.0.10.353	2.0.10.353	07-14-2016	7/14/2016 9:33:29 PM	17:33:29	2.0.10.248	64	Bar63-37.bmp	63	3	?	10r_4g.bmp	0r_4g.bmp	2r_2g.bmp	0r_2g.bmp			2r_2g.bmp		TrialProc	TrialList	0	cvbn	-999999	16	465501	0	b	1125	466626	188	-111	77	-18	60	19	16	2	7	64	-10	0	-2	0	4	4	2	2	-2	2
Hungry_Donkey_bar_English_2	160	1	<?xml version="1.0"?>\n<Clock xmlns:dt="urn:schemas-microsoft-com:datatypes"><Description dt:dt="string">E-Prime Primary Realtime Clock</Description><StartTime><Timestamp dt:dt="int">0</Timestamp><DateUtc dt:dt="string">2016-07-14T21:33:29Z</DateUtc></StartTime><FrequencyChanges><FrequencyChange><Frequency dt:dt="r8">3507705</Frequency><Timestamp dt:dt="r8">298851170022</Timestamp><Current dt:dt="r8">0</Current><DateUtc dt:dt="string">2016-07-14T21:33:29Z</DateUtc></FrequencyChange></FrequencyChanges></Clock>\n	Hungry_Donkey_bar_English_2-160-1	60.018	101	1.0.0.18	1	-1795834646	Standard	2.0.10.353	2.0.10.353	07-14-2016	7/14/2016 9:33:29 PM	17:33:29	2.0.10.248	65	Bar63-37.bmp	63	2	?	10r_4g.bmp	0r_4g.bmp	2r_2g.bmp	0r_2g.bmp		0r_4g.bmp			TrialProc	TrialList	0	cvbn	-999999	17	468651	0	v	4023	472674	192	-111	81	-18	64	19	16	4	7	65	-10	0	-2	0	4	4	2	2	0	4
Hungry_Donkey_bar_English_2	160	1	<?xml version="1.0"?>\n<Clock xmlns:dt="urn:schemas-microsoft-com:datatypes"><Description dt:dt="string">E-Prime Primary Realtime Clock</Description><StartTime><Timestamp dt:dt="int">0</Timestamp><DateUtc dt:dt="string">2016-07-14T21:33:29Z</DateUtc></StartTime><FrequencyChanges><FrequencyChange><Frequency dt:dt="r8">3507705</Frequency><Timestamp dt:dt="r8">298851170022</Timestamp><Current dt:dt="r8">0</Current><DateUtc dt:dt="string">2016-07-14T21:33:29Z</DateUtc></FrequencyChange></FrequencyChanges></Clock>\n	Hungry_Donkey_bar_English_2-160-1	60.018	101	1.0.0.18	1	-1795834646	Standard	2.0.10.353	2.0.10.353	07-14-2016	7/14/2016 9:33:29 PM	17:33:29	2.0.10.248	66	Bar63-37.bmp	64	2	?	0r_4g.bmp	0r_4g.bmp	0r_2g.bmp	0r_2g.bmp		0r_4g.bmp			TrialProc	TrialList	0	cvbn	-999999	16	474699	0	v	967	475666	196	-111	85	-18	68	19	16	9	7	66	0	0	0	0	4	4	2	2	0	4
Hungry_Donkey_bar_English_2	160	1	<?xml version="1.0"?>\n<Clock xmlns:dt="urn:schemas-microsoft-com:datatypes"><Description dt:dt="string">E-Prime Primary Realtime Clock</Description><StartTime><Timestamp dt:dt="int">0</Timestamp><DateUtc dt:dt="string">2016-07-14T21:33:29Z</DateUtc></StartTime><FrequencyChanges><FrequencyChange><Frequency dt:dt="r8">3507705</Frequency><Timestamp dt:dt="r8">298851170022</Timestamp><Current dt:dt="r8">0</Current><DateUtc dt:dt="string">2016-07-14T21:33:29Z</DateUtc></FrequencyChange></FrequencyChanges></Clock>\n	Hungry_Donkey_bar_English_2-160-1	60.018	101	1.0.0.18	1	-1795834646	Standard	2.0.10.353	2.0.10.353	07-14-2016	7/14/2016 9:33:29 PM	17:33:29	2.0.10.248	67	Bar63-37.bmp	62	1	?	12r_4g.bmp	0r_4g.bmp	3r_2g.bmp	0r_2g.bmp	12r_4g.bmp				TrialProc	TrialList	0	cvbn	-999999	16	477698	0	c	10447	488145	200	-123	77	-26	68	19	16	5	7	67	-12	0	-3	0	4	4	2	2	-12	4
Hungry_Donkey_bar_English_2	160	1	<?xml version="1.0"?>\n<Clock xmlns:dt="urn:schemas-microsoft-com:datatypes"><Description dt:dt="string">E-Prime Primary Realtime Clock</Description><StartTime><Timestamp dt:dt="int">0</Timestamp><DateUtc dt:dt="string">2016-07-14T21:33:29Z</DateUtc></StartTime><FrequencyChanges><FrequencyChange><Frequency dt:dt="r8">3507705</Frequency><Timestamp dt:dt="r8">298851170022</Timestamp><Current dt:dt="r8">0</Current><DateUtc dt:dt="string">2016-07-14T21:33:29Z</DateUtc></FrequencyChange></FrequencyChanges></Clock>\n	Hungry_Donkey_bar_English_2-160-1	60.018	101	1.0.0.18	1	-1795834646	Standard	2.0.10.353	2.0.10.353	07-14-2016	7/14/2016 9:33:29 PM	17:33:29	2.0.10.248	68	Bar63-37.bmp	62	3	?	0r_4g.bmp	0r_4g.bmp	0r_2g.bmp	0r_2g.bmp			0r_2g.bmp		TrialProc	TrialList	0	cvbn	-999999	17	490178	0	b	1999	492177	202	-123	79	-26	68	21	16	8	7	68	0	0	0	0	4	4	2	2	0	2
Hungry_Donkey_bar_English_2	160	1	<?xml version="1.0"?>\n<Clock xmlns:dt="urn:schemas-microsoft-com:datatypes"><Description dt:dt="string">E-Prime Primary Realtime Clock</Description><StartTime><Timestamp dt:dt="int">0</Timestamp><DateUtc dt:dt="string">2016-07-14T21:33:29Z</DateUtc></StartTime><FrequencyChanges><FrequencyChange><Frequency dt:dt="r8">3507705</Frequency><Timestamp dt:dt="r8">298851170022</Timestamp><Current dt:dt="r8">0</Current><DateUtc dt:dt="string">2016-07-14T21:33:29Z</DateUtc></FrequencyChange></FrequencyChanges></Clock>\n	Hungry_Donkey_bar_English_2-160-1	60.018	101	1.0.0.18	1	-1795834646	Standard	2.0.10.353	2.0.10.353	07-14-2016	7/14/2016 9:33:29 PM	17:33:29	2.0.10.248	69	Bar63-37.bmp	63	2	?	0r_4g.bmp	0r_4g.bmp	0r_2g.bmp	0r_2g.bmp		0r_4g.bmp			TrialProc	TrialList	0	cvbn	-999999	16	494210	0	v	543	494753	206	-123	83	-26	72	21	16	10	7	69	0	0	0	0	4	4	2	2	0	4
Hungry_Donkey_bar_English_2	160	1	<?xml version="1.0"?>\n<Clock xmlns:dt="urn:schemas-microsoft-com:datatypes"><Description dt:dt="string">E-Prime Primary Realtime Clock</Description><StartTime><Timestamp dt:dt="int">0</Timestamp><DateUtc dt:dt="string">2016-07-14T21:33:29Z</DateUtc></StartTime><FrequencyChanges><FrequencyChange><Frequency dt:dt="r8">3507705</Frequency><Timestamp dt:dt="r8">298851170022</Timestamp><Current dt:dt="r8">0</Current><DateUtc dt:dt="string">2016-07-14T21:33:29Z</DateUtc></FrequencyChange></FrequencyChanges></Clock>\n	Hungry_Donkey_bar_English_2-160-1	60.018	101	1.0.0.18	1	-1795834646	Standard	2.0.10.353	2.0.10.353	07-14-2016	7/14/2016 9:33:29 PM	17:33:29	2.0.10.248	70	Bar63-37.bmp	63	1	?	0r_4g.bmp	0r_4g.bmp	0r_2g.bmp	0r_2g.bmp	0r_4g.bmp				TrialProc	TrialList	0	cvbn	-999999	16	496792	0	c	361	497153	210	-123	87	-22	72	21	16	6	7	70	0	0	0	0	4	4	2	2	0	4
Hungry_Donkey_bar_English_2	160	1	<?xml version="1.0"?>\n<Clock xmlns:dt="urn:schemas-microsoft-com:datatypes"><Description dt:dt="string">E-Prime Primary Realtime Clock</Description><StartTime><Timestamp dt:dt="int">0</Timestamp><DateUtc dt:dt="string">2016-07-14T21:33:29Z</DateUtc></StartTime><FrequencyChanges><FrequencyChange><Frequency dt:dt="r8">3507705</Frequency><Timestamp dt:dt="r8">298851170022</Timestamp><Current dt:dt="r8">0</Current><DateUtc dt:dt="string">2016-07-14T21:33:29Z</DateUtc></FrequencyChange></FrequencyChanges></Clock>\n	Hungry_Donkey_bar_English_2-160-1	60.018	101	1.0.0.18	1	-1795834646	Standard	2.0.10.353	2.0.10.353	07-14-2016	7/14/2016 9:33:29 PM	17:33:29	2.0.10.248	71	Bar63-37.bmp	61	4	?	8r_4g.bmp	50r_4g.bmp	1r_2g.bmp	10r_2g.bmp				10r_2g.bmp	TrialProc	TrialList	0	cvbn	-999999	17	499192	0	n	1033	500225	212	-133	79	-22	72	21	8	1	8	71	-8	-50	-1	-10	4	4	2	2	-10	2
Hungry_Donkey_bar_English_2	160	1	<?xml version="1.0"?>\n<Clock xmlns:dt="urn:schemas-microsoft-com:datatypes"><Description dt:dt="string">E-Prime Primary Realtime Clock</Description><StartTime><Timestamp dt:dt="int">0</Timestamp><DateUtc dt:dt="string">2016-07-14T21:33:29Z</DateUtc></StartTime><FrequencyChanges><FrequencyChange><Frequency dt:dt="r8">3507705</Frequency><Timestamp dt:dt="r8">298851170022</Timestamp><Current dt:dt="r8">0</Current><DateUtc dt:dt="string">2016-07-14T21:33:29Z</DateUtc></FrequencyChange></FrequencyChanges></Clock>\n	Hungry_Donkey_bar_English_2-160-1	60.018	101	1.0.0.18	1	-1795834646	Standard	2.0.10.353	2.0.10.353	07-14-2016	7/14/2016 9:33:29 PM	17:33:29	2.0.10.248	72	Bar63-37.bmp	62	2	?	10r_4g.bmp	0r_4g.bmp	2r_2g.bmp	0r_2g.bmp		0r_4g.bmp			TrialProc	TrialList	0	cvbn	-999999	16	502257	0	v	5791	508048	216	-133	83	-22	76	21	8	3	8	72	-10	0	-2	0	4	4	2	2	0	4
Hungry_Donkey_bar_English_2	160	1	<?xml version="1.0"?>\n<Clock xmlns:dt="urn:schemas-microsoft-com:datatypes"><Description dt:dt="string">E-Prime Primary Realtime Clock</Description><StartTime><Timestamp dt:dt="int">0</Timestamp><DateUtc dt:dt="string">2016-07-14T21:33:29Z</DateUtc></StartTime><FrequencyChanges><FrequencyChange><Frequency dt:dt="r8">3507705</Frequency><Timestamp dt:dt="r8">298851170022</Timestamp><Current dt:dt="r8">0</Current><DateUtc dt:dt="string">2016-07-14T21:33:29Z</DateUtc></FrequencyChange></FrequencyChanges></Clock>\n	Hungry_Donkey_bar_English_2-160-1	60.018	101	1.0.0.18	1	-1795834646	Standard	2.0.10.353	2.0.10.353	07-14-2016	7/14/2016 9:33:29 PM	17:33:29	2.0.10.248	73	Bar63-37.bmp	62	2	?	0r_4g.bmp	0r_4g.bmp	0r_2g.bmp	0r_2g.bmp		0r_4g.bmp			TrialProc	TrialList	0	cvbn	-999999	16	510072	0	v	4088	514160	220	-133	87	-22	80	21	8	7	8	73	0	0	0	0	4	4	2	2	0	4
Hungry_Donkey_bar_English_2	160	1	<?xml version="1.0"?>\n<Clock xmlns:dt="urn:schemas-microsoft-com:datatypes"><Description dt:dt="string">E-Prime Primary Realtime Clock</Description><StartTime><Timestamp dt:dt="int">0</Timestamp><DateUtc dt:dt="string">2016-07-14T21:33:29Z</DateUtc></StartTime><FrequencyChanges><FrequencyChange><Frequency dt:dt="r8">3507705</Frequency><Timestamp dt:dt="r8">298851170022</Timestamp><Current dt:dt="r8">0</Current><DateUtc dt:dt="string">2016-07-14T21:33:29Z</DateUtc></FrequencyChange></FrequencyChanges></Clock>\n	Hungry_Donkey_bar_English_2-160-1	60.018	101	1.0.0.18	1	-1795834646	Standard	2.0.10.353	2.0.10.353	07-14-2016	7/14/2016 9:33:29 PM	17:33:29	2.0.10.248	74	Bar63-37.bmp	63	3	?	0r_4g.bmp	0r_4g.bmp	0r_2g.bmp	0r_2g.bmp			0r_2g.bmp		TrialProc	TrialList	0	cvbn	-999999	17	516187	0	b	16148	532335	222	-133	89	-22	80	23	8	6	8	74	0	0	0	0	4	4	2	2	0	2
Hungry_Donkey_bar_English_2	160	1	<?xml version="1.0"?>\n<Clock xmlns:dt="urn:schemas-microsoft-com:datatypes"><Description dt:dt="string">E-Prime Primary Realtime Clock</Description><StartTime><Timestamp dt:dt="int">0</Timestamp><DateUtc dt:dt="string">2016-07-14T21:33:29Z</DateUtc></StartTime><FrequencyChanges><FrequencyChange><Frequency dt:dt="r8">3507705</Frequency><Timestamp dt:dt="r8">298851170022</Timestamp><Current dt:dt="r8">0</Current><DateUtc dt:dt="string">2016-07-14T21:33:29Z</DateUtc></FrequencyChange></FrequencyChanges></Clock>\n	Hungry_Donkey_bar_English_2-160-1	60.018	101	1.0.0.18	1	-1795834646	Standard	2.0.10.353	2.0.10.353	07-14-2016	7/14/2016 9:33:29 PM	17:33:29	2.0.10.248	75	Bar63-37.bmp	63	2	?	10r_4g.bmp	0r_4g.bmp	2r_2g.bmp	0r_2g.bmp		0r_4g.bmp			TrialProc	TrialList	0	cvbn	-999999	17	534365	0	v	9073	543438	226	-133	93	-22	84	23	8	2	8	75	-10	0	-2	0	4	4	2	2	0	4
Hungry_Donkey_bar_English_2	160	1	<?xml version="1.0"?>\n<Clock xmlns:dt="urn:schemas-microsoft-com:datatypes"><Description dt:dt="string">E-Prime Primary Realtime Clock</Description><StartTime><Timestamp dt:dt="int">0</Timestamp><DateUtc dt:dt="string">2016-07-14T21:33:29Z</DateUtc></StartTime><FrequencyChanges><FrequencyChange><Frequency dt:dt="r8">3507705</Frequency><Timestamp dt:dt="r8">298851170022</Timestamp><Current dt:dt="r8">0</Current><DateUtc dt:dt="string">2016-07-14T21:33:29Z</DateUtc></FrequencyChange></FrequencyChanges></Clock>\n	Hungry_Donkey_bar_English_2-160-1	60.018	101	1.0.0.18	1	-1795834646	Standard	2.0.10.353	2.0.10.353	07-14-2016	7/14/2016 9:33:29 PM	17:33:29	2.0.10.248	76	Bar63-37.bmp	63	1	?	0r_4g.bmp	0r_4g.bmp	0r_2g.bmp	0r_2g.bmp	0r_4g.bmp				TrialProc	TrialList	0	cvbn	-999999	16	545478	0	c	2456	547934	230	-133	97	-18	84	23	8	8	8	76	0	0	0	0	4	4	2	2	0	4
Hungry_Donkey_bar_English_2	160	1	<?xml version="1.0"?>\n<Clock xmlns:dt="urn:schemas-microsoft-com:datatypes"><Description dt:dt="string">E-Prime Primary Realtime Clock</Description><StartTime><Timestamp dt:dt="int">0</Timestamp><DateUtc dt:dt="string">2016-07-14T21:33:29Z</DateUtc></StartTime><FrequencyChanges><FrequencyChange><Frequency dt:dt="r8">3507705</Frequency><Timestamp dt:dt="r8">298851170022</Timestamp><Current dt:dt="r8">0</Current><DateUtc dt:dt="string">2016-07-14T21:33:29Z</DateUtc></FrequencyChange></FrequencyChanges></Clock>\n	Hungry_Donkey_bar_English_2-160-1	60.018	101	1.0.0.18	1	-1795834646	Standard	2.0.10.353	2.0.10.353	07-14-2016	7/14/2016 9:33:29 PM	17:33:29	2.0.10.248	77	Bar63-37.bmp	64	2	?	0r_4g.bmp	0r_4g.bmp	0r_2g.bmp	0r_2g.bmp		0r_4g.bmp			TrialProc	TrialList	0	cvbn	-999999	16	549960	0	v	646	550606	234	-133	101	-18	88	23	8	10	8	77	0	0	0	0	4	4	2	2	0	4
Hungry_Donkey_bar_English_2	160	1	<?xml version="1.0"?>\n<Clock xmlns:dt="urn:schemas-microsoft-com:datatypes"><Description dt:dt="string">E-Prime Primary Realtime Clock</Description><StartTime><Timestamp dt:dt="int">0</Timestamp><DateUtc dt:dt="string">2016-07-14T21:33:29Z</DateUtc></StartTime><FrequencyChanges><FrequencyChange><Frequency dt:dt="r8">3507705</Frequency><Timestamp dt:dt="r8">298851170022</Timestamp><Current dt:dt="r8">0</Current><DateUtc dt:dt="string">2016-07-14T21:33:29Z</DateUtc></FrequencyChange></FrequencyChanges></Clock>\n	Hungry_Donkey_bar_English_2-160-1	60.018	101	1.0.0.18	1	-1795834646	Standard	2.0.10.353	2.0.10.353	07-14-2016	7/14/2016 9:33:29 PM	17:33:29	2.0.10.248	78	Bar63-37.bmp	64	3	?	10r_4g.bmp	0r_4g.bmp	2r_2g.bmp	0r_2g.bmp			2r_2g.bmp		TrialProc	TrialList	0	cvbn	-999999	16	552642	0	b	332	552974	236	-135	101	-18	88	23	8	4	8	78	-10	0	-2	0	4	4	2	2	-2	2
Hungry_Donkey_bar_English_2	160	1	<?xml version="1.0"?>\n<Clock xmlns:dt="urn:schemas-microsoft-com:datatypes"><Description dt:dt="string">E-Prime Primary Realtime Clock</Description><StartTime><Timestamp dt:dt="int">0</Timestamp><DateUtc dt:dt="string">2016-07-14T21:33:29Z</DateUtc></StartTime><FrequencyChanges><FrequencyChange><Frequency dt:dt="r8">3507705</Frequency><Timestamp dt:dt="r8">298851170022</Timestamp><Current dt:dt="r8">0</Current><DateUtc dt:dt="string">2016-07-14T21:33:29Z</DateUtc></FrequencyChange></FrequencyChanges></Clock>\n	Hungry_Donkey_bar_English_2-160-1	60.018	101	1.0.0.18	1	-1795834646	Standard	2.0.10.353	2.0.10.353	07-14-2016	7/14/2016 9:33:29 PM	17:33:29	2.0.10.248	79	Bar63-37.bmp	64	3	?	0r_4g.bmp	0r_4g.bmp	0r_2g.bmp	0r_2g.bmp			0r_2g.bmp		TrialProc	TrialList	0	cvbn	-999999	16	555008	0	b	1453	556461	238	-135	103	-18	88	25	8	9	8	79	0	0	0	0	4	4	2	2	0	2
Hungry_Donkey_bar_English_2	160	1	<?xml version="1.0"?>\n<Clock xmlns:dt="urn:schemas-microsoft-com:datatypes"><Description dt:dt="string">E-Prime Primary Realtime Clock</Description><StartTime><Timestamp dt:dt="int">0</Timestamp><DateUtc dt:dt="string">2016-07-14T21:33:29Z</DateUtc></StartTime><FrequencyChanges><FrequencyChange><Frequency dt:dt="r8">3507705</Frequency><Timestamp dt:dt="r8">298851170022</Timestamp><Current dt:dt="r8">0</Current><DateUtc dt:dt="string">2016-07-14T21:33:29Z</DateUtc></FrequencyChange></FrequencyChanges></Clock>\n	Hungry_Donkey_bar_English_2-160-1	60.018	101	1.0.0.18	1	-1795834646	Standard	2.0.10.353	2.0.10.353	07-14-2016	7/14/2016 9:33:29 PM	17:33:29	2.0.10.248	80	Bar63-37.bmp	64	2	?	12r_4g.bmp	0r_4g.bmp	3r_2g.bmp	0r_2g.bmp		0r_4g.bmp			TrialProc	TrialList	0	cvbn	-999999	16	558491	0	v	10338	568829	242	-135	107	-18	92	25	8	5	8	80	-12	0	-3	0	4	4	2	2	0	4
Hungry_Donkey_bar_English_2	160	1	<?xml version="1.0"?>\n<Clock xmlns:dt="urn:schemas-microsoft-com:datatypes"><Description dt:dt="string">E-Prime Primary Realtime Clock</Description><StartTime><Timestamp dt:dt="int">0</Timestamp><DateUtc dt:dt="string">2016-07-14T21:33:29Z</DateUtc></StartTime><FrequencyChanges><FrequencyChange><Frequency dt:dt="r8">3507705</Frequency><Timestamp dt:dt="r8">298851170022</Timestamp><Current dt:dt="r8">0</Current><DateUtc dt:dt="string">2016-07-14T21:33:29Z</DateUtc></FrequencyChange></FrequencyChanges></Clock>\n	Hungry_Donkey_bar_English_2-160-1	60.018	101	1.0.0.18	1	-1795834646	Standard	2.0.10.353	2.0.10.353	07-14-2016	7/14/2016 9:33:29 PM	17:33:29	2.0.10.248	81	Bar63-37.bmp	65	2	?	10r_4g.bmp	0r_4g.bmp	2r_2g.bmp	0r_2g.bmp		0r_4g.bmp			TrialProc	TrialList	0	cvbn	-999999	16	570854	0	v	2198	573052	246	-135	111	-18	96	25	8	3	9	81	-10	0	-2	0	4	4	2	2	0	4
Hungry_Donkey_bar_English_2	160	1	<?xml version="1.0"?>\n<Clock xmlns:dt="urn:schemas-microsoft-com:datatypes"><Description dt:dt="string">E-Prime Primary Realtime Clock</Description><StartTime><Timestamp dt:dt="int">0</Timestamp><DateUtc dt:dt="string">2016-07-14T21:33:29Z</DateUtc></StartTime><FrequencyChanges><FrequencyChange><Frequency dt:dt="r8">3507705</Frequency><Timestamp dt:dt="r8">298851170022</Timestamp><Current dt:dt="r8">0</Current><DateUtc dt:dt="string">2016-07-14T21:33:29Z</DateUtc></FrequencyChange></FrequencyChanges></Clock>\n	Hungry_Donkey_bar_English_2-160-1	60.018	101	1.0.0.18	1	-1795834646	Standard	2.0.10.353	2.0.10.353	07-14-2016	7/14/2016 9:33:29 PM	17:33:29	2.0.10.248	82	Bar63-37.bmp	65	2	?	10r_4g.bmp	0r_4g.bmp	2r_2g.bmp	0r_2g.bmp		0r_4g.bmp			TrialProc	TrialList	0	cvbn	-999999	16	575086	0	v	910	575996	250	-135	115	-18	100	25	8	2	9	82	-10	0	-2	0	4	4	2	2	0	4
Hungry_Donkey_bar_English_2	160	1	<?xml version="1.0"?>\n<Clock xmlns:dt="urn:schemas-microsoft-com:datatypes"><Description dt:dt="string">E-Prime Primary Realtime Clock</Description><StartTime><Timestamp dt:dt="int">0</Timestamp><DateUtc dt:dt="string">2016-07-14T21:33:29Z</DateUtc></StartTime><FrequencyChanges><FrequencyChange><Frequency dt:dt="r8">3507705</Frequency><Timestamp dt:dt="r8">298851170022</Timestamp><Current dt:dt="r8">0</Current><DateUtc dt:dt="string">2016-07-14T21:33:29Z</DateUtc></FrequencyChange></FrequencyChanges></Clock>\n	Hungry_Donkey_bar_English_2-160-1	60.018	101	1.0.0.18	1	-1795834646	Standard	2.0.10.353	2.0.10.353	07-14-2016	7/14/2016 9:33:29 PM	17:33:29	2.0.10.248	83	Bar63-37.bmp	65	2	?	0r_4g.bmp	0r_4g.bmp	0r_2g.bmp	0r_2g.bmp		0r_4g.bmp			TrialProc	TrialList	0	cvbn	-999999	16	578035	0	v	569	578604	254	-135	119	-18	104	25	8	7	9	83	0	0	0	0	4	4	2	2	0	4
Hungry_Donkey_bar_English_2	160	1	<?xml version="1.0"?>\n<Clock xmlns:dt="urn:schemas-microsoft-com:datatypes"><Description dt:dt="string">E-Prime Primary Realtime Clock</Description><StartTime><Timestamp dt:dt="int">0</Timestamp><DateUtc dt:dt="string">2016-07-14T21:33:29Z</DateUtc></StartTime><FrequencyChanges><FrequencyChange><Frequency dt:dt="r8">3507705</Frequency><Timestamp dt:dt="r8">298851170022</Timestamp><Current dt:dt="r8">0</Current><DateUtc dt:dt="string">2016-07-14T21:33:29Z</DateUtc></FrequencyChange></FrequencyChanges></Clock>\n	Hungry_Donkey_bar_English_2-160-1	60.018	101	1.0.0.18	1	-1795834646	Standard	2.0.10.353	2.0.10.353	07-14-2016	7/14/2016 9:33:29 PM	17:33:29	2.0.10.248	84	Bar63-37.bmp	66	2	?	0r_4g.bmp	0r_4g.bmp	0r_2g.bmp	0r_2g.bmp		0r_4g.bmp			TrialProc	TrialList	0	cvbn	-999999	16	580634	0	v	642	581276	258	-135	123	-18	108	25	8	10	9	84	0	0	0	0	4	4	2	2	0	4
Hungry_Donkey_bar_English_2	160	1	<?xml version="1.0"?>\n<Clock xmlns:dt="urn:schemas-microsoft-com:datatypes"><Description dt:dt="string">E-Prime Primary Realtime Clock</Description><StartTime><Timestamp dt:dt="int">0</Timestamp><DateUtc dt:dt="string">2016-07-14T21:33:29Z</DateUtc></StartTime><FrequencyChanges><FrequencyChange><Frequency dt:dt="r8">3507705</Frequency><Timestamp dt:dt="r8">298851170022</Timestamp><Current dt:dt="r8">0</Current><DateUtc dt:dt="string">2016-07-14T21:33:29Z</DateUtc></FrequencyChange></FrequencyChanges></Clock>\n	Hungry_Donkey_bar_English_2-160-1	60.018	101	1.0.0.18	1	-1795834646	Standard	2.0.10.353	2.0.10.353	07-14-2016	7/14/2016 9:33:29 PM	17:33:29	2.0.10.248	85	Bar63-37.bmp	65	3	?	10r_4g.bmp	0r_4g.bmp	2r_2g.bmp	0r_2g.bmp			2r_2g.bmp		TrialProc	TrialList	0	cvbn	-999999	16	583300	0	b	9303	592603	260	-137	123	-18	108	25	8	4	9	85	-10	0	-2	0	4	4	2	2	-2	2
Hungry_Donkey_bar_English_2	160	1	<?xml version="1.0"?>\n<Clock xmlns:dt="urn:schemas-microsoft-com:datatypes"><Description dt:dt="string">E-Prime Primary Realtime Clock</Description><StartTime><Timestamp dt:dt="int">0</Timestamp><DateUtc dt:dt="string">2016-07-14T21:33:29Z</DateUtc></StartTime><FrequencyChanges><FrequencyChange><Frequency dt:dt="r8">3507705</Frequency><Timestamp dt:dt="r8">298851170022</Timestamp><Current dt:dt="r8">0</Current><DateUtc dt:dt="string">2016-07-14T21:33:29Z</DateUtc></FrequencyChange></FrequencyChanges></Clock>\n	Hungry_Donkey_bar_English_2-160-1	60.018	101	1.0.0.18	1	-1795834646	Standard	2.0.10.353	2.0.10.353	07-14-2016	7/14/2016 9:33:29 PM	17:33:29	2.0.10.248	86	Bar63-37.bmp	66	3	?	0r_4g.bmp	0r_4g.bmp	0r_2g.bmp	0r_2g.bmp			0r_2g.bmp		TrialProc	TrialList	0	cvbn	-999999	16	594630	0	b	5637	600267	262	-137	125	-18	108	27	8	9	9	86	0	0	0	0	4	4	2	2	0	2
Hungry_Donkey_bar_English_2	160	1	<?xml version="1.0"?>\n<Clock xmlns:dt="urn:schemas-microsoft-com:datatypes"><Description dt:dt="string">E-Prime Primary Realtime Clock</Description><StartTime><Timestamp dt:dt="int">0</Timestamp><DateUtc dt:dt="string">2016-07-14T21:33:29Z</DateUtc></StartTime><FrequencyChanges><FrequencyChange><Frequency dt:dt="r8">3507705</Frequency><Timestamp dt:dt="r8">298851170022</Timestamp><Current dt:dt="r8">0</Current><DateUtc dt:dt="string">2016-07-14T21:33:29Z</DateUtc></FrequencyChange></FrequencyChanges></Clock>\n	Hungry_Donkey_bar_English_2-160-1	60.018	101	1.0.0.18	1	-1795834646	Standard	2.0.10.353	2.0.10.353	07-14-2016	7/14/2016 9:33:29 PM	17:33:29	2.0.10.248	87	Bar63-37.bmp	66	1	?	0r_4g.bmp	0r_4g.bmp	0r_2g.bmp	0r_2g.bmp	0r_4g.bmp				TrialProc	TrialList	0	cvbn	-999999	17	602295	0	c	980	603275	266	-137	129	-14	108	27	8	8	9	87	0	0	0	0	4	4	2	2	0	4
Hungry_Donkey_bar_English_2	160	1	<?xml version="1.0"?>\n<Clock xmlns:dt="urn:schemas-microsoft-com:datatypes"><Description dt:dt="string">E-Prime Primary Realtime Clock</Description><StartTime><Timestamp dt:dt="int">0</Timestamp><DateUtc dt:dt="string">2016-07-14T21:33:29Z</DateUtc></StartTime><FrequencyChanges><FrequencyChange><Frequency dt:dt="r8">3507705</Frequency><Timestamp dt:dt="r8">298851170022</Timestamp><Current dt:dt="r8">0</Current><DateUtc dt:dt="string">2016-07-14T21:33:29Z</DateUtc></FrequencyChange></FrequencyChanges></Clock>\n	Hungry_Donkey_bar_English_2-160-1	60.018	101	1.0.0.18	1	-1795834646	Standard	2.0.10.353	2.0.10.353	07-14-2016	7/14/2016 9:33:29 PM	17:33:29	2.0.10.248	88	Bar63-37.bmp	66	2	?	12r_4g.bmp	0r_4g.bmp	3r_2g.bmp	0r_2g.bmp		0r_4g.bmp			TrialProc	TrialList	0	cvbn	-999999	16	605310	0	v	157	605467	270	-137	133	-14	112	27	8	5	9	88	-12	0	-3	0	4	4	2	2	0	4
Hungry_Donkey_bar_English_2	160	1	<?xml version="1.0"?>\n<Clock xmlns:dt="urn:schemas-microsoft-com:datatypes"><Description dt:dt="string">E-Prime Primary Realtime Clock</Description><StartTime><Timestamp dt:dt="int">0</Timestamp><DateUtc dt:dt="string">2016-07-14T21:33:29Z</DateUtc></StartTime><FrequencyChanges><FrequencyChange><Frequency dt:dt="r8">3507705</Frequency><Timestamp dt:dt="r8">298851170022</Timestamp><Current dt:dt="r8">0</Current><DateUtc dt:dt="string">2016-07-14T21:33:29Z</DateUtc></FrequencyChange></FrequencyChanges></Clock>\n	Hungry_Donkey_bar_English_2-160-1	60.018	101	1.0.0.18	1	-1795834646	Standard	2.0.10.353	2.0.10.353	07-14-2016	7/14/2016 9:33:29 PM	17:33:29	2.0.10.248	89	Bar63-37.bmp	59	2	?	8r_4g.bmp	50r_4g.bmp	1r_2g.bmp	10r_2g.bmp		50r_4g.bmp			TrialProc	TrialList	0	cvbn	-999999	16	607493	0	v	757	608250	274	-187	87	-14	66	27	8	1	9	89	-8	-50	-1	-10	4	4	2	2	-50	4
Hungry_Donkey_bar_English_2	160	1	<?xml version="1.0"?>\n<Clock xmlns:dt="urn:schemas-microsoft-com:datatypes"><Description dt:dt="string">E-Prime Primary Realtime Clock</Description><StartTime><Timestamp dt:dt="int">0</Timestamp><DateUtc dt:dt="string">2016-07-14T21:33:29Z</DateUtc></StartTime><FrequencyChanges><FrequencyChange><Frequency dt:dt="r8">3507705</Frequency><Timestamp dt:dt="r8">298851170022</Timestamp><Current dt:dt="r8">0</Current><DateUtc dt:dt="string">2016-07-14T21:33:29Z</DateUtc></FrequencyChange></FrequencyChanges></Clock>\n	Hungry_Donkey_bar_English_2-160-1	60.018	101	1.0.0.18	1	-1795834646	Standard	2.0.10.353	2.0.10.353	07-14-2016	7/14/2016 9:33:29 PM	17:33:29	2.0.10.248	90	Bar63-37.bmp	60	2	?	0r_4g.bmp	0r_4g.bmp	0r_2g.bmp	0r_2g.bmp		0r_4g.bmp			TrialProc	TrialList	0	cvbn	-999999	16	610292	0	v	1846	612138	278	-187	91	-14	70	27	8	6	9	90	0	0	0	0	4	4	2	2	0	4
Hungry_Donkey_bar_English_2	160	1	<?xml version="1.0"?>\n<Clock xmlns:dt="urn:schemas-microsoft-com:datatypes"><Description dt:dt="string">E-Prime Primary Realtime Clock</Description><StartTime><Timestamp dt:dt="int">0</Timestamp><DateUtc dt:dt="string">2016-07-14T21:33:29Z</DateUtc></StartTime><FrequencyChanges><FrequencyChange><Frequency dt:dt="r8">3507705</Frequency><Timestamp dt:dt="r8">298851170022</Timestamp><Current dt:dt="r8">0</Current><DateUtc dt:dt="string">2016-07-14T21:33:29Z</DateUtc></FrequencyChange></FrequencyChanges></Clock>\n	Hungry_Donkey_bar_English_2-160-1	60.018	101	1.0.0.18	1	-1795834646	Standard	2.0.10.353	2.0.10.353	07-14-2016	7/14/2016 9:33:29 PM	17:33:29	2.0.10.248	91	Bar63-37.bmp	60	2	?	0r_4g.bmp	0r_4g.bmp	0r_2g.bmp	0r_2g.bmp		0r_4g.bmp			TrialProc	TrialList	0	cvbn	-999999	16	614174	0	v	540	614714	282	-187	95	-14	74	27	8	6	10	91	0	0	0	0	4	4	2	2	0	4
Hungry_Donkey_bar_English_2	160	1	<?xml version="1.0"?>\n<Clock xmlns:dt="urn:schemas-microsoft-com:datatypes"><Description dt:dt="string">E-Prime Primary Realtime Clock</Description><StartTime><Timestamp dt:dt="int">0</Timestamp><DateUtc dt:dt="string">2016-07-14T21:33:29Z</DateUtc></StartTime><FrequencyChanges><FrequencyChange><Frequency dt:dt="r8">3507705</Frequency><Timestamp dt:dt="r8">298851170022</Timestamp><Current dt:dt="r8">0</Current><DateUtc dt:dt="string">2016-07-14T21:33:29Z</DateUtc></FrequencyChange></FrequencyChanges></Clock>\n	Hungry_Donkey_bar_English_2-160-1	60.018	101	1.0.0.18	1	-1795834646	Standard	2.0.10.353	2.0.10.353	07-14-2016	7/14/2016 9:33:29 PM	17:33:29	2.0.10.248	92	Bar63-37.bmp	60	2	?	0r_4g.bmp	0r_4g.bmp	0r_2g.bmp	0r_2g.bmp		0r_4g.bmp			TrialProc	TrialList	0	cvbn	-999999	16	616740	0	v	502	617242	286	-187	99	-14	78	27	8	7	10	92	0	0	0	0	4	4	2	2	0	4
Hungry_Donkey_bar_English_2	160	1	<?xml version="1.0"?>\n<Clock xmlns:dt="urn:schemas-microsoft-com:datatypes"><Description dt:dt="string">E-Prime Primary Realtime Clock</Description><StartTime><Timestamp dt:dt="int">0</Timestamp><DateUtc dt:dt="string">2016-07-14T21:33:29Z</DateUtc></StartTime><FrequencyChanges><FrequencyChange><Frequency dt:dt="r8">3507705</Frequency><Timestamp dt:dt="r8">298851170022</Timestamp><Current dt:dt="r8">0</Current><DateUtc dt:dt="string">2016-07-14T21:33:29Z</DateUtc></FrequencyChange></FrequencyChanges></Clock>\n	Hungry_Donkey_bar_English_2-160-1	60.018	101	1.0.0.18	1	-1795834646	Standard	2.0.10.353	2.0.10.353	07-14-2016	7/14/2016 9:33:29 PM	17:33:29	2.0.10.248	93	Bar63-37.bmp	61	1	?	0r_4g.bmp	0r_4g.bmp	0r_2g.bmp	0r_2g.bmp	0r_4g.bmp				TrialProc	TrialList	0	cvbn	-999999	16	619273	0	c	1345	620618	290	-187	103	-10	78	27	8	10	10	93	0	0	0	0	4	4	2	2	0	4
Hungry_Donkey_bar_English_2	160	1	<?xml version="1.0"?>\n<Clock xmlns:dt="urn:schemas-microsoft-com:datatypes"><Description dt:dt="string">E-Prime Primary Realtime Clock</Description><StartTime><Timestamp dt:dt="int">0</Timestamp><DateUtc dt:dt="string">2016-07-14T21:33:29Z</DateUtc></StartTime><FrequencyChanges><FrequencyChange><Frequency dt:dt="r8">3507705</Frequency><Timestamp dt:dt="r8">298851170022</Timestamp><Current dt:dt="r8">0</Current><DateUtc dt:dt="string">2016-07-14T21:33:29Z</DateUtc></FrequencyChange></FrequencyChanges></Clock>\n	Hungry_Donkey_bar_English_2-160-1	60.018	101	1.0.0.18	1	-1795834646	Standard	2.0.10.353	2.0.10.353	07-14-2016	7/14/2016 9:33:29 PM	17:33:29	2.0.10.248	94	Bar63-37.bmp	61	3	?	10r_4g.bmp	0r_4g.bmp	2r_2g.bmp	0r_2g.bmp			2r_2g.bmp		TrialProc	TrialList	0	cvbn	-999999	16	622655	0	b	459	623114	292	-189	103	-10	78	27	8	3	10	94	-10	0	-2	0	4	4	2	2	-2	2
Hungry_Donkey_bar_English_2	160	1	<?xml version="1.0"?>\n<Clock xmlns:dt="urn:schemas-microsoft-com:datatypes"><Description dt:dt="string">E-Prime Primary Realtime Clock</Description><StartTime><Timestamp dt:dt="int">0</Timestamp><DateUtc dt:dt="string">2016-07-14T21:33:29Z</DateUtc></StartTime><FrequencyChanges><FrequencyChange><Frequency dt:dt="r8">3507705</Frequency><Timestamp dt:dt="r8">298851170022</Timestamp><Current dt:dt="r8">0</Current><DateUtc dt:dt="string">2016-07-14T21:33:29Z</DateUtc></FrequencyChange></FrequencyChanges></Clock>\n	Hungry_Donkey_bar_English_2-160-1	60.018	101	1.0.0.18	1	-1795834646	Standard	2.0.10.353	2.0.10.353	07-14-2016	7/14/2016 9:33:29 PM	17:33:29	2.0.10.248	95	Bar63-37.bmp	61	2	?	0r_4g.bmp	0r_4g.bmp	0r_2g.bmp	0r_2g.bmp		0r_4g.bmp			TrialProc	TrialList	0	cvbn	-999999	16	625138	0	v	1191	626329	296	-189	107	-10	82	27	8	9	10	95	0	0	0	0	4	4	2	2	0	4
Hungry_Donkey_bar_English_2	160	1	<?xml version="1.0"?>\n<Clock xmlns:dt="urn:schemas-microsoft-com:datatypes"><Description dt:dt="string">E-Prime Primary Realtime Clock</Description><StartTime><Timestamp dt:dt="int">0</Timestamp><DateUtc dt:dt="string">2016-07-14T21:33:29Z</DateUtc></StartTime><FrequencyChanges><FrequencyChange><Frequency dt:dt="r8">3507705</Frequency><Timestamp dt:dt="r8">298851170022</Timestamp><Current dt:dt="r8">0</Current><DateUtc dt:dt="string">2016-07-14T21:33:29Z</DateUtc></FrequencyChange></FrequencyChanges></Clock>\n	Hungry_Donkey_bar_English_2-160-1	60.018	101	1.0.0.18	1	-1795834646	Standard	2.0.10.353	2.0.10.353	07-14-2016	7/14/2016 9:33:29 PM	17:33:29	2.0.10.248	96	Bar63-37.bmp	61	2	?	0r_4g.bmp	0r_4g.bmp	0r_2g.bmp	0r_2g.bmp		0r_4g.bmp			TrialProc	TrialList	0	cvbn	-999999	16	628354	0	v	567	628921	300	-189	111	-10	86	27	8	8	10	96	0	0	0	0	4	4	2	2	0	4
Hungry_Donkey_bar_English_2	160	1	<?xml version="1.0"?>\n<Clock xmlns:dt="urn:schemas-microsoft-com:datatypes"><Description dt:dt="string">E-Prime Primary Realtime Clock</Description><StartTime><Timestamp dt:dt="int">0</Timestamp><DateUtc dt:dt="string">2016-07-14T21:33:29Z</DateUtc></StartTime><FrequencyChanges><FrequencyChange><Frequency dt:dt="r8">3507705</Frequency><Timestamp dt:dt="r8">298851170022</Timestamp><Current dt:dt="r8">0</Current><DateUtc dt:dt="string">2016-07-14T21:33:29Z</DateUtc></FrequencyChange></FrequencyChanges></Clock>\n	Hungry_Donkey_bar_English_2-160-1	60.018	101	1.0.0.18	1	-1795834646	Standard	2.0.10.353	2.0.10.353	07-14-2016	7/14/2016 9:33:29 PM	17:33:29	2.0.10.248	97	Bar50-50.bmp	56	2	?	8r_4g.bmp	50r_4g.bmp	1r_2g.bmp	10r_2g.bmp		50r_4g.bmp			TrialProc	TrialList	0	cvbn	-999999	16	630953	0	v	448	631401	304	-239	65	-10	40	27	8	1	10	97	-8	-50	-1	-10	4	4	2	2	-50	4
Hungry_Donkey_bar_English_2	160	1	<?xml version="1.0"?>\n<Clock xmlns:dt="urn:schemas-microsoft-com:datatypes"><Description dt:dt="string">E-Prime Primary Realtime Clock</Description><StartTime><Timestamp dt:dt="int">0</Timestamp><DateUtc dt:dt="string">2016-07-14T21:33:29Z</DateUtc></StartTime><FrequencyChanges><FrequencyChange><Frequency dt:dt="r8">3507705</Frequency><Timestamp dt:dt="r8">298851170022</Timestamp><Current dt:dt="r8">0</Current><DateUtc dt:dt="string">2016-07-14T21:33:29Z</DateUtc></FrequencyChange></FrequencyChanges></Clock>\n	Hungry_Donkey_bar_English_2-160-1	60.018	101	1.0.0.18	1	-1795834646	Standard	2.0.10.353	2.0.10.353	07-14-2016	7/14/2016 9:33:29 PM	17:33:29	2.0.10.248	98	Bar50-50.bmp	56	3	?	10r_4g.bmp	0r_4g.bmp	2r_2g.bmp	0r_2g.bmp			2r_2g.bmp		TrialProc	TrialList	0	cvbn	-999999	16	633435	0	b	4046	637481	306	-241	65	-10	40	27	8	4	10	98	-10	0	-2	0	4	4	2	2	-2	2
Hungry_Donkey_bar_English_2	160	1	<?xml version="1.0"?>\n<Clock xmlns:dt="urn:schemas-microsoft-com:datatypes"><Description dt:dt="string">E-Prime Primary Realtime Clock</Description><StartTime><Timestamp dt:dt="int">0</Timestamp><DateUtc dt:dt="string">2016-07-14T21:33:29Z</DateUtc></StartTime><FrequencyChanges><FrequencyChange><Frequency dt:dt="r8">3507705</Frequency><Timestamp dt:dt="r8">298851170022</Timestamp><Current dt:dt="r8">0</Current><DateUtc dt:dt="string">2016-07-14T21:33:29Z</DateUtc></FrequencyChange></FrequencyChanges></Clock>\n	Hungry_Donkey_bar_English_2-160-1	60.018	101	1.0.0.18	1	-1795834646	Standard	2.0.10.353	2.0.10.353	07-14-2016	7/14/2016 9:33:29 PM	17:33:29	2.0.10.248	99	Bar50-50.bmp	56	2	?	10r_4g.bmp	0r_4g.bmp	2r_2g.bmp	0r_2g.bmp		0r_4g.bmp			TrialProc	TrialList	0	cvbn	-999999	16	639517	0	v	476	639993	310	-241	69	-10	44	27	8	2	10	99	-10	0	-2	0	4	4	2	2	0	4
Hungry_Donkey_bar_English_2	160	1	<?xml version="1.0"?>\n<Clock xmlns:dt="urn:schemas-microsoft-com:datatypes"><Description dt:dt="string">E-Prime Primary Realtime Clock</Description><StartTime><Timestamp dt:dt="int">0</Timestamp><DateUtc dt:dt="string">2016-07-14T21:33:29Z</DateUtc></StartTime><FrequencyChanges><FrequencyChange><Frequency dt:dt="r8">3507705</Frequency><Timestamp dt:dt="r8">298851170022</Timestamp><Current dt:dt="r8">0</Current><DateUtc dt:dt="string">2016-07-14T21:33:29Z</DateUtc></FrequencyChange></FrequencyChanges></Clock>\n	Hungry_Donkey_bar_English_2-160-1	60.018	101	1.0.0.18	1	-1795834646	Standard	2.0.10.353	2.0.10.353	07-14-2016	7/14/2016 9:33:29 PM	17:33:29	2.0.10.248	100	Bar50-50.bmp	56	3	?	12r_4g.bmp	0r_4g.bmp	3r_2g.bmp	0r_2g.bmp			3r_2g.bmp		TrialProc	TrialList	0	cvbn	-999999	16	642033	0	b	104	642137	312	-244	68	-10	44	26	8	5	10	100	-12	0	-3	0	4	4	2	2	-3	2
Hungry_Donkey_bar_English_2	160	1	<?xml version="1.0"?>\n<Clock xmlns:dt="urn:schemas-microsoft-com:datatypes"><Description dt:dt="string">E-Prime Primary Realtime Clock</Description><StartTime><Timestamp dt:dt="int">0</Timestamp><DateUtc dt:dt="string">2016-07-14T21:33:29Z</DateUtc></StartTime><FrequencyChanges><FrequencyChange><Frequency dt:dt="r8">3507705</Frequency><Timestamp dt:dt="r8">298851170022</Timestamp><Current dt:dt="r8">0</Current><DateUtc dt:dt="string">2016-07-14T21:33:29Z</DateUtc></FrequencyChange></FrequencyChanges></Clock>\n	Hungry_Donkey_bar_English_2-160-1	60.018	101	1.0.0.18	1	-1795834646	Standard	2.0.10.353	2.0.10.353	07-14-2016	7/14/2016 9:33:29 PM	17:33:29	2.0.10.248	101	Bar50-50.bmp	56	2	?	0r_4g.bmp	0r_4g.bmp	0r_2g.bmp	0r_2g.bmp		0r_4g.bmp			TrialProc	TrialList	0	cvbn	-999999	16	644182	0	v	354	644536	316	-244	72	-10	48	26	8	7	11	101	0	0	0	0	4	4	2	2	0	4
Hungry_Donkey_bar_English_2	160	1	<?xml version="1.0"?>\n<Clock xmlns:dt="urn:schemas-microsoft-com:datatypes"><Description dt:dt="string">E-Prime Primary Realtime Clock</Description><StartTime><Timestamp dt:dt="int">0</Timestamp><DateUtc dt:dt="string">2016-07-14T21:33:29Z</DateUtc></StartTime><FrequencyChanges><FrequencyChange><Frequency dt:dt="r8">3507705</Frequency><Timestamp dt:dt="r8">298851170022</Timestamp><Current dt:dt="r8">0</Current><DateUtc dt:dt="string">2016-07-14T21:33:29Z</DateUtc></FrequencyChange></FrequencyChanges></Clock>\n	Hungry_Donkey_bar_English_2-160-1	60.018	101	1.0.0.18	1	-1795834646	Standard	2.0.10.353	2.0.10.353	07-14-2016	7/14/2016 9:33:29 PM	17:33:29	2.0.10.248	102	Bar63-37.bmp	57	3	?	0r_4g.bmp	0r_4g.bmp	0r_2g.bmp	0r_2g.bmp			0r_2g.bmp		TrialProc	TrialList	0	cvbn	-999999	16	646565	0	b	323	646888	318	-244	74	-10	48	28	8	6	11	102	0	0	0	0	4	4	2	2	0	2
Hungry_Donkey_bar_English_2	160	1	<?xml version="1.0"?>\n<Clock xmlns:dt="urn:schemas-microsoft-com:datatypes"><Description dt:dt="string">E-Prime Primary Realtime Clock</Description><StartTime><Timestamp dt:dt="int">0</Timestamp><DateUtc dt:dt="string">2016-07-14T21:33:29Z</DateUtc></StartTime><FrequencyChanges><FrequencyChange><Frequency dt:dt="r8">3507705</Frequency><Timestamp dt:dt="r8">298851170022</Timestamp><Current dt:dt="r8">0</Current><DateUtc dt:dt="string">2016-07-14T21:33:29Z</DateUtc></FrequencyChange></FrequencyChanges></Clock>\n	Hungry_Donkey_bar_English_2-160-1	60.018	101	1.0.0.18	1	-1795834646	Standard	2.0.10.353	2.0.10.353	07-14-2016	7/14/2016 9:33:29 PM	17:33:29	2.0.10.248	103	Bar63-37.bmp	57	2	?	10r_4g.bmp	0r_4g.bmp	2r_2g.bmp	0r_2g.bmp		0r_4g.bmp			TrialProc	TrialList	0	cvbn	-999999	16	648914	0	v	470	649384	322	-244	78	-10	52	28	8	3	11	103	-10	0	-2	0	4	4	2	2	0	4
Hungry_Donkey_bar_English_2	160	1	<?xml version="1.0"?>\n<Clock xmlns:dt="urn:schemas-microsoft-com:datatypes"><Description dt:dt="string">E-Prime Primary Realtime Clock</Description><StartTime><Timestamp dt:dt="int">0</Timestamp><DateUtc dt:dt="string">2016-07-14T21:33:29Z</DateUtc></StartTime><FrequencyChanges><FrequencyChange><Frequency dt:dt="r8">3507705</Frequency><Timestamp dt:dt="r8">298851170022</Timestamp><Current dt:dt="r8">0</Current><DateUtc dt:dt="string">2016-07-14T21:33:29Z</DateUtc></FrequencyChange></FrequencyChanges></Clock>\n	Hungry_Donkey_bar_English_2-160-1	60.018	101	1.0.0.18	1	-1795834646	Standard	2.0.10.353	2.0.10.353	07-14-2016	7/14/2016 9:33:29 PM	17:33:29	2.0.10.248	104	Bar63-37.bmp	57	3	?	10r_4g.bmp	0r_4g.bmp	2r_2g.bmp	0r_2g.bmp			2r_2g.bmp		TrialProc	TrialList	0	cvbn	-999999	16	651413	0	b	515	651928	324	-246	78	-10	52	28	8	4	11	104	-10	0	-2	0	4	4	2	2	-2	2
Hungry_Donkey_bar_English_2	160	1	<?xml version="1.0"?>\n<Clock xmlns:dt="urn:schemas-microsoft-com:datatypes"><Description dt:dt="string">E-Prime Primary Realtime Clock</Description><StartTime><Timestamp dt:dt="int">0</Timestamp><DateUtc dt:dt="string">2016-07-14T21:33:29Z</DateUtc></StartTime><FrequencyChanges><FrequencyChange><Frequency dt:dt="r8">3507705</Frequency><Timestamp dt:dt="r8">298851170022</Timestamp><Current dt:dt="r8">0</Current><DateUtc dt:dt="string">2016-07-14T21:33:29Z</DateUtc></FrequencyChange></FrequencyChanges></Clock>\n	Hungry_Donkey_bar_English_2-160-1	60.018	101	1.0.0.18	1	-1795834646	Standard	2.0.10.353	2.0.10.353	07-14-2016	7/14/2016 9:33:29 PM	17:33:29	2.0.10.248	105	Bar63-37.bmp	57	2	?	0r_4g.bmp	0r_4g.bmp	0r_2g.bmp	0r_2g.bmp		0r_4g.bmp			TrialProc	TrialList	0	cvbn	-999999	16	653963	0	v	1229	655192	328	-246	82	-10	56	28	8	10	11	105	0	0	0	0	4	4	2	2	0	4
Hungry_Donkey_bar_English_2	160	1	<?xml version="1.0"?>\n<Clock xmlns:dt="urn:schemas-microsoft-com:datatypes"><Description dt:dt="string">E-Prime Primary Realtime Clock</Description><StartTime><Timestamp dt:dt="int">0</Timestamp><DateUtc dt:dt="string">2016-07-14T21:33:29Z</DateUtc></StartTime><FrequencyChanges><FrequencyChange><Frequency dt:dt="r8">3507705</Frequency><Timestamp dt:dt="r8">298851170022</Timestamp><Current dt:dt="r8">0</Current><DateUtc dt:dt="string">2016-07-14T21:33:29Z</DateUtc></FrequencyChange></FrequencyChanges></Clock>\n	Hungry_Donkey_bar_English_2-160-1	60.018	101	1.0.0.18	1	-1795834646	Standard	2.0.10.353	2.0.10.353	07-14-2016	7/14/2016 9:33:29 PM	17:33:29	2.0.10.248	106	Bar63-37.bmp	57	4	?	0r_4g.bmp	0r_4g.bmp	0r_2g.bmp	0r_2g.bmp				0r_2g.bmp	TrialProc	TrialList	0	cvbn	-999999	16	657228	0	n	8139	665367	330	-246	84	-10	56	28	10	9	11	106	0	0	0	0	4	4	2	2	0	2
Hungry_Donkey_bar_English_2	160	1	<?xml version="1.0"?>\n<Clock xmlns:dt="urn:schemas-microsoft-com:datatypes"><Description dt:dt="string">E-Prime Primary Realtime Clock</Description><StartTime><Timestamp dt:dt="int">0</Timestamp><DateUtc dt:dt="string">2016-07-14T21:33:29Z</DateUtc></StartTime><FrequencyChanges><FrequencyChange><Frequency dt:dt="r8">3507705</Frequency><Timestamp dt:dt="r8">298851170022</Timestamp><Current dt:dt="r8">0</Current><DateUtc dt:dt="string">2016-07-14T21:33:29Z</DateUtc></FrequencyChange></FrequencyChanges></Clock>\n	Hungry_Donkey_bar_English_2-160-1	60.018	101	1.0.0.18	1	-1795834646	Standard	2.0.10.353	2.0.10.353	07-14-2016	7/14/2016 9:33:29 PM	17:33:29	2.0.10.248	107	Bar50-50.bmp	53	2	?	8r_4g.bmp	50r_4g.bmp	1r_2g.bmp	10r_2g.bmp		50r_4g.bmp			TrialProc	TrialList	0	cvbn	-999999	16	667409	0	v	214	667623	334	-296	38	-10	10	28	10	1	11	107	-8	-50	-1	-10	4	4	2	2	-50	4
Hungry_Donkey_bar_English_2	160	1	<?xml version="1.0"?>\n<Clock xmlns:dt="urn:schemas-microsoft-com:datatypes"><Description dt:dt="string">E-Prime Primary Realtime Clock</Description><StartTime><Timestamp dt:dt="int">0</Timestamp><DateUtc dt:dt="string">2016-07-14T21:33:29Z</DateUtc></StartTime><FrequencyChanges><FrequencyChange><Frequency dt:dt="r8">3507705</Frequency><Timestamp dt:dt="r8">298851170022</Timestamp><Current dt:dt="r8">0</Current><DateUtc dt:dt="string">2016-07-14T21:33:29Z</DateUtc></FrequencyChange></FrequencyChanges></Clock>\n	Hungry_Donkey_bar_English_2-160-1	60.018	101	1.0.0.18	1	-1795834646	Standard	2.0.10.353	2.0.10.353	07-14-2016	7/14/2016 9:33:29 PM	17:33:29	2.0.10.248	108	Bar50-50.bmp	53	4	?	0r_4g.bmp	0r_4g.bmp	0r_2g.bmp	0r_2g.bmp				0r_2g.bmp	TrialProc	TrialList	0	cvbn	-999999	16	669658	0	n	861	670519	336	-296	40	-10	10	28	12	8	11	108	0	0	0	0	4	4	2	2	0	2
Hungry_Donkey_bar_English_2	160	1	<?xml version="1.0"?>\n<Clock xmlns:dt="urn:schemas-microsoft-com:datatypes"><Description dt:dt="string">E-Prime Primary Realtime Clock</Description><StartTime><Timestamp dt:dt="int">0</Timestamp><DateUtc dt:dt="string">2016-07-14T21:33:29Z</DateUtc></StartTime><FrequencyChanges><FrequencyChange><Frequency dt:dt="r8">3507705</Frequency><Timestamp dt:dt="r8">298851170022</Timestamp><Current dt:dt="r8">0</Current><DateUtc dt:dt="string">2016-07-14T21:33:29Z</DateUtc></FrequencyChange></FrequencyChanges></Clock>\n	Hungry_Donkey_bar_English_2-160-1	60.018	101	1.0.0.18	1	-1795834646	Standard	2.0.10.353	2.0.10.353	07-14-2016	7/14/2016 9:33:29 PM	17:33:29	2.0.10.248	109	Bar50-50.bmp	53	2	?	10r_4g.bmp	0r_4g.bmp	2r_2g.bmp	0r_2g.bmp		0r_4g.bmp			TrialProc	TrialList	0	cvbn	-999999	16	672557	0	v	5049	677606	340	-296	44	-10	14	28	12	2	11	109	-10	0	-2	0	4	4	2	2	0	4
Hungry_Donkey_bar_English_2	160	1	<?xml version="1.0"?>\n<Clock xmlns:dt="urn:schemas-microsoft-com:datatypes"><Description dt:dt="string">E-Prime Primary Realtime Clock</Description><StartTime><Timestamp dt:dt="int">0</Timestamp><DateUtc dt:dt="string">2016-07-14T21:33:29Z</DateUtc></StartTime><FrequencyChanges><FrequencyChange><Frequency dt:dt="r8">3507705</Frequency><Timestamp dt:dt="r8">298851170022</Timestamp><Current dt:dt="r8">0</Current><DateUtc dt:dt="string">2016-07-14T21:33:29Z</DateUtc></FrequencyChange></FrequencyChanges></Clock>\n	Hungry_Donkey_bar_English_2-160-1	60.018	101	1.0.0.18	1	-1795834646	Standard	2.0.10.353	2.0.10.353	07-14-2016	7/14/2016 9:33:29 PM	17:33:29	2.0.10.248	110	Bar50-50.bmp	54	2	?	12r_4g.bmp	0r_4g.bmp	3r_2g.bmp	0r_2g.bmp		0r_4g.bmp			TrialProc	TrialList	0	cvbn	-999999	16	679638	0	v	1792	681430	344	-296	48	-10	18	28	12	5	11	110	-12	0	-3	0	4	4	2	2	0	4
Hungry_Donkey_bar_English_2	160	1	<?xml version="1.0"?>\n<Clock xmlns:dt="urn:schemas-microsoft-com:datatypes"><Description dt:dt="string">E-Prime Primary Realtime Clock</Description><StartTime><Timestamp dt:dt="int">0</Timestamp><DateUtc dt:dt="string">2016-07-14T21:33:29Z</DateUtc></StartTime><FrequencyChanges><FrequencyChange><Frequency dt:dt="r8">3507705</Frequency><Timestamp dt:dt="r8">298851170022</Timestamp><Current dt:dt="r8">0</Current><DateUtc dt:dt="string">2016-07-14T21:33:29Z</DateUtc></FrequencyChange></FrequencyChanges></Clock>\n	Hungry_Donkey_bar_English_2-160-1	60.018	101	1.0.0.18	1	-1795834646	Standard	2.0.10.353	2.0.10.353	07-14-2016	7/14/2016 9:33:29 PM	17:33:29	2.0.10.248	111	Bar50-50.bmp	54	2	?	10r_4g.bmp	0r_4g.bmp	2r_2g.bmp	0r_2g.bmp		0r_4g.bmp			TrialProc	TrialList	0	cvbn	-999999	16	683471	0	v	3335	686806	348	-296	52	-10	22	28	12	2	12	111	-10	0	-2	0	4	4	2	2	0	4
