ExperimentName	Subject	Session	Clock.Information	DataFile.Basename	Display.RefreshRate	Eindtotaal[Session]	ExperimentVersion	Group	RandomSeed	RuntimeCapabilities	RuntimeVersion	RuntimeVersionExpected	SessionDate	SessionStartDateTimeUtc	SessionTime	StudioVersion	Block	BarImage	BarTotalWinst	DoorChoice	Eindtotaal[Block]	FBDoor1	FBDoor2	FBDoor3	FBDoor4	Image1	Image2	Image3	Image4	Procedure	Running	spel.ACC	spel.CRESP	spel.DurationError	spel.OnsetDelay	spel.OnsetTime	spel.OnsetToOnsetTime	spel.RESP	spel.RT	spel.RTTime	TotalGain	TotalLose	Totalsum	TotalsumD1	TotalsumD2	TotalsumD3	TotalsumD4	TrialList	TrialList.Cycle	TrialList.Sample	varV1	varV2	varV3	varV4	varW1	varW2	varW3	varW4	Verliesbedrag	Winstbedrag
Hungry_Donkey_bar_English_2	155	1	<?xml version="1.0"?>\n<Clock xmlns:dt="urn:schemas-microsoft-com:datatypes"><Description dt:dt="string">E-Prime Primary Realtime Clock</Description><StartTime><Timestamp dt:dt="int">0</Timestamp><DateUtc dt:dt="string">2016-06-20T21:35:18Z</DateUtc></StartTime><FrequencyChanges><FrequencyChange><Frequency dt:dt="r8">3507685</Frequency><Timestamp dt:dt="r8">75832185512</Timestamp><Current dt:dt="r8">0</Current><DateUtc dt:dt="string">2016-06-20T21:35:18Z</DateUtc></FrequencyChange></FrequencyChanges></Clock>\n	Hungry_Donkey_bar_English_2-155-1	60.017	-122	1.0.0.18	1	-1476535658	Standard	2.0.10.353	2.0.10.353	06-20-2016	6/20/2016 9:35:19 PM	17:35:19	2.0.10.248	1	Bar100-0.bmp	100	4	?	0r_4g.bmp	0r_4g.bmp	0r_2g.bmp	0r_2g.bmp				0r_2g.bmp	TrialProc	TrialList	0	cvbn	-999999	37	104928	0	n	1483	106411	2	0	2	0	0	0	2	6	1	1	0	0	0	0	4	4	2	2	0	2
Hungry_Donkey_bar_English_2	155	1	<?xml version="1.0"?>\n<Clock xmlns:dt="urn:schemas-microsoft-com:datatypes"><Description dt:dt="string">E-Prime Primary Realtime Clock</Description><StartTime><Timestamp dt:dt="int">0</Timestamp><DateUtc dt:dt="string">2016-06-20T21:35:18Z</DateUtc></StartTime><FrequencyChanges><FrequencyChange><Frequency dt:dt="r8">3507685</Frequency><Timestamp dt:dt="r8">75832185512</Timestamp><Current dt:dt="r8">0</Current><DateUtc dt:dt="string">2016-06-20T21:35:18Z</DateUtc></FrequencyChange></FrequencyChanges></Clock>\n	Hungry_Donkey_bar_English_2-155-1	60.017	-122	1.0.0.18	1	-1476535658	Standard	2.0.10.353	2.0.10.353	06-20-2016	6/20/2016 9:35:19 PM	17:35:19	2.0.10.248	2	Bar63-37.bmp	67	3	?	10r_4g.bmp	0r_4g.bmp	2r_2g.bmp	0r_2g.bmp			2r_2g.bmp		TrialProc	TrialList	0	cvbn	-999999	16	108461	0	b	1326	109787	4	-2	2	0	0	0	2	4	1	2	-10	0	-2	0	4	4	2	2	-2	2
Hungry_Donkey_bar_English_2	155	1	<?xml version="1.0"?>\n<Clock xmlns:dt="urn:schemas-microsoft-com:datatypes"><Description dt:dt="string">E-Prime Primary Realtime Clock</Description><StartTime><Timestamp dt:dt="int">0</Timestamp><DateUtc dt:dt="string">2016-06-20T21:35:18Z</DateUtc></StartTime><FrequencyChanges><FrequencyChange><Frequency dt:dt="r8">3507685</Frequency><Timestamp dt:dt="r8">75832185512</Timestamp><Current dt:dt="r8">0</Current><DateUtc dt:dt="string">2016-06-20T21:35:18Z</DateUtc></FrequencyChange></FrequencyChanges></Clock>\n	Hungry_Donkey_bar_English_2-155-1	60.017	-122	1.0.0.18	1	-1476535658	Standard	2.0.10.353	2.0.10.353	06-20-2016	6/20/2016 9:35:19 PM	17:35:19	2.0.10.248	3	Bar75-25.bmp	80	2	?	10r_4g.bmp	0r_4g.bmp	2r_2g.bmp	0r_2g.bmp		0r_4g.bmp			TrialProc	TrialList	0	cvbn	-999999	16	111826	0	v	729	112555	8	-2	6	0	4	0	2	3	1	3	-10	0	-2	0	4	4	2	2	0	4
Hungry_Donkey_bar_English_2	155	1	<?xml version="1.0"?>\n<Clock xmlns:dt="urn:schemas-microsoft-com:datatypes"><Description dt:dt="string">E-Prime Primary Realtime Clock</Description><StartTime><Timestamp dt:dt="int">0</Timestamp><DateUtc dt:dt="string">2016-06-20T21:35:18Z</DateUtc></StartTime><FrequencyChanges><FrequencyChange><Frequency dt:dt="r8">3507685</Frequency><Timestamp dt:dt="r8">75832185512</Timestamp><Current dt:dt="r8">0</Current><DateUtc dt:dt="string">2016-06-20T21:35:18Z</DateUtc></FrequencyChange></FrequencyChanges></Clock>\n	Hungry_Donkey_bar_English_2-155-1	60.017	-122	1.0.0.18	1	-1476535658	Standard	2.0.10.353	2.0.10.353	06-20-2016	6/20/2016 9:35:19 PM	17:35:19	2.0.10.248	4	Bar50-50.bmp	55	1	?	8r_4g.bmp	50r_4g.bmp	1r_2g.bmp	10r_2g.bmp	8r_4g.bmp				TrialProc	TrialList	0	cvbn	-999999	16	114592	0	c	523	115115	12	-10	2	-4	4	0	2	1	1	4	-8	-50	-1	-10	4	4	2	2	-8	4
Hungry_Donkey_bar_English_2	155	1	<?xml version="1.0"?>\n<Clock xmlns:dt="urn:schemas-microsoft-com:datatypes"><Description dt:dt="string">E-Prime Primary Realtime Clock</Description><StartTime><Timestamp dt:dt="int">0</Timestamp><DateUtc dt:dt="string">2016-06-20T21:35:18Z</DateUtc></StartTime><FrequencyChanges><FrequencyChange><Frequency dt:dt="r8">3507685</Frequency><Timestamp dt:dt="r8">75832185512</Timestamp><Current dt:dt="r8">0</Current><DateUtc dt:dt="string">2016-06-20T21:35:18Z</DateUtc></FrequencyChange></FrequencyChanges></Clock>\n	Hungry_Donkey_bar_English_2-155-1	60.017	-122	1.0.0.18	1	-1476535658	Standard	2.0.10.353	2.0.10.353	06-20-2016	6/20/2016 9:35:19 PM	17:35:19	2.0.10.248	5	Bar63-37.bmp	62	1	?	0r_4g.bmp	0r_4g.bmp	0r_2g.bmp	0r_2g.bmp	0r_4g.bmp				TrialProc	TrialList	0	cvbn	-999999	16	117158	0	c	1669	118827	16	-10	6	0	4	0	2	8	1	5	0	0	0	0	4	4	2	2	0	4
Hungry_Donkey_bar_English_2	155	1	<?xml version="1.0"?>\n<Clock xmlns:dt="urn:schemas-microsoft-com:datatypes"><Description dt:dt="string">E-Prime Primary Realtime Clock</Description><StartTime><Timestamp dt:dt="int">0</Timestamp><DateUtc dt:dt="string">2016-06-20T21:35:18Z</DateUtc></StartTime><FrequencyChanges><FrequencyChange><Frequency dt:dt="r8">3507685</Frequency><Timestamp dt:dt="r8">75832185512</Timestamp><Current dt:dt="r8">0</Current><DateUtc dt:dt="string">2016-06-20T21:35:18Z</DateUtc></FrequencyChange></FrequencyChanges></Clock>\n	Hungry_Donkey_bar_English_2-155-1	60.017	-122	1.0.0.18	1	-1476535658	Standard	2.0.10.353	2.0.10.353	06-20-2016	6/20/2016 9:35:19 PM	17:35:19	2.0.10.248	6	Bar63-37.bmp	64	3	?	0r_4g.bmp	0r_4g.bmp	0r_2g.bmp	0r_2g.bmp			0r_2g.bmp		TrialProc	TrialList	0	cvbn	-999999	16	120857	0	b	33	120890	18	-10	8	0	4	2	2	9	1	6	0	0	0	0	4	4	2	2	0	2
Hungry_Donkey_bar_English_2	155	1	<?xml version="1.0"?>\n<Clock xmlns:dt="urn:schemas-microsoft-com:datatypes"><Description dt:dt="string">E-Prime Primary Realtime Clock</Description><StartTime><Timestamp dt:dt="int">0</Timestamp><DateUtc dt:dt="string">2016-06-20T21:35:18Z</DateUtc></StartTime><FrequencyChanges><FrequencyChange><Frequency dt:dt="r8">3507685</Frequency><Timestamp dt:dt="r8">75832185512</Timestamp><Current dt:dt="r8">0</Current><DateUtc dt:dt="string">2016-06-20T21:35:18Z</DateUtc></FrequencyChange></FrequencyChanges></Clock>\n	Hungry_Donkey_bar_English_2-155-1	60.017	-122	1.0.0.18	1	-1476535658	Standard	2.0.10.353	2.0.10.353	06-20-2016	6/20/2016 9:35:19 PM	17:35:19	2.0.10.248	7	Bar63-37.bmp	67	4	?	0r_4g.bmp	0r_4g.bmp	0r_2g.bmp	0r_2g.bmp				0r_2g.bmp	TrialProc	TrialList	0	cvbn	-999999	16	122923	0	n	527	123450	20	-10	10	0	4	2	4	7	1	7	0	0	0	0	4	4	2	2	0	2
Hungry_Donkey_bar_English_2	155	1	<?xml version="1.0"?>\n<Clock xmlns:dt="urn:schemas-microsoft-com:datatypes"><Description dt:dt="string">E-Prime Primary Realtime Clock</Description><StartTime><Timestamp dt:dt="int">0</Timestamp><DateUtc dt:dt="string">2016-06-20T21:35:18Z</DateUtc></StartTime><FrequencyChanges><FrequencyChange><Frequency dt:dt="r8">3507685</Frequency><Timestamp dt:dt="r8">75832185512</Timestamp><Current dt:dt="r8">0</Current><DateUtc dt:dt="string">2016-06-20T21:35:18Z</DateUtc></FrequencyChange></FrequencyChanges></Clock>\n	Hungry_Donkey_bar_English_2-155-1	60.017	-122	1.0.0.18	1	-1476535658	Standard	2.0.10.353	2.0.10.353	06-20-2016	6/20/2016 9:35:19 PM	17:35:19	2.0.10.248	8	Bar63-37.bmp	69	3	?	0r_4g.bmp	0r_4g.bmp	0r_2g.bmp	0r_2g.bmp			0r_2g.bmp		TrialProc	TrialList	0	cvbn	-999999	16	125489	0	b	2345	127834	22	-10	12	0	4	4	4	10	1	8	0	0	0	0	4	4	2	2	0	2
Hungry_Donkey_bar_English_2	155	1	<?xml version="1.0"?>\n<Clock xmlns:dt="urn:schemas-microsoft-com:datatypes"><Description dt:dt="string">E-Prime Primary Realtime Clock</Description><StartTime><Timestamp dt:dt="int">0</Timestamp><DateUtc dt:dt="string">2016-06-20T21:35:18Z</DateUtc></StartTime><FrequencyChanges><FrequencyChange><Frequency dt:dt="r8">3507685</Frequency><Timestamp dt:dt="r8">75832185512</Timestamp><Current dt:dt="r8">0</Current><DateUtc dt:dt="string">2016-06-20T21:35:18Z</DateUtc></FrequencyChange></FrequencyChanges></Clock>\n	Hungry_Donkey_bar_English_2-155-1	60.017	-122	1.0.0.18	1	-1476535658	Standard	2.0.10.353	2.0.10.353	06-20-2016	6/20/2016 9:35:19 PM	17:35:19	2.0.10.248	9	Bar75-25.bmp	72	2	?	12r_4g.bmp	0r_4g.bmp	3r_2g.bmp	0r_2g.bmp		0r_4g.bmp			TrialProc	TrialList	0	cvbn	-999999	16	129871	0	v	1083	130954	26	-10	16	0	8	4	4	5	1	9	-12	0	-3	0	4	4	2	2	0	4
Hungry_Donkey_bar_English_2	155	1	<?xml version="1.0"?>\n<Clock xmlns:dt="urn:schemas-microsoft-com:datatypes"><Description dt:dt="string">E-Prime Primary Realtime Clock</Description><StartTime><Timestamp dt:dt="int">0</Timestamp><DateUtc dt:dt="string">2016-06-20T21:35:18Z</DateUtc></StartTime><FrequencyChanges><FrequencyChange><Frequency dt:dt="r8">3507685</Frequency><Timestamp dt:dt="r8">75832185512</Timestamp><Current dt:dt="r8">0</Current><DateUtc dt:dt="string">2016-06-20T21:35:18Z</DateUtc></FrequencyChange></FrequencyChanges></Clock>\n	Hungry_Donkey_bar_English_2-155-1	60.017	-122	1.0.0.18	1	-1476535658	Standard	2.0.10.353	2.0.10.353	06-20-2016	6/20/2016 9:35:19 PM	17:35:19	2.0.10.248	10	Bar63-37.bmp	60	1	?	10r_4g.bmp	0r_4g.bmp	2r_2g.bmp	0r_2g.bmp	10r_4g.bmp				TrialProc	TrialList	0	cvbn	-999999	16	132987	0	c	639	133626	30	-20	10	-6	8	4	4	2	1	10	-10	0	-2	0	4	4	2	2	-10	4
Hungry_Donkey_bar_English_2	155	1	<?xml version="1.0"?>\n<Clock xmlns:dt="urn:schemas-microsoft-com:datatypes"><Description dt:dt="string">E-Prime Primary Realtime Clock</Description><StartTime><Timestamp dt:dt="int">0</Timestamp><DateUtc dt:dt="string">2016-06-20T21:35:18Z</DateUtc></StartTime><FrequencyChanges><FrequencyChange><Frequency dt:dt="r8">3507685</Frequency><Timestamp dt:dt="r8">75832185512</Timestamp><Current dt:dt="r8">0</Current><DateUtc dt:dt="string">2016-06-20T21:35:18Z</DateUtc></FrequencyChange></FrequencyChanges></Clock>\n	Hungry_Donkey_bar_English_2-155-1	60.017	-122	1.0.0.18	1	-1476535658	Standard	2.0.10.353	2.0.10.353	06-20-2016	6/20/2016 9:35:19 PM	17:35:19	2.0.10.248	11	Bar63-37.bmp	62	4	?	12r_4g.bmp	0r_4g.bmp	3r_2g.bmp	0r_2g.bmp				0r_2g.bmp	TrialProc	TrialList	0	cvbn	-999999	16	135669	0	n	1301	136970	32	-20	12	-6	8	4	6	5	2	11	-12	0	-3	0	4	4	2	2	0	2
Hungry_Donkey_bar_English_2	155	1	<?xml version="1.0"?>\n<Clock xmlns:dt="urn:schemas-microsoft-com:datatypes"><Description dt:dt="string">E-Prime Primary Realtime Clock</Description><StartTime><Timestamp dt:dt="int">0</Timestamp><DateUtc dt:dt="string">2016-06-20T21:35:18Z</DateUtc></StartTime><FrequencyChanges><FrequencyChange><Frequency dt:dt="r8">3507685</Frequency><Timestamp dt:dt="r8">75832185512</Timestamp><Current dt:dt="r8">0</Current><DateUtc dt:dt="string">2016-06-20T21:35:18Z</DateUtc></FrequencyChange></FrequencyChanges></Clock>\n	Hungry_Donkey_bar_English_2-155-1	60.017	-122	1.0.0.18	1	-1476535658	Standard	2.0.10.353	2.0.10.353	06-20-2016	6/20/2016 9:35:19 PM	17:35:19	2.0.10.248	12	Bar50-50.bmp	53	4	?	8r_4g.bmp	50r_4g.bmp	1r_2g.bmp	10r_2g.bmp				10r_2g.bmp	TrialProc	TrialList	0	cvbn	-999999	16	139002	0	n	175	139177	34	-30	4	-6	8	4	-2	1	2	12	-8	-50	-1	-10	4	4	2	2	-10	2
Hungry_Donkey_bar_English_2	155	1	<?xml version="1.0"?>\n<Clock xmlns:dt="urn:schemas-microsoft-com:datatypes"><Description dt:dt="string">E-Prime Primary Realtime Clock</Description><StartTime><Timestamp dt:dt="int">0</Timestamp><DateUtc dt:dt="string">2016-06-20T21:35:18Z</DateUtc></StartTime><FrequencyChanges><FrequencyChange><Frequency dt:dt="r8">3507685</Frequency><Timestamp dt:dt="r8">75832185512</Timestamp><Current dt:dt="r8">0</Current><DateUtc dt:dt="string">2016-06-20T21:35:18Z</DateUtc></FrequencyChange></FrequencyChanges></Clock>\n	Hungry_Donkey_bar_English_2-155-1	60.017	-122	1.0.0.18	1	-1476535658	Standard	2.0.10.353	2.0.10.353	06-20-2016	6/20/2016 9:35:19 PM	17:35:19	2.0.10.248	13	Bar50-50.bmp	53	3	?	10r_4g.bmp	0r_4g.bmp	2r_2g.bmp	0r_2g.bmp			2r_2g.bmp		TrialProc	TrialList	0	cvbn	-999999	16	141218	0	b	743	141961	36	-32	4	-6	8	4	-2	4	2	13	-10	0	-2	0	4	4	2	2	-2	2
Hungry_Donkey_bar_English_2	155	1	<?xml version="1.0"?>\n<Clock xmlns:dt="urn:schemas-microsoft-com:datatypes"><Description dt:dt="string">E-Prime Primary Realtime Clock</Description><StartTime><Timestamp dt:dt="int">0</Timestamp><DateUtc dt:dt="string">2016-06-20T21:35:18Z</DateUtc></StartTime><FrequencyChanges><FrequencyChange><Frequency dt:dt="r8">3507685</Frequency><Timestamp dt:dt="r8">75832185512</Timestamp><Current dt:dt="r8">0</Current><DateUtc dt:dt="string">2016-06-20T21:35:18Z</DateUtc></FrequencyChange></FrequencyChanges></Clock>\n	Hungry_Donkey_bar_English_2-155-1	60.017	-122	1.0.0.18	1	-1476535658	Standard	2.0.10.353	2.0.10.353	06-20-2016	6/20/2016 9:35:19 PM	17:35:19	2.0.10.248	14	Bar50-50.bmp	56	2	?	0r_4g.bmp	0r_4g.bmp	0r_2g.bmp	0r_2g.bmp		0r_4g.bmp			TrialProc	TrialList	0	cvbn	-999999	16	144000	0	v	585	144585	40	-32	8	-6	12	4	-2	7	2	14	0	0	0	0	4	4	2	2	0	4
Hungry_Donkey_bar_English_2	155	1	<?xml version="1.0"?>\n<Clock xmlns:dt="urn:schemas-microsoft-com:datatypes"><Description dt:dt="string">E-Prime Primary Realtime Clock</Description><StartTime><Timestamp dt:dt="int">0</Timestamp><DateUtc dt:dt="string">2016-06-20T21:35:18Z</DateUtc></StartTime><FrequencyChanges><FrequencyChange><Frequency dt:dt="r8">3507685</Frequency><Timestamp dt:dt="r8">75832185512</Timestamp><Current dt:dt="r8">0</Current><DateUtc dt:dt="string">2016-06-20T21:35:18Z</DateUtc></FrequencyChange></FrequencyChanges></Clock>\n	Hungry_Donkey_bar_English_2-155-1	60.017	-122	1.0.0.18	1	-1476535658	Standard	2.0.10.353	2.0.10.353	06-20-2016	6/20/2016 9:35:19 PM	17:35:19	2.0.10.248	15	Bar63-37.bmp	58	1	?	0r_4g.bmp	0r_4g.bmp	0r_2g.bmp	0r_2g.bmp	0r_4g.bmp				TrialProc	TrialList	0	cvbn	-999999	16	146616	0	c	545	147161	44	-32	12	-2	12	4	-2	6	2	15	0	0	0	0	4	4	2	2	0	4
Hungry_Donkey_bar_English_2	155	1	<?xml version="1.0"?>\n<Clock xmlns:dt="urn:schemas-microsoft-com:datatypes"><Description dt:dt="string">E-Prime Primary Realtime Clock</Description><StartTime><Timestamp dt:dt="int">0</Timestamp><DateUtc dt:dt="string">2016-06-20T21:35:18Z</DateUtc></StartTime><FrequencyChanges><FrequencyChange><Frequency dt:dt="r8">3507685</Frequency><Timestamp dt:dt="r8">75832185512</Timestamp><Current dt:dt="r8">0</Current><DateUtc dt:dt="string">2016-06-20T21:35:18Z</DateUtc></FrequencyChange></FrequencyChanges></Clock>\n	Hungry_Donkey_bar_English_2-155-1	60.017	-122	1.0.0.18	1	-1476535658	Standard	2.0.10.353	2.0.10.353	06-20-2016	6/20/2016 9:35:19 PM	17:35:19	2.0.10.248	16	Bar50-50.bmp	53	1	?	10r_4g.bmp	0r_4g.bmp	2r_2g.bmp	0r_2g.bmp	10r_4g.bmp				TrialProc	TrialList	0	cvbn	-999999	16	149199	0	c	698	149897	48	-42	6	-8	12	4	-2	2	2	16	-10	0	-2	0	4	4	2	2	-10	4
Hungry_Donkey_bar_English_2	155	1	<?xml version="1.0"?>\n<Clock xmlns:dt="urn:schemas-microsoft-com:datatypes"><Description dt:dt="string">E-Prime Primary Realtime Clock</Description><StartTime><Timestamp dt:dt="int">0</Timestamp><DateUtc dt:dt="string">2016-06-20T21:35:18Z</DateUtc></StartTime><FrequencyChanges><FrequencyChange><Frequency dt:dt="r8">3507685</Frequency><Timestamp dt:dt="r8">75832185512</Timestamp><Current dt:dt="r8">0</Current><DateUtc dt:dt="string">2016-06-20T21:35:18Z</DateUtc></FrequencyChange></FrequencyChanges></Clock>\n	Hungry_Donkey_bar_English_2-155-1	60.017	-122	1.0.0.18	1	-1476535658	Standard	2.0.10.353	2.0.10.353	06-20-2016	6/20/2016 9:35:19 PM	17:35:19	2.0.10.248	17	Bar50-50.bmp	54	4	?	0r_4g.bmp	0r_4g.bmp	0r_2g.bmp	0r_2g.bmp				0r_2g.bmp	TrialProc	TrialList	0	cvbn	-999999	16	151931	0	n	222	152153	50	-42	8	-8	12	4	0	10	2	17	0	0	0	0	4	4	2	2	0	2
Hungry_Donkey_bar_English_2	155	1	<?xml version="1.0"?>\n<Clock xmlns:dt="urn:schemas-microsoft-com:datatypes"><Description dt:dt="string">E-Prime Primary Realtime Clock</Description><StartTime><Timestamp dt:dt="int">0</Timestamp><DateUtc dt:dt="string">2016-06-20T21:35:18Z</DateUtc></StartTime><FrequencyChanges><FrequencyChange><Frequency dt:dt="r8">3507685</Frequency><Timestamp dt:dt="r8">75832185512</Timestamp><Current dt:dt="r8">0</Current><DateUtc dt:dt="string">2016-06-20T21:35:18Z</DateUtc></FrequencyChange></FrequencyChanges></Clock>\n	Hungry_Donkey_bar_English_2-155-1	60.017	-122	1.0.0.18	1	-1476535658	Standard	2.0.10.353	2.0.10.353	06-20-2016	6/20/2016 9:35:19 PM	17:35:19	2.0.10.248	18	Bar50-50.bmp	54	3	?	10r_4g.bmp	0r_4g.bmp	2r_2g.bmp	0r_2g.bmp			2r_2g.bmp		TrialProc	TrialList	0	cvbn	-999999	16	154181	0	b	612	154793	52	-44	8	-8	12	4	0	3	2	18	-10	0	-2	0	4	4	2	2	-2	2
Hungry_Donkey_bar_English_2	155	1	<?xml version="1.0"?>\n<Clock xmlns:dt="urn:schemas-microsoft-com:datatypes"><Description dt:dt="string">E-Prime Primary Realtime Clock</Description><StartTime><Timestamp dt:dt="int">0</Timestamp><DateUtc dt:dt="string">2016-06-20T21:35:18Z</DateUtc></StartTime><FrequencyChanges><FrequencyChange><Frequency dt:dt="r8">3507685</Frequency><Timestamp dt:dt="r8">75832185512</Timestamp><Current dt:dt="r8">0</Current><DateUtc dt:dt="string">2016-06-20T21:35:18Z</DateUtc></FrequencyChange></FrequencyChanges></Clock>\n	Hungry_Donkey_bar_English_2-155-1	60.017	-122	1.0.0.18	1	-1476535658	Standard	2.0.10.353	2.0.10.353	06-20-2016	6/20/2016 9:35:19 PM	17:35:19	2.0.10.248	19	Bar50-50.bmp	56	2	?	0r_4g.bmp	0r_4g.bmp	0r_2g.bmp	0r_2g.bmp		0r_4g.bmp			TrialProc	TrialList	0	cvbn	-999999	16	156830	0	v	475	157305	56	-44	12	-8	16	4	0	9	2	19	0	0	0	0	4	4	2	2	0	4
Hungry_Donkey_bar_English_2	155	1	<?xml version="1.0"?>\n<Clock xmlns:dt="urn:schemas-microsoft-com:datatypes"><Description dt:dt="string">E-Prime Primary Realtime Clock</Description><StartTime><Timestamp dt:dt="int">0</Timestamp><DateUtc dt:dt="string">2016-06-20T21:35:18Z</DateUtc></StartTime><FrequencyChanges><FrequencyChange><Frequency dt:dt="r8">3507685</Frequency><Timestamp dt:dt="r8">75832185512</Timestamp><Current dt:dt="r8">0</Current><DateUtc dt:dt="string">2016-06-20T21:35:18Z</DateUtc></FrequencyChange></FrequencyChanges></Clock>\n	Hungry_Donkey_bar_English_2-155-1	60.017	-122	1.0.0.18	1	-1476535658	Standard	2.0.10.353	2.0.10.353	06-20-2016	6/20/2016 9:35:19 PM	17:35:19	2.0.10.248	20	Bar63-37.bmp	58	2	?	0r_4g.bmp	0r_4g.bmp	0r_2g.bmp	0r_2g.bmp		0r_4g.bmp			TrialProc	TrialList	0	cvbn	-999999	16	159346	0	v	630	159976	60	-44	16	-8	20	4	0	8	2	20	0	0	0	0	4	4	2	2	0	4
Hungry_Donkey_bar_English_2	155	1	<?xml version="1.0"?>\n<Clock xmlns:dt="urn:schemas-microsoft-com:datatypes"><Description dt:dt="string">E-Prime Primary Realtime Clock</Description><StartTime><Timestamp dt:dt="int">0</Timestamp><DateUtc dt:dt="string">2016-06-20T21:35:18Z</DateUtc></StartTime><FrequencyChanges><FrequencyChange><Frequency dt:dt="r8">3507685</Frequency><Timestamp dt:dt="r8">75832185512</Timestamp><Current dt:dt="r8">0</Current><DateUtc dt:dt="string">2016-06-20T21:35:18Z</DateUtc></FrequencyChange></FrequencyChanges></Clock>\n	Hungry_Donkey_bar_English_2-155-1	60.017	-122	1.0.0.18	1	-1476535658	Standard	2.0.10.353	2.0.10.353	06-20-2016	6/20/2016 9:35:19 PM	17:35:19	2.0.10.248	21	Bar63-37.bmp	57	3	?	10r_4g.bmp	0r_4g.bmp	2r_2g.bmp	0r_2g.bmp			2r_2g.bmp		TrialProc	TrialList	0	cvbn	-999999	16	162012	0	b	476	162488	62	-46	16	-8	20	4	0	3	3	21	-10	0	-2	0	4	4	2	2	-2	2
Hungry_Donkey_bar_English_2	155	1	<?xml version="1.0"?>\n<Clock xmlns:dt="urn:schemas-microsoft-com:datatypes"><Description dt:dt="string">E-Prime Primary Realtime Clock</Description><StartTime><Timestamp dt:dt="int">0</Timestamp><DateUtc dt:dt="string">2016-06-20T21:35:18Z</DateUtc></StartTime><FrequencyChanges><FrequencyChange><Frequency dt:dt="r8">3507685</Frequency><Timestamp dt:dt="r8">75832185512</Timestamp><Current dt:dt="r8">0</Current><DateUtc dt:dt="string">2016-06-20T21:35:18Z</DateUtc></FrequencyChange></FrequencyChanges></Clock>\n	Hungry_Donkey_bar_English_2-155-1	60.017	-122	1.0.0.18	1	-1476535658	Standard	2.0.10.353	2.0.10.353	06-20-2016	6/20/2016 9:35:19 PM	17:35:19	2.0.10.248	22	Bar63-37.bmp	58	4	?	12r_4g.bmp	0r_4g.bmp	3r_2g.bmp	0r_2g.bmp				0r_2g.bmp	TrialProc	TrialList	0	cvbn	-999999	16	164528	0	n	1496	166024	64	-46	18	-8	20	4	2	5	3	22	-12	0	-3	0	4	4	2	2	0	2
Hungry_Donkey_bar_English_2	155	1	<?xml version="1.0"?>\n<Clock xmlns:dt="urn:schemas-microsoft-com:datatypes"><Description dt:dt="string">E-Prime Primary Realtime Clock</Description><StartTime><Timestamp dt:dt="int">0</Timestamp><DateUtc dt:dt="string">2016-06-20T21:35:18Z</DateUtc></StartTime><FrequencyChanges><FrequencyChange><Frequency dt:dt="r8">3507685</Frequency><Timestamp dt:dt="r8">75832185512</Timestamp><Current dt:dt="r8">0</Current><DateUtc dt:dt="string">2016-06-20T21:35:18Z</DateUtc></FrequencyChange></FrequencyChanges></Clock>\n	Hungry_Donkey_bar_English_2-155-1	60.017	-122	1.0.0.18	1	-1476535658	Standard	2.0.10.353	2.0.10.353	06-20-2016	6/20/2016 9:35:19 PM	17:35:19	2.0.10.248	23	Bar63-37.bmp	60	1	?	0r_4g.bmp	0r_4g.bmp	0r_2g.bmp	0r_2g.bmp	0r_4g.bmp				TrialProc	TrialList	0	cvbn	-999999	16	168060	0	c	764	168824	68	-46	22	-4	20	4	2	9	3	23	0	0	0	0	4	4	2	2	0	4
Hungry_Donkey_bar_English_2	155	1	<?xml version="1.0"?>\n<Clock xmlns:dt="urn:schemas-microsoft-com:datatypes"><Description dt:dt="string">E-Prime Primary Realtime Clock</Description><StartTime><Timestamp dt:dt="int">0</Timestamp><DateUtc dt:dt="string">2016-06-20T21:35:18Z</DateUtc></StartTime><FrequencyChanges><FrequencyChange><Frequency dt:dt="r8">3507685</Frequency><Timestamp dt:dt="r8">75832185512</Timestamp><Current dt:dt="r8">0</Current><DateUtc dt:dt="string">2016-06-20T21:35:18Z</DateUtc></FrequencyChange></FrequencyChanges></Clock>\n	Hungry_Donkey_bar_English_2-155-1	60.017	-122	1.0.0.18	1	-1476535658	Standard	2.0.10.353	2.0.10.353	06-20-2016	6/20/2016 9:35:19 PM	17:35:19	2.0.10.248	24	Bar63-37.bmp	61	2	?	10r_4g.bmp	0r_4g.bmp	2r_2g.bmp	0r_2g.bmp		0r_4g.bmp			TrialProc	TrialList	0	cvbn	-999999	16	170859	0	v	525	171384	72	-46	26	-4	24	4	2	2	3	24	-10	0	-2	0	4	4	2	2	0	4
Hungry_Donkey_bar_English_2	155	1	<?xml version="1.0"?>\n<Clock xmlns:dt="urn:schemas-microsoft-com:datatypes"><Description dt:dt="string">E-Prime Primary Realtime Clock</Description><StartTime><Timestamp dt:dt="int">0</Timestamp><DateUtc dt:dt="string">2016-06-20T21:35:18Z</DateUtc></StartTime><FrequencyChanges><FrequencyChange><Frequency dt:dt="r8">3507685</Frequency><Timestamp dt:dt="r8">75832185512</Timestamp><Current dt:dt="r8">0</Current><DateUtc dt:dt="string">2016-06-20T21:35:18Z</DateUtc></FrequencyChange></FrequencyChanges></Clock>\n	Hungry_Donkey_bar_English_2-155-1	60.017	-122	1.0.0.18	1	-1476535658	Standard	2.0.10.353	2.0.10.353	06-20-2016	6/20/2016 9:35:19 PM	17:35:19	2.0.10.248	25	Bar63-37.bmp	62	1	?	0r_4g.bmp	0r_4g.bmp	0r_2g.bmp	0r_2g.bmp	0r_4g.bmp				TrialProc	TrialList	0	cvbn	-999999	17	173409	0	c	519	173928	76	-46	30	0	24	4	2	8	3	25	0	0	0	0	4	4	2	2	0	4
Hungry_Donkey_bar_English_2	155	1	<?xml version="1.0"?>\n<Clock xmlns:dt="urn:schemas-microsoft-com:datatypes"><Description dt:dt="string">E-Prime Primary Realtime Clock</Description><StartTime><Timestamp dt:dt="int">0</Timestamp><DateUtc dt:dt="string">2016-06-20T21:35:18Z</DateUtc></StartTime><FrequencyChanges><FrequencyChange><Frequency dt:dt="r8">3507685</Frequency><Timestamp dt:dt="r8">75832185512</Timestamp><Current dt:dt="r8">0</Current><DateUtc dt:dt="string">2016-06-20T21:35:18Z</DateUtc></FrequencyChange></FrequencyChanges></Clock>\n	Hungry_Donkey_bar_English_2-155-1	60.017	-122	1.0.0.18	1	-1476535658	Standard	2.0.10.353	2.0.10.353	06-20-2016	6/20/2016 9:35:19 PM	17:35:19	2.0.10.248	26	Bar63-37.bmp	63	3	?	0r_4g.bmp	0r_4g.bmp	0r_2g.bmp	0r_2g.bmp			0r_2g.bmp		TrialProc	TrialList	0	cvbn	-999999	16	175958	0	b	386	176344	78	-46	32	0	24	6	2	6	3	26	0	0	0	0	4	4	2	2	0	2
Hungry_Donkey_bar_English_2	155	1	<?xml version="1.0"?>\n<Clock xmlns:dt="urn:schemas-microsoft-com:datatypes"><Description dt:dt="string">E-Prime Primary Realtime Clock</Description><StartTime><Timestamp dt:dt="int">0</Timestamp><DateUtc dt:dt="string">2016-06-20T21:35:18Z</DateUtc></StartTime><FrequencyChanges><FrequencyChange><Frequency dt:dt="r8">3507685</Frequency><Timestamp dt:dt="r8">75832185512</Timestamp><Current dt:dt="r8">0</Current><DateUtc dt:dt="string">2016-06-20T21:35:18Z</DateUtc></FrequencyChange></FrequencyChanges></Clock>\n	Hungry_Donkey_bar_English_2-155-1	60.017	-122	1.0.0.18	1	-1476535658	Standard	2.0.10.353	2.0.10.353	06-20-2016	6/20/2016 9:35:19 PM	17:35:19	2.0.10.248	27	Bar63-37.bmp	59	1	?	10r_4g.bmp	0r_4g.bmp	2r_2g.bmp	0r_2g.bmp	10r_4g.bmp				TrialProc	TrialList	0	cvbn	-999999	16	178374	0	c	145	178519	82	-56	26	-6	24	6	2	4	3	27	-10	0	-2	0	4	4	2	2	-10	4
Hungry_Donkey_bar_English_2	155	1	<?xml version="1.0"?>\n<Clock xmlns:dt="urn:schemas-microsoft-com:datatypes"><Description dt:dt="string">E-Prime Primary Realtime Clock</Description><StartTime><Timestamp dt:dt="int">0</Timestamp><DateUtc dt:dt="string">2016-06-20T21:35:18Z</DateUtc></StartTime><FrequencyChanges><FrequencyChange><Frequency dt:dt="r8">3507685</Frequency><Timestamp dt:dt="r8">75832185512</Timestamp><Current dt:dt="r8">0</Current><DateUtc dt:dt="string">2016-06-20T21:35:18Z</DateUtc></FrequencyChange></FrequencyChanges></Clock>\n	Hungry_Donkey_bar_English_2-155-1	60.017	-122	1.0.0.18	1	-1476535658	Standard	2.0.10.353	2.0.10.353	06-20-2016	6/20/2016 9:35:19 PM	17:35:19	2.0.10.248	28	Bar63-37.bmp	61	2	?	0r_4g.bmp	0r_4g.bmp	0r_2g.bmp	0r_2g.bmp		0r_4g.bmp			TrialProc	TrialList	0	cvbn	-999999	16	180556	0	v	11	180567	86	-56	30	-6	28	6	2	7	3	28	0	0	0	0	4	4	2	2	0	4
Hungry_Donkey_bar_English_2	155	1	<?xml version="1.0"?>\n<Clock xmlns:dt="urn:schemas-microsoft-com:datatypes"><Description dt:dt="string">E-Prime Primary Realtime Clock</Description><StartTime><Timestamp dt:dt="int">0</Timestamp><DateUtc dt:dt="string">2016-06-20T21:35:18Z</DateUtc></StartTime><FrequencyChanges><FrequencyChange><Frequency dt:dt="r8">3507685</Frequency><Timestamp dt:dt="r8">75832185512</Timestamp><Current dt:dt="r8">0</Current><DateUtc dt:dt="string">2016-06-20T21:35:18Z</DateUtc></FrequencyChange></FrequencyChanges></Clock>\n	Hungry_Donkey_bar_English_2-155-1	60.017	-122	1.0.0.18	1	-1476535658	Standard	2.0.10.353	2.0.10.353	06-20-2016	6/20/2016 9:35:19 PM	17:35:19	2.0.10.248	29	Bar63-37.bmp	57	4	?	8r_4g.bmp	50r_4g.bmp	1r_2g.bmp	10r_2g.bmp				10r_2g.bmp	TrialProc	TrialList	0	cvbn	-999999	16	182606	0	n	937	183543	88	-66	22	-6	28	6	-6	1	3	29	-8	-50	-1	-10	4	4	2	2	-10	2
Hungry_Donkey_bar_English_2	155	1	<?xml version="1.0"?>\n<Clock xmlns:dt="urn:schemas-microsoft-com:datatypes"><Description dt:dt="string">E-Prime Primary Realtime Clock</Description><StartTime><Timestamp dt:dt="int">0</Timestamp><DateUtc dt:dt="string">2016-06-20T21:35:18Z</DateUtc></StartTime><FrequencyChanges><FrequencyChange><Frequency dt:dt="r8">3507685</Frequency><Timestamp dt:dt="r8">75832185512</Timestamp><Current dt:dt="r8">0</Current><DateUtc dt:dt="string">2016-06-20T21:35:18Z</DateUtc></FrequencyChange></FrequencyChanges></Clock>\n	Hungry_Donkey_bar_English_2-155-1	60.017	-122	1.0.0.18	1	-1476535658	Standard	2.0.10.353	2.0.10.353	06-20-2016	6/20/2016 9:35:19 PM	17:35:19	2.0.10.248	30	Bar63-37.bmp	58	3	?	0r_4g.bmp	0r_4g.bmp	0r_2g.bmp	0r_2g.bmp			0r_2g.bmp		TrialProc	TrialList	0	cvbn	-999999	16	185572	0	b	19	185591	90	-66	24	-6	28	8	-6	10	3	30	0	0	0	0	4	4	2	2	0	2
Hungry_Donkey_bar_English_2	155	1	<?xml version="1.0"?>\n<Clock xmlns:dt="urn:schemas-microsoft-com:datatypes"><Description dt:dt="string">E-Prime Primary Realtime Clock</Description><StartTime><Timestamp dt:dt="int">0</Timestamp><DateUtc dt:dt="string">2016-06-20T21:35:18Z</DateUtc></StartTime><FrequencyChanges><FrequencyChange><Frequency dt:dt="r8">3507685</Frequency><Timestamp dt:dt="r8">75832185512</Timestamp><Current dt:dt="r8">0</Current><DateUtc dt:dt="string">2016-06-20T21:35:18Z</DateUtc></FrequencyChange></FrequencyChanges></Clock>\n	Hungry_Donkey_bar_English_2-155-1	60.017	-122	1.0.0.18	1	-1476535658	Standard	2.0.10.353	2.0.10.353	06-20-2016	6/20/2016 9:35:19 PM	17:35:19	2.0.10.248	31	Bar63-37.bmp	59	2	?	10r_4g.bmp	0r_4g.bmp	2r_2g.bmp	0r_2g.bmp		0r_4g.bmp			TrialProc	TrialList	0	cvbn	-999999	16	187621	0	v	626	188247	94	-66	28	-6	32	8	-6	3	4	31	-10	0	-2	0	4	4	2	2	0	4
Hungry_Donkey_bar_English_2	155	1	<?xml version="1.0"?>\n<Clock xmlns:dt="urn:schemas-microsoft-com:datatypes"><Description dt:dt="string">E-Prime Primary Realtime Clock</Description><StartTime><Timestamp dt:dt="int">0</Timestamp><DateUtc dt:dt="string">2016-06-20T21:35:18Z</DateUtc></StartTime><FrequencyChanges><FrequencyChange><Frequency dt:dt="r8">3507685</Frequency><Timestamp dt:dt="r8">75832185512</Timestamp><Current dt:dt="r8">0</Current><DateUtc dt:dt="string">2016-06-20T21:35:18Z</DateUtc></FrequencyChange></FrequencyChanges></Clock>\n	Hungry_Donkey_bar_English_2-155-1	60.017	-122	1.0.0.18	1	-1476535658	Standard	2.0.10.353	2.0.10.353	06-20-2016	6/20/2016 9:35:19 PM	17:35:19	2.0.10.248	32	Bar63-37.bmp	60	1	?	0r_4g.bmp	0r_4g.bmp	0r_2g.bmp	0r_2g.bmp	0r_4g.bmp				TrialProc	TrialList	0	cvbn	-999999	16	190287	0	c	664	190951	98	-66	32	-2	32	8	-6	8	4	32	0	0	0	0	4	4	2	2	0	4
Hungry_Donkey_bar_English_2	155	1	<?xml version="1.0"?>\n<Clock xmlns:dt="urn:schemas-microsoft-com:datatypes"><Description dt:dt="string">E-Prime Primary Realtime Clock</Description><StartTime><Timestamp dt:dt="int">0</Timestamp><DateUtc dt:dt="string">2016-06-20T21:35:18Z</DateUtc></StartTime><FrequencyChanges><FrequencyChange><Frequency dt:dt="r8">3507685</Frequency><Timestamp dt:dt="r8">75832185512</Timestamp><Current dt:dt="r8">0</Current><DateUtc dt:dt="string">2016-06-20T21:35:18Z</DateUtc></FrequencyChange></FrequencyChanges></Clock>\n	Hungry_Donkey_bar_English_2-155-1	60.017	-122	1.0.0.18	1	-1476535658	Standard	2.0.10.353	2.0.10.353	06-20-2016	6/20/2016 9:35:19 PM	17:35:19	2.0.10.248	33	Bar63-37.bmp	61	2	?	10r_4g.bmp	0r_4g.bmp	2r_2g.bmp	0r_2g.bmp		0r_4g.bmp			TrialProc	TrialList	0	cvbn	-999999	16	192986	0	v	141	193127	102	-66	36	-2	36	8	-6	4	4	33	-10	0	-2	0	4	4	2	2	0	4
Hungry_Donkey_bar_English_2	155	1	<?xml version="1.0"?>\n<Clock xmlns:dt="urn:schemas-microsoft-com:datatypes"><Description dt:dt="string">E-Prime Primary Realtime Clock</Description><StartTime><Timestamp dt:dt="int">0</Timestamp><DateUtc dt:dt="string">2016-06-20T21:35:18Z</DateUtc></StartTime><FrequencyChanges><FrequencyChange><Frequency dt:dt="r8">3507685</Frequency><Timestamp dt:dt="r8">75832185512</Timestamp><Current dt:dt="r8">0</Current><DateUtc dt:dt="string">2016-06-20T21:35:18Z</DateUtc></FrequencyChange></FrequencyChanges></Clock>\n	Hungry_Donkey_bar_English_2-155-1	60.017	-122	1.0.0.18	1	-1476535658	Standard	2.0.10.353	2.0.10.353	06-20-2016	6/20/2016 9:35:19 PM	17:35:19	2.0.10.248	34	Bar63-37.bmp	61	3	?	0r_4g.bmp	0r_4g.bmp	0r_2g.bmp	0r_2g.bmp			0r_2g.bmp		TrialProc	TrialList	0	cvbn	-999999	16	195152	0	b	727	195879	104	-66	38	-2	36	10	-6	7	4	34	0	0	0	0	4	4	2	2	0	2
Hungry_Donkey_bar_English_2	155	1	<?xml version="1.0"?>\n<Clock xmlns:dt="urn:schemas-microsoft-com:datatypes"><Description dt:dt="string">E-Prime Primary Realtime Clock</Description><StartTime><Timestamp dt:dt="int">0</Timestamp><DateUtc dt:dt="string">2016-06-20T21:35:18Z</DateUtc></StartTime><FrequencyChanges><FrequencyChange><Frequency dt:dt="r8">3507685</Frequency><Timestamp dt:dt="r8">75832185512</Timestamp><Current dt:dt="r8">0</Current><DateUtc dt:dt="string">2016-06-20T21:35:18Z</DateUtc></FrequencyChange></FrequencyChanges></Clock>\n	Hungry_Donkey_bar_English_2-155-1	60.017	-122	1.0.0.18	1	-1476535658	Standard	2.0.10.353	2.0.10.353	06-20-2016	6/20/2016 9:35:19 PM	17:35:19	2.0.10.248	35	Bar63-37.bmp	58	4	?	8r_4g.bmp	50r_4g.bmp	1r_2g.bmp	10r_2g.bmp				10r_2g.bmp	TrialProc	TrialList	0	cvbn	-999999	16	197918	0	n	552	198470	106	-76	30	-2	36	10	-14	1	4	35	-8	-50	-1	-10	4	4	2	2	-10	2
Hungry_Donkey_bar_English_2	155	1	<?xml version="1.0"?>\n<Clock xmlns:dt="urn:schemas-microsoft-com:datatypes"><Description dt:dt="string">E-Prime Primary Realtime Clock</Description><StartTime><Timestamp dt:dt="int">0</Timestamp><DateUtc dt:dt="string">2016-06-20T21:35:18Z</DateUtc></StartTime><FrequencyChanges><FrequencyChange><Frequency dt:dt="r8">3507685</Frequency><Timestamp dt:dt="r8">75832185512</Timestamp><Current dt:dt="r8">0</Current><DateUtc dt:dt="string">2016-06-20T21:35:18Z</DateUtc></FrequencyChange></FrequencyChanges></Clock>\n	Hungry_Donkey_bar_English_2-155-1	60.017	-122	1.0.0.18	1	-1476535658	Standard	2.0.10.353	2.0.10.353	06-20-2016	6/20/2016 9:35:19 PM	17:35:19	2.0.10.248	36	Bar63-37.bmp	59	1	?	0r_4g.bmp	0r_4g.bmp	0r_2g.bmp	0r_2g.bmp	0r_4g.bmp				TrialProc	TrialList	0	cvbn	-999999	16	200501	0	c	369	200870	110	-76	34	2	36	10	-14	6	4	36	0	0	0	0	4	4	2	2	0	4
Hungry_Donkey_bar_English_2	155	1	<?xml version="1.0"?>\n<Clock xmlns:dt="urn:schemas-microsoft-com:datatypes"><Description dt:dt="string">E-Prime Primary Realtime Clock</Description><StartTime><Timestamp dt:dt="int">0</Timestamp><DateUtc dt:dt="string">2016-06-20T21:35:18Z</DateUtc></StartTime><FrequencyChanges><FrequencyChange><Frequency dt:dt="r8">3507685</Frequency><Timestamp dt:dt="r8">75832185512</Timestamp><Current dt:dt="r8">0</Current><DateUtc dt:dt="string">2016-06-20T21:35:18Z</DateUtc></FrequencyChange></FrequencyChanges></Clock>\n	Hungry_Donkey_bar_English_2-155-1	60.017	-122	1.0.0.18	1	-1476535658	Standard	2.0.10.353	2.0.10.353	06-20-2016	6/20/2016 9:35:19 PM	17:35:19	2.0.10.248	37	Bar63-37.bmp	60	2	?	0r_4g.bmp	0r_4g.bmp	0r_2g.bmp	0r_2g.bmp		0r_4g.bmp			TrialProc	TrialList	0	cvbn	-999999	16	202900	0	v	642	203542	114	-76	38	2	40	10	-14	10	4	37	0	0	0	0	4	4	2	2	0	4
Hungry_Donkey_bar_English_2	155	1	<?xml version="1.0"?>\n<Clock xmlns:dt="urn:schemas-microsoft-com:datatypes"><Description dt:dt="string">E-Prime Primary Realtime Clock</Description><StartTime><Timestamp dt:dt="int">0</Timestamp><DateUtc dt:dt="string">2016-06-20T21:35:18Z</DateUtc></StartTime><FrequencyChanges><FrequencyChange><Frequency dt:dt="r8">3507685</Frequency><Timestamp dt:dt="r8">75832185512</Timestamp><Current dt:dt="r8">0</Current><DateUtc dt:dt="string">2016-06-20T21:35:18Z</DateUtc></FrequencyChange></FrequencyChanges></Clock>\n	Hungry_Donkey_bar_English_2-155-1	60.017	-122	1.0.0.18	1	-1476535658	Standard	2.0.10.353	2.0.10.353	06-20-2016	6/20/2016 9:35:19 PM	17:35:19	2.0.10.248	38	Bar63-37.bmp	60	3	?	0r_4g.bmp	0r_4g.bmp	0r_2g.bmp	0r_2g.bmp			0r_2g.bmp		TrialProc	TrialList	0	cvbn	-999999	16	205566	0	b	664	206230	116	-76	40	2	40	12	-14	9	4	38	0	0	0	0	4	4	2	2	0	2
Hungry_Donkey_bar_English_2	155	1	<?xml version="1.0"?>\n<Clock xmlns:dt="urn:schemas-microsoft-com:datatypes"><Description dt:dt="string">E-Prime Primary Realtime Clock</Description><StartTime><Timestamp dt:dt="int">0</Timestamp><DateUtc dt:dt="string">2016-06-20T21:35:18Z</DateUtc></StartTime><FrequencyChanges><FrequencyChange><Frequency dt:dt="r8">3507685</Frequency><Timestamp dt:dt="r8">75832185512</Timestamp><Current dt:dt="r8">0</Current><DateUtc dt:dt="string">2016-06-20T21:35:18Z</DateUtc></FrequencyChange></FrequencyChanges></Clock>\n	Hungry_Donkey_bar_English_2-155-1	60.017	-122	1.0.0.18	1	-1476535658	Standard	2.0.10.353	2.0.10.353	06-20-2016	6/20/2016 9:35:19 PM	17:35:19	2.0.10.248	39	Bar63-37.bmp	58	1	?	12r_4g.bmp	0r_4g.bmp	3r_2g.bmp	0r_2g.bmp	12r_4g.bmp				TrialProc	TrialList	0	cvbn	-999999	16	208265	0	c	285	208550	120	-88	32	-6	40	12	-14	5	4	39	-12	0	-3	0	4	4	2	2	-12	4
Hungry_Donkey_bar_English_2	155	1	<?xml version="1.0"?>\n<Clock xmlns:dt="urn:schemas-microsoft-com:datatypes"><Description dt:dt="string">E-Prime Primary Realtime Clock</Description><StartTime><Timestamp dt:dt="int">0</Timestamp><DateUtc dt:dt="string">2016-06-20T21:35:18Z</DateUtc></StartTime><FrequencyChanges><FrequencyChange><Frequency dt:dt="r8">3507685</Frequency><Timestamp dt:dt="r8">75832185512</Timestamp><Current dt:dt="r8">0</Current><DateUtc dt:dt="string">2016-06-20T21:35:18Z</DateUtc></FrequencyChange></FrequencyChanges></Clock>\n	Hungry_Donkey_bar_English_2-155-1	60.017	-122	1.0.0.18	1	-1476535658	Standard	2.0.10.353	2.0.10.353	06-20-2016	6/20/2016 9:35:19 PM	17:35:19	2.0.10.248	40	Bar63-37.bmp	58	2	?	10r_4g.bmp	0r_4g.bmp	2r_2g.bmp	0r_2g.bmp		0r_4g.bmp			TrialProc	TrialList	0	cvbn	-999999	16	210581	0	v	641	211222	124	-88	36	-6	44	12	-14	2	4	40	-10	0	-2	0	4	4	2	2	0	4
Hungry_Donkey_bar_English_2	155	1	<?xml version="1.0"?>\n<Clock xmlns:dt="urn:schemas-microsoft-com:datatypes"><Description dt:dt="string">E-Prime Primary Realtime Clock</Description><StartTime><Timestamp dt:dt="int">0</Timestamp><DateUtc dt:dt="string">2016-06-20T21:35:18Z</DateUtc></StartTime><FrequencyChanges><FrequencyChange><Frequency dt:dt="r8">3507685</Frequency><Timestamp dt:dt="r8">75832185512</Timestamp><Current dt:dt="r8">0</Current><DateUtc dt:dt="string">2016-06-20T21:35:18Z</DateUtc></FrequencyChange></FrequencyChanges></Clock>\n	Hungry_Donkey_bar_English_2-155-1	60.017	-122	1.0.0.18	1	-1476535658	Standard	2.0.10.353	2.0.10.353	06-20-2016	6/20/2016 9:35:19 PM	17:35:19	2.0.10.248	41	Bar63-37.bmp	59	2	?	10r_4g.bmp	0r_4g.bmp	2r_2g.bmp	0r_2g.bmp		0r_4g.bmp			TrialProc	TrialList	0	cvbn	-999999	16	213247	0	v	471	213718	128	-88	40	-6	48	12	-14	4	5	41	-10	0	-2	0	4	4	2	2	0	4
Hungry_Donkey_bar_English_2	155	1	<?xml version="1.0"?>\n<Clock xmlns:dt="urn:schemas-microsoft-com:datatypes"><Description dt:dt="string">E-Prime Primary Realtime Clock</Description><StartTime><Timestamp dt:dt="int">0</Timestamp><DateUtc dt:dt="string">2016-06-20T21:35:18Z</DateUtc></StartTime><FrequencyChanges><FrequencyChange><Frequency dt:dt="r8">3507685</Frequency><Timestamp dt:dt="r8">75832185512</Timestamp><Current dt:dt="r8">0</Current><DateUtc dt:dt="string">2016-06-20T21:35:18Z</DateUtc></FrequencyChange></FrequencyChanges></Clock>\n	Hungry_Donkey_bar_English_2-155-1	60.017	-122	1.0.0.18	1	-1476535658	Standard	2.0.10.353	2.0.10.353	06-20-2016	6/20/2016 9:35:19 PM	17:35:19	2.0.10.248	42	Bar63-37.bmp	60	2	?	10r_4g.bmp	0r_4g.bmp	2r_2g.bmp	0r_2g.bmp		0r_4g.bmp			TrialProc	TrialList	0	cvbn	-999999	16	215746	0	v	612	216358	132	-88	44	-6	52	12	-14	2	5	42	-10	0	-2	0	4	4	2	2	0	4
Hungry_Donkey_bar_English_2	155	1	<?xml version="1.0"?>\n<Clock xmlns:dt="urn:schemas-microsoft-com:datatypes"><Description dt:dt="string">E-Prime Primary Realtime Clock</Description><StartTime><Timestamp dt:dt="int">0</Timestamp><DateUtc dt:dt="string">2016-06-20T21:35:18Z</DateUtc></StartTime><FrequencyChanges><FrequencyChange><Frequency dt:dt="r8">3507685</Frequency><Timestamp dt:dt="r8">75832185512</Timestamp><Current dt:dt="r8">0</Current><DateUtc dt:dt="string">2016-06-20T21:35:18Z</DateUtc></FrequencyChange></FrequencyChanges></Clock>\n	Hungry_Donkey_bar_English_2-155-1	60.017	-122	1.0.0.18	1	-1476535658	Standard	2.0.10.353	2.0.10.353	06-20-2016	6/20/2016 9:35:19 PM	17:35:19	2.0.10.248	43	Bar50-50.bmp	50	2	?	8r_4g.bmp	50r_4g.bmp	1r_2g.bmp	10r_2g.bmp		50r_4g.bmp			TrialProc	TrialList	0	cvbn	-999999	17	218396	0	v	393	218789	136	-138	-2	-6	6	12	-14	1	5	43	-8	-50	-1	-10	4	4	2	2	-50	4
Hungry_Donkey_bar_English_2	155	1	<?xml version="1.0"?>\n<Clock xmlns:dt="urn:schemas-microsoft-com:datatypes"><Description dt:dt="string">E-Prime Primary Realtime Clock</Description><StartTime><Timestamp dt:dt="int">0</Timestamp><DateUtc dt:dt="string">2016-06-20T21:35:18Z</DateUtc></StartTime><FrequencyChanges><FrequencyChange><Frequency dt:dt="r8">3507685</Frequency><Timestamp dt:dt="r8">75832185512</Timestamp><Current dt:dt="r8">0</Current><DateUtc dt:dt="string">2016-06-20T21:35:18Z</DateUtc></FrequencyChange></FrequencyChanges></Clock>\n	Hungry_Donkey_bar_English_2-155-1	60.017	-122	1.0.0.18	1	-1476535658	Standard	2.0.10.353	2.0.10.353	06-20-2016	6/20/2016 9:35:19 PM	17:35:19	2.0.10.248	44	Bar50-50.bmp	50	3	?	0r_4g.bmp	0r_4g.bmp	0r_2g.bmp	0r_2g.bmp			0r_2g.bmp		TrialProc	TrialList	0	cvbn	-999999	16	220828	0	b	1129	221957	138	-138	0	-6	6	14	-14	9	5	44	0	0	0	0	4	4	2	2	0	2
Hungry_Donkey_bar_English_2	155	1	<?xml version="1.0"?>\n<Clock xmlns:dt="urn:schemas-microsoft-com:datatypes"><Description dt:dt="string">E-Prime Primary Realtime Clock</Description><StartTime><Timestamp dt:dt="int">0</Timestamp><DateUtc dt:dt="string">2016-06-20T21:35:18Z</DateUtc></StartTime><FrequencyChanges><FrequencyChange><Frequency dt:dt="r8">3507685</Frequency><Timestamp dt:dt="r8">75832185512</Timestamp><Current dt:dt="r8">0</Current><DateUtc dt:dt="string">2016-06-20T21:35:18Z</DateUtc></FrequencyChange></FrequencyChanges></Clock>\n	Hungry_Donkey_bar_English_2-155-1	60.017	-122	1.0.0.18	1	-1476535658	Standard	2.0.10.353	2.0.10.353	06-20-2016	6/20/2016 9:35:19 PM	17:35:19	2.0.10.248	45	Bar50-50.bmp	50	3	?	0r_4g.bmp	0r_4g.bmp	0r_2g.bmp	0r_2g.bmp			0r_2g.bmp		TrialProc	TrialList	0	cvbn	-999999	16	223994	0	b	1083	225077	140	-138	2	-6	6	16	-14	10	5	45	0	0	0	0	4	4	2	2	0	2
Hungry_Donkey_bar_English_2	155	1	<?xml version="1.0"?>\n<Clock xmlns:dt="urn:schemas-microsoft-com:datatypes"><Description dt:dt="string">E-Prime Primary Realtime Clock</Description><StartTime><Timestamp dt:dt="int">0</Timestamp><DateUtc dt:dt="string">2016-06-20T21:35:18Z</DateUtc></StartTime><FrequencyChanges><FrequencyChange><Frequency dt:dt="r8">3507685</Frequency><Timestamp dt:dt="r8">75832185512</Timestamp><Current dt:dt="r8">0</Current><DateUtc dt:dt="string">2016-06-20T21:35:18Z</DateUtc></FrequencyChange></FrequencyChanges></Clock>\n	Hungry_Donkey_bar_English_2-155-1	60.017	-122	1.0.0.18	1	-1476535658	Standard	2.0.10.353	2.0.10.353	06-20-2016	6/20/2016 9:35:19 PM	17:35:19	2.0.10.248	46	Bar50-50.bmp	51	4	?	0r_4g.bmp	0r_4g.bmp	0r_2g.bmp	0r_2g.bmp				0r_2g.bmp	TrialProc	TrialList	0	cvbn	-999999	16	227110	0	n	927	228037	142	-138	4	-6	6	16	-12	8	5	46	0	0	0	0	4	4	2	2	0	2
Hungry_Donkey_bar_English_2	155	1	<?xml version="1.0"?>\n<Clock xmlns:dt="urn:schemas-microsoft-com:datatypes"><Description dt:dt="string">E-Prime Primary Realtime Clock</Description><StartTime><Timestamp dt:dt="int">0</Timestamp><DateUtc dt:dt="string">2016-06-20T21:35:18Z</DateUtc></StartTime><FrequencyChanges><FrequencyChange><Frequency dt:dt="r8">3507685</Frequency><Timestamp dt:dt="r8">75832185512</Timestamp><Current dt:dt="r8">0</Current><DateUtc dt:dt="string">2016-06-20T21:35:18Z</DateUtc></FrequencyChange></FrequencyChanges></Clock>\n	Hungry_Donkey_bar_English_2-155-1	60.017	-122	1.0.0.18	1	-1476535658	Standard	2.0.10.353	2.0.10.353	06-20-2016	6/20/2016 9:35:19 PM	17:35:19	2.0.10.248	47	Bar50-50.bmp	51	3	?	12r_4g.bmp	0r_4g.bmp	3r_2g.bmp	0r_2g.bmp			3r_2g.bmp		TrialProc	TrialList	0	cvbn	-999999	17	230076	0	b	9	230085	144	-141	3	-6	6	15	-12	5	5	47	-12	0	-3	0	4	4	2	2	-3	2
Hungry_Donkey_bar_English_2	155	1	<?xml version="1.0"?>\n<Clock xmlns:dt="urn:schemas-microsoft-com:datatypes"><Description dt:dt="string">E-Prime Primary Realtime Clock</Description><StartTime><Timestamp dt:dt="int">0</Timestamp><DateUtc dt:dt="string">2016-06-20T21:35:18Z</DateUtc></StartTime><FrequencyChanges><FrequencyChange><Frequency dt:dt="r8">3507685</Frequency><Timestamp dt:dt="r8">75832185512</Timestamp><Current dt:dt="r8">0</Current><DateUtc dt:dt="string">2016-06-20T21:35:18Z</DateUtc></FrequencyChange></FrequencyChanges></Clock>\n	Hungry_Donkey_bar_English_2-155-1	60.017	-122	1.0.0.18	1	-1476535658	Standard	2.0.10.353	2.0.10.353	06-20-2016	6/20/2016 9:35:19 PM	17:35:19	2.0.10.248	48	Bar50-50.bmp	51	2	?	0r_4g.bmp	0r_4g.bmp	0r_2g.bmp	0r_2g.bmp		0r_4g.bmp			TrialProc	TrialList	0	cvbn	-999999	16	232125	0	v	696	232821	148	-141	7	-6	10	15	-12	6	5	48	0	0	0	0	4	4	2	2	0	4
Hungry_Donkey_bar_English_2	155	1	<?xml version="1.0"?>\n<Clock xmlns:dt="urn:schemas-microsoft-com:datatypes"><Description dt:dt="string">E-Prime Primary Realtime Clock</Description><StartTime><Timestamp dt:dt="int">0</Timestamp><DateUtc dt:dt="string">2016-06-20T21:35:18Z</DateUtc></StartTime><FrequencyChanges><FrequencyChange><Frequency dt:dt="r8">3507685</Frequency><Timestamp dt:dt="r8">75832185512</Timestamp><Current dt:dt="r8">0</Current><DateUtc dt:dt="string">2016-06-20T21:35:18Z</DateUtc></FrequencyChange></FrequencyChanges></Clock>\n	Hungry_Donkey_bar_English_2-155-1	60.017	-122	1.0.0.18	1	-1476535658	Standard	2.0.10.353	2.0.10.353	06-20-2016	6/20/2016 9:35:19 PM	17:35:19	2.0.10.248	49	Bar50-50.bmp	50	1	?	10r_4g.bmp	0r_4g.bmp	2r_2g.bmp	0r_2g.bmp	10r_4g.bmp				TrialProc	TrialList	0	cvbn	-999999	16	234857	0	c	540	235397	152	-151	1	-12	10	15	-12	3	5	49	-10	0	-2	0	4	4	2	2	-10	4
Hungry_Donkey_bar_English_2	155	1	<?xml version="1.0"?>\n<Clock xmlns:dt="urn:schemas-microsoft-com:datatypes"><Description dt:dt="string">E-Prime Primary Realtime Clock</Description><StartTime><Timestamp dt:dt="int">0</Timestamp><DateUtc dt:dt="string">2016-06-20T21:35:18Z</DateUtc></StartTime><FrequencyChanges><FrequencyChange><Frequency dt:dt="r8">3507685</Frequency><Timestamp dt:dt="r8">75832185512</Timestamp><Current dt:dt="r8">0</Current><DateUtc dt:dt="string">2016-06-20T21:35:18Z</DateUtc></FrequencyChange></FrequencyChanges></Clock>\n	Hungry_Donkey_bar_English_2-155-1	60.017	-122	1.0.0.18	1	-1476535658	Standard	2.0.10.353	2.0.10.353	06-20-2016	6/20/2016 9:35:19 PM	17:35:19	2.0.10.248	50	Bar50-50.bmp	51	2	?	0r_4g.bmp	0r_4g.bmp	0r_2g.bmp	0r_2g.bmp		0r_4g.bmp			TrialProc	TrialList	0	cvbn	-999999	16	237423	0	v	69	237492	156	-151	5	-12	14	15	-12	7	5	50	0	0	0	0	4	4	2	2	0	4
Hungry_Donkey_bar_English_2	155	1	<?xml version="1.0"?>\n<Clock xmlns:dt="urn:schemas-microsoft-com:datatypes"><Description dt:dt="string">E-Prime Primary Realtime Clock</Description><StartTime><Timestamp dt:dt="int">0</Timestamp><DateUtc dt:dt="string">2016-06-20T21:35:18Z</DateUtc></StartTime><FrequencyChanges><FrequencyChange><Frequency dt:dt="r8">3507685</Frequency><Timestamp dt:dt="r8">75832185512</Timestamp><Current dt:dt="r8">0</Current><DateUtc dt:dt="string">2016-06-20T21:35:18Z</DateUtc></FrequencyChange></FrequencyChanges></Clock>\n	Hungry_Donkey_bar_English_2-155-1	60.017	-122	1.0.0.18	1	-1476535658	Standard	2.0.10.353	2.0.10.353	06-20-2016	6/20/2016 9:35:19 PM	17:35:19	2.0.10.248	51	Bar50-50.bmp	51	3	?	8r_4g.bmp	50r_4g.bmp	1r_2g.bmp	10r_2g.bmp			1r_2g.bmp		TrialProc	TrialList	0	cvbn	-999999	16	239523	0	b	545	240068	158	-152	6	-12	14	16	-12	1	6	51	-8	-50	-1	-10	4	4	2	2	-1	2
Hungry_Donkey_bar_English_2	155	1	<?xml version="1.0"?>\n<Clock xmlns:dt="urn:schemas-microsoft-com:datatypes"><Description dt:dt="string">E-Prime Primary Realtime Clock</Description><StartTime><Timestamp dt:dt="int">0</Timestamp><DateUtc dt:dt="string">2016-06-20T21:35:18Z</DateUtc></StartTime><FrequencyChanges><FrequencyChange><Frequency dt:dt="r8">3507685</Frequency><Timestamp dt:dt="r8">75832185512</Timestamp><Current dt:dt="r8">0</Current><DateUtc dt:dt="string">2016-06-20T21:35:18Z</DateUtc></FrequencyChange></FrequencyChanges></Clock>\n	Hungry_Donkey_bar_English_2-155-1	60.017	-122	1.0.0.18	1	-1476535658	Standard	2.0.10.353	2.0.10.353	06-20-2016	6/20/2016 9:35:19 PM	17:35:19	2.0.10.248	52	Bar50-50.bmp	51	4	?	10r_4g.bmp	0r_4g.bmp	2r_2g.bmp	0r_2g.bmp				0r_2g.bmp	TrialProc	TrialList	0	cvbn	-999999	16	242105	0	n	443	242548	160	-152	8	-12	14	16	-10	4	6	52	-10	0	-2	0	4	4	2	2	0	2
Hungry_Donkey_bar_English_2	155	1	<?xml version="1.0"?>\n<Clock xmlns:dt="urn:schemas-microsoft-com:datatypes"><Description dt:dt="string">E-Prime Primary Realtime Clock</Description><StartTime><Timestamp dt:dt="int">0</Timestamp><DateUtc dt:dt="string">2016-06-20T21:35:18Z</DateUtc></StartTime><FrequencyChanges><FrequencyChange><Frequency dt:dt="r8">3507685</Frequency><Timestamp dt:dt="r8">75832185512</Timestamp><Current dt:dt="r8">0</Current><DateUtc dt:dt="string">2016-06-20T21:35:18Z</DateUtc></FrequencyChange></FrequencyChanges></Clock>\n	Hungry_Donkey_bar_English_2-155-1	60.017	-122	1.0.0.18	1	-1476535658	Standard	2.0.10.353	2.0.10.353	06-20-2016	6/20/2016 9:35:19 PM	17:35:19	2.0.10.248	53	Bar50-50.bmp	52	4	?	10r_4g.bmp	0r_4g.bmp	2r_2g.bmp	0r_2g.bmp				0r_2g.bmp	TrialProc	TrialList	0	cvbn	-999999	16	244588	0	n	616	245204	162	-152	10	-12	14	16	-8	2	6	53	-10	0	-2	0	4	4	2	2	0	2
Hungry_Donkey_bar_English_2	155	1	<?xml version="1.0"?>\n<Clock xmlns:dt="urn:schemas-microsoft-com:datatypes"><Description dt:dt="string">E-Prime Primary Realtime Clock</Description><StartTime><Timestamp dt:dt="int">0</Timestamp><DateUtc dt:dt="string">2016-06-20T21:35:18Z</DateUtc></StartTime><FrequencyChanges><FrequencyChange><Frequency dt:dt="r8">3507685</Frequency><Timestamp dt:dt="r8">75832185512</Timestamp><Current dt:dt="r8">0</Current><DateUtc dt:dt="string">2016-06-20T21:35:18Z</DateUtc></FrequencyChange></FrequencyChanges></Clock>\n	Hungry_Donkey_bar_English_2-155-1	60.017	-122	1.0.0.18	1	-1476535658	Standard	2.0.10.353	2.0.10.353	06-20-2016	6/20/2016 9:35:19 PM	17:35:19	2.0.10.248	54	Bar50-50.bmp	52	3	?	0r_4g.bmp	0r_4g.bmp	0r_2g.bmp	0r_2g.bmp			0r_2g.bmp		TrialProc	TrialList	0	cvbn	-999999	16	247237	0	b	207	247444	164	-152	12	-12	14	18	-8	7	6	54	0	0	0	0	4	4	2	2	0	2
Hungry_Donkey_bar_English_2	155	1	<?xml version="1.0"?>\n<Clock xmlns:dt="urn:schemas-microsoft-com:datatypes"><Description dt:dt="string">E-Prime Primary Realtime Clock</Description><StartTime><Timestamp dt:dt="int">0</Timestamp><DateUtc dt:dt="string">2016-06-20T21:35:18Z</DateUtc></StartTime><FrequencyChanges><FrequencyChange><Frequency dt:dt="r8">3507685</Frequency><Timestamp dt:dt="r8">75832185512</Timestamp><Current dt:dt="r8">0</Current><DateUtc dt:dt="string">2016-06-20T21:35:18Z</DateUtc></FrequencyChange></FrequencyChanges></Clock>\n	Hungry_Donkey_bar_English_2-155-1	60.017	-122	1.0.0.18	1	-1476535658	Standard	2.0.10.353	2.0.10.353	06-20-2016	6/20/2016 9:35:19 PM	17:35:19	2.0.10.248	55	Bar50-50.bmp	52	4	?	12r_4g.bmp	0r_4g.bmp	3r_2g.bmp	0r_2g.bmp				0r_2g.bmp	TrialProc	TrialList	0	cvbn	-999999	16	249470	0	n	166	249636	166	-152	14	-12	14	18	-6	5	6	55	-12	0	-3	0	4	4	2	2	0	2
Hungry_Donkey_bar_English_2	155	1	<?xml version="1.0"?>\n<Clock xmlns:dt="urn:schemas-microsoft-com:datatypes"><Description dt:dt="string">E-Prime Primary Realtime Clock</Description><StartTime><Timestamp dt:dt="int">0</Timestamp><DateUtc dt:dt="string">2016-06-20T21:35:18Z</DateUtc></StartTime><FrequencyChanges><FrequencyChange><Frequency dt:dt="r8">3507685</Frequency><Timestamp dt:dt="r8">75832185512</Timestamp><Current dt:dt="r8">0</Current><DateUtc dt:dt="string">2016-06-20T21:35:18Z</DateUtc></FrequencyChange></FrequencyChanges></Clock>\n	Hungry_Donkey_bar_English_2-155-1	60.017	-122	1.0.0.18	1	-1476535658	Standard	2.0.10.353	2.0.10.353	06-20-2016	6/20/2016 9:35:19 PM	17:35:19	2.0.10.248	56	Bar50-50.bmp	53	2	?	0r_4g.bmp	0r_4g.bmp	0r_2g.bmp	0r_2g.bmp		0r_4g.bmp			TrialProc	TrialList	0	cvbn	-999999	16	251669	0	v	639	252308	170	-152	18	-12	18	18	-6	6	6	56	0	0	0	0	4	4	2	2	0	4
Hungry_Donkey_bar_English_2	155	1	<?xml version="1.0"?>\n<Clock xmlns:dt="urn:schemas-microsoft-com:datatypes"><Description dt:dt="string">E-Prime Primary Realtime Clock</Description><StartTime><Timestamp dt:dt="int">0</Timestamp><DateUtc dt:dt="string">2016-06-20T21:35:18Z</DateUtc></StartTime><FrequencyChanges><FrequencyChange><Frequency dt:dt="r8">3507685</Frequency><Timestamp dt:dt="r8">75832185512</Timestamp><Current dt:dt="r8">0</Current><DateUtc dt:dt="string">2016-06-20T21:35:18Z</DateUtc></FrequencyChange></FrequencyChanges></Clock>\n	Hungry_Donkey_bar_English_2-155-1	60.017	-122	1.0.0.18	1	-1476535658	Standard	2.0.10.353	2.0.10.353	06-20-2016	6/20/2016 9:35:19 PM	17:35:19	2.0.10.248	57	Bar50-50.bmp	53	1	?	0r_4g.bmp	0r_4g.bmp	0r_2g.bmp	0r_2g.bmp	0r_4g.bmp				TrialProc	TrialList	0	cvbn	-999999	16	254335	0	c	517	254852	174	-152	22	-8	18	18	-6	8	6	57	0	0	0	0	4	4	2	2	0	4
Hungry_Donkey_bar_English_2	155	1	<?xml version="1.0"?>\n<Clock xmlns:dt="urn:schemas-microsoft-com:datatypes"><Description dt:dt="string">E-Prime Primary Realtime Clock</Description><StartTime><Timestamp dt:dt="int">0</Timestamp><DateUtc dt:dt="string">2016-06-20T21:35:18Z</DateUtc></StartTime><FrequencyChanges><FrequencyChange><Frequency dt:dt="r8">3507685</Frequency><Timestamp dt:dt="r8">75832185512</Timestamp><Current dt:dt="r8">0</Current><DateUtc dt:dt="string">2016-06-20T21:35:18Z</DateUtc></FrequencyChange></FrequencyChanges></Clock>\n	Hungry_Donkey_bar_English_2-155-1	60.017	-122	1.0.0.18	1	-1476535658	Standard	2.0.10.353	2.0.10.353	06-20-2016	6/20/2016 9:35:19 PM	17:35:19	2.0.10.248	58	Bar50-50.bmp	54	2	?	10r_4g.bmp	0r_4g.bmp	2r_2g.bmp	0r_2g.bmp		0r_4g.bmp			TrialProc	TrialList	0	cvbn	-999999	16	256884	0	v	431	257315	178	-152	26	-8	22	18	-6	3	6	58	-10	0	-2	0	4	4	2	2	0	4
Hungry_Donkey_bar_English_2	155	1	<?xml version="1.0"?>\n<Clock xmlns:dt="urn:schemas-microsoft-com:datatypes"><Description dt:dt="string">E-Prime Primary Realtime Clock</Description><StartTime><Timestamp dt:dt="int">0</Timestamp><DateUtc dt:dt="string">2016-06-20T21:35:18Z</DateUtc></StartTime><FrequencyChanges><FrequencyChange><Frequency dt:dt="r8">3507685</Frequency><Timestamp dt:dt="r8">75832185512</Timestamp><Current dt:dt="r8">0</Current><DateUtc dt:dt="string">2016-06-20T21:35:18Z</DateUtc></FrequencyChange></FrequencyChanges></Clock>\n	Hungry_Donkey_bar_English_2-155-1	60.017	-122	1.0.0.18	1	-1476535658	Standard	2.0.10.353	2.0.10.353	06-20-2016	6/20/2016 9:35:19 PM	17:35:19	2.0.10.248	59	Bar50-50.bmp	54	3	?	0r_4g.bmp	0r_4g.bmp	0r_2g.bmp	0r_2g.bmp			0r_2g.bmp		TrialProc	TrialList	0	cvbn	-999999	16	259350	0	b	429	259779	180	-152	28	-8	22	20	-6	9	6	59	0	0	0	0	4	4	2	2	0	2
Hungry_Donkey_bar_English_2	155	1	<?xml version="1.0"?>\n<Clock xmlns:dt="urn:schemas-microsoft-com:datatypes"><Description dt:dt="string">E-Prime Primary Realtime Clock</Description><StartTime><Timestamp dt:dt="int">0</Timestamp><DateUtc dt:dt="string">2016-06-20T21:35:18Z</DateUtc></StartTime><FrequencyChanges><FrequencyChange><Frequency dt:dt="r8">3507685</Frequency><Timestamp dt:dt="r8">75832185512</Timestamp><Current dt:dt="r8">0</Current><DateUtc dt:dt="string">2016-06-20T21:35:18Z</DateUtc></FrequencyChange></FrequencyChanges></Clock>\n	Hungry_Donkey_bar_English_2-155-1	60.017	-122	1.0.0.18	1	-1476535658	Standard	2.0.10.353	2.0.10.353	06-20-2016	6/20/2016 9:35:19 PM	17:35:19	2.0.10.248	60	Bar50-50.bmp	55	2	?	0r_4g.bmp	0r_4g.bmp	0r_2g.bmp	0r_2g.bmp		0r_4g.bmp			TrialProc	TrialList	0	cvbn	-999999	16	261816	0	v	427	262243	184	-152	32	-8	26	20	-6	10	6	60	0	0	0	0	4	4	2	2	0	4
Hungry_Donkey_bar_English_2	155	1	<?xml version="1.0"?>\n<Clock xmlns:dt="urn:schemas-microsoft-com:datatypes"><Description dt:dt="string">E-Prime Primary Realtime Clock</Description><StartTime><Timestamp dt:dt="int">0</Timestamp><DateUtc dt:dt="string">2016-06-20T21:35:18Z</DateUtc></StartTime><FrequencyChanges><FrequencyChange><Frequency dt:dt="r8">3507685</Frequency><Timestamp dt:dt="r8">75832185512</Timestamp><Current dt:dt="r8">0</Current><DateUtc dt:dt="string">2016-06-20T21:35:18Z</DateUtc></FrequencyChange></FrequencyChanges></Clock>\n	Hungry_Donkey_bar_English_2-155-1	60.017	-122	1.0.0.18	1	-1476535658	Standard	2.0.10.353	2.0.10.353	06-20-2016	6/20/2016 9:35:19 PM	17:35:19	2.0.10.248	61	Bar50-50.bmp	53	1	?	12r_4g.bmp	0r_4g.bmp	3r_2g.bmp	0r_2g.bmp	12r_4g.bmp				TrialProc	TrialList	0	cvbn	-999999	16	264282	0	c	393	264675	188	-164	24	-16	26	20	-6	5	7	61	-12	0	-3	0	4	4	2	2	-12	4
Hungry_Donkey_bar_English_2	155	1	<?xml version="1.0"?>\n<Clock xmlns:dt="urn:schemas-microsoft-com:datatypes"><Description dt:dt="string">E-Prime Primary Realtime Clock</Description><StartTime><Timestamp dt:dt="int">0</Timestamp><DateUtc dt:dt="string">2016-06-20T21:35:18Z</DateUtc></StartTime><FrequencyChanges><FrequencyChange><Frequency dt:dt="r8">3507685</Frequency><Timestamp dt:dt="r8">75832185512</Timestamp><Current dt:dt="r8">0</Current><DateUtc dt:dt="string">2016-06-20T21:35:18Z</DateUtc></FrequencyChange></FrequencyChanges></Clock>\n	Hungry_Donkey_bar_English_2-155-1	60.017	-122	1.0.0.18	1	-1476535658	Standard	2.0.10.353	2.0.10.353	06-20-2016	6/20/2016 9:35:19 PM	17:35:19	2.0.10.248	62	Bar50-50.bmp	53	3	?	10r_4g.bmp	0r_4g.bmp	2r_2g.bmp	0r_2g.bmp			2r_2g.bmp		TrialProc	TrialList	0	cvbn	-999999	16	266698	0	b	441	267139	190	-166	24	-16	26	20	-6	4	7	62	-10	0	-2	0	4	4	2	2	-2	2
Hungry_Donkey_bar_English_2	155	1	<?xml version="1.0"?>\n<Clock xmlns:dt="urn:schemas-microsoft-com:datatypes"><Description dt:dt="string">E-Prime Primary Realtime Clock</Description><StartTime><Timestamp dt:dt="int">0</Timestamp><DateUtc dt:dt="string">2016-06-20T21:35:18Z</DateUtc></StartTime><FrequencyChanges><FrequencyChange><Frequency dt:dt="r8">3507685</Frequency><Timestamp dt:dt="r8">75832185512</Timestamp><Current dt:dt="r8">0</Current><DateUtc dt:dt="string">2016-06-20T21:35:18Z</DateUtc></FrequencyChange></FrequencyChanges></Clock>\n	Hungry_Donkey_bar_English_2-155-1	60.017	-122	1.0.0.18	1	-1476535658	Standard	2.0.10.353	2.0.10.353	06-20-2016	6/20/2016 9:35:19 PM	17:35:19	2.0.10.248	63	Bar50-50.bmp	47	2	?	8r_4g.bmp	50r_4g.bmp	1r_2g.bmp	10r_2g.bmp		50r_4g.bmp			TrialProc	TrialList	0	cvbn	-999999	16	269164	0	v	7	269171	194	-216	-22	-16	-20	20	-6	1	7	63	-8	-50	-1	-10	4	4	2	2	-50	4
Hungry_Donkey_bar_English_2	155	1	<?xml version="1.0"?>\n<Clock xmlns:dt="urn:schemas-microsoft-com:datatypes"><Description dt:dt="string">E-Prime Primary Realtime Clock</Description><StartTime><Timestamp dt:dt="int">0</Timestamp><DateUtc dt:dt="string">2016-06-20T21:35:18Z</DateUtc></StartTime><FrequencyChanges><FrequencyChange><Frequency dt:dt="r8">3507685</Frequency><Timestamp dt:dt="r8">75832185512</Timestamp><Current dt:dt="r8">0</Current><DateUtc dt:dt="string">2016-06-20T21:35:18Z</DateUtc></FrequencyChange></FrequencyChanges></Clock>\n	Hungry_Donkey_bar_English_2-155-1	60.017	-122	1.0.0.18	1	-1476535658	Standard	2.0.10.353	2.0.10.353	06-20-2016	6/20/2016 9:35:19 PM	17:35:19	2.0.10.248	64	Bar50-50.bmp	47	3	?	10r_4g.bmp	0r_4g.bmp	2r_2g.bmp	0r_2g.bmp			2r_2g.bmp		TrialProc	TrialList	0	cvbn	-999999	16	271197	0	b	566	271763	196	-218	-22	-16	-20	20	-6	3	7	64	-10	0	-2	0	4	4	2	2	-2	2
Hungry_Donkey_bar_English_2	155	1	<?xml version="1.0"?>\n<Clock xmlns:dt="urn:schemas-microsoft-com:datatypes"><Description dt:dt="string">E-Prime Primary Realtime Clock</Description><StartTime><Timestamp dt:dt="int">0</Timestamp><DateUtc dt:dt="string">2016-06-20T21:35:18Z</DateUtc></StartTime><FrequencyChanges><FrequencyChange><Frequency dt:dt="r8">3507685</Frequency><Timestamp dt:dt="r8">75832185512</Timestamp><Current dt:dt="r8">0</Current><DateUtc dt:dt="string">2016-06-20T21:35:18Z</DateUtc></FrequencyChange></FrequencyChanges></Clock>\n	Hungry_Donkey_bar_English_2-155-1	60.017	-122	1.0.0.18	1	-1476535658	Standard	2.0.10.353	2.0.10.353	06-20-2016	6/20/2016 9:35:19 PM	17:35:19	2.0.10.248	65	Bar50-50.bmp	47	1	?	10r_4g.bmp	0r_4g.bmp	2r_2g.bmp	0r_2g.bmp	10r_4g.bmp				TrialProc	TrialList	0	cvbn	-999999	16	273796	0	c	543	274339	200	-228	-28	-22	-20	20	-6	2	7	65	-10	0	-2	0	4	4	2	2	-10	4
Hungry_Donkey_bar_English_2	155	1	<?xml version="1.0"?>\n<Clock xmlns:dt="urn:schemas-microsoft-com:datatypes"><Description dt:dt="string">E-Prime Primary Realtime Clock</Description><StartTime><Timestamp dt:dt="int">0</Timestamp><DateUtc dt:dt="string">2016-06-20T21:35:18Z</DateUtc></StartTime><FrequencyChanges><FrequencyChange><Frequency dt:dt="r8">3507685</Frequency><Timestamp dt:dt="r8">75832185512</Timestamp><Current dt:dt="r8">0</Current><DateUtc dt:dt="string">2016-06-20T21:35:18Z</DateUtc></FrequencyChange></FrequencyChanges></Clock>\n	Hungry_Donkey_bar_English_2-155-1	60.017	-122	1.0.0.18	1	-1476535658	Standard	2.0.10.353	2.0.10.353	06-20-2016	6/20/2016 9:35:19 PM	17:35:19	2.0.10.248	66	Bar50-50.bmp	47	3	?	0r_4g.bmp	0r_4g.bmp	0r_2g.bmp	0r_2g.bmp			0r_2g.bmp		TrialProc	TrialList	0	cvbn	-999999	16	276362	0	b	584	276946	202	-228	-26	-22	-20	22	-6	8	7	66	0	0	0	0	4	4	2	2	0	2
Hungry_Donkey_bar_English_2	155	1	<?xml version="1.0"?>\n<Clock xmlns:dt="urn:schemas-microsoft-com:datatypes"><Description dt:dt="string">E-Prime Primary Realtime Clock</Description><StartTime><Timestamp dt:dt="int">0</Timestamp><DateUtc dt:dt="string">2016-06-20T21:35:18Z</DateUtc></StartTime><FrequencyChanges><FrequencyChange><Frequency dt:dt="r8">3507685</Frequency><Timestamp dt:dt="r8">75832185512</Timestamp><Current dt:dt="r8">0</Current><DateUtc dt:dt="string">2016-06-20T21:35:18Z</DateUtc></FrequencyChange></FrequencyChanges></Clock>\n	Hungry_Donkey_bar_English_2-155-1	60.017	-122	1.0.0.18	1	-1476535658	Standard	2.0.10.353	2.0.10.353	06-20-2016	6/20/2016 9:35:19 PM	17:35:19	2.0.10.248	67	Bar50-50.bmp	47	2	?	0r_4g.bmp	0r_4g.bmp	0r_2g.bmp	0r_2g.bmp		0r_4g.bmp			TrialProc	TrialList	0	cvbn	-999999	16	278978	0	v	48	279026	206	-228	-22	-22	-16	22	-6	9	7	67	0	0	0	0	4	4	2	2	0	4
Hungry_Donkey_bar_English_2	155	1	<?xml version="1.0"?>\n<Clock xmlns:dt="urn:schemas-microsoft-com:datatypes"><Description dt:dt="string">E-Prime Primary Realtime Clock</Description><StartTime><Timestamp dt:dt="int">0</Timestamp><DateUtc dt:dt="string">2016-06-20T21:35:18Z</DateUtc></StartTime><FrequencyChanges><FrequencyChange><Frequency dt:dt="r8">3507685</Frequency><Timestamp dt:dt="r8">75832185512</Timestamp><Current dt:dt="r8">0</Current><DateUtc dt:dt="string">2016-06-20T21:35:18Z</DateUtc></FrequencyChange></FrequencyChanges></Clock>\n	Hungry_Donkey_bar_English_2-155-1	60.017	-122	1.0.0.18	1	-1476535658	Standard	2.0.10.353	2.0.10.353	06-20-2016	6/20/2016 9:35:19 PM	17:35:19	2.0.10.248	68	Bar50-50.bmp	48	3	?	0r_4g.bmp	0r_4g.bmp	0r_2g.bmp	0r_2g.bmp			0r_2g.bmp		TrialProc	TrialList	0	cvbn	-999999	16	281061	0	b	557	281618	208	-228	-20	-22	-16	24	-6	10	7	68	0	0	0	0	4	4	2	2	0	2
Hungry_Donkey_bar_English_2	155	1	<?xml version="1.0"?>\n<Clock xmlns:dt="urn:schemas-microsoft-com:datatypes"><Description dt:dt="string">E-Prime Primary Realtime Clock</Description><StartTime><Timestamp dt:dt="int">0</Timestamp><DateUtc dt:dt="string">2016-06-20T21:35:18Z</DateUtc></StartTime><FrequencyChanges><FrequencyChange><Frequency dt:dt="r8">3507685</Frequency><Timestamp dt:dt="r8">75832185512</Timestamp><Current dt:dt="r8">0</Current><DateUtc dt:dt="string">2016-06-20T21:35:18Z</DateUtc></FrequencyChange></FrequencyChanges></Clock>\n	Hungry_Donkey_bar_English_2-155-1	60.017	-122	1.0.0.18	1	-1476535658	Standard	2.0.10.353	2.0.10.353	06-20-2016	6/20/2016 9:35:19 PM	17:35:19	2.0.10.248	69	Bar50-50.bmp	48	4	?	0r_4g.bmp	0r_4g.bmp	0r_2g.bmp	0r_2g.bmp				0r_2g.bmp	TrialProc	TrialList	0	cvbn	-999999	16	283643	0	n	1991	285634	210	-228	-18	-22	-16	24	-4	6	7	69	0	0	0	0	4	4	2	2	0	2
Hungry_Donkey_bar_English_2	155	1	<?xml version="1.0"?>\n<Clock xmlns:dt="urn:schemas-microsoft-com:datatypes"><Description dt:dt="string">E-Prime Primary Realtime Clock</Description><StartTime><Timestamp dt:dt="int">0</Timestamp><DateUtc dt:dt="string">2016-06-20T21:35:18Z</DateUtc></StartTime><FrequencyChanges><FrequencyChange><Frequency dt:dt="r8">3507685</Frequency><Timestamp dt:dt="r8">75832185512</Timestamp><Current dt:dt="r8">0</Current><DateUtc dt:dt="string">2016-06-20T21:35:18Z</DateUtc></FrequencyChange></FrequencyChanges></Clock>\n	Hungry_Donkey_bar_English_2-155-1	60.017	-122	1.0.0.18	1	-1476535658	Standard	2.0.10.353	2.0.10.353	06-20-2016	6/20/2016 9:35:19 PM	17:35:19	2.0.10.248	70	Bar50-50.bmp	48	3	?	0r_4g.bmp	0r_4g.bmp	0r_2g.bmp	0r_2g.bmp			0r_2g.bmp		TrialProc	TrialList	0	cvbn	-999999	16	287659	0	b	391	288050	212	-228	-16	-22	-16	26	-4	7	7	70	0	0	0	0	4	4	2	2	0	2
Hungry_Donkey_bar_English_2	155	1	<?xml version="1.0"?>\n<Clock xmlns:dt="urn:schemas-microsoft-com:datatypes"><Description dt:dt="string">E-Prime Primary Realtime Clock</Description><StartTime><Timestamp dt:dt="int">0</Timestamp><DateUtc dt:dt="string">2016-06-20T21:35:18Z</DateUtc></StartTime><FrequencyChanges><FrequencyChange><Frequency dt:dt="r8">3507685</Frequency><Timestamp dt:dt="r8">75832185512</Timestamp><Current dt:dt="r8">0</Current><DateUtc dt:dt="string">2016-06-20T21:35:18Z</DateUtc></FrequencyChange></FrequencyChanges></Clock>\n	Hungry_Donkey_bar_English_2-155-1	60.017	-122	1.0.0.18	1	-1476535658	Standard	2.0.10.353	2.0.10.353	06-20-2016	6/20/2016 9:35:19 PM	17:35:19	2.0.10.248	71	Bar50-50.bmp	49	2	?	10r_4g.bmp	0r_4g.bmp	2r_2g.bmp	0r_2g.bmp		0r_4g.bmp			TrialProc	TrialList	0	cvbn	-999999	16	290075	0	v	567	290642	216	-228	-12	-22	-12	26	-4	2	8	71	-10	0	-2	0	4	4	2	2	0	4
Hungry_Donkey_bar_English_2	155	1	<?xml version="1.0"?>\n<Clock xmlns:dt="urn:schemas-microsoft-com:datatypes"><Description dt:dt="string">E-Prime Primary Realtime Clock</Description><StartTime><Timestamp dt:dt="int">0</Timestamp><DateUtc dt:dt="string">2016-06-20T21:35:18Z</DateUtc></StartTime><FrequencyChanges><FrequencyChange><Frequency dt:dt="r8">3507685</Frequency><Timestamp dt:dt="r8">75832185512</Timestamp><Current dt:dt="r8">0</Current><DateUtc dt:dt="string">2016-06-20T21:35:18Z</DateUtc></FrequencyChange></FrequencyChanges></Clock>\n	Hungry_Donkey_bar_English_2-155-1	60.017	-122	1.0.0.18	1	-1476535658	Standard	2.0.10.353	2.0.10.353	06-20-2016	6/20/2016 9:35:19 PM	17:35:19	2.0.10.248	72	Bar50-50.bmp	49	1	?	0r_4g.bmp	0r_4g.bmp	0r_2g.bmp	0r_2g.bmp	0r_4g.bmp				TrialProc	TrialList	0	cvbn	-999999	16	292674	0	c	496	293170	220	-228	-8	-18	-12	26	-4	6	8	72	0	0	0	0	4	4	2	2	0	4
Hungry_Donkey_bar_English_2	155	1	<?xml version="1.0"?>\n<Clock xmlns:dt="urn:schemas-microsoft-com:datatypes"><Description dt:dt="string">E-Prime Primary Realtime Clock</Description><StartTime><Timestamp dt:dt="int">0</Timestamp><DateUtc dt:dt="string">2016-06-20T21:35:18Z</DateUtc></StartTime><FrequencyChanges><FrequencyChange><Frequency dt:dt="r8">3507685</Frequency><Timestamp dt:dt="r8">75832185512</Timestamp><Current dt:dt="r8">0</Current><DateUtc dt:dt="string">2016-06-20T21:35:18Z</DateUtc></FrequencyChange></FrequencyChanges></Clock>\n	Hungry_Donkey_bar_English_2-155-1	60.017	-122	1.0.0.18	1	-1476535658	Standard	2.0.10.353	2.0.10.353	06-20-2016	6/20/2016 9:35:19 PM	17:35:19	2.0.10.248	73	Bar50-50.bmp	50	2	?	0r_4g.bmp	0r_4g.bmp	0r_2g.bmp	0r_2g.bmp		0r_4g.bmp			TrialProc	TrialList	0	cvbn	-999999	16	295207	0	v	602	295809	224	-228	-4	-18	-8	26	-4	7	8	73	0	0	0	0	4	4	2	2	0	4
Hungry_Donkey_bar_English_2	155	1	<?xml version="1.0"?>\n<Clock xmlns:dt="urn:schemas-microsoft-com:datatypes"><Description dt:dt="string">E-Prime Primary Realtime Clock</Description><StartTime><Timestamp dt:dt="int">0</Timestamp><DateUtc dt:dt="string">2016-06-20T21:35:18Z</DateUtc></StartTime><FrequencyChanges><FrequencyChange><Frequency dt:dt="r8">3507685</Frequency><Timestamp dt:dt="r8">75832185512</Timestamp><Current dt:dt="r8">0</Current><DateUtc dt:dt="string">2016-06-20T21:35:18Z</DateUtc></FrequencyChange></FrequencyChanges></Clock>\n	Hungry_Donkey_bar_English_2-155-1	60.017	-122	1.0.0.18	1	-1476535658	Standard	2.0.10.353	2.0.10.353	06-20-2016	6/20/2016 9:35:19 PM	17:35:19	2.0.10.248	74	Bar50-50.bmp	50	2	?	0r_4g.bmp	0r_4g.bmp	0r_2g.bmp	0r_2g.bmp		0r_4g.bmp			TrialProc	TrialList	0	cvbn	-999999	16	297839	0	v	402	298241	228	-228	0	-18	-4	26	-4	9	8	74	0	0	0	0	4	4	2	2	0	4
Hungry_Donkey_bar_English_2	155	1	<?xml version="1.0"?>\n<Clock xmlns:dt="urn:schemas-microsoft-com:datatypes"><Description dt:dt="string">E-Prime Primary Realtime Clock</Description><StartTime><Timestamp dt:dt="int">0</Timestamp><DateUtc dt:dt="string">2016-06-20T21:35:18Z</DateUtc></StartTime><FrequencyChanges><FrequencyChange><Frequency dt:dt="r8">3507685</Frequency><Timestamp dt:dt="r8">75832185512</Timestamp><Current dt:dt="r8">0</Current><DateUtc dt:dt="string">2016-06-20T21:35:18Z</DateUtc></FrequencyChange></FrequencyChanges></Clock>\n	Hungry_Donkey_bar_English_2-155-1	60.017	-122	1.0.0.18	1	-1476535658	Standard	2.0.10.353	2.0.10.353	06-20-2016	6/20/2016 9:35:19 PM	17:35:19	2.0.10.248	75	Bar50-50.bmp	50	3	?	12r_4g.bmp	0r_4g.bmp	3r_2g.bmp	0r_2g.bmp			3r_2g.bmp		TrialProc	TrialList	0	cvbn	-999999	16	300272	0	b	625	300897	230	-231	-1	-18	-4	25	-4	5	8	75	-12	0	-3	0	4	4	2	2	-3	2
Hungry_Donkey_bar_English_2	155	1	<?xml version="1.0"?>\n<Clock xmlns:dt="urn:schemas-microsoft-com:datatypes"><Description dt:dt="string">E-Prime Primary Realtime Clock</Description><StartTime><Timestamp dt:dt="int">0</Timestamp><DateUtc dt:dt="string">2016-06-20T21:35:18Z</DateUtc></StartTime><FrequencyChanges><FrequencyChange><Frequency dt:dt="r8">3507685</Frequency><Timestamp dt:dt="r8">75832185512</Timestamp><Current dt:dt="r8">0</Current><DateUtc dt:dt="string">2016-06-20T21:35:18Z</DateUtc></FrequencyChange></FrequencyChanges></Clock>\n	Hungry_Donkey_bar_English_2-155-1	60.017	-122	1.0.0.18	1	-1476535658	Standard	2.0.10.353	2.0.10.353	06-20-2016	6/20/2016 9:35:19 PM	17:35:19	2.0.10.248	76	Bar50-50.bmp	50	4	?	0r_4g.bmp	0r_4g.bmp	0r_2g.bmp	0r_2g.bmp				0r_2g.bmp	TrialProc	TrialList	0	cvbn	-999999	16	302921	0	n	552	303473	232	-231	1	-18	-4	25	-2	8	8	76	0	0	0	0	4	4	2	2	0	2
Hungry_Donkey_bar_English_2	155	1	<?xml version="1.0"?>\n<Clock xmlns:dt="urn:schemas-microsoft-com:datatypes"><Description dt:dt="string">E-Prime Primary Realtime Clock</Description><StartTime><Timestamp dt:dt="int">0</Timestamp><DateUtc dt:dt="string">2016-06-20T21:35:18Z</DateUtc></StartTime><FrequencyChanges><FrequencyChange><Frequency dt:dt="r8">3507685</Frequency><Timestamp dt:dt="r8">75832185512</Timestamp><Current dt:dt="r8">0</Current><DateUtc dt:dt="string">2016-06-20T21:35:18Z</DateUtc></FrequencyChange></FrequencyChanges></Clock>\n	Hungry_Donkey_bar_English_2-155-1	60.017	-122	1.0.0.18	1	-1476535658	Standard	2.0.10.353	2.0.10.353	06-20-2016	6/20/2016 9:35:19 PM	17:35:19	2.0.10.248	77	Bar50-50.bmp	50	3	?	10r_4g.bmp	0r_4g.bmp	2r_2g.bmp	0r_2g.bmp			2r_2g.bmp		TrialProc	TrialList	0	cvbn	-999999	16	305504	0	b	577	306081	234	-233	1	-18	-4	25	-2	3	8	77	-10	0	-2	0	4	4	2	2	-2	2
Hungry_Donkey_bar_English_2	155	1	<?xml version="1.0"?>\n<Clock xmlns:dt="urn:schemas-microsoft-com:datatypes"><Description dt:dt="string">E-Prime Primary Realtime Clock</Description><StartTime><Timestamp dt:dt="int">0</Timestamp><DateUtc dt:dt="string">2016-06-20T21:35:18Z</DateUtc></StartTime><FrequencyChanges><FrequencyChange><Frequency dt:dt="r8">3507685</Frequency><Timestamp dt:dt="r8">75832185512</Timestamp><Current dt:dt="r8">0</Current><DateUtc dt:dt="string">2016-06-20T21:35:18Z</DateUtc></FrequencyChange></FrequencyChanges></Clock>\n	Hungry_Donkey_bar_English_2-155-1	60.017	-122	1.0.0.18	1	-1476535658	Standard	2.0.10.353	2.0.10.353	06-20-2016	6/20/2016 9:35:19 PM	17:35:19	2.0.10.248	78	Bar50-50.bmp	51	2	?	10r_4g.bmp	0r_4g.bmp	2r_2g.bmp	0r_2g.bmp		0r_4g.bmp			TrialProc	TrialList	0	cvbn	-999999	16	308120	0	v	761	308881	238	-233	5	-18	0	25	-2	4	8	78	-10	0	-2	0	4	4	2	2	0	4
Hungry_Donkey_bar_English_2	155	1	<?xml version="1.0"?>\n<Clock xmlns:dt="urn:schemas-microsoft-com:datatypes"><Description dt:dt="string">E-Prime Primary Realtime Clock</Description><StartTime><Timestamp dt:dt="int">0</Timestamp><DateUtc dt:dt="string">2016-06-20T21:35:18Z</DateUtc></StartTime><FrequencyChanges><FrequencyChange><Frequency dt:dt="r8">3507685</Frequency><Timestamp dt:dt="r8">75832185512</Timestamp><Current dt:dt="r8">0</Current><DateUtc dt:dt="string">2016-06-20T21:35:18Z</DateUtc></FrequencyChange></FrequencyChanges></Clock>\n	Hungry_Donkey_bar_English_2-155-1	60.017	-122	1.0.0.18	1	-1476535658	Standard	2.0.10.353	2.0.10.353	06-20-2016	6/20/2016 9:35:19 PM	17:35:19	2.0.10.248	79	Bar50-50.bmp	46	2	?	8r_4g.bmp	50r_4g.bmp	1r_2g.bmp	10r_2g.bmp		50r_4g.bmp			TrialProc	TrialList	0	cvbn	-999999	16	310919	0	v	458	311377	242	-283	-41	-18	-46	25	-2	1	8	79	-8	-50	-1	-10	4	4	2	2	-50	4
Hungry_Donkey_bar_English_2	155	1	<?xml version="1.0"?>\n<Clock xmlns:dt="urn:schemas-microsoft-com:datatypes"><Description dt:dt="string">E-Prime Primary Realtime Clock</Description><StartTime><Timestamp dt:dt="int">0</Timestamp><DateUtc dt:dt="string">2016-06-20T21:35:18Z</DateUtc></StartTime><FrequencyChanges><FrequencyChange><Frequency dt:dt="r8">3507685</Frequency><Timestamp dt:dt="r8">75832185512</Timestamp><Current dt:dt="r8">0</Current><DateUtc dt:dt="string">2016-06-20T21:35:18Z</DateUtc></FrequencyChange></FrequencyChanges></Clock>\n	Hungry_Donkey_bar_English_2-155-1	60.017	-122	1.0.0.18	1	-1476535658	Standard	2.0.10.353	2.0.10.353	06-20-2016	6/20/2016 9:35:19 PM	17:35:19	2.0.10.248	80	Bar50-50.bmp	47	2	?	0r_4g.bmp	0r_4g.bmp	0r_2g.bmp	0r_2g.bmp		0r_4g.bmp			TrialProc	TrialList	0	cvbn	-999999	16	313401	0	v	392	313793	246	-283	-37	-18	-42	25	-2	10	8	80	0	0	0	0	4	4	2	2	0	4
Hungry_Donkey_bar_English_2	155	1	<?xml version="1.0"?>\n<Clock xmlns:dt="urn:schemas-microsoft-com:datatypes"><Description dt:dt="string">E-Prime Primary Realtime Clock</Description><StartTime><Timestamp dt:dt="int">0</Timestamp><DateUtc dt:dt="string">2016-06-20T21:35:18Z</DateUtc></StartTime><FrequencyChanges><FrequencyChange><Frequency dt:dt="r8">3507685</Frequency><Timestamp dt:dt="r8">75832185512</Timestamp><Current dt:dt="r8">0</Current><DateUtc dt:dt="string">2016-06-20T21:35:18Z</DateUtc></FrequencyChange></FrequencyChanges></Clock>\n	Hungry_Donkey_bar_English_2-155-1	60.017	-122	1.0.0.18	1	-1476535658	Standard	2.0.10.353	2.0.10.353	06-20-2016	6/20/2016 9:35:19 PM	17:35:19	2.0.10.248	81	Bar50-50.bmp	47	3	?	0r_4g.bmp	0r_4g.bmp	0r_2g.bmp	0r_2g.bmp			0r_2g.bmp		TrialProc	TrialList	0	cvbn	-999999	16	315817	0	b	55	315872	248	-283	-35	-18	-42	27	-2	6	9	81	0	0	0	0	4	4	2	2	0	2
Hungry_Donkey_bar_English_2	155	1	<?xml version="1.0"?>\n<Clock xmlns:dt="urn:schemas-microsoft-com:datatypes"><Description dt:dt="string">E-Prime Primary Realtime Clock</Description><StartTime><Timestamp dt:dt="int">0</Timestamp><DateUtc dt:dt="string">2016-06-20T21:35:18Z</DateUtc></StartTime><FrequencyChanges><FrequencyChange><Frequency dt:dt="r8">3507685</Frequency><Timestamp dt:dt="r8">75832185512</Timestamp><Current dt:dt="r8">0</Current><DateUtc dt:dt="string">2016-06-20T21:35:18Z</DateUtc></FrequencyChange></FrequencyChanges></Clock>\n	Hungry_Donkey_bar_English_2-155-1	60.017	-122	1.0.0.18	1	-1476535658	Standard	2.0.10.353	2.0.10.353	06-20-2016	6/20/2016 9:35:19 PM	17:35:19	2.0.10.248	82	Bar50-50.bmp	47	3	?	0r_4g.bmp	0r_4g.bmp	0r_2g.bmp	0r_2g.bmp			0r_2g.bmp		TrialProc	TrialList	0	cvbn	-999999	16	317900	0	b	628	318528	250	-283	-33	-18	-42	29	-2	8	9	82	0	0	0	0	4	4	2	2	0	2
Hungry_Donkey_bar_English_2	155	1	<?xml version="1.0"?>\n<Clock xmlns:dt="urn:schemas-microsoft-com:datatypes"><Description dt:dt="string">E-Prime Primary Realtime Clock</Description><StartTime><Timestamp dt:dt="int">0</Timestamp><DateUtc dt:dt="string">2016-06-20T21:35:18Z</DateUtc></StartTime><FrequencyChanges><FrequencyChange><Frequency dt:dt="r8">3507685</Frequency><Timestamp dt:dt="r8">75832185512</Timestamp><Current dt:dt="r8">0</Current><DateUtc dt:dt="string">2016-06-20T21:35:18Z</DateUtc></FrequencyChange></FrequencyChanges></Clock>\n	Hungry_Donkey_bar_English_2-155-1	60.017	-122	1.0.0.18	1	-1476535658	Standard	2.0.10.353	2.0.10.353	06-20-2016	6/20/2016 9:35:19 PM	17:35:19	2.0.10.248	83	Bar50-50.bmp	47	2	?	0r_4g.bmp	0r_4g.bmp	0r_2g.bmp	0r_2g.bmp		0r_4g.bmp			TrialProc	TrialList	0	cvbn	-999999	16	320566	0	v	458	321024	254	-283	-29	-18	-38	29	-2	10	9	83	0	0	0	0	4	4	2	2	0	4
Hungry_Donkey_bar_English_2	155	1	<?xml version="1.0"?>\n<Clock xmlns:dt="urn:schemas-microsoft-com:datatypes"><Description dt:dt="string">E-Prime Primary Realtime Clock</Description><StartTime><Timestamp dt:dt="int">0</Timestamp><DateUtc dt:dt="string">2016-06-20T21:35:18Z</DateUtc></StartTime><FrequencyChanges><FrequencyChange><Frequency dt:dt="r8">3507685</Frequency><Timestamp dt:dt="r8">75832185512</Timestamp><Current dt:dt="r8">0</Current><DateUtc dt:dt="string">2016-06-20T21:35:18Z</DateUtc></FrequencyChange></FrequencyChanges></Clock>\n	Hungry_Donkey_bar_English_2-155-1	60.017	-122	1.0.0.18	1	-1476535658	Standard	2.0.10.353	2.0.10.353	06-20-2016	6/20/2016 9:35:19 PM	17:35:19	2.0.10.248	84	Bar50-50.bmp	48	2	?	0r_4g.bmp	0r_4g.bmp	0r_2g.bmp	0r_2g.bmp		0r_4g.bmp			TrialProc	TrialList	0	cvbn	-999999	16	323049	0	v	471	323520	258	-283	-25	-18	-34	29	-2	9	9	84	0	0	0	0	4	4	2	2	0	4
Hungry_Donkey_bar_English_2	155	1	<?xml version="1.0"?>\n<Clock xmlns:dt="urn:schemas-microsoft-com:datatypes"><Description dt:dt="string">E-Prime Primary Realtime Clock</Description><StartTime><Timestamp dt:dt="int">0</Timestamp><DateUtc dt:dt="string">2016-06-20T21:35:18Z</DateUtc></StartTime><FrequencyChanges><FrequencyChange><Frequency dt:dt="r8">3507685</Frequency><Timestamp dt:dt="r8">75832185512</Timestamp><Current dt:dt="r8">0</Current><DateUtc dt:dt="string">2016-06-20T21:35:18Z</DateUtc></FrequencyChange></FrequencyChanges></Clock>\n	Hungry_Donkey_bar_English_2-155-1	60.017	-122	1.0.0.18	1	-1476535658	Standard	2.0.10.353	2.0.10.353	06-20-2016	6/20/2016 9:35:19 PM	17:35:19	2.0.10.248	85	Bar50-50.bmp	47	1	?	10r_4g.bmp	0r_4g.bmp	2r_2g.bmp	0r_2g.bmp	10r_4g.bmp				TrialProc	TrialList	0	cvbn	-999999	16	325548	0	c	292	325840	262	-293	-31	-24	-34	29	-2	3	9	85	-10	0	-2	0	4	4	2	2	-10	4
Hungry_Donkey_bar_English_2	155	1	<?xml version="1.0"?>\n<Clock xmlns:dt="urn:schemas-microsoft-com:datatypes"><Description dt:dt="string">E-Prime Primary Realtime Clock</Description><StartTime><Timestamp dt:dt="int">0</Timestamp><DateUtc dt:dt="string">2016-06-20T21:35:18Z</DateUtc></StartTime><FrequencyChanges><FrequencyChange><Frequency dt:dt="r8">3507685</Frequency><Timestamp dt:dt="r8">75832185512</Timestamp><Current dt:dt="r8">0</Current><DateUtc dt:dt="string">2016-06-20T21:35:18Z</DateUtc></FrequencyChange></FrequencyChanges></Clock>\n	Hungry_Donkey_bar_English_2-155-1	60.017	-122	1.0.0.18	1	-1476535658	Standard	2.0.10.353	2.0.10.353	06-20-2016	6/20/2016 9:35:19 PM	17:35:19	2.0.10.248	86	Bar50-50.bmp	47	3	?	12r_4g.bmp	0r_4g.bmp	3r_2g.bmp	0r_2g.bmp			3r_2g.bmp		TrialProc	TrialList	0	cvbn	-999999	16	327864	0	b	56	327920	264	-296	-32	-24	-34	28	-2	5	9	86	-12	0	-3	0	4	4	2	2	-3	2
Hungry_Donkey_bar_English_2	155	1	<?xml version="1.0"?>\n<Clock xmlns:dt="urn:schemas-microsoft-com:datatypes"><Description dt:dt="string">E-Prime Primary Realtime Clock</Description><StartTime><Timestamp dt:dt="int">0</Timestamp><DateUtc dt:dt="string">2016-06-20T21:35:18Z</DateUtc></StartTime><FrequencyChanges><FrequencyChange><Frequency dt:dt="r8">3507685</Frequency><Timestamp dt:dt="r8">75832185512</Timestamp><Current dt:dt="r8">0</Current><DateUtc dt:dt="string">2016-06-20T21:35:18Z</DateUtc></FrequencyChange></FrequencyChanges></Clock>\n	Hungry_Donkey_bar_English_2-155-1	60.017	-122	1.0.0.18	1	-1476535658	Standard	2.0.10.353	2.0.10.353	06-20-2016	6/20/2016 9:35:19 PM	17:35:19	2.0.10.248	87	Bar50-50.bmp	47	4	?	10r_4g.bmp	0r_4g.bmp	2r_2g.bmp	0r_2g.bmp				0r_2g.bmp	TrialProc	TrialList	0	cvbn	-999999	16	329947	0	n	1461	331408	266	-296	-30	-24	-34	28	0	4	9	87	-10	0	-2	0	4	4	2	2	0	2
Hungry_Donkey_bar_English_2	155	1	<?xml version="1.0"?>\n<Clock xmlns:dt="urn:schemas-microsoft-com:datatypes"><Description dt:dt="string">E-Prime Primary Realtime Clock</Description><StartTime><Timestamp dt:dt="int">0</Timestamp><DateUtc dt:dt="string">2016-06-20T21:35:18Z</DateUtc></StartTime><FrequencyChanges><FrequencyChange><Frequency dt:dt="r8">3507685</Frequency><Timestamp dt:dt="r8">75832185512</Timestamp><Current dt:dt="r8">0</Current><DateUtc dt:dt="string">2016-06-20T21:35:18Z</DateUtc></FrequencyChange></FrequencyChanges></Clock>\n	Hungry_Donkey_bar_English_2-155-1	60.017	-122	1.0.0.18	1	-1476535658	Standard	2.0.10.353	2.0.10.353	06-20-2016	6/20/2016 9:35:19 PM	17:35:19	2.0.10.248	88	Bar50-50.bmp	44	2	?	8r_4g.bmp	50r_4g.bmp	1r_2g.bmp	10r_2g.bmp		50r_4g.bmp			TrialProc	TrialList	0	cvbn	-999999	16	333446	0	v	1753	335199	270	-346	-76	-24	-80	28	0	1	9	88	-8	-50	-1	-10	4	4	2	2	-50	4
Hungry_Donkey_bar_English_2	155	1	<?xml version="1.0"?>\n<Clock xmlns:dt="urn:schemas-microsoft-com:datatypes"><Description dt:dt="string">E-Prime Primary Realtime Clock</Description><StartTime><Timestamp dt:dt="int">0</Timestamp><DateUtc dt:dt="string">2016-06-20T21:35:18Z</DateUtc></StartTime><FrequencyChanges><FrequencyChange><Frequency dt:dt="r8">3507685</Frequency><Timestamp dt:dt="r8">75832185512</Timestamp><Current dt:dt="r8">0</Current><DateUtc dt:dt="string">2016-06-20T21:35:18Z</DateUtc></FrequencyChange></FrequencyChanges></Clock>\n	Hungry_Donkey_bar_English_2-155-1	60.017	-122	1.0.0.18	1	-1476535658	Standard	2.0.10.353	2.0.10.353	06-20-2016	6/20/2016 9:35:19 PM	17:35:19	2.0.10.248	89	Bar50-50.bmp	44	3	?	10r_4g.bmp	0r_4g.bmp	2r_2g.bmp	0r_2g.bmp			2r_2g.bmp		TrialProc	TrialList	0	cvbn	-999999	16	337228	0	b	931	338159	272	-348	-76	-24	-80	28	0	2	9	89	-10	0	-2	0	4	4	2	2	-2	2
Hungry_Donkey_bar_English_2	155	1	<?xml version="1.0"?>\n<Clock xmlns:dt="urn:schemas-microsoft-com:datatypes"><Description dt:dt="string">E-Prime Primary Realtime Clock</Description><StartTime><Timestamp dt:dt="int">0</Timestamp><DateUtc dt:dt="string">2016-06-20T21:35:18Z</DateUtc></StartTime><FrequencyChanges><FrequencyChange><Frequency dt:dt="r8">3507685</Frequency><Timestamp dt:dt="r8">75832185512</Timestamp><Current dt:dt="r8">0</Current><DateUtc dt:dt="string">2016-06-20T21:35:18Z</DateUtc></FrequencyChange></FrequencyChanges></Clock>\n	Hungry_Donkey_bar_English_2-155-1	60.017	-122	1.0.0.18	1	-1476535658	Standard	2.0.10.353	2.0.10.353	06-20-2016	6/20/2016 9:35:19 PM	17:35:19	2.0.10.248	90	Bar50-50.bmp	44	1	?	0r_4g.bmp	0r_4g.bmp	0r_2g.bmp	0r_2g.bmp	0r_4g.bmp				TrialProc	TrialList	0	cvbn	-999999	16	340194	0	c	941	341135	276	-348	-72	-20	-80	28	0	7	9	90	0	0	0	0	4	4	2	2	0	4
Hungry_Donkey_bar_English_2	155	1	<?xml version="1.0"?>\n<Clock xmlns:dt="urn:schemas-microsoft-com:datatypes"><Description dt:dt="string">E-Prime Primary Realtime Clock</Description><StartTime><Timestamp dt:dt="int">0</Timestamp><DateUtc dt:dt="string">2016-06-20T21:35:18Z</DateUtc></StartTime><FrequencyChanges><FrequencyChange><Frequency dt:dt="r8">3507685</Frequency><Timestamp dt:dt="r8">75832185512</Timestamp><Current dt:dt="r8">0</Current><DateUtc dt:dt="string">2016-06-20T21:35:18Z</DateUtc></FrequencyChange></FrequencyChanges></Clock>\n	Hungry_Donkey_bar_English_2-155-1	60.017	-122	1.0.0.18	1	-1476535658	Standard	2.0.10.353	2.0.10.353	06-20-2016	6/20/2016 9:35:19 PM	17:35:19	2.0.10.248	91	Bar50-50.bmp	45	2	?	0r_4g.bmp	0r_4g.bmp	0r_2g.bmp	0r_2g.bmp		0r_4g.bmp			TrialProc	TrialList	0	cvbn	-999999	17	343160	0	v	551	343711	280	-348	-68	-20	-76	28	0	7	10	91	0	0	0	0	4	4	2	2	0	4
Hungry_Donkey_bar_English_2	155	1	<?xml version="1.0"?>\n<Clock xmlns:dt="urn:schemas-microsoft-com:datatypes"><Description dt:dt="string">E-Prime Primary Realtime Clock</Description><StartTime><Timestamp dt:dt="int">0</Timestamp><DateUtc dt:dt="string">2016-06-20T21:35:18Z</DateUtc></StartTime><FrequencyChanges><FrequencyChange><Frequency dt:dt="r8">3507685</Frequency><Timestamp dt:dt="r8">75832185512</Timestamp><Current dt:dt="r8">0</Current><DateUtc dt:dt="string">2016-06-20T21:35:18Z</DateUtc></FrequencyChange></FrequencyChanges></Clock>\n	Hungry_Donkey_bar_English_2-155-1	60.017	-122	1.0.0.18	1	-1476535658	Standard	2.0.10.353	2.0.10.353	06-20-2016	6/20/2016 9:35:19 PM	17:35:19	2.0.10.248	92	Bar50-50.bmp	45	4	?	0r_4g.bmp	0r_4g.bmp	0r_2g.bmp	0r_2g.bmp				0r_2g.bmp	TrialProc	TrialList	0	cvbn	-999999	16	345742	0	n	1441	347183	282	-348	-66	-20	-76	28	2	9	10	92	0	0	0	0	4	4	2	2	0	2
Hungry_Donkey_bar_English_2	155	1	<?xml version="1.0"?>\n<Clock xmlns:dt="urn:schemas-microsoft-com:datatypes"><Description dt:dt="string">E-Prime Primary Realtime Clock</Description><StartTime><Timestamp dt:dt="int">0</Timestamp><DateUtc dt:dt="string">2016-06-20T21:35:18Z</DateUtc></StartTime><FrequencyChanges><FrequencyChange><Frequency dt:dt="r8">3507685</Frequency><Timestamp dt:dt="r8">75832185512</Timestamp><Current dt:dt="r8">0</Current><DateUtc dt:dt="string">2016-06-20T21:35:18Z</DateUtc></FrequencyChange></FrequencyChanges></Clock>\n	Hungry_Donkey_bar_English_2-155-1	60.017	-122	1.0.0.18	1	-1476535658	Standard	2.0.10.353	2.0.10.353	06-20-2016	6/20/2016 9:35:19 PM	17:35:19	2.0.10.248	93	Bar50-50.bmp	45	1	?	0r_4g.bmp	0r_4g.bmp	0r_2g.bmp	0r_2g.bmp	0r_4g.bmp				TrialProc	TrialList	0	cvbn	-999999	16	349208	0	c	1655	350863	286	-348	-62	-16	-76	28	2	8	10	93	0	0	0	0	4	4	2	2	0	4
Hungry_Donkey_bar_English_2	155	1	<?xml version="1.0"?>\n<Clock xmlns:dt="urn:schemas-microsoft-com:datatypes"><Description dt:dt="string">E-Prime Primary Realtime Clock</Description><StartTime><Timestamp dt:dt="int">0</Timestamp><DateUtc dt:dt="string">2016-06-20T21:35:18Z</DateUtc></StartTime><FrequencyChanges><FrequencyChange><Frequency dt:dt="r8">3507685</Frequency><Timestamp dt:dt="r8">75832185512</Timestamp><Current dt:dt="r8">0</Current><DateUtc dt:dt="string">2016-06-20T21:35:18Z</DateUtc></FrequencyChange></FrequencyChanges></Clock>\n	Hungry_Donkey_bar_English_2-155-1	60.017	-122	1.0.0.18	1	-1476535658	Standard	2.0.10.353	2.0.10.353	06-20-2016	6/20/2016 9:35:19 PM	17:35:19	2.0.10.248	94	Bar50-50.bmp	45	2	?	0r_4g.bmp	0r_4g.bmp	0r_2g.bmp	0r_2g.bmp		0r_4g.bmp			TrialProc	TrialList	0	cvbn	-999999	16	352890	0	v	661	353551	290	-348	-58	-16	-72	28	2	10	10	94	0	0	0	0	4	4	2	2	0	4
Hungry_Donkey_bar_English_2	155	1	<?xml version="1.0"?>\n<Clock xmlns:dt="urn:schemas-microsoft-com:datatypes"><Description dt:dt="string">E-Prime Primary Realtime Clock</Description><StartTime><Timestamp dt:dt="int">0</Timestamp><DateUtc dt:dt="string">2016-06-20T21:35:18Z</DateUtc></StartTime><FrequencyChanges><FrequencyChange><Frequency dt:dt="r8">3507685</Frequency><Timestamp dt:dt="r8">75832185512</Timestamp><Current dt:dt="r8">0</Current><DateUtc dt:dt="string">2016-06-20T21:35:18Z</DateUtc></FrequencyChange></FrequencyChanges></Clock>\n	Hungry_Donkey_bar_English_2-155-1	60.017	-122	1.0.0.18	1	-1476535658	Standard	2.0.10.353	2.0.10.353	06-20-2016	6/20/2016 9:35:19 PM	17:35:19	2.0.10.248	95	Bar50-50.bmp	46	1	?	0r_4g.bmp	0r_4g.bmp	0r_2g.bmp	0r_2g.bmp	0r_4g.bmp				TrialProc	TrialList	0	cvbn	-999999	16	355589	0	c	1385	356974	294	-348	-54	-12	-72	28	2	6	10	95	0	0	0	0	4	4	2	2	0	4
Hungry_Donkey_bar_English_2	155	1	<?xml version="1.0"?>\n<Clock xmlns:dt="urn:schemas-microsoft-com:datatypes"><Description dt:dt="string">E-Prime Primary Realtime Clock</Description><StartTime><Timestamp dt:dt="int">0</Timestamp><DateUtc dt:dt="string">2016-06-20T21:35:18Z</DateUtc></StartTime><FrequencyChanges><FrequencyChange><Frequency dt:dt="r8">3507685</Frequency><Timestamp dt:dt="r8">75832185512</Timestamp><Current dt:dt="r8">0</Current><DateUtc dt:dt="string">2016-06-20T21:35:18Z</DateUtc></FrequencyChange></FrequencyChanges></Clock>\n	Hungry_Donkey_bar_English_2-155-1	60.017	-122	1.0.0.18	1	-1476535658	Standard	2.0.10.353	2.0.10.353	06-20-2016	6/20/2016 9:35:19 PM	17:35:19	2.0.10.248	96	Bar50-50.bmp	46	3	?	10r_4g.bmp	0r_4g.bmp	2r_2g.bmp	0r_2g.bmp			2r_2g.bmp		TrialProc	TrialList	0	cvbn	-999999	16	359005	0	b	529	359534	296	-350	-54	-12	-72	28	2	2	10	96	-10	0	-2	0	4	4	2	2	-2	2
Hungry_Donkey_bar_English_2	155	1	<?xml version="1.0"?>\n<Clock xmlns:dt="urn:schemas-microsoft-com:datatypes"><Description dt:dt="string">E-Prime Primary Realtime Clock</Description><StartTime><Timestamp dt:dt="int">0</Timestamp><DateUtc dt:dt="string">2016-06-20T21:35:18Z</DateUtc></StartTime><FrequencyChanges><FrequencyChange><Frequency dt:dt="r8">3507685</Frequency><Timestamp dt:dt="r8">75832185512</Timestamp><Current dt:dt="r8">0</Current><DateUtc dt:dt="string">2016-06-20T21:35:18Z</DateUtc></FrequencyChange></FrequencyChanges></Clock>\n	Hungry_Donkey_bar_English_2-155-1	60.017	-122	1.0.0.18	1	-1476535658	Standard	2.0.10.353	2.0.10.353	06-20-2016	6/20/2016 9:35:19 PM	17:35:19	2.0.10.248	97	Bar50-50.bmp	46	4	?	12r_4g.bmp	0r_4g.bmp	3r_2g.bmp	0r_2g.bmp				0r_2g.bmp	TrialProc	TrialList	0	cvbn	-999999	16	361571	0	n	443	362014	298	-350	-52	-12	-72	28	4	5	10	97	-12	0	-3	0	4	4	2	2	0	2
Hungry_Donkey_bar_English_2	155	1	<?xml version="1.0"?>\n<Clock xmlns:dt="urn:schemas-microsoft-com:datatypes"><Description dt:dt="string">E-Prime Primary Realtime Clock</Description><StartTime><Timestamp dt:dt="int">0</Timestamp><DateUtc dt:dt="string">2016-06-20T21:35:18Z</DateUtc></StartTime><FrequencyChanges><FrequencyChange><Frequency dt:dt="r8">3507685</Frequency><Timestamp dt:dt="r8">75832185512</Timestamp><Current dt:dt="r8">0</Current><DateUtc dt:dt="string">2016-06-20T21:35:18Z</DateUtc></FrequencyChange></FrequencyChanges></Clock>\n	Hungry_Donkey_bar_English_2-155-1	60.017	-122	1.0.0.18	1	-1476535658	Standard	2.0.10.353	2.0.10.353	06-20-2016	6/20/2016 9:35:19 PM	17:35:19	2.0.10.248	98	Bar50-50.bmp	46	4	?	10r_4g.bmp	0r_4g.bmp	2r_2g.bmp	0r_2g.bmp				0r_2g.bmp	TrialProc	TrialList	0	cvbn	-999999	16	364037	0	n	457	364494	300	-350	-50	-12	-72	28	6	4	10	98	-10	0	-2	0	4	4	2	2	0	2
Hungry_Donkey_bar_English_2	155	1	<?xml version="1.0"?>\n<Clock xmlns:dt="urn:schemas-microsoft-com:datatypes"><Description dt:dt="string">E-Prime Primary Realtime Clock</Description><StartTime><Timestamp dt:dt="int">0</Timestamp><DateUtc dt:dt="string">2016-06-20T21:35:18Z</DateUtc></StartTime><FrequencyChanges><FrequencyChange><Frequency dt:dt="r8">3507685</Frequency><Timestamp dt:dt="r8">75832185512</Timestamp><Current dt:dt="r8">0</Current><DateUtc dt:dt="string">2016-06-20T21:35:18Z</DateUtc></FrequencyChange></FrequencyChanges></Clock>\n	Hungry_Donkey_bar_English_2-155-1	60.017	-122	1.0.0.18	1	-1476535658	Standard	2.0.10.353	2.0.10.353	06-20-2016	6/20/2016 9:35:19 PM	17:35:19	2.0.10.248	99	Bar50-50.bmp	46	1	?	10r_4g.bmp	0r_4g.bmp	2r_2g.bmp	0r_2g.bmp	10r_4g.bmp				TrialProc	TrialList	0	cvbn	-999999	16	366519	0	c	551	367070	304	-360	-56	-18	-72	28	6	3	10	99	-10	0	-2	0	4	4	2	2	-10	4
Hungry_Donkey_bar_English_2	155	1	<?xml version="1.0"?>\n<Clock xmlns:dt="urn:schemas-microsoft-com:datatypes"><Description dt:dt="string">E-Prime Primary Realtime Clock</Description><StartTime><Timestamp dt:dt="int">0</Timestamp><DateUtc dt:dt="string">2016-06-20T21:35:18Z</DateUtc></StartTime><FrequencyChanges><FrequencyChange><Frequency dt:dt="r8">3507685</Frequency><Timestamp dt:dt="r8">75832185512</Timestamp><Current dt:dt="r8">0</Current><DateUtc dt:dt="string">2016-06-20T21:35:18Z</DateUtc></FrequencyChange></FrequencyChanges></Clock>\n	Hungry_Donkey_bar_English_2-155-1	60.017	-122	1.0.0.18	1	-1476535658	Standard	2.0.10.353	2.0.10.353	06-20-2016	6/20/2016 9:35:19 PM	17:35:19	2.0.10.248	100	Bar50-50.bmp	45	4	?	8r_4g.bmp	50r_4g.bmp	1r_2g.bmp	10r_2g.bmp				10r_2g.bmp	TrialProc	TrialList	0	cvbn	-999999	16	369102	0	n	6863	375965	306	-370	-64	-18	-72	28	-2	1	10	100	-8	-50	-1	-10	4	4	2	2	-10	2
Hungry_Donkey_bar_English_2	155	1	<?xml version="1.0"?>\n<Clock xmlns:dt="urn:schemas-microsoft-com:datatypes"><Description dt:dt="string">E-Prime Primary Realtime Clock</Description><StartTime><Timestamp dt:dt="int">0</Timestamp><DateUtc dt:dt="string">2016-06-20T21:35:18Z</DateUtc></StartTime><FrequencyChanges><FrequencyChange><Frequency dt:dt="r8">3507685</Frequency><Timestamp dt:dt="r8">75832185512</Timestamp><Current dt:dt="r8">0</Current><DateUtc dt:dt="string">2016-06-20T21:35:18Z</DateUtc></FrequencyChange></FrequencyChanges></Clock>\n	Hungry_Donkey_bar_English_2-155-1	60.017	-122	1.0.0.18	1	-1476535658	Standard	2.0.10.353	2.0.10.353	06-20-2016	6/20/2016 9:35:19 PM	17:35:19	2.0.10.248	101	Bar50-50.bmp	45	3	?	0r_4g.bmp	0r_4g.bmp	0r_2g.bmp	0r_2g.bmp			0r_2g.bmp		TrialProc	TrialList	0	cvbn	-999999	16	377999	0	b	1134	379133	308	-370	-62	-18	-72	30	-2	6	11	101	0	0	0	0	4	4	2	2	0	2
Hungry_Donkey_bar_English_2	155	1	<?xml version="1.0"?>\n<Clock xmlns:dt="urn:schemas-microsoft-com:datatypes"><Description dt:dt="string">E-Prime Primary Realtime Clock</Description><StartTime><Timestamp dt:dt="int">0</Timestamp><DateUtc dt:dt="string">2016-06-20T21:35:18Z</DateUtc></StartTime><FrequencyChanges><FrequencyChange><Frequency dt:dt="r8">3507685</Frequency><Timestamp dt:dt="r8">75832185512</Timestamp><Current dt:dt="r8">0</Current><DateUtc dt:dt="string">2016-06-20T21:35:18Z</DateUtc></FrequencyChange></FrequencyChanges></Clock>\n	Hungry_Donkey_bar_English_2-155-1	60.017	-122	1.0.0.18	1	-1476535658	Standard	2.0.10.353	2.0.10.353	06-20-2016	6/20/2016 9:35:19 PM	17:35:19	2.0.10.248	102	Bar50-50.bmp	46	2	?	0r_4g.bmp	0r_4g.bmp	0r_2g.bmp	0r_2g.bmp		0r_4g.bmp			TrialProc	TrialList	0	cvbn	-999999	16	381165	0	v	864	382029	312	-370	-58	-18	-68	30	-2	8	11	102	0	0	0	0	4	4	2	2	0	4
Hungry_Donkey_bar_English_2	155	1	<?xml version="1.0"?>\n<Clock xmlns:dt="urn:schemas-microsoft-com:datatypes"><Description dt:dt="string">E-Prime Primary Realtime Clock</Description><StartTime><Timestamp dt:dt="int">0</Timestamp><DateUtc dt:dt="string">2016-06-20T21:35:18Z</DateUtc></StartTime><FrequencyChanges><FrequencyChange><Frequency dt:dt="r8">3507685</Frequency><Timestamp dt:dt="r8">75832185512</Timestamp><Current dt:dt="r8">0</Current><DateUtc dt:dt="string">2016-06-20T21:35:18Z</DateUtc></FrequencyChange></FrequencyChanges></Clock>\n	Hungry_Donkey_bar_English_2-155-1	60.017	-122	1.0.0.18	1	-1476535658	Standard	2.0.10.353	2.0.10.353	06-20-2016	6/20/2016 9:35:19 PM	17:35:19	2.0.10.248	103	Bar50-50.bmp	46	3	?	10r_4g.bmp	0r_4g.bmp	2r_2g.bmp	0r_2g.bmp			2r_2g.bmp		TrialProc	TrialList	0	cvbn	-999999	16	384064	0	b	669	384733	314	-372	-58	-18	-68	30	-2	4	11	103	-10	0	-2	0	4	4	2	2	-2	2
Hungry_Donkey_bar_English_2	155	1	<?xml version="1.0"?>\n<Clock xmlns:dt="urn:schemas-microsoft-com:datatypes"><Description dt:dt="string">E-Prime Primary Realtime Clock</Description><StartTime><Timestamp dt:dt="int">0</Timestamp><DateUtc dt:dt="string">2016-06-20T21:35:18Z</DateUtc></StartTime><FrequencyChanges><FrequencyChange><Frequency dt:dt="r8">3507685</Frequency><Timestamp dt:dt="r8">75832185512</Timestamp><Current dt:dt="r8">0</Current><DateUtc dt:dt="string">2016-06-20T21:35:18Z</DateUtc></FrequencyChange></FrequencyChanges></Clock>\n	Hungry_Donkey_bar_English_2-155-1	60.017	-122	1.0.0.18	1	-1476535658	Standard	2.0.10.353	2.0.10.353	06-20-2016	6/20/2016 9:35:19 PM	17:35:19	2.0.10.248	104	Bar50-50.bmp	46	4	?	10r_4g.bmp	0r_4g.bmp	2r_2g.bmp	0r_2g.bmp				0r_2g.bmp	TrialProc	TrialList	0	cvbn	-999999	16	386764	0	n	513	387277	316	-372	-56	-18	-68	30	0	3	11	104	-10	0	-2	0	4	4	2	2	0	2
Hungry_Donkey_bar_English_2	155	1	<?xml version="1.0"?>\n<Clock xmlns:dt="urn:schemas-microsoft-com:datatypes"><Description dt:dt="string">E-Prime Primary Realtime Clock</Description><StartTime><Timestamp dt:dt="int">0</Timestamp><DateUtc dt:dt="string">2016-06-20T21:35:18Z</DateUtc></StartTime><FrequencyChanges><FrequencyChange><Frequency dt:dt="r8">3507685</Frequency><Timestamp dt:dt="r8">75832185512</Timestamp><Current dt:dt="r8">0</Current><DateUtc dt:dt="string">2016-06-20T21:35:18Z</DateUtc></FrequencyChange></FrequencyChanges></Clock>\n	Hungry_Donkey_bar_English_2-155-1	60.017	-122	1.0.0.18	1	-1476535658	Standard	2.0.10.353	2.0.10.353	06-20-2016	6/20/2016 9:35:19 PM	17:35:19	2.0.10.248	105	Bar50-50.bmp	46	1	?	10r_4g.bmp	0r_4g.bmp	2r_2g.bmp	0r_2g.bmp	10r_4g.bmp				TrialProc	TrialList	0	cvbn	-999999	16	389313	0	c	268	389581	320	-382	-62	-24	-68	30	0	2	11	105	-10	0	-2	0	4	4	2	2	-10	4
Hungry_Donkey_bar_English_2	155	1	<?xml version="1.0"?>\n<Clock xmlns:dt="urn:schemas-microsoft-com:datatypes"><Description dt:dt="string">E-Prime Primary Realtime Clock</Description><StartTime><Timestamp dt:dt="int">0</Timestamp><DateUtc dt:dt="string">2016-06-20T21:35:18Z</DateUtc></StartTime><FrequencyChanges><FrequencyChange><Frequency dt:dt="r8">3507685</Frequency><Timestamp dt:dt="r8">75832185512</Timestamp><Current dt:dt="r8">0</Current><DateUtc dt:dt="string">2016-06-20T21:35:18Z</DateUtc></FrequencyChange></FrequencyChanges></Clock>\n	Hungry_Donkey_bar_English_2-155-1	60.017	-122	1.0.0.18	1	-1476535658	Standard	2.0.10.353	2.0.10.353	06-20-2016	6/20/2016 9:35:19 PM	17:35:19	2.0.10.248	106	Bar50-50.bmp	45	4	?	8r_4g.bmp	50r_4g.bmp	1r_2g.bmp	10r_2g.bmp				10r_2g.bmp	TrialProc	TrialList	0	cvbn	-999999	16	391612	0	n	465	392077	322	-392	-70	-24	-68	30	-8	1	11	106	-8	-50	-1	-10	4	4	2	2	-10	2
Hungry_Donkey_bar_English_2	155	1	<?xml version="1.0"?>\n<Clock xmlns:dt="urn:schemas-microsoft-com:datatypes"><Description dt:dt="string">E-Prime Primary Realtime Clock</Description><StartTime><Timestamp dt:dt="int">0</Timestamp><DateUtc dt:dt="string">2016-06-20T21:35:18Z</DateUtc></StartTime><FrequencyChanges><FrequencyChange><Frequency dt:dt="r8">3507685</Frequency><Timestamp dt:dt="r8">75832185512</Timestamp><Current dt:dt="r8">0</Current><DateUtc dt:dt="string">2016-06-20T21:35:18Z</DateUtc></FrequencyChange></FrequencyChanges></Clock>\n	Hungry_Donkey_bar_English_2-155-1	60.017	-122	1.0.0.18	1	-1476535658	Standard	2.0.10.353	2.0.10.353	06-20-2016	6/20/2016 9:35:19 PM	17:35:19	2.0.10.248	107	Bar50-50.bmp	45	4	?	0r_4g.bmp	0r_4g.bmp	0r_2g.bmp	0r_2g.bmp				0r_2g.bmp	TrialProc	TrialList	0	cvbn	-999999	16	394111	0	n	2765	396876	324	-392	-68	-24	-68	30	-6	10	11	107	0	0	0	0	4	4	2	2	0	2
Hungry_Donkey_bar_English_2	155	1	<?xml version="1.0"?>\n<Clock xmlns:dt="urn:schemas-microsoft-com:datatypes"><Description dt:dt="string">E-Prime Primary Realtime Clock</Description><StartTime><Timestamp dt:dt="int">0</Timestamp><DateUtc dt:dt="string">2016-06-20T21:35:18Z</DateUtc></StartTime><FrequencyChanges><FrequencyChange><Frequency dt:dt="r8">3507685</Frequency><Timestamp dt:dt="r8">75832185512</Timestamp><Current dt:dt="r8">0</Current><DateUtc dt:dt="string">2016-06-20T21:35:18Z</DateUtc></FrequencyChange></FrequencyChanges></Clock>\n	Hungry_Donkey_bar_English_2-155-1	60.017	-122	1.0.0.18	1	-1476535658	Standard	2.0.10.353	2.0.10.353	06-20-2016	6/20/2016 9:35:19 PM	17:35:19	2.0.10.248	108	Bar50-50.bmp	45	3	?	0r_4g.bmp	0r_4g.bmp	0r_2g.bmp	0r_2g.bmp			0r_2g.bmp		TrialProc	TrialList	0	cvbn	-999999	16	398910	0	b	286	399196	326	-392	-66	-24	-68	32	-6	7	11	108	0	0	0	0	4	4	2	2	0	2
Hungry_Donkey_bar_English_2	155	1	<?xml version="1.0"?>\n<Clock xmlns:dt="urn:schemas-microsoft-com:datatypes"><Description dt:dt="string">E-Prime Primary Realtime Clock</Description><StartTime><Timestamp dt:dt="int">0</Timestamp><DateUtc dt:dt="string">2016-06-20T21:35:18Z</DateUtc></StartTime><FrequencyChanges><FrequencyChange><Frequency dt:dt="r8">3507685</Frequency><Timestamp dt:dt="r8">75832185512</Timestamp><Current dt:dt="r8">0</Current><DateUtc dt:dt="string">2016-06-20T21:35:18Z</DateUtc></FrequencyChange></FrequencyChanges></Clock>\n	Hungry_Donkey_bar_English_2-155-1	60.017	-122	1.0.0.18	1	-1476535658	Standard	2.0.10.353	2.0.10.353	06-20-2016	6/20/2016 9:35:19 PM	17:35:19	2.0.10.248	109	Bar50-50.bmp	46	2	?	0r_4g.bmp	0r_4g.bmp	0r_2g.bmp	0r_2g.bmp		0r_4g.bmp			TrialProc	TrialList	0	cvbn	-999999	16	401226	0	v	2930	404156	330	-392	-62	-24	-64	32	-6	9	11	109	0	0	0	0	4	4	2	2	0	4
Hungry_Donkey_bar_English_2	155	1	<?xml version="1.0"?>\n<Clock xmlns:dt="urn:schemas-microsoft-com:datatypes"><Description dt:dt="string">E-Prime Primary Realtime Clock</Description><StartTime><Timestamp dt:dt="int">0</Timestamp><DateUtc dt:dt="string">2016-06-20T21:35:18Z</DateUtc></StartTime><FrequencyChanges><FrequencyChange><Frequency dt:dt="r8">3507685</Frequency><Timestamp dt:dt="r8">75832185512</Timestamp><Current dt:dt="r8">0</Current><DateUtc dt:dt="string">2016-06-20T21:35:18Z</DateUtc></FrequencyChange></FrequencyChanges></Clock>\n	Hungry_Donkey_bar_English_2-155-1	60.017	-122	1.0.0.18	1	-1476535658	Standard	2.0.10.353	2.0.10.353	06-20-2016	6/20/2016 9:35:19 PM	17:35:19	2.0.10.248	110	Bar50-50.bmp	45	1	?	12r_4g.bmp	0r_4g.bmp	3r_2g.bmp	0r_2g.bmp	12r_4g.bmp				TrialProc	TrialList	0	cvbn	-999999	16	406191	0	c	893	407084	334	-404	-70	-32	-64	32	-6	5	11	110	-12	0	-3	0	4	4	2	2	-12	4
Hungry_Donkey_bar_English_2	155	1	<?xml version="1.0"?>\n<Clock xmlns:dt="urn:schemas-microsoft-com:datatypes"><Description dt:dt="string">E-Prime Primary Realtime Clock</Description><StartTime><Timestamp dt:dt="int">0</Timestamp><DateUtc dt:dt="string">2016-06-20T21:35:18Z</DateUtc></StartTime><FrequencyChanges><FrequencyChange><Frequency dt:dt="r8">3507685</Frequency><Timestamp dt:dt="r8">75832185512</Timestamp><Current dt:dt="r8">0</Current><DateUtc dt:dt="string">2016-06-20T21:35:18Z</DateUtc></FrequencyChange></FrequencyChanges></Clock>\n	Hungry_Donkey_bar_English_2-155-1	60.017	-122	1.0.0.18	1	-1476535658	Standard	2.0.10.353	2.0.10.353	06-20-2016	6/20/2016 9:35:19 PM	17:35:19	2.0.10.248	111	Bar50-50.bmp	45	4	?	0r_4g.bmp	0r_4g.bmp	0r_2g.bmp	0r_2g.bmp				0r_2g.bmp	TrialProc	TrialList	0	cvbn	-999999	15	409107	0	n	473	409580	336	-404	-68	-32	-64	32	-4	6	12	111	0	0	0	0	4	4	2	2	0	2
