ExperimentName	Subject	Session	Clock.Information	DataFile.Basename	Display.RefreshRate	Eindtotaal[Session]	ExperimentVersion	Group	RandomSeed	RuntimeCapabilities	RuntimeVersion	RuntimeVersionExpected	SessionDate	SessionStartDateTimeUtc	SessionTime	StudioVersion	Block	BarImage	BarTotalWinst	DoorChoice	Eindtotaal[Block]	FBDoor1	FBDoor2	FBDoor3	FBDoor4	Image1	Image2	Image3	Image4	Procedure	Running	spel.ACC	spel.CRESP	spel.DurationError	spel.OnsetDelay	spel.OnsetTime	spel.OnsetToOnsetTime	spel.RESP	spel.RT	spel.RTTime	TotalGain	TotalLose	Totalsum	TotalsumD1	TotalsumD2	TotalsumD3	TotalsumD4	TrialList	TrialList.Cycle	TrialList.Sample	varV1	varV2	varV3	varV4	varW1	varW2	varW3	varW4	Verliesbedrag	Winstbedrag
Hungry_Donkey_bar_English_2	103	1	<?xml version="1.0"?>\n<Clock xmlns:dt="urn:schemas-microsoft-com:datatypes"><Description dt:dt="string">E-Prime Primary Realtime Clock</Description><StartTime><Timestamp dt:dt="int">0</Timestamp><DateUtc dt:dt="string">2015-05-20T20:38:59Z</DateUtc></StartTime><FrequencyChanges><FrequencyChange><Frequency dt:dt="r8">2597675</Frequency><Timestamp dt:dt="r8">2897258735</Timestamp><Current dt:dt="r8">0</Current><DateUtc dt:dt="string">2015-05-20T20:38:59Z</DateUtc></FrequencyChange></FrequencyChanges></Clock>\n	Hungry_Donkey_bar_English_2-103-1	59.973	26	1.0.0.18	1	-1397191310	Standard	2.0.10.353	2.0.10.353	05-20-2015	5/20/2015 8:38:59 PM	16:38:59	2.0.10.248	1	Bar100-0.bmp	100	2	?	10r_4g.bmp	0r_4g.bmp	2r_2g.bmp	0r_2g.bmp		0r_4g.bmp			TrialProc	TrialList	0	cvbn	-999999	66	86372	0	v	2174	88546	4	0	4	0	4	0	0	3	1	1	-10	0	-2	0	4	4	2	2	0	4
Hungry_Donkey_bar_English_2	103	1	<?xml version="1.0"?>\n<Clock xmlns:dt="urn:schemas-microsoft-com:datatypes"><Description dt:dt="string">E-Prime Primary Realtime Clock</Description><StartTime><Timestamp dt:dt="int">0</Timestamp><DateUtc dt:dt="string">2015-05-20T20:38:59Z</DateUtc></StartTime><FrequencyChanges><FrequencyChange><Frequency dt:dt="r8">2597675</Frequency><Timestamp dt:dt="r8">2897258735</Timestamp><Current dt:dt="r8">0</Current><DateUtc dt:dt="string">2015-05-20T20:38:59Z</DateUtc></FrequencyChange></FrequencyChanges></Clock>\n	Hungry_Donkey_bar_English_2-103-1	59.973	26	1.0.0.18	1	-1397191310	Standard	2.0.10.353	2.0.10.353	05-20-2015	5/20/2015 8:38:59 PM	16:38:59	2.0.10.248	2	Bar37-63.bmp	38	4	?	8r_4g.bmp	50r_4g.bmp	1r_2g.bmp	10r_2g.bmp				10r_2g.bmp	TrialProc	TrialList	0	cvbn	-999999	18	90624	0	n	3426	94050	6	-10	-4	0	4	0	-8	1	1	2	-8	-50	-1	-10	4	4	2	2	-10	2
Hungry_Donkey_bar_English_2	103	1	<?xml version="1.0"?>\n<Clock xmlns:dt="urn:schemas-microsoft-com:datatypes"><Description dt:dt="string">E-Prime Primary Realtime Clock</Description><StartTime><Timestamp dt:dt="int">0</Timestamp><DateUtc dt:dt="string">2015-05-20T20:38:59Z</DateUtc></StartTime><FrequencyChanges><FrequencyChange><Frequency dt:dt="r8">2597675</Frequency><Timestamp dt:dt="r8">2897258735</Timestamp><Current dt:dt="r8">0</Current><DateUtc dt:dt="string">2015-05-20T20:38:59Z</DateUtc></FrequencyChange></FrequencyChanges></Clock>\n	Hungry_Donkey_bar_English_2-103-1	59.973	26	1.0.0.18	1	-1397191310	Standard	2.0.10.353	2.0.10.353	05-20-2015	5/20/2015 8:38:59 PM	16:38:59	2.0.10.248	3	Bar37-63.bmp	33	1	?	10r_4g.bmp	0r_4g.bmp	2r_2g.bmp	0r_2g.bmp	10r_4g.bmp				TrialProc	TrialList	0	cvbn	-999999	17	96126	0	c	6324	102450	10	-20	-10	-6	4	0	-8	4	1	3	-10	0	-2	0	4	4	2	2	-10	4
Hungry_Donkey_bar_English_2	103	1	<?xml version="1.0"?>\n<Clock xmlns:dt="urn:schemas-microsoft-com:datatypes"><Description dt:dt="string">E-Prime Primary Realtime Clock</Description><StartTime><Timestamp dt:dt="int">0</Timestamp><DateUtc dt:dt="string">2015-05-20T20:38:59Z</DateUtc></StartTime><FrequencyChanges><FrequencyChange><Frequency dt:dt="r8">2597675</Frequency><Timestamp dt:dt="r8">2897258735</Timestamp><Current dt:dt="r8">0</Current><DateUtc dt:dt="string">2015-05-20T20:38:59Z</DateUtc></FrequencyChange></FrequencyChanges></Clock>\n	Hungry_Donkey_bar_English_2-103-1	59.973	26	1.0.0.18	1	-1397191310	Standard	2.0.10.353	2.0.10.353	05-20-2015	5/20/2015 8:38:59 PM	16:38:59	2.0.10.248	4	Bar37-63.bmp	41	2	?	0r_4g.bmp	0r_4g.bmp	0r_2g.bmp	0r_2g.bmp		0r_4g.bmp			TrialProc	TrialList	0	cvbn	-999999	17	104513	0	v	1120	105633	14	-20	-6	-6	8	0	-8	6	1	4	0	0	0	0	4	4	2	2	0	4
Hungry_Donkey_bar_English_2	103	1	<?xml version="1.0"?>\n<Clock xmlns:dt="urn:schemas-microsoft-com:datatypes"><Description dt:dt="string">E-Prime Primary Realtime Clock</Description><StartTime><Timestamp dt:dt="int">0</Timestamp><DateUtc dt:dt="string">2015-05-20T20:38:59Z</DateUtc></StartTime><FrequencyChanges><FrequencyChange><Frequency dt:dt="r8">2597675</Frequency><Timestamp dt:dt="r8">2897258735</Timestamp><Current dt:dt="r8">0</Current><DateUtc dt:dt="string">2015-05-20T20:38:59Z</DateUtc></FrequencyChange></FrequencyChanges></Clock>\n	Hungry_Donkey_bar_English_2-103-1	59.973	26	1.0.0.18	1	-1397191310	Standard	2.0.10.353	2.0.10.353	05-20-2015	5/20/2015 8:38:59 PM	16:38:59	2.0.10.248	5	Bar37-63.bmp	42	3	?	10r_4g.bmp	0r_4g.bmp	2r_2g.bmp	0r_2g.bmp			2r_2g.bmp		TrialProc	TrialList	0	cvbn	-999999	18	107665	0	b	2848	110513	16	-22	-6	-6	8	0	-8	2	1	5	-10	0	-2	0	4	4	2	2	-2	2
Hungry_Donkey_bar_English_2	103	1	<?xml version="1.0"?>\n<Clock xmlns:dt="urn:schemas-microsoft-com:datatypes"><Description dt:dt="string">E-Prime Primary Realtime Clock</Description><StartTime><Timestamp dt:dt="int">0</Timestamp><DateUtc dt:dt="string">2015-05-20T20:38:59Z</DateUtc></StartTime><FrequencyChanges><FrequencyChange><Frequency dt:dt="r8">2597675</Frequency><Timestamp dt:dt="r8">2897258735</Timestamp><Current dt:dt="r8">0</Current><DateUtc dt:dt="string">2015-05-20T20:38:59Z</DateUtc></FrequencyChange></FrequencyChanges></Clock>\n	Hungry_Donkey_bar_English_2-103-1	59.973	26	1.0.0.18	1	-1397191310	Standard	2.0.10.353	2.0.10.353	05-20-2015	5/20/2015 8:38:59 PM	16:38:59	2.0.10.248	6	Bar50-50.bmp	45	4	?	0r_4g.bmp	0r_4g.bmp	0r_2g.bmp	0r_2g.bmp				0r_2g.bmp	TrialProc	TrialList	0	cvbn	-999999	17	112567	0	n	3050	115617	18	-22	-4	-6	8	0	-6	9	1	6	0	0	0	0	4	4	2	2	0	2
Hungry_Donkey_bar_English_2	103	1	<?xml version="1.0"?>\n<Clock xmlns:dt="urn:schemas-microsoft-com:datatypes"><Description dt:dt="string">E-Prime Primary Realtime Clock</Description><StartTime><Timestamp dt:dt="int">0</Timestamp><DateUtc dt:dt="string">2015-05-20T20:38:59Z</DateUtc></StartTime><FrequencyChanges><FrequencyChange><Frequency dt:dt="r8">2597675</Frequency><Timestamp dt:dt="r8">2897258735</Timestamp><Current dt:dt="r8">0</Current><DateUtc dt:dt="string">2015-05-20T20:38:59Z</DateUtc></FrequencyChange></FrequencyChanges></Clock>\n	Hungry_Donkey_bar_English_2-103-1	59.973	26	1.0.0.18	1	-1397191310	Standard	2.0.10.353	2.0.10.353	05-20-2015	5/20/2015 8:38:59 PM	16:38:59	2.0.10.248	7	Bar50-50.bmp	48	4	?	12r_4g.bmp	0r_4g.bmp	3r_2g.bmp	0r_2g.bmp				0r_2g.bmp	TrialProc	TrialList	0	cvbn	-999999	18	117686	0	n	971	118657	20	-22	-2	-6	8	0	-4	5	1	7	-12	0	-3	0	4	4	2	2	0	2
Hungry_Donkey_bar_English_2	103	1	<?xml version="1.0"?>\n<Clock xmlns:dt="urn:schemas-microsoft-com:datatypes"><Description dt:dt="string">E-Prime Primary Realtime Clock</Description><StartTime><Timestamp dt:dt="int">0</Timestamp><DateUtc dt:dt="string">2015-05-20T20:38:59Z</DateUtc></StartTime><FrequencyChanges><FrequencyChange><Frequency dt:dt="r8">2597675</Frequency><Timestamp dt:dt="r8">2897258735</Timestamp><Current dt:dt="r8">0</Current><DateUtc dt:dt="string">2015-05-20T20:38:59Z</DateUtc></FrequencyChange></FrequencyChanges></Clock>\n	Hungry_Donkey_bar_English_2-103-1	59.973	26	1.0.0.18	1	-1397191310	Standard	2.0.10.353	2.0.10.353	05-20-2015	5/20/2015 8:38:59 PM	16:38:59	2.0.10.248	8	Bar50-50.bmp	50	4	?	0r_4g.bmp	0r_4g.bmp	0r_2g.bmp	0r_2g.bmp				0r_2g.bmp	TrialProc	TrialList	0	cvbn	-999999	17	120687	0	n	514	121201	22	-22	0	-6	8	0	-2	7	1	8	0	0	0	0	4	4	2	2	0	2
Hungry_Donkey_bar_English_2	103	1	<?xml version="1.0"?>\n<Clock xmlns:dt="urn:schemas-microsoft-com:datatypes"><Description dt:dt="string">E-Prime Primary Realtime Clock</Description><StartTime><Timestamp dt:dt="int">0</Timestamp><DateUtc dt:dt="string">2015-05-20T20:38:59Z</DateUtc></StartTime><FrequencyChanges><FrequencyChange><Frequency dt:dt="r8">2597675</Frequency><Timestamp dt:dt="r8">2897258735</Timestamp><Current dt:dt="r8">0</Current><DateUtc dt:dt="string">2015-05-20T20:38:59Z</DateUtc></FrequencyChange></FrequencyChanges></Clock>\n	Hungry_Donkey_bar_English_2-103-1	59.973	26	1.0.0.18	1	-1397191310	Standard	2.0.10.353	2.0.10.353	05-20-2015	5/20/2015 8:38:59 PM	16:38:59	2.0.10.248	9	Bar50-50.bmp	52	4	?	0r_4g.bmp	0r_4g.bmp	0r_2g.bmp	0r_2g.bmp				0r_2g.bmp	TrialProc	TrialList	0	cvbn	-999999	17	123238	0	n	445	123683	24	-22	2	-6	8	0	0	8	1	9	0	0	0	0	4	4	2	2	0	2
Hungry_Donkey_bar_English_2	103	1	<?xml version="1.0"?>\n<Clock xmlns:dt="urn:schemas-microsoft-com:datatypes"><Description dt:dt="string">E-Prime Primary Realtime Clock</Description><StartTime><Timestamp dt:dt="int">0</Timestamp><DateUtc dt:dt="string">2015-05-20T20:38:59Z</DateUtc></StartTime><FrequencyChanges><FrequencyChange><Frequency dt:dt="r8">2597675</Frequency><Timestamp dt:dt="r8">2897258735</Timestamp><Current dt:dt="r8">0</Current><DateUtc dt:dt="string">2015-05-20T20:38:59Z</DateUtc></FrequencyChange></FrequencyChanges></Clock>\n	Hungry_Donkey_bar_English_2-103-1	59.973	26	1.0.0.18	1	-1397191310	Standard	2.0.10.353	2.0.10.353	05-20-2015	5/20/2015 8:38:59 PM	16:38:59	2.0.10.248	10	Bar50-50.bmp	56	2	?	0r_4g.bmp	0r_4g.bmp	0r_2g.bmp	0r_2g.bmp		0r_4g.bmp			TrialProc	TrialList	0	cvbn	-999999	18	125723	0	v	1574	127297	28	-22	6	-6	12	0	0	10	1	10	0	0	0	0	4	4	2	2	0	4
Hungry_Donkey_bar_English_2	103	1	<?xml version="1.0"?>\n<Clock xmlns:dt="urn:schemas-microsoft-com:datatypes"><Description dt:dt="string">E-Prime Primary Realtime Clock</Description><StartTime><Timestamp dt:dt="int">0</Timestamp><DateUtc dt:dt="string">2015-05-20T20:38:59Z</DateUtc></StartTime><FrequencyChanges><FrequencyChange><Frequency dt:dt="r8">2597675</Frequency><Timestamp dt:dt="r8">2897258735</Timestamp><Current dt:dt="r8">0</Current><DateUtc dt:dt="string">2015-05-20T20:38:59Z</DateUtc></FrequencyChange></FrequencyChanges></Clock>\n	Hungry_Donkey_bar_English_2-103-1	59.973	26	1.0.0.18	1	-1397191310	Standard	2.0.10.353	2.0.10.353	05-20-2015	5/20/2015 8:38:59 PM	16:38:59	2.0.10.248	11	Bar63-37.bmp	59	2	?	0r_4g.bmp	0r_4g.bmp	0r_2g.bmp	0r_2g.bmp		0r_4g.bmp			TrialProc	TrialList	0	cvbn	-999999	17	129341	0	v	420	129761	32	-22	10	-6	16	0	0	7	2	11	0	0	0	0	4	4	2	2	0	4
Hungry_Donkey_bar_English_2	103	1	<?xml version="1.0"?>\n<Clock xmlns:dt="urn:schemas-microsoft-com:datatypes"><Description dt:dt="string">E-Prime Primary Realtime Clock</Description><StartTime><Timestamp dt:dt="int">0</Timestamp><DateUtc dt:dt="string">2015-05-20T20:38:59Z</DateUtc></StartTime><FrequencyChanges><FrequencyChange><Frequency dt:dt="r8">2597675</Frequency><Timestamp dt:dt="r8">2897258735</Timestamp><Current dt:dt="r8">0</Current><DateUtc dt:dt="string">2015-05-20T20:38:59Z</DateUtc></FrequencyChange></FrequencyChanges></Clock>\n	Hungry_Donkey_bar_English_2-103-1	59.973	26	1.0.0.18	1	-1397191310	Standard	2.0.10.353	2.0.10.353	05-20-2015	5/20/2015 8:38:59 PM	16:38:59	2.0.10.248	12	Bar63-37.bmp	62	2	?	10r_4g.bmp	0r_4g.bmp	2r_2g.bmp	0r_2g.bmp		0r_4g.bmp			TrialProc	TrialList	0	cvbn	-999999	18	131826	0	v	335	132161	36	-22	14	-6	20	0	0	4	2	12	-10	0	-2	0	4	4	2	2	0	4
Hungry_Donkey_bar_English_2	103	1	<?xml version="1.0"?>\n<Clock xmlns:dt="urn:schemas-microsoft-com:datatypes"><Description dt:dt="string">E-Prime Primary Realtime Clock</Description><StartTime><Timestamp dt:dt="int">0</Timestamp><DateUtc dt:dt="string">2015-05-20T20:38:59Z</DateUtc></StartTime><FrequencyChanges><FrequencyChange><Frequency dt:dt="r8">2597675</Frequency><Timestamp dt:dt="r8">2897258735</Timestamp><Current dt:dt="r8">0</Current><DateUtc dt:dt="string">2015-05-20T20:38:59Z</DateUtc></FrequencyChange></FrequencyChanges></Clock>\n	Hungry_Donkey_bar_English_2-103-1	59.973	26	1.0.0.18	1	-1397191310	Standard	2.0.10.353	2.0.10.353	05-20-2015	5/20/2015 8:38:59 PM	16:38:59	2.0.10.248	13	Bar63-37.bmp	63	4	?	10r_4g.bmp	0r_4g.bmp	2r_2g.bmp	0r_2g.bmp				0r_2g.bmp	TrialProc	TrialList	0	cvbn	-999999	17	134193	0	n	1296	135489	38	-22	16	-6	20	0	2	2	2	13	-10	0	-2	0	4	4	2	2	0	2
Hungry_Donkey_bar_English_2	103	1	<?xml version="1.0"?>\n<Clock xmlns:dt="urn:schemas-microsoft-com:datatypes"><Description dt:dt="string">E-Prime Primary Realtime Clock</Description><StartTime><Timestamp dt:dt="int">0</Timestamp><DateUtc dt:dt="string">2015-05-20T20:38:59Z</DateUtc></StartTime><FrequencyChanges><FrequencyChange><Frequency dt:dt="r8">2597675</Frequency><Timestamp dt:dt="r8">2897258735</Timestamp><Current dt:dt="r8">0</Current><DateUtc dt:dt="string">2015-05-20T20:38:59Z</DateUtc></FrequencyChange></FrequencyChanges></Clock>\n	Hungry_Donkey_bar_English_2-103-1	59.973	26	1.0.0.18	1	-1397191310	Standard	2.0.10.353	2.0.10.353	05-20-2015	5/20/2015 8:38:59 PM	16:38:59	2.0.10.248	14	Bar63-37.bmp	66	2	?	10r_4g.bmp	0r_4g.bmp	2r_2g.bmp	0r_2g.bmp		0r_4g.bmp			TrialProc	TrialList	0	cvbn	-999999	34	137545	0	v	520	138065	42	-22	20	-6	24	0	2	3	2	14	-10	0	-2	0	4	4	2	2	0	4
Hungry_Donkey_bar_English_2	103	1	<?xml version="1.0"?>\n<Clock xmlns:dt="urn:schemas-microsoft-com:datatypes"><Description dt:dt="string">E-Prime Primary Realtime Clock</Description><StartTime><Timestamp dt:dt="int">0</Timestamp><DateUtc dt:dt="string">2015-05-20T20:38:59Z</DateUtc></StartTime><FrequencyChanges><FrequencyChange><Frequency dt:dt="r8">2597675</Frequency><Timestamp dt:dt="r8">2897258735</Timestamp><Current dt:dt="r8">0</Current><DateUtc dt:dt="string">2015-05-20T20:38:59Z</DateUtc></FrequencyChange></FrequencyChanges></Clock>\n	Hungry_Donkey_bar_English_2-103-1	59.973	26	1.0.0.18	1	-1397191310	Standard	2.0.10.353	2.0.10.353	05-20-2015	5/20/2015 8:38:59 PM	16:38:59	2.0.10.248	15	Bar63-37.bmp	68	1	?	0r_4g.bmp	0r_4g.bmp	0r_2g.bmp	0r_2g.bmp	0r_4g.bmp				TrialProc	TrialList	0	cvbn	-999999	17	140096	0	c	769	140865	46	-22	24	-2	24	0	2	6	2	15	0	0	0	0	4	4	2	2	0	4
Hungry_Donkey_bar_English_2	103	1	<?xml version="1.0"?>\n<Clock xmlns:dt="urn:schemas-microsoft-com:datatypes"><Description dt:dt="string">E-Prime Primary Realtime Clock</Description><StartTime><Timestamp dt:dt="int">0</Timestamp><DateUtc dt:dt="string">2015-05-20T20:38:59Z</DateUtc></StartTime><FrequencyChanges><FrequencyChange><Frequency dt:dt="r8">2597675</Frequency><Timestamp dt:dt="r8">2897258735</Timestamp><Current dt:dt="r8">0</Current><DateUtc dt:dt="string">2015-05-20T20:38:59Z</DateUtc></FrequencyChange></FrequencyChanges></Clock>\n	Hungry_Donkey_bar_English_2-103-1	59.973	26	1.0.0.18	1	-1397191310	Standard	2.0.10.353	2.0.10.353	05-20-2015	5/20/2015 8:38:59 PM	16:38:59	2.0.10.248	16	Bar63-37.bmp	69	1	?	0r_4g.bmp	0r_4g.bmp	0r_2g.bmp	0r_2g.bmp	0r_4g.bmp				TrialProc	TrialList	0	cvbn	-999999	17	142897	0	c	544	143441	50	-22	28	2	24	0	2	10	2	16	0	0	0	0	4	4	2	2	0	4
Hungry_Donkey_bar_English_2	103	1	<?xml version="1.0"?>\n<Clock xmlns:dt="urn:schemas-microsoft-com:datatypes"><Description dt:dt="string">E-Prime Primary Realtime Clock</Description><StartTime><Timestamp dt:dt="int">0</Timestamp><DateUtc dt:dt="string">2015-05-20T20:38:59Z</DateUtc></StartTime><FrequencyChanges><FrequencyChange><Frequency dt:dt="r8">2597675</Frequency><Timestamp dt:dt="r8">2897258735</Timestamp><Current dt:dt="r8">0</Current><DateUtc dt:dt="string">2015-05-20T20:38:59Z</DateUtc></FrequencyChange></FrequencyChanges></Clock>\n	Hungry_Donkey_bar_English_2-103-1	59.973	26	1.0.0.18	1	-1397191310	Standard	2.0.10.353	2.0.10.353	05-20-2015	5/20/2015 8:38:59 PM	16:38:59	2.0.10.248	17	Bar63-37.bmp	64	1	?	8r_4g.bmp	50r_4g.bmp	1r_2g.bmp	10r_2g.bmp	8r_4g.bmp				TrialProc	TrialList	0	cvbn	-999999	18	145482	0	c	119	145601	54	-30	24	-2	24	0	2	1	2	17	-8	-50	-1	-10	4	4	2	2	-8	4
Hungry_Donkey_bar_English_2	103	1	<?xml version="1.0"?>\n<Clock xmlns:dt="urn:schemas-microsoft-com:datatypes"><Description dt:dt="string">E-Prime Primary Realtime Clock</Description><StartTime><Timestamp dt:dt="int">0</Timestamp><DateUtc dt:dt="string">2015-05-20T20:38:59Z</DateUtc></StartTime><FrequencyChanges><FrequencyChange><Frequency dt:dt="r8">2597675</Frequency><Timestamp dt:dt="r8">2897258735</Timestamp><Current dt:dt="r8">0</Current><DateUtc dt:dt="string">2015-05-20T20:38:59Z</DateUtc></FrequencyChange></FrequencyChanges></Clock>\n	Hungry_Donkey_bar_English_2-103-1	59.973	26	1.0.0.18	1	-1397191310	Standard	2.0.10.353	2.0.10.353	05-20-2015	5/20/2015 8:38:59 PM	16:38:59	2.0.10.248	18	Bar63-37.bmp	63	3	?	12r_4g.bmp	0r_4g.bmp	3r_2g.bmp	0r_2g.bmp			3r_2g.bmp		TrialProc	TrialList	0	cvbn	-999999	17	147666	0	b	8943	156609	56	-33	23	-2	24	-1	2	5	2	18	-12	0	-3	0	4	4	2	2	-3	2
Hungry_Donkey_bar_English_2	103	1	<?xml version="1.0"?>\n<Clock xmlns:dt="urn:schemas-microsoft-com:datatypes"><Description dt:dt="string">E-Prime Primary Realtime Clock</Description><StartTime><Timestamp dt:dt="int">0</Timestamp><DateUtc dt:dt="string">2015-05-20T20:38:59Z</DateUtc></StartTime><FrequencyChanges><FrequencyChange><Frequency dt:dt="r8">2597675</Frequency><Timestamp dt:dt="r8">2897258735</Timestamp><Current dt:dt="r8">0</Current><DateUtc dt:dt="string">2015-05-20T20:38:59Z</DateUtc></FrequencyChange></FrequencyChanges></Clock>\n	Hungry_Donkey_bar_English_2-103-1	59.973	26	1.0.0.18	1	-1397191310	Standard	2.0.10.353	2.0.10.353	05-20-2015	5/20/2015 8:38:59 PM	16:38:59	2.0.10.248	19	Bar63-37.bmp	64	4	?	0r_4g.bmp	0r_4g.bmp	0r_2g.bmp	0r_2g.bmp				0r_2g.bmp	TrialProc	TrialList	0	cvbn	-999999	17	158671	0	n	930	159601	58	-33	25	-2	24	-1	4	9	2	19	0	0	0	0	4	4	2	2	0	2
Hungry_Donkey_bar_English_2	103	1	<?xml version="1.0"?>\n<Clock xmlns:dt="urn:schemas-microsoft-com:datatypes"><Description dt:dt="string">E-Prime Primary Realtime Clock</Description><StartTime><Timestamp dt:dt="int">0</Timestamp><DateUtc dt:dt="string">2015-05-20T20:38:59Z</DateUtc></StartTime><FrequencyChanges><FrequencyChange><Frequency dt:dt="r8">2597675</Frequency><Timestamp dt:dt="r8">2897258735</Timestamp><Current dt:dt="r8">0</Current><DateUtc dt:dt="string">2015-05-20T20:38:59Z</DateUtc></FrequencyChange></FrequencyChanges></Clock>\n	Hungry_Donkey_bar_English_2-103-1	59.973	26	1.0.0.18	1	-1397191310	Standard	2.0.10.353	2.0.10.353	05-20-2015	5/20/2015 8:38:59 PM	16:38:59	2.0.10.248	20	Bar63-37.bmp	65	4	?	0r_4g.bmp	0r_4g.bmp	0r_2g.bmp	0r_2g.bmp				0r_2g.bmp	TrialProc	TrialList	0	cvbn	-999999	17	161639	0	n	602	162241	60	-33	27	-2	24	-1	6	8	2	20	0	0	0	0	4	4	2	2	0	2
Hungry_Donkey_bar_English_2	103	1	<?xml version="1.0"?>\n<Clock xmlns:dt="urn:schemas-microsoft-com:datatypes"><Description dt:dt="string">E-Prime Primary Realtime Clock</Description><StartTime><Timestamp dt:dt="int">0</Timestamp><DateUtc dt:dt="string">2015-05-20T20:38:59Z</DateUtc></StartTime><FrequencyChanges><FrequencyChange><Frequency dt:dt="r8">2597675</Frequency><Timestamp dt:dt="r8">2897258735</Timestamp><Current dt:dt="r8">0</Current><DateUtc dt:dt="string">2015-05-20T20:38:59Z</DateUtc></FrequencyChange></FrequencyChanges></Clock>\n	Hungry_Donkey_bar_English_2-103-1	59.973	26	1.0.0.18	1	-1397191310	Standard	2.0.10.353	2.0.10.353	05-20-2015	5/20/2015 8:38:59 PM	16:38:59	2.0.10.248	21	Bar63-37.bmp	65	4	?	0r_4g.bmp	0r_4g.bmp	0r_2g.bmp	0r_2g.bmp				0r_2g.bmp	TrialProc	TrialList	0	cvbn	-999999	18	164274	0	n	495	164769	62	-33	29	-2	24	-1	8	10	3	21	0	0	0	0	4	4	2	2	0	2
Hungry_Donkey_bar_English_2	103	1	<?xml version="1.0"?>\n<Clock xmlns:dt="urn:schemas-microsoft-com:datatypes"><Description dt:dt="string">E-Prime Primary Realtime Clock</Description><StartTime><Timestamp dt:dt="int">0</Timestamp><DateUtc dt:dt="string">2015-05-20T20:38:59Z</DateUtc></StartTime><FrequencyChanges><FrequencyChange><Frequency dt:dt="r8">2597675</Frequency><Timestamp dt:dt="r8">2897258735</Timestamp><Current dt:dt="r8">0</Current><DateUtc dt:dt="string">2015-05-20T20:38:59Z</DateUtc></FrequencyChange></FrequencyChanges></Clock>\n	Hungry_Donkey_bar_English_2-103-1	59.973	26	1.0.0.18	1	-1397191310	Standard	2.0.10.353	2.0.10.353	05-20-2015	5/20/2015 8:38:59 PM	16:38:59	2.0.10.248	22	Bar63-37.bmp	66	4	?	0r_4g.bmp	0r_4g.bmp	0r_2g.bmp	0r_2g.bmp				0r_2g.bmp	TrialProc	TrialList	0	cvbn	-999999	17	166808	0	n	41	166849	64	-33	31	-2	24	-1	10	7	3	22	0	0	0	0	4	4	2	2	0	2
Hungry_Donkey_bar_English_2	103	1	<?xml version="1.0"?>\n<Clock xmlns:dt="urn:schemas-microsoft-com:datatypes"><Description dt:dt="string">E-Prime Primary Realtime Clock</Description><StartTime><Timestamp dt:dt="int">0</Timestamp><DateUtc dt:dt="string">2015-05-20T20:38:59Z</DateUtc></StartTime><FrequencyChanges><FrequencyChange><Frequency dt:dt="r8">2597675</Frequency><Timestamp dt:dt="r8">2897258735</Timestamp><Current dt:dt="r8">0</Current><DateUtc dt:dt="string">2015-05-20T20:38:59Z</DateUtc></FrequencyChange></FrequencyChanges></Clock>\n	Hungry_Donkey_bar_English_2-103-1	59.973	26	1.0.0.18	1	-1397191310	Standard	2.0.10.353	2.0.10.353	05-20-2015	5/20/2015 8:38:59 PM	16:38:59	2.0.10.248	23	Bar63-37.bmp	67	4	?	0r_4g.bmp	0r_4g.bmp	0r_2g.bmp	0r_2g.bmp				0r_2g.bmp	TrialProc	TrialList	0	cvbn	-999999	17	168892	0	n	341	169233	66	-33	33	-2	24	-1	12	9	3	23	0	0	0	0	4	4	2	2	0	2
Hungry_Donkey_bar_English_2	103	1	<?xml version="1.0"?>\n<Clock xmlns:dt="urn:schemas-microsoft-com:datatypes"><Description dt:dt="string">E-Prime Primary Realtime Clock</Description><StartTime><Timestamp dt:dt="int">0</Timestamp><DateUtc dt:dt="string">2015-05-20T20:38:59Z</DateUtc></StartTime><FrequencyChanges><FrequencyChange><Frequency dt:dt="r8">2597675</Frequency><Timestamp dt:dt="r8">2897258735</Timestamp><Current dt:dt="r8">0</Current><DateUtc dt:dt="string">2015-05-20T20:38:59Z</DateUtc></FrequencyChange></FrequencyChanges></Clock>\n	Hungry_Donkey_bar_English_2-103-1	59.973	26	1.0.0.18	1	-1397191310	Standard	2.0.10.353	2.0.10.353	05-20-2015	5/20/2015 8:38:59 PM	16:38:59	2.0.10.248	24	Bar63-37.bmp	67	4	?	0r_4g.bmp	0r_4g.bmp	0r_2g.bmp	0r_2g.bmp				0r_2g.bmp	TrialProc	TrialList	0	cvbn	-999999	18	171277	0	n	340	171617	68	-33	35	-2	24	-1	14	6	3	24	0	0	0	0	4	4	2	2	0	2
Hungry_Donkey_bar_English_2	103	1	<?xml version="1.0"?>\n<Clock xmlns:dt="urn:schemas-microsoft-com:datatypes"><Description dt:dt="string">E-Prime Primary Realtime Clock</Description><StartTime><Timestamp dt:dt="int">0</Timestamp><DateUtc dt:dt="string">2015-05-20T20:38:59Z</DateUtc></StartTime><FrequencyChanges><FrequencyChange><Frequency dt:dt="r8">2597675</Frequency><Timestamp dt:dt="r8">2897258735</Timestamp><Current dt:dt="r8">0</Current><DateUtc dt:dt="string">2015-05-20T20:38:59Z</DateUtc></FrequencyChange></FrequencyChanges></Clock>\n	Hungry_Donkey_bar_English_2-103-1	59.973	26	1.0.0.18	1	-1397191310	Standard	2.0.10.353	2.0.10.353	05-20-2015	5/20/2015 8:38:59 PM	16:38:59	2.0.10.248	25	Bar63-37.bmp	68	4	?	0r_4g.bmp	0r_4g.bmp	0r_2g.bmp	0r_2g.bmp				0r_2g.bmp	TrialProc	TrialList	0	cvbn	-999999	17	173661	0	n	1492	175153	70	-33	37	-2	24	-1	16	8	3	25	0	0	0	0	4	4	2	2	0	2
Hungry_Donkey_bar_English_2	103	1	<?xml version="1.0"?>\n<Clock xmlns:dt="urn:schemas-microsoft-com:datatypes"><Description dt:dt="string">E-Prime Primary Realtime Clock</Description><StartTime><Timestamp dt:dt="int">0</Timestamp><DateUtc dt:dt="string">2015-05-20T20:38:59Z</DateUtc></StartTime><FrequencyChanges><FrequencyChange><Frequency dt:dt="r8">2597675</Frequency><Timestamp dt:dt="r8">2897258735</Timestamp><Current dt:dt="r8">0</Current><DateUtc dt:dt="string">2015-05-20T20:38:59Z</DateUtc></FrequencyChange></FrequencyChanges></Clock>\n	Hungry_Donkey_bar_English_2-103-1	59.973	26	1.0.0.18	1	-1397191310	Standard	2.0.10.353	2.0.10.353	05-20-2015	5/20/2015 8:38:59 PM	16:38:59	2.0.10.248	26	Bar63-37.bmp	69	2	?	12r_4g.bmp	0r_4g.bmp	3r_2g.bmp	0r_2g.bmp		0r_4g.bmp			TrialProc	TrialList	0	cvbn	-999999	17	177196	0	v	1429	178625	74	-33	41	-2	28	-1	16	5	3	26	-12	0	-3	0	4	4	2	2	0	4
Hungry_Donkey_bar_English_2	103	1	<?xml version="1.0"?>\n<Clock xmlns:dt="urn:schemas-microsoft-com:datatypes"><Description dt:dt="string">E-Prime Primary Realtime Clock</Description><StartTime><Timestamp dt:dt="int">0</Timestamp><DateUtc dt:dt="string">2015-05-20T20:38:59Z</DateUtc></StartTime><FrequencyChanges><FrequencyChange><Frequency dt:dt="r8">2597675</Frequency><Timestamp dt:dt="r8">2897258735</Timestamp><Current dt:dt="r8">0</Current><DateUtc dt:dt="string">2015-05-20T20:38:59Z</DateUtc></FrequencyChange></FrequencyChanges></Clock>\n	Hungry_Donkey_bar_English_2-103-1	59.973	26	1.0.0.18	1	-1397191310	Standard	2.0.10.353	2.0.10.353	05-20-2015	5/20/2015 8:38:59 PM	16:38:59	2.0.10.248	27	Bar75-25.bmp	70	2	?	10r_4g.bmp	0r_4g.bmp	2r_2g.bmp	0r_2g.bmp		0r_4g.bmp			TrialProc	TrialList	0	cvbn	-999999	17	180664	0	v	424	181088	78	-33	45	-2	32	-1	16	4	3	27	-10	0	-2	0	4	4	2	2	0	4
Hungry_Donkey_bar_English_2	103	1	<?xml version="1.0"?>\n<Clock xmlns:dt="urn:schemas-microsoft-com:datatypes"><Description dt:dt="string">E-Prime Primary Realtime Clock</Description><StartTime><Timestamp dt:dt="int">0</Timestamp><DateUtc dt:dt="string">2015-05-20T20:38:59Z</DateUtc></StartTime><FrequencyChanges><FrequencyChange><Frequency dt:dt="r8">2597675</Frequency><Timestamp dt:dt="r8">2897258735</Timestamp><Current dt:dt="r8">0</Current><DateUtc dt:dt="string">2015-05-20T20:38:59Z</DateUtc></FrequencyChange></FrequencyChanges></Clock>\n	Hungry_Donkey_bar_English_2-103-1	59.973	26	1.0.0.18	1	-1397191310	Standard	2.0.10.353	2.0.10.353	05-20-2015	5/20/2015 8:38:59 PM	16:38:59	2.0.10.248	28	Bar75-25.bmp	71	2	?	10r_4g.bmp	0r_4g.bmp	2r_2g.bmp	0r_2g.bmp		0r_4g.bmp			TrialProc	TrialList	0	cvbn	-999999	17	183182	0	v	482	183664	82	-33	49	-2	36	-1	16	2	3	28	-10	0	-2	0	4	4	2	2	0	4
Hungry_Donkey_bar_English_2	103	1	<?xml version="1.0"?>\n<Clock xmlns:dt="urn:schemas-microsoft-com:datatypes"><Description dt:dt="string">E-Prime Primary Realtime Clock</Description><StartTime><Timestamp dt:dt="int">0</Timestamp><DateUtc dt:dt="string">2015-05-20T20:38:59Z</DateUtc></StartTime><FrequencyChanges><FrequencyChange><Frequency dt:dt="r8">2597675</Frequency><Timestamp dt:dt="r8">2897258735</Timestamp><Current dt:dt="r8">0</Current><DateUtc dt:dt="string">2015-05-20T20:38:59Z</DateUtc></FrequencyChange></FrequencyChanges></Clock>\n	Hungry_Donkey_bar_English_2-103-1	59.973	26	1.0.0.18	1	-1397191310	Standard	2.0.10.353	2.0.10.353	05-20-2015	5/20/2015 8:38:59 PM	16:38:59	2.0.10.248	29	Bar50-50.bmp	51	2	?	8r_4g.bmp	50r_4g.bmp	1r_2g.bmp	10r_2g.bmp		50r_4g.bmp			TrialProc	TrialList	0	cvbn	-999999	18	185700	0	v	492	186192	86	-83	3	-2	-10	-1	16	1	3	29	-8	-50	-1	-10	4	4	2	2	-50	4
Hungry_Donkey_bar_English_2	103	1	<?xml version="1.0"?>\n<Clock xmlns:dt="urn:schemas-microsoft-com:datatypes"><Description dt:dt="string">E-Prime Primary Realtime Clock</Description><StartTime><Timestamp dt:dt="int">0</Timestamp><DateUtc dt:dt="string">2015-05-20T20:38:59Z</DateUtc></StartTime><FrequencyChanges><FrequencyChange><Frequency dt:dt="r8">2597675</Frequency><Timestamp dt:dt="r8">2897258735</Timestamp><Current dt:dt="r8">0</Current><DateUtc dt:dt="string">2015-05-20T20:38:59Z</DateUtc></FrequencyChange></FrequencyChanges></Clock>\n	Hungry_Donkey_bar_English_2-103-1	59.973	26	1.0.0.18	1	-1397191310	Standard	2.0.10.353	2.0.10.353	05-20-2015	5/20/2015 8:38:59 PM	16:38:59	2.0.10.248	30	Bar50-50.bmp	51	4	?	10r_4g.bmp	0r_4g.bmp	2r_2g.bmp	0r_2g.bmp				0r_2g.bmp	TrialProc	TrialList	0	cvbn	-999999	17	188251	0	n	3205	191456	88	-83	5	-2	-10	-1	18	3	3	30	-10	0	-2	0	4	4	2	2	0	2
Hungry_Donkey_bar_English_2	103	1	<?xml version="1.0"?>\n<Clock xmlns:dt="urn:schemas-microsoft-com:datatypes"><Description dt:dt="string">E-Prime Primary Realtime Clock</Description><StartTime><Timestamp dt:dt="int">0</Timestamp><DateUtc dt:dt="string">2015-05-20T20:38:59Z</DateUtc></StartTime><FrequencyChanges><FrequencyChange><Frequency dt:dt="r8">2597675</Frequency><Timestamp dt:dt="r8">2897258735</Timestamp><Current dt:dt="r8">0</Current><DateUtc dt:dt="string">2015-05-20T20:38:59Z</DateUtc></FrequencyChange></FrequencyChanges></Clock>\n	Hungry_Donkey_bar_English_2-103-1	59.973	26	1.0.0.18	1	-1397191310	Standard	2.0.10.353	2.0.10.353	05-20-2015	5/20/2015 8:38:59 PM	16:38:59	2.0.10.248	31	Bar50-50.bmp	49	4	?	8r_4g.bmp	50r_4g.bmp	1r_2g.bmp	10r_2g.bmp				10r_2g.bmp	TrialProc	TrialList	0	cvbn	-999999	18	193504	0	n	512	194016	90	-93	-3	-2	-10	-1	10	1	4	31	-8	-50	-1	-10	4	4	2	2	-10	2
Hungry_Donkey_bar_English_2	103	1	<?xml version="1.0"?>\n<Clock xmlns:dt="urn:schemas-microsoft-com:datatypes"><Description dt:dt="string">E-Prime Primary Realtime Clock</Description><StartTime><Timestamp dt:dt="int">0</Timestamp><DateUtc dt:dt="string">2015-05-20T20:38:59Z</DateUtc></StartTime><FrequencyChanges><FrequencyChange><Frequency dt:dt="r8">2597675</Frequency><Timestamp dt:dt="r8">2897258735</Timestamp><Current dt:dt="r8">0</Current><DateUtc dt:dt="string">2015-05-20T20:38:59Z</DateUtc></FrequencyChange></FrequencyChanges></Clock>\n	Hungry_Donkey_bar_English_2-103-1	59.973	26	1.0.0.18	1	-1397191310	Standard	2.0.10.353	2.0.10.353	05-20-2015	5/20/2015 8:38:59 PM	16:38:59	2.0.10.248	32	Bar50-50.bmp	49	3	?	10r_4g.bmp	0r_4g.bmp	2r_2g.bmp	0r_2g.bmp			2r_2g.bmp		TrialProc	TrialList	0	cvbn	-999999	18	196055	0	b	4665	200720	92	-95	-3	-2	-10	-1	10	3	4	32	-10	0	-2	0	4	4	2	2	-2	2
Hungry_Donkey_bar_English_2	103	1	<?xml version="1.0"?>\n<Clock xmlns:dt="urn:schemas-microsoft-com:datatypes"><Description dt:dt="string">E-Prime Primary Realtime Clock</Description><StartTime><Timestamp dt:dt="int">0</Timestamp><DateUtc dt:dt="string">2015-05-20T20:38:59Z</DateUtc></StartTime><FrequencyChanges><FrequencyChange><Frequency dt:dt="r8">2597675</Frequency><Timestamp dt:dt="r8">2897258735</Timestamp><Current dt:dt="r8">0</Current><DateUtc dt:dt="string">2015-05-20T20:38:59Z</DateUtc></FrequencyChange></FrequencyChanges></Clock>\n	Hungry_Donkey_bar_English_2-103-1	59.973	26	1.0.0.18	1	-1397191310	Standard	2.0.10.353	2.0.10.353	05-20-2015	5/20/2015 8:38:59 PM	16:38:59	2.0.10.248	33	Bar50-50.bmp	48	1	?	10r_4g.bmp	0r_4g.bmp	2r_2g.bmp	0r_2g.bmp	10r_4g.bmp				TrialProc	TrialList	0	cvbn	-999999	18	202758	0	c	1354	204112	96	-105	-9	-8	-10	-1	10	4	4	33	-10	0	-2	0	4	4	2	2	-10	4
Hungry_Donkey_bar_English_2	103	1	<?xml version="1.0"?>\n<Clock xmlns:dt="urn:schemas-microsoft-com:datatypes"><Description dt:dt="string">E-Prime Primary Realtime Clock</Description><StartTime><Timestamp dt:dt="int">0</Timestamp><DateUtc dt:dt="string">2015-05-20T20:38:59Z</DateUtc></StartTime><FrequencyChanges><FrequencyChange><Frequency dt:dt="r8">2597675</Frequency><Timestamp dt:dt="r8">2897258735</Timestamp><Current dt:dt="r8">0</Current><DateUtc dt:dt="string">2015-05-20T20:38:59Z</DateUtc></FrequencyChange></FrequencyChanges></Clock>\n	Hungry_Donkey_bar_English_2-103-1	59.973	26	1.0.0.18	1	-1397191310	Standard	2.0.10.353	2.0.10.353	05-20-2015	5/20/2015 8:38:59 PM	16:38:59	2.0.10.248	34	Bar50-50.bmp	48	4	?	0r_4g.bmp	0r_4g.bmp	0r_2g.bmp	0r_2g.bmp				0r_2g.bmp	TrialProc	TrialList	0	cvbn	-999999	18	206143	0	n	3153	209296	98	-105	-7	-8	-10	-1	12	9	4	34	0	0	0	0	4	4	2	2	0	2
Hungry_Donkey_bar_English_2	103	1	<?xml version="1.0"?>\n<Clock xmlns:dt="urn:schemas-microsoft-com:datatypes"><Description dt:dt="string">E-Prime Primary Realtime Clock</Description><StartTime><Timestamp dt:dt="int">0</Timestamp><DateUtc dt:dt="string">2015-05-20T20:38:59Z</DateUtc></StartTime><FrequencyChanges><FrequencyChange><Frequency dt:dt="r8">2597675</Frequency><Timestamp dt:dt="r8">2897258735</Timestamp><Current dt:dt="r8">0</Current><DateUtc dt:dt="string">2015-05-20T20:38:59Z</DateUtc></FrequencyChange></FrequencyChanges></Clock>\n	Hungry_Donkey_bar_English_2-103-1	59.973	26	1.0.0.18	1	-1397191310	Standard	2.0.10.353	2.0.10.353	05-20-2015	5/20/2015 8:38:59 PM	16:38:59	2.0.10.248	35	Bar50-50.bmp	49	2	?	10r_4g.bmp	0r_4g.bmp	2r_2g.bmp	0r_2g.bmp		0r_4g.bmp			TrialProc	TrialList	0	cvbn	-999999	17	211328	0	v	1440	212768	102	-105	-3	-8	-6	-1	12	2	4	35	-10	0	-2	0	4	4	2	2	0	4
Hungry_Donkey_bar_English_2	103	1	<?xml version="1.0"?>\n<Clock xmlns:dt="urn:schemas-microsoft-com:datatypes"><Description dt:dt="string">E-Prime Primary Realtime Clock</Description><StartTime><Timestamp dt:dt="int">0</Timestamp><DateUtc dt:dt="string">2015-05-20T20:38:59Z</DateUtc></StartTime><FrequencyChanges><FrequencyChange><Frequency dt:dt="r8">2597675</Frequency><Timestamp dt:dt="r8">2897258735</Timestamp><Current dt:dt="r8">0</Current><DateUtc dt:dt="string">2015-05-20T20:38:59Z</DateUtc></FrequencyChange></FrequencyChanges></Clock>\n	Hungry_Donkey_bar_English_2-103-1	59.973	26	1.0.0.18	1	-1397191310	Standard	2.0.10.353	2.0.10.353	05-20-2015	5/20/2015 8:38:59 PM	16:38:59	2.0.10.248	36	Bar50-50.bmp	50	3	?	0r_4g.bmp	0r_4g.bmp	0r_2g.bmp	0r_2g.bmp			0r_2g.bmp		TrialProc	TrialList	0	cvbn	-999999	18	214797	0	b	2819	217616	104	-105	-1	-8	-6	1	12	8	4	36	0	0	0	0	4	4	2	2	0	2
Hungry_Donkey_bar_English_2	103	1	<?xml version="1.0"?>\n<Clock xmlns:dt="urn:schemas-microsoft-com:datatypes"><Description dt:dt="string">E-Prime Primary Realtime Clock</Description><StartTime><Timestamp dt:dt="int">0</Timestamp><DateUtc dt:dt="string">2015-05-20T20:38:59Z</DateUtc></StartTime><FrequencyChanges><FrequencyChange><Frequency dt:dt="r8">2597675</Frequency><Timestamp dt:dt="r8">2897258735</Timestamp><Current dt:dt="r8">0</Current><DateUtc dt:dt="string">2015-05-20T20:38:59Z</DateUtc></FrequencyChange></FrequencyChanges></Clock>\n	Hungry_Donkey_bar_English_2-103-1	59.973	26	1.0.0.18	1	-1397191310	Standard	2.0.10.353	2.0.10.353	05-20-2015	5/20/2015 8:38:59 PM	16:38:59	2.0.10.248	37	Bar50-50.bmp	50	4	?	12r_4g.bmp	0r_4g.bmp	3r_2g.bmp	0r_2g.bmp				0r_2g.bmp	TrialProc	TrialList	0	cvbn	-999999	18	219649	0	n	3199	222848	106	-105	1	-8	-6	1	14	5	4	37	-12	0	-3	0	4	4	2	2	0	2
Hungry_Donkey_bar_English_2	103	1	<?xml version="1.0"?>\n<Clock xmlns:dt="urn:schemas-microsoft-com:datatypes"><Description dt:dt="string">E-Prime Primary Realtime Clock</Description><StartTime><Timestamp dt:dt="int">0</Timestamp><DateUtc dt:dt="string">2015-05-20T20:38:59Z</DateUtc></StartTime><FrequencyChanges><FrequencyChange><Frequency dt:dt="r8">2597675</Frequency><Timestamp dt:dt="r8">2897258735</Timestamp><Current dt:dt="r8">0</Current><DateUtc dt:dt="string">2015-05-20T20:38:59Z</DateUtc></FrequencyChange></FrequencyChanges></Clock>\n	Hungry_Donkey_bar_English_2-103-1	59.973	26	1.0.0.18	1	-1397191310	Standard	2.0.10.353	2.0.10.353	05-20-2015	5/20/2015 8:38:59 PM	16:38:59	2.0.10.248	38	Bar50-50.bmp	51	2	?	0r_4g.bmp	0r_4g.bmp	0r_2g.bmp	0r_2g.bmp		0r_4g.bmp			TrialProc	TrialList	0	cvbn	-999999	17	224884	0	v	1324	226208	110	-105	5	-8	-2	1	14	6	4	38	0	0	0	0	4	4	2	2	0	4
Hungry_Donkey_bar_English_2	103	1	<?xml version="1.0"?>\n<Clock xmlns:dt="urn:schemas-microsoft-com:datatypes"><Description dt:dt="string">E-Prime Primary Realtime Clock</Description><StartTime><Timestamp dt:dt="int">0</Timestamp><DateUtc dt:dt="string">2015-05-20T20:38:59Z</DateUtc></StartTime><FrequencyChanges><FrequencyChange><Frequency dt:dt="r8">2597675</Frequency><Timestamp dt:dt="r8">2897258735</Timestamp><Current dt:dt="r8">0</Current><DateUtc dt:dt="string">2015-05-20T20:38:59Z</DateUtc></FrequencyChange></FrequencyChanges></Clock>\n	Hungry_Donkey_bar_English_2-103-1	59.973	26	1.0.0.18	1	-1397191310	Standard	2.0.10.353	2.0.10.353	05-20-2015	5/20/2015 8:38:59 PM	16:38:59	2.0.10.248	39	Bar50-50.bmp	52	3	?	0r_4g.bmp	0r_4g.bmp	0r_2g.bmp	0r_2g.bmp			0r_2g.bmp		TrialProc	TrialList	0	cvbn	-999999	18	228236	0	b	164	228400	112	-105	7	-8	-2	3	14	7	4	39	0	0	0	0	4	4	2	2	0	2
Hungry_Donkey_bar_English_2	103	1	<?xml version="1.0"?>\n<Clock xmlns:dt="urn:schemas-microsoft-com:datatypes"><Description dt:dt="string">E-Prime Primary Realtime Clock</Description><StartTime><Timestamp dt:dt="int">0</Timestamp><DateUtc dt:dt="string">2015-05-20T20:38:59Z</DateUtc></StartTime><FrequencyChanges><FrequencyChange><Frequency dt:dt="r8">2597675</Frequency><Timestamp dt:dt="r8">2897258735</Timestamp><Current dt:dt="r8">0</Current><DateUtc dt:dt="string">2015-05-20T20:38:59Z</DateUtc></FrequencyChange></FrequencyChanges></Clock>\n	Hungry_Donkey_bar_English_2-103-1	59.973	26	1.0.0.18	1	-1397191310	Standard	2.0.10.353	2.0.10.353	05-20-2015	5/20/2015 8:38:59 PM	16:38:59	2.0.10.248	40	Bar50-50.bmp	52	1	?	0r_4g.bmp	0r_4g.bmp	0r_2g.bmp	0r_2g.bmp	0r_4g.bmp				TrialProc	TrialList	0	cvbn	-999999	18	230437	0	c	379	230816	116	-105	11	-4	-2	3	14	10	4	40	0	0	0	0	4	4	2	2	0	4
Hungry_Donkey_bar_English_2	103	1	<?xml version="1.0"?>\n<Clock xmlns:dt="urn:schemas-microsoft-com:datatypes"><Description dt:dt="string">E-Prime Primary Realtime Clock</Description><StartTime><Timestamp dt:dt="int">0</Timestamp><DateUtc dt:dt="string">2015-05-20T20:38:59Z</DateUtc></StartTime><FrequencyChanges><FrequencyChange><Frequency dt:dt="r8">2597675</Frequency><Timestamp dt:dt="r8">2897258735</Timestamp><Current dt:dt="r8">0</Current><DateUtc dt:dt="string">2015-05-20T20:38:59Z</DateUtc></FrequencyChange></FrequencyChanges></Clock>\n	Hungry_Donkey_bar_English_2-103-1	59.973	26	1.0.0.18	1	-1397191310	Standard	2.0.10.353	2.0.10.353	05-20-2015	5/20/2015 8:38:59 PM	16:38:59	2.0.10.248	41	Bar50-50.bmp	53	3	?	0r_4g.bmp	0r_4g.bmp	0r_2g.bmp	0r_2g.bmp			0r_2g.bmp		TrialProc	TrialList	0	cvbn	-999999	18	232855	0	b	185	233040	118	-105	13	-4	-2	5	14	7	5	41	0	0	0	0	4	4	2	2	0	2
Hungry_Donkey_bar_English_2	103	1	<?xml version="1.0"?>\n<Clock xmlns:dt="urn:schemas-microsoft-com:datatypes"><Description dt:dt="string">E-Prime Primary Realtime Clock</Description><StartTime><Timestamp dt:dt="int">0</Timestamp><DateUtc dt:dt="string">2015-05-20T20:38:59Z</DateUtc></StartTime><FrequencyChanges><FrequencyChange><Frequency dt:dt="r8">2597675</Frequency><Timestamp dt:dt="r8">2897258735</Timestamp><Current dt:dt="r8">0</Current><DateUtc dt:dt="string">2015-05-20T20:38:59Z</DateUtc></FrequencyChange></FrequencyChanges></Clock>\n	Hungry_Donkey_bar_English_2-103-1	59.973	26	1.0.0.18	1	-1397191310	Standard	2.0.10.353	2.0.10.353	05-20-2015	5/20/2015 8:38:59 PM	16:38:59	2.0.10.248	42	Bar50-50.bmp	44	2	?	8r_4g.bmp	50r_4g.bmp	1r_2g.bmp	10r_2g.bmp		50r_4g.bmp			TrialProc	TrialList	0	cvbn	-999999	17	235072	0	v	464	235536	122	-155	-33	-4	-48	5	14	1	5	42	-8	-50	-1	-10	4	4	2	2	-50	4
Hungry_Donkey_bar_English_2	103	1	<?xml version="1.0"?>\n<Clock xmlns:dt="urn:schemas-microsoft-com:datatypes"><Description dt:dt="string">E-Prime Primary Realtime Clock</Description><StartTime><Timestamp dt:dt="int">0</Timestamp><DateUtc dt:dt="string">2015-05-20T20:38:59Z</DateUtc></StartTime><FrequencyChanges><FrequencyChange><Frequency dt:dt="r8">2597675</Frequency><Timestamp dt:dt="r8">2897258735</Timestamp><Current dt:dt="r8">0</Current><DateUtc dt:dt="string">2015-05-20T20:38:59Z</DateUtc></FrequencyChange></FrequencyChanges></Clock>\n	Hungry_Donkey_bar_English_2-103-1	59.973	26	1.0.0.18	1	-1397191310	Standard	2.0.10.353	2.0.10.353	05-20-2015	5/20/2015 8:38:59 PM	16:38:59	2.0.10.248	43	Bar50-50.bmp	44	4	?	0r_4g.bmp	0r_4g.bmp	0r_2g.bmp	0r_2g.bmp				0r_2g.bmp	TrialProc	TrialList	0	cvbn	-999999	17	237573	0	n	1099	238672	124	-155	-31	-4	-48	5	16	8	5	43	0	0	0	0	4	4	2	2	0	2
Hungry_Donkey_bar_English_2	103	1	<?xml version="1.0"?>\n<Clock xmlns:dt="urn:schemas-microsoft-com:datatypes"><Description dt:dt="string">E-Prime Primary Realtime Clock</Description><StartTime><Timestamp dt:dt="int">0</Timestamp><DateUtc dt:dt="string">2015-05-20T20:38:59Z</DateUtc></StartTime><FrequencyChanges><FrequencyChange><Frequency dt:dt="r8">2597675</Frequency><Timestamp dt:dt="r8">2897258735</Timestamp><Current dt:dt="r8">0</Current><DateUtc dt:dt="string">2015-05-20T20:38:59Z</DateUtc></FrequencyChange></FrequencyChanges></Clock>\n	Hungry_Donkey_bar_English_2-103-1	59.973	26	1.0.0.18	1	-1397191310	Standard	2.0.10.353	2.0.10.353	05-20-2015	5/20/2015 8:38:59 PM	16:38:59	2.0.10.248	44	Bar50-50.bmp	45	1	?	0r_4g.bmp	0r_4g.bmp	0r_2g.bmp	0r_2g.bmp	0r_4g.bmp				TrialProc	TrialList	0	cvbn	-999999	17	240708	0	c	2380	243088	128	-155	-27	0	-48	5	16	10	5	44	0	0	0	0	4	4	2	2	0	4
Hungry_Donkey_bar_English_2	103	1	<?xml version="1.0"?>\n<Clock xmlns:dt="urn:schemas-microsoft-com:datatypes"><Description dt:dt="string">E-Prime Primary Realtime Clock</Description><StartTime><Timestamp dt:dt="int">0</Timestamp><DateUtc dt:dt="string">2015-05-20T20:38:59Z</DateUtc></StartTime><FrequencyChanges><FrequencyChange><Frequency dt:dt="r8">2597675</Frequency><Timestamp dt:dt="r8">2897258735</Timestamp><Current dt:dt="r8">0</Current><DateUtc dt:dt="string">2015-05-20T20:38:59Z</DateUtc></FrequencyChange></FrequencyChanges></Clock>\n	Hungry_Donkey_bar_English_2-103-1	59.973	26	1.0.0.18	1	-1397191310	Standard	2.0.10.353	2.0.10.353	05-20-2015	5/20/2015 8:38:59 PM	16:38:59	2.0.10.248	45	Bar50-50.bmp	46	4	?	10r_4g.bmp	0r_4g.bmp	2r_2g.bmp	0r_2g.bmp				0r_2g.bmp	TrialProc	TrialList	0	cvbn	-999999	18	245127	0	n	553	245680	130	-155	-25	0	-48	5	18	2	5	45	-10	0	-2	0	4	4	2	2	0	2
Hungry_Donkey_bar_English_2	103	1	<?xml version="1.0"?>\n<Clock xmlns:dt="urn:schemas-microsoft-com:datatypes"><Description dt:dt="string">E-Prime Primary Realtime Clock</Description><StartTime><Timestamp dt:dt="int">0</Timestamp><DateUtc dt:dt="string">2015-05-20T20:38:59Z</DateUtc></StartTime><FrequencyChanges><FrequencyChange><Frequency dt:dt="r8">2597675</Frequency><Timestamp dt:dt="r8">2897258735</Timestamp><Current dt:dt="r8">0</Current><DateUtc dt:dt="string">2015-05-20T20:38:59Z</DateUtc></FrequencyChange></FrequencyChanges></Clock>\n	Hungry_Donkey_bar_English_2-103-1	59.973	26	1.0.0.18	1	-1397191310	Standard	2.0.10.353	2.0.10.353	05-20-2015	5/20/2015 8:38:59 PM	16:38:59	2.0.10.248	46	Bar50-50.bmp	46	2	?	10r_4g.bmp	0r_4g.bmp	2r_2g.bmp	0r_2g.bmp		0r_4g.bmp			TrialProc	TrialList	0	cvbn	-999999	17	247711	0	v	2368	250079	134	-155	-21	0	-44	5	18	4	5	46	-10	0	-2	0	4	4	2	2	0	4
Hungry_Donkey_bar_English_2	103	1	<?xml version="1.0"?>\n<Clock xmlns:dt="urn:schemas-microsoft-com:datatypes"><Description dt:dt="string">E-Prime Primary Realtime Clock</Description><StartTime><Timestamp dt:dt="int">0</Timestamp><DateUtc dt:dt="string">2015-05-20T20:38:59Z</DateUtc></StartTime><FrequencyChanges><FrequencyChange><Frequency dt:dt="r8">2597675</Frequency><Timestamp dt:dt="r8">2897258735</Timestamp><Current dt:dt="r8">0</Current><DateUtc dt:dt="string">2015-05-20T20:38:59Z</DateUtc></FrequencyChange></FrequencyChanges></Clock>\n	Hungry_Donkey_bar_English_2-103-1	59.973	26	1.0.0.18	1	-1397191310	Standard	2.0.10.353	2.0.10.353	05-20-2015	5/20/2015 8:38:59 PM	16:38:59	2.0.10.248	47	Bar50-50.bmp	47	4	?	0r_4g.bmp	0r_4g.bmp	0r_2g.bmp	0r_2g.bmp				0r_2g.bmp	TrialProc	TrialList	0	cvbn	-999999	17	252113	0	n	1951	254064	136	-155	-19	0	-44	5	20	6	5	47	0	0	0	0	4	4	2	2	0	2
Hungry_Donkey_bar_English_2	103	1	<?xml version="1.0"?>\n<Clock xmlns:dt="urn:schemas-microsoft-com:datatypes"><Description dt:dt="string">E-Prime Primary Realtime Clock</Description><StartTime><Timestamp dt:dt="int">0</Timestamp><DateUtc dt:dt="string">2015-05-20T20:38:59Z</DateUtc></StartTime><FrequencyChanges><FrequencyChange><Frequency dt:dt="r8">2597675</Frequency><Timestamp dt:dt="r8">2897258735</Timestamp><Current dt:dt="r8">0</Current><DateUtc dt:dt="string">2015-05-20T20:38:59Z</DateUtc></FrequencyChange></FrequencyChanges></Clock>\n	Hungry_Donkey_bar_English_2-103-1	59.973	26	1.0.0.18	1	-1397191310	Standard	2.0.10.353	2.0.10.353	05-20-2015	5/20/2015 8:38:59 PM	16:38:59	2.0.10.248	48	Bar50-50.bmp	46	1	?	12r_4g.bmp	0r_4g.bmp	3r_2g.bmp	0r_2g.bmp	12r_4g.bmp				TrialProc	TrialList	0	cvbn	-999999	17	256098	0	c	1597	257695	140	-167	-27	-8	-44	5	20	5	5	48	-12	0	-3	0	4	4	2	2	-12	4
Hungry_Donkey_bar_English_2	103	1	<?xml version="1.0"?>\n<Clock xmlns:dt="urn:schemas-microsoft-com:datatypes"><Description dt:dt="string">E-Prime Primary Realtime Clock</Description><StartTime><Timestamp dt:dt="int">0</Timestamp><DateUtc dt:dt="string">2015-05-20T20:38:59Z</DateUtc></StartTime><FrequencyChanges><FrequencyChange><Frequency dt:dt="r8">2597675</Frequency><Timestamp dt:dt="r8">2897258735</Timestamp><Current dt:dt="r8">0</Current><DateUtc dt:dt="string">2015-05-20T20:38:59Z</DateUtc></FrequencyChange></FrequencyChanges></Clock>\n	Hungry_Donkey_bar_English_2-103-1	59.973	26	1.0.0.18	1	-1397191310	Standard	2.0.10.353	2.0.10.353	05-20-2015	5/20/2015 8:38:59 PM	16:38:59	2.0.10.248	49	Bar50-50.bmp	46	2	?	10r_4g.bmp	0r_4g.bmp	2r_2g.bmp	0r_2g.bmp		0r_4g.bmp			TrialProc	TrialList	0	cvbn	-999999	18	259767	0	v	1272	261039	144	-167	-23	-8	-40	5	20	3	5	49	-10	0	-2	0	4	4	2	2	0	4
Hungry_Donkey_bar_English_2	103	1	<?xml version="1.0"?>\n<Clock xmlns:dt="urn:schemas-microsoft-com:datatypes"><Description dt:dt="string">E-Prime Primary Realtime Clock</Description><StartTime><Timestamp dt:dt="int">0</Timestamp><DateUtc dt:dt="string">2015-05-20T20:38:59Z</DateUtc></StartTime><FrequencyChanges><FrequencyChange><Frequency dt:dt="r8">2597675</Frequency><Timestamp dt:dt="r8">2897258735</Timestamp><Current dt:dt="r8">0</Current><DateUtc dt:dt="string">2015-05-20T20:38:59Z</DateUtc></FrequencyChange></FrequencyChanges></Clock>\n	Hungry_Donkey_bar_English_2-103-1	59.973	26	1.0.0.18	1	-1397191310	Standard	2.0.10.353	2.0.10.353	05-20-2015	5/20/2015 8:38:59 PM	16:38:59	2.0.10.248	50	Bar50-50.bmp	47	4	?	0r_4g.bmp	0r_4g.bmp	0r_2g.bmp	0r_2g.bmp				0r_2g.bmp	TrialProc	TrialList	0	cvbn	-999999	17	263068	0	n	771	263839	146	-167	-21	-8	-40	5	22	9	5	50	0	0	0	0	4	4	2	2	0	2
Hungry_Donkey_bar_English_2	103	1	<?xml version="1.0"?>\n<Clock xmlns:dt="urn:schemas-microsoft-com:datatypes"><Description dt:dt="string">E-Prime Primary Realtime Clock</Description><StartTime><Timestamp dt:dt="int">0</Timestamp><DateUtc dt:dt="string">2015-05-20T20:38:59Z</DateUtc></StartTime><FrequencyChanges><FrequencyChange><Frequency dt:dt="r8">2597675</Frequency><Timestamp dt:dt="r8">2897258735</Timestamp><Current dt:dt="r8">0</Current><DateUtc dt:dt="string">2015-05-20T20:38:59Z</DateUtc></FrequencyChange></FrequencyChanges></Clock>\n	Hungry_Donkey_bar_English_2-103-1	59.973	26	1.0.0.18	1	-1397191310	Standard	2.0.10.353	2.0.10.353	05-20-2015	5/20/2015 8:38:59 PM	16:38:59	2.0.10.248	51	Bar50-50.bmp	47	3	?	10r_4g.bmp	0r_4g.bmp	2r_2g.bmp	0r_2g.bmp			2r_2g.bmp		TrialProc	TrialList	0	cvbn	-999999	18	265870	0	b	481	266351	148	-169	-21	-8	-40	5	22	3	6	51	-10	0	-2	0	4	4	2	2	-2	2
Hungry_Donkey_bar_English_2	103	1	<?xml version="1.0"?>\n<Clock xmlns:dt="urn:schemas-microsoft-com:datatypes"><Description dt:dt="string">E-Prime Primary Realtime Clock</Description><StartTime><Timestamp dt:dt="int">0</Timestamp><DateUtc dt:dt="string">2015-05-20T20:38:59Z</DateUtc></StartTime><FrequencyChanges><FrequencyChange><Frequency dt:dt="r8">2597675</Frequency><Timestamp dt:dt="r8">2897258735</Timestamp><Current dt:dt="r8">0</Current><DateUtc dt:dt="string">2015-05-20T20:38:59Z</DateUtc></FrequencyChange></FrequencyChanges></Clock>\n	Hungry_Donkey_bar_English_2-103-1	59.973	26	1.0.0.18	1	-1397191310	Standard	2.0.10.353	2.0.10.353	05-20-2015	5/20/2015 8:38:59 PM	16:38:59	2.0.10.248	52	Bar50-50.bmp	47	1	?	0r_4g.bmp	0r_4g.bmp	0r_2g.bmp	0r_2g.bmp	0r_4g.bmp				TrialProc	TrialList	0	cvbn	-999999	17	268387	0	c	1164	269551	152	-169	-17	-4	-40	5	22	9	6	52	0	0	0	0	4	4	2	2	0	4
Hungry_Donkey_bar_English_2	103	1	<?xml version="1.0"?>\n<Clock xmlns:dt="urn:schemas-microsoft-com:datatypes"><Description dt:dt="string">E-Prime Primary Realtime Clock</Description><StartTime><Timestamp dt:dt="int">0</Timestamp><DateUtc dt:dt="string">2015-05-20T20:38:59Z</DateUtc></StartTime><FrequencyChanges><FrequencyChange><Frequency dt:dt="r8">2597675</Frequency><Timestamp dt:dt="r8">2897258735</Timestamp><Current dt:dt="r8">0</Current><DateUtc dt:dt="string">2015-05-20T20:38:59Z</DateUtc></FrequencyChange></FrequencyChanges></Clock>\n	Hungry_Donkey_bar_English_2-103-1	59.973	26	1.0.0.18	1	-1397191310	Standard	2.0.10.353	2.0.10.353	05-20-2015	5/20/2015 8:38:59 PM	16:38:59	2.0.10.248	53	Bar50-50.bmp	48	3	?	0r_4g.bmp	0r_4g.bmp	0r_2g.bmp	0r_2g.bmp			0r_2g.bmp		TrialProc	TrialList	0	cvbn	-999999	18	271589	0	b	2074	273663	154	-169	-15	-4	-40	7	22	10	6	53	0	0	0	0	4	4	2	2	0	2
Hungry_Donkey_bar_English_2	103	1	<?xml version="1.0"?>\n<Clock xmlns:dt="urn:schemas-microsoft-com:datatypes"><Description dt:dt="string">E-Prime Primary Realtime Clock</Description><StartTime><Timestamp dt:dt="int">0</Timestamp><DateUtc dt:dt="string">2015-05-20T20:38:59Z</DateUtc></StartTime><FrequencyChanges><FrequencyChange><Frequency dt:dt="r8">2597675</Frequency><Timestamp dt:dt="r8">2897258735</Timestamp><Current dt:dt="r8">0</Current><DateUtc dt:dt="string">2015-05-20T20:38:59Z</DateUtc></FrequencyChange></FrequencyChanges></Clock>\n	Hungry_Donkey_bar_English_2-103-1	59.973	26	1.0.0.18	1	-1397191310	Standard	2.0.10.353	2.0.10.353	05-20-2015	5/20/2015 8:38:59 PM	16:38:59	2.0.10.248	54	Bar50-50.bmp	48	4	?	10r_4g.bmp	0r_4g.bmp	2r_2g.bmp	0r_2g.bmp				0r_2g.bmp	TrialProc	TrialList	0	cvbn	-999999	17	275691	0	n	1076	276767	156	-169	-13	-4	-40	7	24	4	6	54	-10	0	-2	0	4	4	2	2	0	2
Hungry_Donkey_bar_English_2	103	1	<?xml version="1.0"?>\n<Clock xmlns:dt="urn:schemas-microsoft-com:datatypes"><Description dt:dt="string">E-Prime Primary Realtime Clock</Description><StartTime><Timestamp dt:dt="int">0</Timestamp><DateUtc dt:dt="string">2015-05-20T20:38:59Z</DateUtc></StartTime><FrequencyChanges><FrequencyChange><Frequency dt:dt="r8">2597675</Frequency><Timestamp dt:dt="r8">2897258735</Timestamp><Current dt:dt="r8">0</Current><DateUtc dt:dt="string">2015-05-20T20:38:59Z</DateUtc></FrequencyChange></FrequencyChanges></Clock>\n	Hungry_Donkey_bar_English_2-103-1	59.973	26	1.0.0.18	1	-1397191310	Standard	2.0.10.353	2.0.10.353	05-20-2015	5/20/2015 8:38:59 PM	16:38:59	2.0.10.248	55	Bar50-50.bmp	48	3	?	8r_4g.bmp	50r_4g.bmp	1r_2g.bmp	10r_2g.bmp			1r_2g.bmp		TrialProc	TrialList	0	cvbn	-999999	18	278809	0	b	1350	280159	158	-170	-12	-4	-40	8	24	1	6	55	-8	-50	-1	-10	4	4	2	2	-1	2
Hungry_Donkey_bar_English_2	103	1	<?xml version="1.0"?>\n<Clock xmlns:dt="urn:schemas-microsoft-com:datatypes"><Description dt:dt="string">E-Prime Primary Realtime Clock</Description><StartTime><Timestamp dt:dt="int">0</Timestamp><DateUtc dt:dt="string">2015-05-20T20:38:59Z</DateUtc></StartTime><FrequencyChanges><FrequencyChange><Frequency dt:dt="r8">2597675</Frequency><Timestamp dt:dt="r8">2897258735</Timestamp><Current dt:dt="r8">0</Current><DateUtc dt:dt="string">2015-05-20T20:38:59Z</DateUtc></FrequencyChange></FrequencyChanges></Clock>\n	Hungry_Donkey_bar_English_2-103-1	59.973	26	1.0.0.18	1	-1397191310	Standard	2.0.10.353	2.0.10.353	05-20-2015	5/20/2015 8:38:59 PM	16:38:59	2.0.10.248	56	Bar50-50.bmp	48	4	?	10r_4g.bmp	0r_4g.bmp	2r_2g.bmp	0r_2g.bmp				0r_2g.bmp	TrialProc	TrialList	0	cvbn	-999999	18	282227	0	n	1452	283679	160	-170	-10	-4	-40	8	26	2	6	56	-10	0	-2	0	4	4	2	2	0	2
Hungry_Donkey_bar_English_2	103	1	<?xml version="1.0"?>\n<Clock xmlns:dt="urn:schemas-microsoft-com:datatypes"><Description dt:dt="string">E-Prime Primary Realtime Clock</Description><StartTime><Timestamp dt:dt="int">0</Timestamp><DateUtc dt:dt="string">2015-05-20T20:38:59Z</DateUtc></StartTime><FrequencyChanges><FrequencyChange><Frequency dt:dt="r8">2597675</Frequency><Timestamp dt:dt="r8">2897258735</Timestamp><Current dt:dt="r8">0</Current><DateUtc dt:dt="string">2015-05-20T20:38:59Z</DateUtc></FrequencyChange></FrequencyChanges></Clock>\n	Hungry_Donkey_bar_English_2-103-1	59.973	26	1.0.0.18	1	-1397191310	Standard	2.0.10.353	2.0.10.353	05-20-2015	5/20/2015 8:38:59 PM	16:38:59	2.0.10.248	57	Bar50-50.bmp	47	1	?	12r_4g.bmp	0r_4g.bmp	3r_2g.bmp	0r_2g.bmp	12r_4g.bmp				TrialProc	TrialList	0	cvbn	-999999	18	285712	0	c	239	285951	164	-182	-18	-12	-40	8	26	5	6	57	-12	0	-3	0	4	4	2	2	-12	4
Hungry_Donkey_bar_English_2	103	1	<?xml version="1.0"?>\n<Clock xmlns:dt="urn:schemas-microsoft-com:datatypes"><Description dt:dt="string">E-Prime Primary Realtime Clock</Description><StartTime><Timestamp dt:dt="int">0</Timestamp><DateUtc dt:dt="string">2015-05-20T20:38:59Z</DateUtc></StartTime><FrequencyChanges><FrequencyChange><Frequency dt:dt="r8">2597675</Frequency><Timestamp dt:dt="r8">2897258735</Timestamp><Current dt:dt="r8">0</Current><DateUtc dt:dt="string">2015-05-20T20:38:59Z</DateUtc></FrequencyChange></FrequencyChanges></Clock>\n	Hungry_Donkey_bar_English_2-103-1	59.973	26	1.0.0.18	1	-1397191310	Standard	2.0.10.353	2.0.10.353	05-20-2015	5/20/2015 8:38:59 PM	16:38:59	2.0.10.248	58	Bar50-50.bmp	48	2	?	0r_4g.bmp	0r_4g.bmp	0r_2g.bmp	0r_2g.bmp		0r_4g.bmp			TrialProc	TrialList	0	cvbn	-999999	18	287980	0	v	435	288415	168	-182	-14	-12	-36	8	26	8	6	58	0	0	0	0	4	4	2	2	0	4
Hungry_Donkey_bar_English_2	103	1	<?xml version="1.0"?>\n<Clock xmlns:dt="urn:schemas-microsoft-com:datatypes"><Description dt:dt="string">E-Prime Primary Realtime Clock</Description><StartTime><Timestamp dt:dt="int">0</Timestamp><DateUtc dt:dt="string">2015-05-20T20:38:59Z</DateUtc></StartTime><FrequencyChanges><FrequencyChange><Frequency dt:dt="r8">2597675</Frequency><Timestamp dt:dt="r8">2897258735</Timestamp><Current dt:dt="r8">0</Current><DateUtc dt:dt="string">2015-05-20T20:38:59Z</DateUtc></FrequencyChange></FrequencyChanges></Clock>\n	Hungry_Donkey_bar_English_2-103-1	59.973	26	1.0.0.18	1	-1397191310	Standard	2.0.10.353	2.0.10.353	05-20-2015	5/20/2015 8:38:59 PM	16:38:59	2.0.10.248	59	Bar50-50.bmp	48	4	?	0r_4g.bmp	0r_4g.bmp	0r_2g.bmp	0r_2g.bmp				0r_2g.bmp	TrialProc	TrialList	0	cvbn	-999999	17	290447	0	n	608	291055	170	-182	-12	-12	-36	8	28	7	6	59	0	0	0	0	4	4	2	2	0	2
Hungry_Donkey_bar_English_2	103	1	<?xml version="1.0"?>\n<Clock xmlns:dt="urn:schemas-microsoft-com:datatypes"><Description dt:dt="string">E-Prime Primary Realtime Clock</Description><StartTime><Timestamp dt:dt="int">0</Timestamp><DateUtc dt:dt="string">2015-05-20T20:38:59Z</DateUtc></StartTime><FrequencyChanges><FrequencyChange><Frequency dt:dt="r8">2597675</Frequency><Timestamp dt:dt="r8">2897258735</Timestamp><Current dt:dt="r8">0</Current><DateUtc dt:dt="string">2015-05-20T20:38:59Z</DateUtc></FrequencyChange></FrequencyChanges></Clock>\n	Hungry_Donkey_bar_English_2-103-1	59.973	26	1.0.0.18	1	-1397191310	Standard	2.0.10.353	2.0.10.353	05-20-2015	5/20/2015 8:38:59 PM	16:38:59	2.0.10.248	60	Bar50-50.bmp	49	2	?	0r_4g.bmp	0r_4g.bmp	0r_2g.bmp	0r_2g.bmp		0r_4g.bmp			TrialProc	TrialList	0	cvbn	-999999	18	293099	0	v	516	293615	174	-182	-8	-12	-32	8	28	6	6	60	0	0	0	0	4	4	2	2	0	4
Hungry_Donkey_bar_English_2	103	1	<?xml version="1.0"?>\n<Clock xmlns:dt="urn:schemas-microsoft-com:datatypes"><Description dt:dt="string">E-Prime Primary Realtime Clock</Description><StartTime><Timestamp dt:dt="int">0</Timestamp><DateUtc dt:dt="string">2015-05-20T20:38:59Z</DateUtc></StartTime><FrequencyChanges><FrequencyChange><Frequency dt:dt="r8">2597675</Frequency><Timestamp dt:dt="r8">2897258735</Timestamp><Current dt:dt="r8">0</Current><DateUtc dt:dt="string">2015-05-20T20:38:59Z</DateUtc></FrequencyChange></FrequencyChanges></Clock>\n	Hungry_Donkey_bar_English_2-103-1	59.973	26	1.0.0.18	1	-1397191310	Standard	2.0.10.353	2.0.10.353	05-20-2015	5/20/2015 8:38:59 PM	16:38:59	2.0.10.248	61	Bar50-50.bmp	49	1	?	0r_4g.bmp	0r_4g.bmp	0r_2g.bmp	0r_2g.bmp	0r_4g.bmp				TrialProc	TrialList	0	cvbn	-999999	18	295650	0	c	765	296415	178	-182	-4	-8	-32	8	28	6	7	61	0	0	0	0	4	4	2	2	0	4
Hungry_Donkey_bar_English_2	103	1	<?xml version="1.0"?>\n<Clock xmlns:dt="urn:schemas-microsoft-com:datatypes"><Description dt:dt="string">E-Prime Primary Realtime Clock</Description><StartTime><Timestamp dt:dt="int">0</Timestamp><DateUtc dt:dt="string">2015-05-20T20:38:59Z</DateUtc></StartTime><FrequencyChanges><FrequencyChange><Frequency dt:dt="r8">2597675</Frequency><Timestamp dt:dt="r8">2897258735</Timestamp><Current dt:dt="r8">0</Current><DateUtc dt:dt="string">2015-05-20T20:38:59Z</DateUtc></FrequencyChange></FrequencyChanges></Clock>\n	Hungry_Donkey_bar_English_2-103-1	59.973	26	1.0.0.18	1	-1397191310	Standard	2.0.10.353	2.0.10.353	05-20-2015	5/20/2015 8:38:59 PM	16:38:59	2.0.10.248	62	Bar50-50.bmp	49	3	?	10r_4g.bmp	0r_4g.bmp	2r_2g.bmp	0r_2g.bmp			2r_2g.bmp		TrialProc	TrialList	0	cvbn	-999999	18	298451	0	b	2060	300511	180	-184	-4	-8	-32	8	28	2	7	62	-10	0	-2	0	4	4	2	2	-2	2
Hungry_Donkey_bar_English_2	103	1	<?xml version="1.0"?>\n<Clock xmlns:dt="urn:schemas-microsoft-com:datatypes"><Description dt:dt="string">E-Prime Primary Realtime Clock</Description><StartTime><Timestamp dt:dt="int">0</Timestamp><DateUtc dt:dt="string">2015-05-20T20:38:59Z</DateUtc></StartTime><FrequencyChanges><FrequencyChange><Frequency dt:dt="r8">2597675</Frequency><Timestamp dt:dt="r8">2897258735</Timestamp><Current dt:dt="r8">0</Current><DateUtc dt:dt="string">2015-05-20T20:38:59Z</DateUtc></FrequencyChange></FrequencyChanges></Clock>\n	Hungry_Donkey_bar_English_2-103-1	59.973	26	1.0.0.18	1	-1397191310	Standard	2.0.10.353	2.0.10.353	05-20-2015	5/20/2015 8:38:59 PM	16:38:59	2.0.10.248	63	Bar50-50.bmp	50	2	?	12r_4g.bmp	0r_4g.bmp	3r_2g.bmp	0r_2g.bmp		0r_4g.bmp			TrialProc	TrialList	0	cvbn	-999999	18	302553	0	v	1398	303951	184	-184	0	-8	-28	8	28	5	7	63	-12	0	-3	0	4	4	2	2	0	4
Hungry_Donkey_bar_English_2	103	1	<?xml version="1.0"?>\n<Clock xmlns:dt="urn:schemas-microsoft-com:datatypes"><Description dt:dt="string">E-Prime Primary Realtime Clock</Description><StartTime><Timestamp dt:dt="int">0</Timestamp><DateUtc dt:dt="string">2015-05-20T20:38:59Z</DateUtc></StartTime><FrequencyChanges><FrequencyChange><Frequency dt:dt="r8">2597675</Frequency><Timestamp dt:dt="r8">2897258735</Timestamp><Current dt:dt="r8">0</Current><DateUtc dt:dt="string">2015-05-20T20:38:59Z</DateUtc></FrequencyChange></FrequencyChanges></Clock>\n	Hungry_Donkey_bar_English_2-103-1	59.973	26	1.0.0.18	1	-1397191310	Standard	2.0.10.353	2.0.10.353	05-20-2015	5/20/2015 8:38:59 PM	16:38:59	2.0.10.248	64	Bar50-50.bmp	50	4	?	10r_4g.bmp	0r_4g.bmp	2r_2g.bmp	0r_2g.bmp				0r_2g.bmp	TrialProc	TrialList	0	cvbn	-999999	18	305988	0	n	603	306591	186	-184	2	-8	-28	8	30	3	7	64	-10	0	-2	0	4	4	2	2	0	2
Hungry_Donkey_bar_English_2	103	1	<?xml version="1.0"?>\n<Clock xmlns:dt="urn:schemas-microsoft-com:datatypes"><Description dt:dt="string">E-Prime Primary Realtime Clock</Description><StartTime><Timestamp dt:dt="int">0</Timestamp><DateUtc dt:dt="string">2015-05-20T20:38:59Z</DateUtc></StartTime><FrequencyChanges><FrequencyChange><Frequency dt:dt="r8">2597675</Frequency><Timestamp dt:dt="r8">2897258735</Timestamp><Current dt:dt="r8">0</Current><DateUtc dt:dt="string">2015-05-20T20:38:59Z</DateUtc></FrequencyChange></FrequencyChanges></Clock>\n	Hungry_Donkey_bar_English_2-103-1	59.973	26	1.0.0.18	1	-1397191310	Standard	2.0.10.353	2.0.10.353	05-20-2015	5/20/2015 8:38:59 PM	16:38:59	2.0.10.248	65	Bar50-50.bmp	51	3	?	0r_4g.bmp	0r_4g.bmp	0r_2g.bmp	0r_2g.bmp			0r_2g.bmp		TrialProc	TrialList	0	cvbn	-999999	17	308622	0	b	1361	309983	188	-184	4	-8	-28	10	30	8	7	65	0	0	0	0	4	4	2	2	0	2
Hungry_Donkey_bar_English_2	103	1	<?xml version="1.0"?>\n<Clock xmlns:dt="urn:schemas-microsoft-com:datatypes"><Description dt:dt="string">E-Prime Primary Realtime Clock</Description><StartTime><Timestamp dt:dt="int">0</Timestamp><DateUtc dt:dt="string">2015-05-20T20:38:59Z</DateUtc></StartTime><FrequencyChanges><FrequencyChange><Frequency dt:dt="r8">2597675</Frequency><Timestamp dt:dt="r8">2897258735</Timestamp><Current dt:dt="r8">0</Current><DateUtc dt:dt="string">2015-05-20T20:38:59Z</DateUtc></FrequencyChange></FrequencyChanges></Clock>\n	Hungry_Donkey_bar_English_2-103-1	59.973	26	1.0.0.18	1	-1397191310	Standard	2.0.10.353	2.0.10.353	05-20-2015	5/20/2015 8:38:59 PM	16:38:59	2.0.10.248	66	Bar50-50.bmp	51	4	?	0r_4g.bmp	0r_4g.bmp	0r_2g.bmp	0r_2g.bmp				0r_2g.bmp	TrialProc	TrialList	0	cvbn	-999999	18	312024	0	n	471	312495	190	-184	6	-8	-28	10	32	10	7	66	0	0	0	0	4	4	2	2	0	2
Hungry_Donkey_bar_English_2	103	1	<?xml version="1.0"?>\n<Clock xmlns:dt="urn:schemas-microsoft-com:datatypes"><Description dt:dt="string">E-Prime Primary Realtime Clock</Description><StartTime><Timestamp dt:dt="int">0</Timestamp><DateUtc dt:dt="string">2015-05-20T20:38:59Z</DateUtc></StartTime><FrequencyChanges><FrequencyChange><Frequency dt:dt="r8">2597675</Frequency><Timestamp dt:dt="r8">2897258735</Timestamp><Current dt:dt="r8">0</Current><DateUtc dt:dt="string">2015-05-20T20:38:59Z</DateUtc></FrequencyChange></FrequencyChanges></Clock>\n	Hungry_Donkey_bar_English_2-103-1	59.973	26	1.0.0.18	1	-1397191310	Standard	2.0.10.353	2.0.10.353	05-20-2015	5/20/2015 8:38:59 PM	16:38:59	2.0.10.248	67	Bar50-50.bmp	45	2	?	8r_4g.bmp	50r_4g.bmp	1r_2g.bmp	10r_2g.bmp		50r_4g.bmp			TrialProc	TrialList	0	cvbn	-999999	18	314525	0	v	546	315071	194	-234	-40	-8	-74	10	32	1	7	67	-8	-50	-1	-10	4	4	2	2	-50	4
Hungry_Donkey_bar_English_2	103	1	<?xml version="1.0"?>\n<Clock xmlns:dt="urn:schemas-microsoft-com:datatypes"><Description dt:dt="string">E-Prime Primary Realtime Clock</Description><StartTime><Timestamp dt:dt="int">0</Timestamp><DateUtc dt:dt="string">2015-05-20T20:38:59Z</DateUtc></StartTime><FrequencyChanges><FrequencyChange><Frequency dt:dt="r8">2597675</Frequency><Timestamp dt:dt="r8">2897258735</Timestamp><Current dt:dt="r8">0</Current><DateUtc dt:dt="string">2015-05-20T20:38:59Z</DateUtc></FrequencyChange></FrequencyChanges></Clock>\n	Hungry_Donkey_bar_English_2-103-1	59.973	26	1.0.0.18	1	-1397191310	Standard	2.0.10.353	2.0.10.353	05-20-2015	5/20/2015 8:38:59 PM	16:38:59	2.0.10.248	68	Bar50-50.bmp	46	2	?	0r_4g.bmp	0r_4g.bmp	0r_2g.bmp	0r_2g.bmp		0r_4g.bmp			TrialProc	TrialList	0	cvbn	-999999	17	317109	0	v	794	317903	198	-234	-36	-8	-70	10	32	9	7	68	0	0	0	0	4	4	2	2	0	4
Hungry_Donkey_bar_English_2	103	1	<?xml version="1.0"?>\n<Clock xmlns:dt="urn:schemas-microsoft-com:datatypes"><Description dt:dt="string">E-Prime Primary Realtime Clock</Description><StartTime><Timestamp dt:dt="int">0</Timestamp><DateUtc dt:dt="string">2015-05-20T20:38:59Z</DateUtc></StartTime><FrequencyChanges><FrequencyChange><Frequency dt:dt="r8">2597675</Frequency><Timestamp dt:dt="r8">2897258735</Timestamp><Current dt:dt="r8">0</Current><DateUtc dt:dt="string">2015-05-20T20:38:59Z</DateUtc></FrequencyChange></FrequencyChanges></Clock>\n	Hungry_Donkey_bar_English_2-103-1	59.973	26	1.0.0.18	1	-1397191310	Standard	2.0.10.353	2.0.10.353	05-20-2015	5/20/2015 8:38:59 PM	16:38:59	2.0.10.248	69	Bar50-50.bmp	46	2	?	10r_4g.bmp	0r_4g.bmp	2r_2g.bmp	0r_2g.bmp		0r_4g.bmp			TrialProc	TrialList	0	cvbn	-999999	18	319944	0	v	551	320495	202	-234	-32	-8	-66	10	32	4	7	69	-10	0	-2	0	4	4	2	2	0	4
Hungry_Donkey_bar_English_2	103	1	<?xml version="1.0"?>\n<Clock xmlns:dt="urn:schemas-microsoft-com:datatypes"><Description dt:dt="string">E-Prime Primary Realtime Clock</Description><StartTime><Timestamp dt:dt="int">0</Timestamp><DateUtc dt:dt="string">2015-05-20T20:38:59Z</DateUtc></StartTime><FrequencyChanges><FrequencyChange><Frequency dt:dt="r8">2597675</Frequency><Timestamp dt:dt="r8">2897258735</Timestamp><Current dt:dt="r8">0</Current><DateUtc dt:dt="string">2015-05-20T20:38:59Z</DateUtc></FrequencyChange></FrequencyChanges></Clock>\n	Hungry_Donkey_bar_English_2-103-1	59.973	26	1.0.0.18	1	-1397191310	Standard	2.0.10.353	2.0.10.353	05-20-2015	5/20/2015 8:38:59 PM	16:38:59	2.0.10.248	70	Bar50-50.bmp	47	4	?	0r_4g.bmp	0r_4g.bmp	0r_2g.bmp	0r_2g.bmp				0r_2g.bmp	TrialProc	TrialList	0	cvbn	-999999	18	322529	0	n	702	323231	204	-234	-30	-8	-66	10	34	7	7	70	0	0	0	0	4	4	2	2	0	2
Hungry_Donkey_bar_English_2	103	1	<?xml version="1.0"?>\n<Clock xmlns:dt="urn:schemas-microsoft-com:datatypes"><Description dt:dt="string">E-Prime Primary Realtime Clock</Description><StartTime><Timestamp dt:dt="int">0</Timestamp><DateUtc dt:dt="string">2015-05-20T20:38:59Z</DateUtc></StartTime><FrequencyChanges><FrequencyChange><Frequency dt:dt="r8">2597675</Frequency><Timestamp dt:dt="r8">2897258735</Timestamp><Current dt:dt="r8">0</Current><DateUtc dt:dt="string">2015-05-20T20:38:59Z</DateUtc></FrequencyChange></FrequencyChanges></Clock>\n	Hungry_Donkey_bar_English_2-103-1	59.973	26	1.0.0.18	1	-1397191310	Standard	2.0.10.353	2.0.10.353	05-20-2015	5/20/2015 8:38:59 PM	16:38:59	2.0.10.248	71	Bar50-50.bmp	47	4	?	0r_4g.bmp	0r_4g.bmp	0r_2g.bmp	0r_2g.bmp				0r_2g.bmp	TrialProc	TrialList	0	cvbn	-999999	17	325263	0	n	432	325695	206	-234	-28	-8	-66	10	36	8	8	71	0	0	0	0	4	4	2	2	0	2
Hungry_Donkey_bar_English_2	103	1	<?xml version="1.0"?>\n<Clock xmlns:dt="urn:schemas-microsoft-com:datatypes"><Description dt:dt="string">E-Prime Primary Realtime Clock</Description><StartTime><Timestamp dt:dt="int">0</Timestamp><DateUtc dt:dt="string">2015-05-20T20:38:59Z</DateUtc></StartTime><FrequencyChanges><FrequencyChange><Frequency dt:dt="r8">2597675</Frequency><Timestamp dt:dt="r8">2897258735</Timestamp><Current dt:dt="r8">0</Current><DateUtc dt:dt="string">2015-05-20T20:38:59Z</DateUtc></FrequencyChange></FrequencyChanges></Clock>\n	Hungry_Donkey_bar_English_2-103-1	59.973	26	1.0.0.18	1	-1397191310	Standard	2.0.10.353	2.0.10.353	05-20-2015	5/20/2015 8:38:59 PM	16:38:59	2.0.10.248	72	Bar50-50.bmp	47	4	?	12r_4g.bmp	0r_4g.bmp	3r_2g.bmp	0r_2g.bmp				0r_2g.bmp	TrialProc	TrialList	0	cvbn	-999999	18	327731	0	n	363	328094	208	-234	-26	-8	-66	10	38	5	8	72	-12	0	-3	0	4	4	2	2	0	2
Hungry_Donkey_bar_English_2	103	1	<?xml version="1.0"?>\n<Clock xmlns:dt="urn:schemas-microsoft-com:datatypes"><Description dt:dt="string">E-Prime Primary Realtime Clock</Description><StartTime><Timestamp dt:dt="int">0</Timestamp><DateUtc dt:dt="string">2015-05-20T20:38:59Z</DateUtc></StartTime><FrequencyChanges><FrequencyChange><Frequency dt:dt="r8">2597675</Frequency><Timestamp dt:dt="r8">2897258735</Timestamp><Current dt:dt="r8">0</Current><DateUtc dt:dt="string">2015-05-20T20:38:59Z</DateUtc></FrequencyChange></FrequencyChanges></Clock>\n	Hungry_Donkey_bar_English_2-103-1	59.973	26	1.0.0.18	1	-1397191310	Standard	2.0.10.353	2.0.10.353	05-20-2015	5/20/2015 8:38:59 PM	16:38:59	2.0.10.248	73	Bar50-50.bmp	47	3	?	10r_4g.bmp	0r_4g.bmp	2r_2g.bmp	0r_2g.bmp			2r_2g.bmp		TrialProc	TrialList	0	cvbn	-999999	18	330132	0	b	298	330430	210	-236	-26	-8	-66	10	38	4	8	73	-10	0	-2	0	4	4	2	2	-2	2
Hungry_Donkey_bar_English_2	103	1	<?xml version="1.0"?>\n<Clock xmlns:dt="urn:schemas-microsoft-com:datatypes"><Description dt:dt="string">E-Prime Primary Realtime Clock</Description><StartTime><Timestamp dt:dt="int">0</Timestamp><DateUtc dt:dt="string">2015-05-20T20:38:59Z</DateUtc></StartTime><FrequencyChanges><FrequencyChange><Frequency dt:dt="r8">2597675</Frequency><Timestamp dt:dt="r8">2897258735</Timestamp><Current dt:dt="r8">0</Current><DateUtc dt:dt="string">2015-05-20T20:38:59Z</DateUtc></FrequencyChange></FrequencyChanges></Clock>\n	Hungry_Donkey_bar_English_2-103-1	59.973	26	1.0.0.18	1	-1397191310	Standard	2.0.10.353	2.0.10.353	05-20-2015	5/20/2015 8:38:59 PM	16:38:59	2.0.10.248	74	Bar50-50.bmp	46	4	?	8r_4g.bmp	50r_4g.bmp	1r_2g.bmp	10r_2g.bmp				10r_2g.bmp	TrialProc	TrialList	0	cvbn	-999999	17	332466	0	n	2524	334990	212	-246	-34	-8	-66	10	30	1	8	74	-8	-50	-1	-10	4	4	2	2	-10	2
Hungry_Donkey_bar_English_2	103	1	<?xml version="1.0"?>\n<Clock xmlns:dt="urn:schemas-microsoft-com:datatypes"><Description dt:dt="string">E-Prime Primary Realtime Clock</Description><StartTime><Timestamp dt:dt="int">0</Timestamp><DateUtc dt:dt="string">2015-05-20T20:38:59Z</DateUtc></StartTime><FrequencyChanges><FrequencyChange><Frequency dt:dt="r8">2597675</Frequency><Timestamp dt:dt="r8">2897258735</Timestamp><Current dt:dt="r8">0</Current><DateUtc dt:dt="string">2015-05-20T20:38:59Z</DateUtc></FrequencyChange></FrequencyChanges></Clock>\n	Hungry_Donkey_bar_English_2-103-1	59.973	26	1.0.0.18	1	-1397191310	Standard	2.0.10.353	2.0.10.353	05-20-2015	5/20/2015 8:38:59 PM	16:38:59	2.0.10.248	75	Bar50-50.bmp	47	3	?	0r_4g.bmp	0r_4g.bmp	0r_2g.bmp	0r_2g.bmp			0r_2g.bmp		TrialProc	TrialList	0	cvbn	-999999	17	337035	0	b	1731	338766	214	-246	-32	-8	-66	12	30	7	8	75	0	0	0	0	4	4	2	2	0	2
Hungry_Donkey_bar_English_2	103	1	<?xml version="1.0"?>\n<Clock xmlns:dt="urn:schemas-microsoft-com:datatypes"><Description dt:dt="string">E-Prime Primary Realtime Clock</Description><StartTime><Timestamp dt:dt="int">0</Timestamp><DateUtc dt:dt="string">2015-05-20T20:38:59Z</DateUtc></StartTime><FrequencyChanges><FrequencyChange><Frequency dt:dt="r8">2597675</Frequency><Timestamp dt:dt="r8">2897258735</Timestamp><Current dt:dt="r8">0</Current><DateUtc dt:dt="string">2015-05-20T20:38:59Z</DateUtc></FrequencyChange></FrequencyChanges></Clock>\n	Hungry_Donkey_bar_English_2-103-1	59.973	26	1.0.0.18	1	-1397191310	Standard	2.0.10.353	2.0.10.353	05-20-2015	5/20/2015 8:38:59 PM	16:38:59	2.0.10.248	76	Bar50-50.bmp	47	2	?	0r_4g.bmp	0r_4g.bmp	0r_2g.bmp	0r_2g.bmp		0r_4g.bmp			TrialProc	TrialList	0	cvbn	-999999	17	340803	0	v	491	341294	218	-246	-28	-8	-62	12	30	9	8	76	0	0	0	0	4	4	2	2	0	4
Hungry_Donkey_bar_English_2	103	1	<?xml version="1.0"?>\n<Clock xmlns:dt="urn:schemas-microsoft-com:datatypes"><Description dt:dt="string">E-Prime Primary Realtime Clock</Description><StartTime><Timestamp dt:dt="int">0</Timestamp><DateUtc dt:dt="string">2015-05-20T20:38:59Z</DateUtc></StartTime><FrequencyChanges><FrequencyChange><Frequency dt:dt="r8">2597675</Frequency><Timestamp dt:dt="r8">2897258735</Timestamp><Current dt:dt="r8">0</Current><DateUtc dt:dt="string">2015-05-20T20:38:59Z</DateUtc></FrequencyChange></FrequencyChanges></Clock>\n	Hungry_Donkey_bar_English_2-103-1	59.973	26	1.0.0.18	1	-1397191310	Standard	2.0.10.353	2.0.10.353	05-20-2015	5/20/2015 8:38:59 PM	16:38:59	2.0.10.248	77	Bar50-50.bmp	47	4	?	0r_4g.bmp	0r_4g.bmp	0r_2g.bmp	0r_2g.bmp				0r_2g.bmp	TrialProc	TrialList	0	cvbn	-999999	18	343338	0	n	452	343790	220	-246	-26	-8	-62	12	32	10	8	77	0	0	0	0	4	4	2	2	0	2
Hungry_Donkey_bar_English_2	103	1	<?xml version="1.0"?>\n<Clock xmlns:dt="urn:schemas-microsoft-com:datatypes"><Description dt:dt="string">E-Prime Primary Realtime Clock</Description><StartTime><Timestamp dt:dt="int">0</Timestamp><DateUtc dt:dt="string">2015-05-20T20:38:59Z</DateUtc></StartTime><FrequencyChanges><FrequencyChange><Frequency dt:dt="r8">2597675</Frequency><Timestamp dt:dt="r8">2897258735</Timestamp><Current dt:dt="r8">0</Current><DateUtc dt:dt="string">2015-05-20T20:38:59Z</DateUtc></FrequencyChange></FrequencyChanges></Clock>\n	Hungry_Donkey_bar_English_2-103-1	59.973	26	1.0.0.18	1	-1397191310	Standard	2.0.10.353	2.0.10.353	05-20-2015	5/20/2015 8:38:59 PM	16:38:59	2.0.10.248	78	Bar50-50.bmp	47	3	?	10r_4g.bmp	0r_4g.bmp	2r_2g.bmp	0r_2g.bmp			2r_2g.bmp		TrialProc	TrialList	0	cvbn	-999999	17	345822	0	b	576	346398	222	-248	-26	-8	-62	12	32	3	8	78	-10	0	-2	0	4	4	2	2	-2	2
Hungry_Donkey_bar_English_2	103	1	<?xml version="1.0"?>\n<Clock xmlns:dt="urn:schemas-microsoft-com:datatypes"><Description dt:dt="string">E-Prime Primary Realtime Clock</Description><StartTime><Timestamp dt:dt="int">0</Timestamp><DateUtc dt:dt="string">2015-05-20T20:38:59Z</DateUtc></StartTime><FrequencyChanges><FrequencyChange><Frequency dt:dt="r8">2597675</Frequency><Timestamp dt:dt="r8">2897258735</Timestamp><Current dt:dt="r8">0</Current><DateUtc dt:dt="string">2015-05-20T20:38:59Z</DateUtc></FrequencyChange></FrequencyChanges></Clock>\n	Hungry_Donkey_bar_English_2-103-1	59.973	26	1.0.0.18	1	-1397191310	Standard	2.0.10.353	2.0.10.353	05-20-2015	5/20/2015 8:38:59 PM	16:38:59	2.0.10.248	79	Bar50-50.bmp	48	2	?	0r_4g.bmp	0r_4g.bmp	0r_2g.bmp	0r_2g.bmp		0r_4g.bmp			TrialProc	TrialList	0	cvbn	-999999	17	348440	0	v	342	348782	226	-248	-22	-8	-58	12	32	6	8	79	0	0	0	0	4	4	2	2	0	4
Hungry_Donkey_bar_English_2	103	1	<?xml version="1.0"?>\n<Clock xmlns:dt="urn:schemas-microsoft-com:datatypes"><Description dt:dt="string">E-Prime Primary Realtime Clock</Description><StartTime><Timestamp dt:dt="int">0</Timestamp><DateUtc dt:dt="string">2015-05-20T20:38:59Z</DateUtc></StartTime><FrequencyChanges><FrequencyChange><Frequency dt:dt="r8">2597675</Frequency><Timestamp dt:dt="r8">2897258735</Timestamp><Current dt:dt="r8">0</Current><DateUtc dt:dt="string">2015-05-20T20:38:59Z</DateUtc></FrequencyChange></FrequencyChanges></Clock>\n	Hungry_Donkey_bar_English_2-103-1	59.973	26	1.0.0.18	1	-1397191310	Standard	2.0.10.353	2.0.10.353	05-20-2015	5/20/2015 8:38:59 PM	16:38:59	2.0.10.248	80	Bar50-50.bmp	48	3	?	10r_4g.bmp	0r_4g.bmp	2r_2g.bmp	0r_2g.bmp			2r_2g.bmp		TrialProc	TrialList	0	cvbn	-999999	18	350825	0	b	869	351694	228	-250	-22	-8	-58	12	32	2	8	80	-10	0	-2	0	4	4	2	2	-2	2
Hungry_Donkey_bar_English_2	103	1	<?xml version="1.0"?>\n<Clock xmlns:dt="urn:schemas-microsoft-com:datatypes"><Description dt:dt="string">E-Prime Primary Realtime Clock</Description><StartTime><Timestamp dt:dt="int">0</Timestamp><DateUtc dt:dt="string">2015-05-20T20:38:59Z</DateUtc></StartTime><FrequencyChanges><FrequencyChange><Frequency dt:dt="r8">2597675</Frequency><Timestamp dt:dt="r8">2897258735</Timestamp><Current dt:dt="r8">0</Current><DateUtc dt:dt="string">2015-05-20T20:38:59Z</DateUtc></FrequencyChange></FrequencyChanges></Clock>\n	Hungry_Donkey_bar_English_2-103-1	59.973	26	1.0.0.18	1	-1397191310	Standard	2.0.10.353	2.0.10.353	05-20-2015	5/20/2015 8:38:59 PM	16:38:59	2.0.10.248	81	Bar50-50.bmp	48	4	?	0r_4g.bmp	0r_4g.bmp	0r_2g.bmp	0r_2g.bmp				0r_2g.bmp	TrialProc	TrialList	0	cvbn	-999999	18	353726	0	n	1008	354734	230	-250	-20	-8	-58	12	34	8	9	81	0	0	0	0	4	4	2	2	0	2
Hungry_Donkey_bar_English_2	103	1	<?xml version="1.0"?>\n<Clock xmlns:dt="urn:schemas-microsoft-com:datatypes"><Description dt:dt="string">E-Prime Primary Realtime Clock</Description><StartTime><Timestamp dt:dt="int">0</Timestamp><DateUtc dt:dt="string">2015-05-20T20:38:59Z</DateUtc></StartTime><FrequencyChanges><FrequencyChange><Frequency dt:dt="r8">2597675</Frequency><Timestamp dt:dt="r8">2897258735</Timestamp><Current dt:dt="r8">0</Current><DateUtc dt:dt="string">2015-05-20T20:38:59Z</DateUtc></FrequencyChange></FrequencyChanges></Clock>\n	Hungry_Donkey_bar_English_2-103-1	59.973	26	1.0.0.18	1	-1397191310	Standard	2.0.10.353	2.0.10.353	05-20-2015	5/20/2015 8:38:59 PM	16:38:59	2.0.10.248	82	Bar50-50.bmp	48	4	?	0r_4g.bmp	0r_4g.bmp	0r_2g.bmp	0r_2g.bmp				0r_2g.bmp	TrialProc	TrialList	0	cvbn	-999999	17	356777	0	n	517	357294	232	-250	-18	-8	-58	12	36	7	9	82	0	0	0	0	4	4	2	2	0	2
Hungry_Donkey_bar_English_2	103	1	<?xml version="1.0"?>\n<Clock xmlns:dt="urn:schemas-microsoft-com:datatypes"><Description dt:dt="string">E-Prime Primary Realtime Clock</Description><StartTime><Timestamp dt:dt="int">0</Timestamp><DateUtc dt:dt="string">2015-05-20T20:38:59Z</DateUtc></StartTime><FrequencyChanges><FrequencyChange><Frequency dt:dt="r8">2597675</Frequency><Timestamp dt:dt="r8">2897258735</Timestamp><Current dt:dt="r8">0</Current><DateUtc dt:dt="string">2015-05-20T20:38:59Z</DateUtc></FrequencyChange></FrequencyChanges></Clock>\n	Hungry_Donkey_bar_English_2-103-1	59.973	26	1.0.0.18	1	-1397191310	Standard	2.0.10.353	2.0.10.353	05-20-2015	5/20/2015 8:38:59 PM	16:38:59	2.0.10.248	83	Bar50-50.bmp	48	4	?	12r_4g.bmp	0r_4g.bmp	3r_2g.bmp	0r_2g.bmp				0r_2g.bmp	TrialProc	TrialList	0	cvbn	-999999	17	359328	0	n	382	359710	234	-250	-16	-8	-58	12	38	5	9	83	-12	0	-3	0	4	4	2	2	0	2
Hungry_Donkey_bar_English_2	103	1	<?xml version="1.0"?>\n<Clock xmlns:dt="urn:schemas-microsoft-com:datatypes"><Description dt:dt="string">E-Prime Primary Realtime Clock</Description><StartTime><Timestamp dt:dt="int">0</Timestamp><DateUtc dt:dt="string">2015-05-20T20:38:59Z</DateUtc></StartTime><FrequencyChanges><FrequencyChange><Frequency dt:dt="r8">2597675</Frequency><Timestamp dt:dt="r8">2897258735</Timestamp><Current dt:dt="r8">0</Current><DateUtc dt:dt="string">2015-05-20T20:38:59Z</DateUtc></FrequencyChange></FrequencyChanges></Clock>\n	Hungry_Donkey_bar_English_2-103-1	59.973	26	1.0.0.18	1	-1397191310	Standard	2.0.10.353	2.0.10.353	05-20-2015	5/20/2015 8:38:59 PM	16:38:59	2.0.10.248	84	Bar50-50.bmp	49	4	?	0r_4g.bmp	0r_4g.bmp	0r_2g.bmp	0r_2g.bmp				0r_2g.bmp	TrialProc	TrialList	0	cvbn	-999999	17	361746	0	n	236	361982	236	-250	-14	-8	-58	12	40	10	9	84	0	0	0	0	4	4	2	2	0	2
Hungry_Donkey_bar_English_2	103	1	<?xml version="1.0"?>\n<Clock xmlns:dt="urn:schemas-microsoft-com:datatypes"><Description dt:dt="string">E-Prime Primary Realtime Clock</Description><StartTime><Timestamp dt:dt="int">0</Timestamp><DateUtc dt:dt="string">2015-05-20T20:38:59Z</DateUtc></StartTime><FrequencyChanges><FrequencyChange><Frequency dt:dt="r8">2597675</Frequency><Timestamp dt:dt="r8">2897258735</Timestamp><Current dt:dt="r8">0</Current><DateUtc dt:dt="string">2015-05-20T20:38:59Z</DateUtc></FrequencyChange></FrequencyChanges></Clock>\n	Hungry_Donkey_bar_English_2-103-1	59.973	26	1.0.0.18	1	-1397191310	Standard	2.0.10.353	2.0.10.353	05-20-2015	5/20/2015 8:38:59 PM	16:38:59	2.0.10.248	85	Bar50-50.bmp	49	4	?	10r_4g.bmp	0r_4g.bmp	2r_2g.bmp	0r_2g.bmp				0r_2g.bmp	TrialProc	TrialList	0	cvbn	-999999	18	364014	0	n	288	364302	238	-250	-12	-8	-58	12	42	4	9	85	-10	0	-2	0	4	4	2	2	0	2
Hungry_Donkey_bar_English_2	103	1	<?xml version="1.0"?>\n<Clock xmlns:dt="urn:schemas-microsoft-com:datatypes"><Description dt:dt="string">E-Prime Primary Realtime Clock</Description><StartTime><Timestamp dt:dt="int">0</Timestamp><DateUtc dt:dt="string">2015-05-20T20:38:59Z</DateUtc></StartTime><FrequencyChanges><FrequencyChange><Frequency dt:dt="r8">2597675</Frequency><Timestamp dt:dt="r8">2897258735</Timestamp><Current dt:dt="r8">0</Current><DateUtc dt:dt="string">2015-05-20T20:38:59Z</DateUtc></FrequencyChange></FrequencyChanges></Clock>\n	Hungry_Donkey_bar_English_2-103-1	59.973	26	1.0.0.18	1	-1397191310	Standard	2.0.10.353	2.0.10.353	05-20-2015	5/20/2015 8:38:59 PM	16:38:59	2.0.10.248	86	Bar50-50.bmp	49	4	?	0r_4g.bmp	0r_4g.bmp	0r_2g.bmp	0r_2g.bmp				0r_2g.bmp	TrialProc	TrialList	0	cvbn	-999999	18	366332	0	n	306	366638	240	-250	-10	-8	-58	12	44	9	9	86	0	0	0	0	4	4	2	2	0	2
Hungry_Donkey_bar_English_2	103	1	<?xml version="1.0"?>\n<Clock xmlns:dt="urn:schemas-microsoft-com:datatypes"><Description dt:dt="string">E-Prime Primary Realtime Clock</Description><StartTime><Timestamp dt:dt="int">0</Timestamp><DateUtc dt:dt="string">2015-05-20T20:38:59Z</DateUtc></StartTime><FrequencyChanges><FrequencyChange><Frequency dt:dt="r8">2597675</Frequency><Timestamp dt:dt="r8">2897258735</Timestamp><Current dt:dt="r8">0</Current><DateUtc dt:dt="string">2015-05-20T20:38:59Z</DateUtc></FrequencyChange></FrequencyChanges></Clock>\n	Hungry_Donkey_bar_English_2-103-1	59.973	26	1.0.0.18	1	-1397191310	Standard	2.0.10.353	2.0.10.353	05-20-2015	5/20/2015 8:38:59 PM	16:38:59	2.0.10.248	87	Bar50-50.bmp	48	4	?	8r_4g.bmp	50r_4g.bmp	1r_2g.bmp	10r_2g.bmp				10r_2g.bmp	TrialProc	TrialList	0	cvbn	-999999	18	368666	0	n	468	369134	242	-260	-18	-8	-58	12	36	1	9	87	-8	-50	-1	-10	4	4	2	2	-10	2
Hungry_Donkey_bar_English_2	103	1	<?xml version="1.0"?>\n<Clock xmlns:dt="urn:schemas-microsoft-com:datatypes"><Description dt:dt="string">E-Prime Primary Realtime Clock</Description><StartTime><Timestamp dt:dt="int">0</Timestamp><DateUtc dt:dt="string">2015-05-20T20:38:59Z</DateUtc></StartTime><FrequencyChanges><FrequencyChange><Frequency dt:dt="r8">2597675</Frequency><Timestamp dt:dt="r8">2897258735</Timestamp><Current dt:dt="r8">0</Current><DateUtc dt:dt="string">2015-05-20T20:38:59Z</DateUtc></FrequencyChange></FrequencyChanges></Clock>\n	Hungry_Donkey_bar_English_2-103-1	59.973	26	1.0.0.18	1	-1397191310	Standard	2.0.10.353	2.0.10.353	05-20-2015	5/20/2015 8:38:59 PM	16:38:59	2.0.10.248	88	Bar50-50.bmp	48	3	?	0r_4g.bmp	0r_4g.bmp	0r_2g.bmp	0r_2g.bmp			0r_2g.bmp		TrialProc	TrialList	0	cvbn	-999999	17	371167	0	b	1695	372862	244	-260	-16	-8	-58	14	36	6	9	88	0	0	0	0	4	4	2	2	0	2
Hungry_Donkey_bar_English_2	103	1	<?xml version="1.0"?>\n<Clock xmlns:dt="urn:schemas-microsoft-com:datatypes"><Description dt:dt="string">E-Prime Primary Realtime Clock</Description><StartTime><Timestamp dt:dt="int">0</Timestamp><DateUtc dt:dt="string">2015-05-20T20:38:59Z</DateUtc></StartTime><FrequencyChanges><FrequencyChange><Frequency dt:dt="r8">2597675</Frequency><Timestamp dt:dt="r8">2897258735</Timestamp><Current dt:dt="r8">0</Current><DateUtc dt:dt="string">2015-05-20T20:38:59Z</DateUtc></FrequencyChange></FrequencyChanges></Clock>\n	Hungry_Donkey_bar_English_2-103-1	59.973	26	1.0.0.18	1	-1397191310	Standard	2.0.10.353	2.0.10.353	05-20-2015	5/20/2015 8:38:59 PM	16:38:59	2.0.10.248	89	Bar50-50.bmp	48	3	?	10r_4g.bmp	0r_4g.bmp	2r_2g.bmp	0r_2g.bmp			2r_2g.bmp		TrialProc	TrialList	0	cvbn	-999999	17	374902	0	b	1144	376046	246	-262	-16	-8	-58	14	36	3	9	89	-10	0	-2	0	4	4	2	2	-2	2
Hungry_Donkey_bar_English_2	103	1	<?xml version="1.0"?>\n<Clock xmlns:dt="urn:schemas-microsoft-com:datatypes"><Description dt:dt="string">E-Prime Primary Realtime Clock</Description><StartTime><Timestamp dt:dt="int">0</Timestamp><DateUtc dt:dt="string">2015-05-20T20:38:59Z</DateUtc></StartTime><FrequencyChanges><FrequencyChange><Frequency dt:dt="r8">2597675</Frequency><Timestamp dt:dt="r8">2897258735</Timestamp><Current dt:dt="r8">0</Current><DateUtc dt:dt="string">2015-05-20T20:38:59Z</DateUtc></FrequencyChange></FrequencyChanges></Clock>\n	Hungry_Donkey_bar_English_2-103-1	59.973	26	1.0.0.18	1	-1397191310	Standard	2.0.10.353	2.0.10.353	05-20-2015	5/20/2015 8:38:59 PM	16:38:59	2.0.10.248	90	Bar50-50.bmp	49	4	?	10r_4g.bmp	0r_4g.bmp	2r_2g.bmp	0r_2g.bmp				0r_2g.bmp	TrialProc	TrialList	0	cvbn	-999999	18	378087	0	n	903	378990	248	-262	-14	-8	-58	14	38	2	9	90	-10	0	-2	0	4	4	2	2	0	2
Hungry_Donkey_bar_English_2	103	1	<?xml version="1.0"?>\n<Clock xmlns:dt="urn:schemas-microsoft-com:datatypes"><Description dt:dt="string">E-Prime Primary Realtime Clock</Description><StartTime><Timestamp dt:dt="int">0</Timestamp><DateUtc dt:dt="string">2015-05-20T20:38:59Z</DateUtc></StartTime><FrequencyChanges><FrequencyChange><Frequency dt:dt="r8">2597675</Frequency><Timestamp dt:dt="r8">2897258735</Timestamp><Current dt:dt="r8">0</Current><DateUtc dt:dt="string">2015-05-20T20:38:59Z</DateUtc></FrequencyChange></FrequencyChanges></Clock>\n	Hungry_Donkey_bar_English_2-103-1	59.973	26	1.0.0.18	1	-1397191310	Standard	2.0.10.353	2.0.10.353	05-20-2015	5/20/2015 8:38:59 PM	16:38:59	2.0.10.248	91	Bar50-50.bmp	49	4	?	10r_4g.bmp	0r_4g.bmp	2r_2g.bmp	0r_2g.bmp				0r_2g.bmp	TrialProc	TrialList	0	cvbn	-999999	18	381022	0	n	992	382014	250	-262	-12	-8	-58	14	40	4	10	91	-10	0	-2	0	4	4	2	2	0	2
Hungry_Donkey_bar_English_2	103	1	<?xml version="1.0"?>\n<Clock xmlns:dt="urn:schemas-microsoft-com:datatypes"><Description dt:dt="string">E-Prime Primary Realtime Clock</Description><StartTime><Timestamp dt:dt="int">0</Timestamp><DateUtc dt:dt="string">2015-05-20T20:38:59Z</DateUtc></StartTime><FrequencyChanges><FrequencyChange><Frequency dt:dt="r8">2597675</Frequency><Timestamp dt:dt="r8">2897258735</Timestamp><Current dt:dt="r8">0</Current><DateUtc dt:dt="string">2015-05-20T20:38:59Z</DateUtc></FrequencyChange></FrequencyChanges></Clock>\n	Hungry_Donkey_bar_English_2-103-1	59.973	26	1.0.0.18	1	-1397191310	Standard	2.0.10.353	2.0.10.353	05-20-2015	5/20/2015 8:38:59 PM	16:38:59	2.0.10.248	92	Bar50-50.bmp	49	4	?	0r_4g.bmp	0r_4g.bmp	0r_2g.bmp	0r_2g.bmp				0r_2g.bmp	TrialProc	TrialList	0	cvbn	-999999	17	384056	0	n	486	384542	252	-262	-10	-8	-58	14	42	8	10	92	0	0	0	0	4	4	2	2	0	2
Hungry_Donkey_bar_English_2	103	1	<?xml version="1.0"?>\n<Clock xmlns:dt="urn:schemas-microsoft-com:datatypes"><Description dt:dt="string">E-Prime Primary Realtime Clock</Description><StartTime><Timestamp dt:dt="int">0</Timestamp><DateUtc dt:dt="string">2015-05-20T20:38:59Z</DateUtc></StartTime><FrequencyChanges><FrequencyChange><Frequency dt:dt="r8">2597675</Frequency><Timestamp dt:dt="r8">2897258735</Timestamp><Current dt:dt="r8">0</Current><DateUtc dt:dt="string">2015-05-20T20:38:59Z</DateUtc></FrequencyChange></FrequencyChanges></Clock>\n	Hungry_Donkey_bar_English_2-103-1	59.973	26	1.0.0.18	1	-1397191310	Standard	2.0.10.353	2.0.10.353	05-20-2015	5/20/2015 8:38:59 PM	16:38:59	2.0.10.248	93	Bar50-50.bmp	49	4	?	0r_4g.bmp	0r_4g.bmp	0r_2g.bmp	0r_2g.bmp				0r_2g.bmp	TrialProc	TrialList	0	cvbn	-999999	17	386574	0	n	464	387038	254	-262	-8	-8	-58	14	44	10	10	93	0	0	0	0	4	4	2	2	0	2
Hungry_Donkey_bar_English_2	103	1	<?xml version="1.0"?>\n<Clock xmlns:dt="urn:schemas-microsoft-com:datatypes"><Description dt:dt="string">E-Prime Primary Realtime Clock</Description><StartTime><Timestamp dt:dt="int">0</Timestamp><DateUtc dt:dt="string">2015-05-20T20:38:59Z</DateUtc></StartTime><FrequencyChanges><FrequencyChange><Frequency dt:dt="r8">2597675</Frequency><Timestamp dt:dt="r8">2897258735</Timestamp><Current dt:dt="r8">0</Current><DateUtc dt:dt="string">2015-05-20T20:38:59Z</DateUtc></FrequencyChange></FrequencyChanges></Clock>\n	Hungry_Donkey_bar_English_2-103-1	59.973	26	1.0.0.18	1	-1397191310	Standard	2.0.10.353	2.0.10.353	05-20-2015	5/20/2015 8:38:59 PM	16:38:59	2.0.10.248	94	Bar50-50.bmp	49	4	?	0r_4g.bmp	0r_4g.bmp	0r_2g.bmp	0r_2g.bmp				0r_2g.bmp	TrialProc	TrialList	0	cvbn	-999999	17	389075	0	n	1051	390126	256	-262	-6	-8	-58	14	46	9	10	94	0	0	0	0	4	4	2	2	0	2
Hungry_Donkey_bar_English_2	103	1	<?xml version="1.0"?>\n<Clock xmlns:dt="urn:schemas-microsoft-com:datatypes"><Description dt:dt="string">E-Prime Primary Realtime Clock</Description><StartTime><Timestamp dt:dt="int">0</Timestamp><DateUtc dt:dt="string">2015-05-20T20:38:59Z</DateUtc></StartTime><FrequencyChanges><FrequencyChange><Frequency dt:dt="r8">2597675</Frequency><Timestamp dt:dt="r8">2897258735</Timestamp><Current dt:dt="r8">0</Current><DateUtc dt:dt="string">2015-05-20T20:38:59Z</DateUtc></FrequencyChange></FrequencyChanges></Clock>\n	Hungry_Donkey_bar_English_2-103-1	59.973	26	1.0.0.18	1	-1397191310	Standard	2.0.10.353	2.0.10.353	05-20-2015	5/20/2015 8:38:59 PM	16:38:59	2.0.10.248	95	Bar50-50.bmp	50	4	?	12r_4g.bmp	0r_4g.bmp	3r_2g.bmp	0r_2g.bmp				0r_2g.bmp	TrialProc	TrialList	0	cvbn	-999999	18	392160	0	n	2974	395134	258	-262	-4	-8	-58	14	48	5	10	95	-12	0	-3	0	4	4	2	2	0	2
Hungry_Donkey_bar_English_2	103	1	<?xml version="1.0"?>\n<Clock xmlns:dt="urn:schemas-microsoft-com:datatypes"><Description dt:dt="string">E-Prime Primary Realtime Clock</Description><StartTime><Timestamp dt:dt="int">0</Timestamp><DateUtc dt:dt="string">2015-05-20T20:38:59Z</DateUtc></StartTime><FrequencyChanges><FrequencyChange><Frequency dt:dt="r8">2597675</Frequency><Timestamp dt:dt="r8">2897258735</Timestamp><Current dt:dt="r8">0</Current><DateUtc dt:dt="string">2015-05-20T20:38:59Z</DateUtc></FrequencyChange></FrequencyChanges></Clock>\n	Hungry_Donkey_bar_English_2-103-1	59.973	26	1.0.0.18	1	-1397191310	Standard	2.0.10.353	2.0.10.353	05-20-2015	5/20/2015 8:38:59 PM	16:38:59	2.0.10.248	96	Bar50-50.bmp	50	4	?	0r_4g.bmp	0r_4g.bmp	0r_2g.bmp	0r_2g.bmp				0r_2g.bmp	TrialProc	TrialList	0	cvbn	-999999	17	397162	0	n	2100	399262	260	-262	-2	-8	-58	14	50	7	10	96	0	0	0	0	4	4	2	2	0	2
Hungry_Donkey_bar_English_2	103	1	<?xml version="1.0"?>\n<Clock xmlns:dt="urn:schemas-microsoft-com:datatypes"><Description dt:dt="string">E-Prime Primary Realtime Clock</Description><StartTime><Timestamp dt:dt="int">0</Timestamp><DateUtc dt:dt="string">2015-05-20T20:38:59Z</DateUtc></StartTime><FrequencyChanges><FrequencyChange><Frequency dt:dt="r8">2597675</Frequency><Timestamp dt:dt="r8">2897258735</Timestamp><Current dt:dt="r8">0</Current><DateUtc dt:dt="string">2015-05-20T20:38:59Z</DateUtc></FrequencyChange></FrequencyChanges></Clock>\n	Hungry_Donkey_bar_English_2-103-1	59.973	26	1.0.0.18	1	-1397191310	Standard	2.0.10.353	2.0.10.353	05-20-2015	5/20/2015 8:38:59 PM	16:38:59	2.0.10.248	97	Bar50-50.bmp	49	1	?	8r_4g.bmp	50r_4g.bmp	1r_2g.bmp	10r_2g.bmp	8r_4g.bmp				TrialProc	TrialList	0	cvbn	-999999	17	401297	0	c	2156	403453	264	-270	-6	-12	-58	14	50	1	10	97	-8	-50	-1	-10	4	4	2	2	-8	4
Hungry_Donkey_bar_English_2	103	1	<?xml version="1.0"?>\n<Clock xmlns:dt="urn:schemas-microsoft-com:datatypes"><Description dt:dt="string">E-Prime Primary Realtime Clock</Description><StartTime><Timestamp dt:dt="int">0</Timestamp><DateUtc dt:dt="string">2015-05-20T20:38:59Z</DateUtc></StartTime><FrequencyChanges><FrequencyChange><Frequency dt:dt="r8">2597675</Frequency><Timestamp dt:dt="r8">2897258735</Timestamp><Current dt:dt="r8">0</Current><DateUtc dt:dt="string">2015-05-20T20:38:59Z</DateUtc></FrequencyChange></FrequencyChanges></Clock>\n	Hungry_Donkey_bar_English_2-103-1	59.973	26	1.0.0.18	1	-1397191310	Standard	2.0.10.353	2.0.10.353	05-20-2015	5/20/2015 8:38:59 PM	16:38:59	2.0.10.248	98	Bar50-50.bmp	50	3	?	0r_4g.bmp	0r_4g.bmp	0r_2g.bmp	0r_2g.bmp			0r_2g.bmp		TrialProc	TrialList	0	cvbn	-999999	18	405483	0	b	1202	406685	266	-270	-4	-12	-58	16	50	6	10	98	0	0	0	0	4	4	2	2	0	2
Hungry_Donkey_bar_English_2	103	1	<?xml version="1.0"?>\n<Clock xmlns:dt="urn:schemas-microsoft-com:datatypes"><Description dt:dt="string">E-Prime Primary Realtime Clock</Description><StartTime><Timestamp dt:dt="int">0</Timestamp><DateUtc dt:dt="string">2015-05-20T20:38:59Z</DateUtc></StartTime><FrequencyChanges><FrequencyChange><Frequency dt:dt="r8">2597675</Frequency><Timestamp dt:dt="r8">2897258735</Timestamp><Current dt:dt="r8">0</Current><DateUtc dt:dt="string">2015-05-20T20:38:59Z</DateUtc></FrequencyChange></FrequencyChanges></Clock>\n	Hungry_Donkey_bar_English_2-103-1	59.973	26	1.0.0.18	1	-1397191310	Standard	2.0.10.353	2.0.10.353	05-20-2015	5/20/2015 8:38:59 PM	16:38:59	2.0.10.248	99	Bar50-50.bmp	50	4	?	10r_4g.bmp	0r_4g.bmp	2r_2g.bmp	0r_2g.bmp				0r_2g.bmp	TrialProc	TrialList	0	cvbn	-999999	17	408717	0	n	1680	410397	268	-270	-2	-12	-58	16	52	2	10	99	-10	0	-2	0	4	4	2	2	0	2
Hungry_Donkey_bar_English_2	103	1	<?xml version="1.0"?>\n<Clock xmlns:dt="urn:schemas-microsoft-com:datatypes"><Description dt:dt="string">E-Prime Primary Realtime Clock</Description><StartTime><Timestamp dt:dt="int">0</Timestamp><DateUtc dt:dt="string">2015-05-20T20:38:59Z</DateUtc></StartTime><FrequencyChanges><FrequencyChange><Frequency dt:dt="r8">2597675</Frequency><Timestamp dt:dt="r8">2897258735</Timestamp><Current dt:dt="r8">0</Current><DateUtc dt:dt="string">2015-05-20T20:38:59Z</DateUtc></FrequencyChange></FrequencyChanges></Clock>\n	Hungry_Donkey_bar_English_2-103-1	59.973	26	1.0.0.18	1	-1397191310	Standard	2.0.10.353	2.0.10.353	05-20-2015	5/20/2015 8:38:59 PM	16:38:59	2.0.10.248	100	Bar50-50.bmp	50	4	?	10r_4g.bmp	0r_4g.bmp	2r_2g.bmp	0r_2g.bmp				0r_2g.bmp	TrialProc	TrialList	0	cvbn	-999999	18	412436	0	n	489	412925	270	-270	0	-12	-58	16	54	3	10	100	-10	0	-2	0	4	4	2	2	0	2
Hungry_Donkey_bar_English_2	103	1	<?xml version="1.0"?>\n<Clock xmlns:dt="urn:schemas-microsoft-com:datatypes"><Description dt:dt="string">E-Prime Primary Realtime Clock</Description><StartTime><Timestamp dt:dt="int">0</Timestamp><DateUtc dt:dt="string">2015-05-20T20:38:59Z</DateUtc></StartTime><FrequencyChanges><FrequencyChange><Frequency dt:dt="r8">2597675</Frequency><Timestamp dt:dt="r8">2897258735</Timestamp><Current dt:dt="r8">0</Current><DateUtc dt:dt="string">2015-05-20T20:38:59Z</DateUtc></FrequencyChange></FrequencyChanges></Clock>\n	Hungry_Donkey_bar_English_2-103-1	59.973	26	1.0.0.18	1	-1397191310	Standard	2.0.10.353	2.0.10.353	05-20-2015	5/20/2015 8:38:59 PM	16:38:59	2.0.10.248	101	Bar50-50.bmp	50	4	?	10r_4g.bmp	0r_4g.bmp	2r_2g.bmp	0r_2g.bmp				0r_2g.bmp	TrialProc	TrialList	0	cvbn	-999999	18	414954	0	n	419	415373	272	-270	2	-12	-58	16	56	3	11	101	-10	0	-2	0	4	4	2	2	0	2
Hungry_Donkey_bar_English_2	103	1	<?xml version="1.0"?>\n<Clock xmlns:dt="urn:schemas-microsoft-com:datatypes"><Description dt:dt="string">E-Prime Primary Realtime Clock</Description><StartTime><Timestamp dt:dt="int">0</Timestamp><DateUtc dt:dt="string">2015-05-20T20:38:59Z</DateUtc></StartTime><FrequencyChanges><FrequencyChange><Frequency dt:dt="r8">2597675</Frequency><Timestamp dt:dt="r8">2897258735</Timestamp><Current dt:dt="r8">0</Current><DateUtc dt:dt="string">2015-05-20T20:38:59Z</DateUtc></FrequencyChange></FrequencyChanges></Clock>\n	Hungry_Donkey_bar_English_2-103-1	59.973	26	1.0.0.18	1	-1397191310	Standard	2.0.10.353	2.0.10.353	05-20-2015	5/20/2015 8:38:59 PM	16:38:59	2.0.10.248	102	Bar50-50.bmp	50	4	?	12r_4g.bmp	0r_4g.bmp	3r_2g.bmp	0r_2g.bmp				0r_2g.bmp	TrialProc	TrialList	0	cvbn	-999999	18	417405	0	n	544	417949	274	-270	4	-12	-58	16	58	5	11	102	-12	0	-3	0	4	4	2	2	0	2
Hungry_Donkey_bar_English_2	103	1	<?xml version="1.0"?>\n<Clock xmlns:dt="urn:schemas-microsoft-com:datatypes"><Description dt:dt="string">E-Prime Primary Realtime Clock</Description><StartTime><Timestamp dt:dt="int">0</Timestamp><DateUtc dt:dt="string">2015-05-20T20:38:59Z</DateUtc></StartTime><FrequencyChanges><FrequencyChange><Frequency dt:dt="r8">2597675</Frequency><Timestamp dt:dt="r8">2897258735</Timestamp><Current dt:dt="r8">0</Current><DateUtc dt:dt="string">2015-05-20T20:38:59Z</DateUtc></FrequencyChange></FrequencyChanges></Clock>\n	Hungry_Donkey_bar_English_2-103-1	59.973	26	1.0.0.18	1	-1397191310	Standard	2.0.10.353	2.0.10.353	05-20-2015	5/20/2015 8:38:59 PM	16:38:59	2.0.10.248	103	Bar50-50.bmp	51	4	?	10r_4g.bmp	0r_4g.bmp	2r_2g.bmp	0r_2g.bmp				0r_2g.bmp	TrialProc	TrialList	0	cvbn	-999999	17	419989	0	n	168	420157	276	-270	6	-12	-58	16	60	4	11	103	-10	0	-2	0	4	4	2	2	0	2
Hungry_Donkey_bar_English_2	103	1	<?xml version="1.0"?>\n<Clock xmlns:dt="urn:schemas-microsoft-com:datatypes"><Description dt:dt="string">E-Prime Primary Realtime Clock</Description><StartTime><Timestamp dt:dt="int">0</Timestamp><DateUtc dt:dt="string">2015-05-20T20:38:59Z</DateUtc></StartTime><FrequencyChanges><FrequencyChange><Frequency dt:dt="r8">2597675</Frequency><Timestamp dt:dt="r8">2897258735</Timestamp><Current dt:dt="r8">0</Current><DateUtc dt:dt="string">2015-05-20T20:38:59Z</DateUtc></FrequencyChange></FrequencyChanges></Clock>\n	Hungry_Donkey_bar_English_2-103-1	59.973	26	1.0.0.18	1	-1397191310	Standard	2.0.10.353	2.0.10.353	05-20-2015	5/20/2015 8:38:59 PM	16:38:59	2.0.10.248	104	Bar50-50.bmp	51	4	?	0r_4g.bmp	0r_4g.bmp	0r_2g.bmp	0r_2g.bmp				0r_2g.bmp	TrialProc	TrialList	0	cvbn	-999999	17	422190	0	n	15	422205	278	-270	8	-12	-58	16	62	10	11	104	0	0	0	0	4	4	2	2	0	2
Hungry_Donkey_bar_English_2	103	1	<?xml version="1.0"?>\n<Clock xmlns:dt="urn:schemas-microsoft-com:datatypes"><Description dt:dt="string">E-Prime Primary Realtime Clock</Description><StartTime><Timestamp dt:dt="int">0</Timestamp><DateUtc dt:dt="string">2015-05-20T20:38:59Z</DateUtc></StartTime><FrequencyChanges><FrequencyChange><Frequency dt:dt="r8">2597675</Frequency><Timestamp dt:dt="r8">2897258735</Timestamp><Current dt:dt="r8">0</Current><DateUtc dt:dt="string">2015-05-20T20:38:59Z</DateUtc></FrequencyChange></FrequencyChanges></Clock>\n	Hungry_Donkey_bar_English_2-103-1	59.973	26	1.0.0.18	1	-1397191310	Standard	2.0.10.353	2.0.10.353	05-20-2015	5/20/2015 8:38:59 PM	16:38:59	2.0.10.248	105	Bar50-50.bmp	51	4	?	10r_4g.bmp	0r_4g.bmp	2r_2g.bmp	0r_2g.bmp				0r_2g.bmp	TrialProc	TrialList	0	cvbn	-999999	17	424241	0	n	476	424717	280	-270	10	-12	-58	16	64	2	11	105	-10	0	-2	0	4	4	2	2	0	2
Hungry_Donkey_bar_English_2	103	1	<?xml version="1.0"?>\n<Clock xmlns:dt="urn:schemas-microsoft-com:datatypes"><Description dt:dt="string">E-Prime Primary Realtime Clock</Description><StartTime><Timestamp dt:dt="int">0</Timestamp><DateUtc dt:dt="string">2015-05-20T20:38:59Z</DateUtc></StartTime><FrequencyChanges><FrequencyChange><Frequency dt:dt="r8">2597675</Frequency><Timestamp dt:dt="r8">2897258735</Timestamp><Current dt:dt="r8">0</Current><DateUtc dt:dt="string">2015-05-20T20:38:59Z</DateUtc></FrequencyChange></FrequencyChanges></Clock>\n	Hungry_Donkey_bar_English_2-103-1	59.973	26	1.0.0.18	1	-1397191310	Standard	2.0.10.353	2.0.10.353	05-20-2015	5/20/2015 8:38:59 PM	16:38:59	2.0.10.248	106	Bar50-50.bmp	51	4	?	0r_4g.bmp	0r_4g.bmp	0r_2g.bmp	0r_2g.bmp				0r_2g.bmp	TrialProc	TrialList	0	cvbn	-999999	18	426759	0	n	102	426861	282	-270	12	-12	-58	16	66	8	11	106	0	0	0	0	4	4	2	2	0	2
Hungry_Donkey_bar_English_2	103	1	<?xml version="1.0"?>\n<Clock xmlns:dt="urn:schemas-microsoft-com:datatypes"><Description dt:dt="string">E-Prime Primary Realtime Clock</Description><StartTime><Timestamp dt:dt="int">0</Timestamp><DateUtc dt:dt="string">2015-05-20T20:38:59Z</DateUtc></StartTime><FrequencyChanges><FrequencyChange><Frequency dt:dt="r8">2597675</Frequency><Timestamp dt:dt="r8">2897258735</Timestamp><Current dt:dt="r8">0</Current><DateUtc dt:dt="string">2015-05-20T20:38:59Z</DateUtc></FrequencyChange></FrequencyChanges></Clock>\n	Hungry_Donkey_bar_English_2-103-1	59.973	26	1.0.0.18	1	-1397191310	Standard	2.0.10.353	2.0.10.353	05-20-2015	5/20/2015 8:38:59 PM	16:38:59	2.0.10.248	107	Bar50-50.bmp	50	4	?	8r_4g.bmp	50r_4g.bmp	1r_2g.bmp	10r_2g.bmp				10r_2g.bmp	TrialProc	TrialList	0	cvbn	-999999	17	428893	0	n	368	429261	284	-280	4	-12	-58	16	58	1	11	107	-8	-50	-1	-10	4	4	2	2	-10	2
Hungry_Donkey_bar_English_2	103	1	<?xml version="1.0"?>\n<Clock xmlns:dt="urn:schemas-microsoft-com:datatypes"><Description dt:dt="string">E-Prime Primary Realtime Clock</Description><StartTime><Timestamp dt:dt="int">0</Timestamp><DateUtc dt:dt="string">2015-05-20T20:38:59Z</DateUtc></StartTime><FrequencyChanges><FrequencyChange><Frequency dt:dt="r8">2597675</Frequency><Timestamp dt:dt="r8">2897258735</Timestamp><Current dt:dt="r8">0</Current><DateUtc dt:dt="string">2015-05-20T20:38:59Z</DateUtc></FrequencyChange></FrequencyChanges></Clock>\n	Hungry_Donkey_bar_English_2-103-1	59.973	26	1.0.0.18	1	-1397191310	Standard	2.0.10.353	2.0.10.353	05-20-2015	5/20/2015 8:38:59 PM	16:38:59	2.0.10.248	108	Bar50-50.bmp	51	3	?	0r_4g.bmp	0r_4g.bmp	0r_2g.bmp	0r_2g.bmp			0r_2g.bmp		TrialProc	TrialList	0	cvbn	-999999	17	431294	0	b	2063	433357	286	-280	6	-12	-58	18	58	6	11	108	0	0	0	0	4	4	2	2	0	2
Hungry_Donkey_bar_English_2	103	1	<?xml version="1.0"?>\n<Clock xmlns:dt="urn:schemas-microsoft-com:datatypes"><Description dt:dt="string">E-Prime Primary Realtime Clock</Description><StartTime><Timestamp dt:dt="int">0</Timestamp><DateUtc dt:dt="string">2015-05-20T20:38:59Z</DateUtc></StartTime><FrequencyChanges><FrequencyChange><Frequency dt:dt="r8">2597675</Frequency><Timestamp dt:dt="r8">2897258735</Timestamp><Current dt:dt="r8">0</Current><DateUtc dt:dt="string">2015-05-20T20:38:59Z</DateUtc></FrequencyChange></FrequencyChanges></Clock>\n	Hungry_Donkey_bar_English_2-103-1	59.973	26	1.0.0.18	1	-1397191310	Standard	2.0.10.353	2.0.10.353	05-20-2015	5/20/2015 8:38:59 PM	16:38:59	2.0.10.248	109	Bar50-50.bmp	51	3	?	0r_4g.bmp	0r_4g.bmp	0r_2g.bmp	0r_2g.bmp			0r_2g.bmp		TrialProc	TrialList	0	cvbn	-999999	17	435396	0	b	409	435805	288	-280	8	-12	-58	20	58	7	11	109	0	0	0	0	4	4	2	2	0	2
Hungry_Donkey_bar_English_2	103	1	<?xml version="1.0"?>\n<Clock xmlns:dt="urn:schemas-microsoft-com:datatypes"><Description dt:dt="string">E-Prime Primary Realtime Clock</Description><StartTime><Timestamp dt:dt="int">0</Timestamp><DateUtc dt:dt="string">2015-05-20T20:38:59Z</DateUtc></StartTime><FrequencyChanges><FrequencyChange><Frequency dt:dt="r8">2597675</Frequency><Timestamp dt:dt="r8">2897258735</Timestamp><Current dt:dt="r8">0</Current><DateUtc dt:dt="string">2015-05-20T20:38:59Z</DateUtc></FrequencyChange></FrequencyChanges></Clock>\n	Hungry_Donkey_bar_English_2-103-1	59.973	26	1.0.0.18	1	-1397191310	Standard	2.0.10.353	2.0.10.353	05-20-2015	5/20/2015 8:38:59 PM	16:38:59	2.0.10.248	110	Bar50-50.bmp	51	4	?	0r_4g.bmp	0r_4g.bmp	0r_2g.bmp	0r_2g.bmp				0r_2g.bmp	TrialProc	TrialList	0	cvbn	-999999	17	437847	0	n	326	438173	290	-280	10	-12	-58	20	60	9	11	110	0	0	0	0	4	4	2	2	0	2
Hungry_Donkey_bar_English_2	103	1	<?xml version="1.0"?>\n<Clock xmlns:dt="urn:schemas-microsoft-com:datatypes"><Description dt:dt="string">E-Prime Primary Realtime Clock</Description><StartTime><Timestamp dt:dt="int">0</Timestamp><DateUtc dt:dt="string">2015-05-20T20:38:59Z</DateUtc></StartTime><FrequencyChanges><FrequencyChange><Frequency dt:dt="r8">2597675</Frequency><Timestamp dt:dt="r8">2897258735</Timestamp><Current dt:dt="r8">0</Current><DateUtc dt:dt="string">2015-05-20T20:38:59Z</DateUtc></FrequencyChange></FrequencyChanges></Clock>\n	Hungry_Donkey_bar_English_2-103-1	59.973	26	1.0.0.18	1	-1397191310	Standard	2.0.10.353	2.0.10.353	05-20-2015	5/20/2015 8:38:59 PM	16:38:59	2.0.10.248	111	Bar50-50.bmp	51	3	?	0r_4g.bmp	0r_4g.bmp	0r_2g.bmp	0r_2g.bmp			0r_2g.bmp		TrialProc	TrialList	0	cvbn	-999999	18	440215	0	b	486	440701	292	-280	12	-12	-58	22	60	10	12	111	0	0	0	0	4	4	2	2	0	2
