ExperimentName	Subject	Session	Clock.Information	DataFile.Basename	Display.RefreshRate	Eindtotaal[Session]	ExperimentVersion	Group	RandomSeed	RuntimeCapabilities	RuntimeVersion	RuntimeVersionExpected	SessionDate	SessionStartDateTimeUtc	SessionTime	StudioVersion	Block	BarImage	BarTotalWinst	DoorChoice	Eindtotaal[Block]	FBDoor1	FBDoor2	FBDoor3	FBDoor4	Image1	Image2	Image3	Image4	Procedure	Running	spel.ACC	spel.CRESP	spel.DurationError	spel.OnsetDelay	spel.OnsetTime	spel.OnsetToOnsetTime	spel.RESP	spel.RT	spel.RTTime	TotalGain	TotalLose	Totalsum	TotalsumD1	TotalsumD2	TotalsumD3	TotalsumD4	TrialList	TrialList.Cycle	TrialList.Sample	varV1	varV2	varV3	varV4	varW1	varW2	varW3	varW4	Verliesbedrag	Winstbedrag
Hungry_Donkey_bar_English_2	123	1	<?xml version="1.0"?>\n<Clock xmlns:dt="urn:schemas-microsoft-com:datatypes"><Description dt:dt="string">E-Prime Primary Realtime Clock</Description><StartTime><Timestamp dt:dt="int">0</Timestamp><DateUtc dt:dt="string">2015-08-26T21:08:31Z</DateUtc></StartTime><FrequencyChanges><FrequencyChange><Frequency dt:dt="r8">3507734</Frequency><Timestamp dt:dt="r8">372097548914</Timestamp><Current dt:dt="r8">0</Current><DateUtc dt:dt="string">2015-08-26T21:08:31Z</DateUtc></FrequencyChange></FrequencyChanges></Clock>\n	Hungry_Donkey_bar_English_2-123-1	60.018	-146	1.0.0.18	1	-1563920891	Standard	2.0.10.353	2.0.10.353	08-26-2015	8/26/2015 9:08:32 PM	17:08:32	2.0.10.248	1	Bar37-63.bmp	33	1	?	8r_4g.bmp	50r_4g.bmp	1r_2g.bmp	10r_2g.bmp	8r_4g.bmp				TrialProc	TrialList	0	cvbn	-999999	25	54815	0	c	2135	56950	4	-8	-4	-4	0	0	0	1	1	1	-8	-50	-1	-10	4	4	2	2	-8	4
Hungry_Donkey_bar_English_2	123	1	<?xml version="1.0"?>\n<Clock xmlns:dt="urn:schemas-microsoft-com:datatypes"><Description dt:dt="string">E-Prime Primary Realtime Clock</Description><StartTime><Timestamp dt:dt="int">0</Timestamp><DateUtc dt:dt="string">2015-08-26T21:08:31Z</DateUtc></StartTime><FrequencyChanges><FrequencyChange><Frequency dt:dt="r8">3507734</Frequency><Timestamp dt:dt="r8">372097548914</Timestamp><Current dt:dt="r8">0</Current><DateUtc dt:dt="string">2015-08-26T21:08:31Z</DateUtc></FrequencyChange></FrequencyChanges></Clock>\n	Hungry_Donkey_bar_English_2-123-1	60.018	-146	1.0.0.18	1	-1563920891	Standard	2.0.10.353	2.0.10.353	08-26-2015	8/26/2015 9:08:32 PM	17:08:32	2.0.10.248	2	Bar37-63.bmp	43	3	?	0r_4g.bmp	0r_4g.bmp	0r_2g.bmp	0r_2g.bmp			0r_2g.bmp		TrialProc	TrialList	0	cvbn	-999999	16	58997	0	b	2865	61862	6	-8	-2	-4	0	2	0	6	1	2	0	0	0	0	4	4	2	2	0	2
Hungry_Donkey_bar_English_2	123	1	<?xml version="1.0"?>\n<Clock xmlns:dt="urn:schemas-microsoft-com:datatypes"><Description dt:dt="string">E-Prime Primary Realtime Clock</Description><StartTime><Timestamp dt:dt="int">0</Timestamp><DateUtc dt:dt="string">2015-08-26T21:08:31Z</DateUtc></StartTime><FrequencyChanges><FrequencyChange><Frequency dt:dt="r8">3507734</Frequency><Timestamp dt:dt="r8">372097548914</Timestamp><Current dt:dt="r8">0</Current><DateUtc dt:dt="string">2015-08-26T21:08:31Z</DateUtc></FrequencyChange></FrequencyChanges></Clock>\n	Hungry_Donkey_bar_English_2-123-1	60.018	-146	1.0.0.18	1	-1563920891	Standard	2.0.10.353	2.0.10.353	08-26-2015	8/26/2015 9:08:32 PM	17:08:32	2.0.10.248	3	Bar50-50.bmp	56	2	?	0r_4g.bmp	0r_4g.bmp	0r_2g.bmp	0r_2g.bmp		0r_4g.bmp			TrialProc	TrialList	0	cvbn	-999999	16	63895	0	v	2191	66086	10	-8	2	-4	4	2	0	8	1	3	0	0	0	0	4	4	2	2	0	4
Hungry_Donkey_bar_English_2	123	1	<?xml version="1.0"?>\n<Clock xmlns:dt="urn:schemas-microsoft-com:datatypes"><Description dt:dt="string">E-Prime Primary Realtime Clock</Description><StartTime><Timestamp dt:dt="int">0</Timestamp><DateUtc dt:dt="string">2015-08-26T21:08:31Z</DateUtc></StartTime><FrequencyChanges><FrequencyChange><Frequency dt:dt="r8">3507734</Frequency><Timestamp dt:dt="r8">372097548914</Timestamp><Current dt:dt="r8">0</Current><DateUtc dt:dt="string">2015-08-26T21:08:31Z</DateUtc></FrequencyChange></FrequencyChanges></Clock>\n	Hungry_Donkey_bar_English_2-123-1	60.018	-146	1.0.0.18	1	-1563920891	Standard	2.0.10.353	2.0.10.353	08-26-2015	8/26/2015 9:08:32 PM	17:08:32	2.0.10.248	4	Bar63-37.bmp	60	4	?	10r_4g.bmp	0r_4g.bmp	2r_2g.bmp	0r_2g.bmp				0r_2g.bmp	TrialProc	TrialList	0	cvbn	-999999	16	68127	0	n	2278	70405	12	-8	4	-4	4	2	2	3	1	4	-10	0	-2	0	4	4	2	2	0	2
Hungry_Donkey_bar_English_2	123	1	<?xml version="1.0"?>\n<Clock xmlns:dt="urn:schemas-microsoft-com:datatypes"><Description dt:dt="string">E-Prime Primary Realtime Clock</Description><StartTime><Timestamp dt:dt="int">0</Timestamp><DateUtc dt:dt="string">2015-08-26T21:08:31Z</DateUtc></StartTime><FrequencyChanges><FrequencyChange><Frequency dt:dt="r8">3507734</Frequency><Timestamp dt:dt="r8">372097548914</Timestamp><Current dt:dt="r8">0</Current><DateUtc dt:dt="string">2015-08-26T21:08:31Z</DateUtc></FrequencyChange></FrequencyChanges></Clock>\n	Hungry_Donkey_bar_English_2-123-1	60.018	-146	1.0.0.18	1	-1563920891	Standard	2.0.10.353	2.0.10.353	08-26-2015	8/26/2015 9:08:32 PM	17:08:32	2.0.10.248	5	Bar50-50.bmp	44	1	?	12r_4g.bmp	0r_4g.bmp	3r_2g.bmp	0r_2g.bmp	12r_4g.bmp				TrialProc	TrialList	0	cvbn	-999999	16	72443	0	c	1226	73669	16	-20	-4	-12	4	2	2	5	1	5	-12	0	-3	0	4	4	2	2	-12	4
Hungry_Donkey_bar_English_2	123	1	<?xml version="1.0"?>\n<Clock xmlns:dt="urn:schemas-microsoft-com:datatypes"><Description dt:dt="string">E-Prime Primary Realtime Clock</Description><StartTime><Timestamp dt:dt="int">0</Timestamp><DateUtc dt:dt="string">2015-08-26T21:08:31Z</DateUtc></StartTime><FrequencyChanges><FrequencyChange><Frequency dt:dt="r8">3507734</Frequency><Timestamp dt:dt="r8">372097548914</Timestamp><Current dt:dt="r8">0</Current><DateUtc dt:dt="string">2015-08-26T21:08:31Z</DateUtc></FrequencyChange></FrequencyChanges></Clock>\n	Hungry_Donkey_bar_English_2-123-1	60.018	-146	1.0.0.18	1	-1563920891	Standard	2.0.10.353	2.0.10.353	08-26-2015	8/26/2015 9:08:32 PM	17:08:32	2.0.10.248	6	Bar50-50.bmp	50	2	?	10r_4g.bmp	0r_4g.bmp	2r_2g.bmp	0r_2g.bmp		0r_4g.bmp			TrialProc	TrialList	0	cvbn	-999999	16	75708	0	v	937	76645	20	-20	0	-12	8	2	2	2	1	6	-10	0	-2	0	4	4	2	2	0	4
Hungry_Donkey_bar_English_2	123	1	<?xml version="1.0"?>\n<Clock xmlns:dt="urn:schemas-microsoft-com:datatypes"><Description dt:dt="string">E-Prime Primary Realtime Clock</Description><StartTime><Timestamp dt:dt="int">0</Timestamp><DateUtc dt:dt="string">2015-08-26T21:08:31Z</DateUtc></StartTime><FrequencyChanges><FrequencyChange><Frequency dt:dt="r8">3507734</Frequency><Timestamp dt:dt="r8">372097548914</Timestamp><Current dt:dt="r8">0</Current><DateUtc dt:dt="string">2015-08-26T21:08:31Z</DateUtc></FrequencyChange></FrequencyChanges></Clock>\n	Hungry_Donkey_bar_English_2-123-1	60.018	-146	1.0.0.18	1	-1563920891	Standard	2.0.10.353	2.0.10.353	08-26-2015	8/26/2015 9:08:32 PM	17:08:32	2.0.10.248	7	Bar50-50.bmp	52	4	?	0r_4g.bmp	0r_4g.bmp	0r_2g.bmp	0r_2g.bmp				0r_2g.bmp	TrialProc	TrialList	0	cvbn	-999999	16	78674	0	n	547	79221	22	-20	2	-12	8	2	4	7	1	7	0	0	0	0	4	4	2	2	0	2
Hungry_Donkey_bar_English_2	123	1	<?xml version="1.0"?>\n<Clock xmlns:dt="urn:schemas-microsoft-com:datatypes"><Description dt:dt="string">E-Prime Primary Realtime Clock</Description><StartTime><Timestamp dt:dt="int">0</Timestamp><DateUtc dt:dt="string">2015-08-26T21:08:31Z</DateUtc></StartTime><FrequencyChanges><FrequencyChange><Frequency dt:dt="r8">3507734</Frequency><Timestamp dt:dt="r8">372097548914</Timestamp><Current dt:dt="r8">0</Current><DateUtc dt:dt="string">2015-08-26T21:08:31Z</DateUtc></FrequencyChange></FrequencyChanges></Clock>\n	Hungry_Donkey_bar_English_2-123-1	60.018	-146	1.0.0.18	1	-1563920891	Standard	2.0.10.353	2.0.10.353	08-26-2015	8/26/2015 9:08:32 PM	17:08:32	2.0.10.248	8	Bar63-37.bmp	57	2	?	0r_4g.bmp	0r_4g.bmp	0r_2g.bmp	0r_2g.bmp		0r_4g.bmp			TrialProc	TrialList	0	cvbn	-999999	16	81257	0	v	332	81589	26	-20	6	-12	12	2	4	9	1	8	0	0	0	0	4	4	2	2	0	4
Hungry_Donkey_bar_English_2	123	1	<?xml version="1.0"?>\n<Clock xmlns:dt="urn:schemas-microsoft-com:datatypes"><Description dt:dt="string">E-Prime Primary Realtime Clock</Description><StartTime><Timestamp dt:dt="int">0</Timestamp><DateUtc dt:dt="string">2015-08-26T21:08:31Z</DateUtc></StartTime><FrequencyChanges><FrequencyChange><Frequency dt:dt="r8">3507734</Frequency><Timestamp dt:dt="r8">372097548914</Timestamp><Current dt:dt="r8">0</Current><DateUtc dt:dt="string">2015-08-26T21:08:31Z</DateUtc></FrequencyChange></FrequencyChanges></Clock>\n	Hungry_Donkey_bar_English_2-123-1	60.018	-146	1.0.0.18	1	-1563920891	Standard	2.0.10.353	2.0.10.353	08-26-2015	8/26/2015 9:08:32 PM	17:08:32	2.0.10.248	9	Bar63-37.bmp	60	2	?	10r_4g.bmp	0r_4g.bmp	2r_2g.bmp	0r_2g.bmp		0r_4g.bmp			TrialProc	TrialList	0	cvbn	-999999	16	83623	0	v	317	83940	30	-20	10	-12	16	2	4	4	1	9	-10	0	-2	0	4	4	2	2	0	4
Hungry_Donkey_bar_English_2	123	1	<?xml version="1.0"?>\n<Clock xmlns:dt="urn:schemas-microsoft-com:datatypes"><Description dt:dt="string">E-Prime Primary Realtime Clock</Description><StartTime><Timestamp dt:dt="int">0</Timestamp><DateUtc dt:dt="string">2015-08-26T21:08:31Z</DateUtc></StartTime><FrequencyChanges><FrequencyChange><Frequency dt:dt="r8">3507734</Frequency><Timestamp dt:dt="r8">372097548914</Timestamp><Current dt:dt="r8">0</Current><DateUtc dt:dt="string">2015-08-26T21:08:31Z</DateUtc></FrequencyChange></FrequencyChanges></Clock>\n	Hungry_Donkey_bar_English_2-123-1	60.018	-146	1.0.0.18	1	-1563920891	Standard	2.0.10.353	2.0.10.353	08-26-2015	8/26/2015 9:08:32 PM	17:08:32	2.0.10.248	10	Bar63-37.bmp	63	2	?	0r_4g.bmp	0r_4g.bmp	0r_2g.bmp	0r_2g.bmp		0r_4g.bmp			TrialProc	TrialList	0	cvbn	-999999	16	85972	0	v	576	86548	34	-20	14	-12	20	2	4	10	1	10	0	0	0	0	4	4	2	2	0	4
Hungry_Donkey_bar_English_2	123	1	<?xml version="1.0"?>\n<Clock xmlns:dt="urn:schemas-microsoft-com:datatypes"><Description dt:dt="string">E-Prime Primary Realtime Clock</Description><StartTime><Timestamp dt:dt="int">0</Timestamp><DateUtc dt:dt="string">2015-08-26T21:08:31Z</DateUtc></StartTime><FrequencyChanges><FrequencyChange><Frequency dt:dt="r8">3507734</Frequency><Timestamp dt:dt="r8">372097548914</Timestamp><Current dt:dt="r8">0</Current><DateUtc dt:dt="string">2015-08-26T21:08:31Z</DateUtc></FrequencyChange></FrequencyChanges></Clock>\n	Hungry_Donkey_bar_English_2-123-1	60.018	-146	1.0.0.18	1	-1563920891	Standard	2.0.10.353	2.0.10.353	08-26-2015	8/26/2015 9:08:32 PM	17:08:32	2.0.10.248	11	Bar63-37.bmp	66	2	?	0r_4g.bmp	0r_4g.bmp	0r_2g.bmp	0r_2g.bmp		0r_4g.bmp			TrialProc	TrialList	0	cvbn	-999999	16	88588	0	v	440	89028	38	-20	18	-12	24	2	4	10	2	11	0	0	0	0	4	4	2	2	0	4
Hungry_Donkey_bar_English_2	123	1	<?xml version="1.0"?>\n<Clock xmlns:dt="urn:schemas-microsoft-com:datatypes"><Description dt:dt="string">E-Prime Primary Realtime Clock</Description><StartTime><Timestamp dt:dt="int">0</Timestamp><DateUtc dt:dt="string">2015-08-26T21:08:31Z</DateUtc></StartTime><FrequencyChanges><FrequencyChange><Frequency dt:dt="r8">3507734</Frequency><Timestamp dt:dt="r8">372097548914</Timestamp><Current dt:dt="r8">0</Current><DateUtc dt:dt="string">2015-08-26T21:08:31Z</DateUtc></FrequencyChange></FrequencyChanges></Clock>\n	Hungry_Donkey_bar_English_2-123-1	60.018	-146	1.0.0.18	1	-1563920891	Standard	2.0.10.353	2.0.10.353	08-26-2015	8/26/2015 9:08:32 PM	17:08:32	2.0.10.248	12	Bar63-37.bmp	68	2	?	0r_4g.bmp	0r_4g.bmp	0r_2g.bmp	0r_2g.bmp		0r_4g.bmp			TrialProc	TrialList	0	cvbn	-999999	16	91054	0	v	326	91380	42	-20	22	-12	28	2	4	7	2	12	0	0	0	0	4	4	2	2	0	4
Hungry_Donkey_bar_English_2	123	1	<?xml version="1.0"?>\n<Clock xmlns:dt="urn:schemas-microsoft-com:datatypes"><Description dt:dt="string">E-Prime Primary Realtime Clock</Description><StartTime><Timestamp dt:dt="int">0</Timestamp><DateUtc dt:dt="string">2015-08-26T21:08:31Z</DateUtc></StartTime><FrequencyChanges><FrequencyChange><Frequency dt:dt="r8">3507734</Frequency><Timestamp dt:dt="r8">372097548914</Timestamp><Current dt:dt="r8">0</Current><DateUtc dt:dt="string">2015-08-26T21:08:31Z</DateUtc></FrequencyChange></FrequencyChanges></Clock>\n	Hungry_Donkey_bar_English_2-123-1	60.018	-146	1.0.0.18	1	-1563920891	Standard	2.0.10.353	2.0.10.353	08-26-2015	8/26/2015 9:08:32 PM	17:08:32	2.0.10.248	13	Bar75-25.bmp	70	2	?	0r_4g.bmp	0r_4g.bmp	0r_2g.bmp	0r_2g.bmp		0r_4g.bmp			TrialProc	TrialList	0	cvbn	-999999	16	93420	0	v	296	93716	46	-20	26	-12	32	2	4	6	2	13	0	0	0	0	4	4	2	2	0	4
Hungry_Donkey_bar_English_2	123	1	<?xml version="1.0"?>\n<Clock xmlns:dt="urn:schemas-microsoft-com:datatypes"><Description dt:dt="string">E-Prime Primary Realtime Clock</Description><StartTime><Timestamp dt:dt="int">0</Timestamp><DateUtc dt:dt="string">2015-08-26T21:08:31Z</DateUtc></StartTime><FrequencyChanges><FrequencyChange><Frequency dt:dt="r8">3507734</Frequency><Timestamp dt:dt="r8">372097548914</Timestamp><Current dt:dt="r8">0</Current><DateUtc dt:dt="string">2015-08-26T21:08:31Z</DateUtc></FrequencyChange></FrequencyChanges></Clock>\n	Hungry_Donkey_bar_English_2-123-1	60.018	-146	1.0.0.18	1	-1563920891	Standard	2.0.10.353	2.0.10.353	08-26-2015	8/26/2015 9:08:32 PM	17:08:32	2.0.10.248	14	Bar75-25.bmp	71	2	?	10r_4g.bmp	0r_4g.bmp	2r_2g.bmp	0r_2g.bmp		0r_4g.bmp			TrialProc	TrialList	0	cvbn	-999999	16	95752	0	v	396	96148	50	-20	30	-12	36	2	4	2	2	14	-10	0	-2	0	4	4	2	2	0	4
Hungry_Donkey_bar_English_2	123	1	<?xml version="1.0"?>\n<Clock xmlns:dt="urn:schemas-microsoft-com:datatypes"><Description dt:dt="string">E-Prime Primary Realtime Clock</Description><StartTime><Timestamp dt:dt="int">0</Timestamp><DateUtc dt:dt="string">2015-08-26T21:08:31Z</DateUtc></StartTime><FrequencyChanges><FrequencyChange><Frequency dt:dt="r8">3507734</Frequency><Timestamp dt:dt="r8">372097548914</Timestamp><Current dt:dt="r8">0</Current><DateUtc dt:dt="string">2015-08-26T21:08:31Z</DateUtc></FrequencyChange></FrequencyChanges></Clock>\n	Hungry_Donkey_bar_English_2-123-1	60.018	-146	1.0.0.18	1	-1563920891	Standard	2.0.10.353	2.0.10.353	08-26-2015	8/26/2015 9:08:32 PM	17:08:32	2.0.10.248	15	Bar75-25.bmp	73	2	?	0r_4g.bmp	0r_4g.bmp	0r_2g.bmp	0r_2g.bmp		0r_4g.bmp			TrialProc	TrialList	0	cvbn	-999999	16	98185	0	v	330	98515	54	-20	34	-12	40	2	4	9	2	15	0	0	0	0	4	4	2	2	0	4
Hungry_Donkey_bar_English_2	123	1	<?xml version="1.0"?>\n<Clock xmlns:dt="urn:schemas-microsoft-com:datatypes"><Description dt:dt="string">E-Prime Primary Realtime Clock</Description><StartTime><Timestamp dt:dt="int">0</Timestamp><DateUtc dt:dt="string">2015-08-26T21:08:31Z</DateUtc></StartTime><FrequencyChanges><FrequencyChange><Frequency dt:dt="r8">3507734</Frequency><Timestamp dt:dt="r8">372097548914</Timestamp><Current dt:dt="r8">0</Current><DateUtc dt:dt="string">2015-08-26T21:08:31Z</DateUtc></FrequencyChange></FrequencyChanges></Clock>\n	Hungry_Donkey_bar_English_2-123-1	60.018	-146	1.0.0.18	1	-1563920891	Standard	2.0.10.353	2.0.10.353	08-26-2015	8/26/2015 9:08:32 PM	17:08:32	2.0.10.248	16	Bar50-50.bmp	45	2	?	8r_4g.bmp	50r_4g.bmp	1r_2g.bmp	10r_2g.bmp		50r_4g.bmp			TrialProc	TrialList	0	cvbn	-999999	16	100551	0	v	380	100931	58	-70	-12	-12	-6	2	4	1	2	16	-8	-50	-1	-10	4	4	2	2	-50	4
Hungry_Donkey_bar_English_2	123	1	<?xml version="1.0"?>\n<Clock xmlns:dt="urn:schemas-microsoft-com:datatypes"><Description dt:dt="string">E-Prime Primary Realtime Clock</Description><StartTime><Timestamp dt:dt="int">0</Timestamp><DateUtc dt:dt="string">2015-08-26T21:08:31Z</DateUtc></StartTime><FrequencyChanges><FrequencyChange><Frequency dt:dt="r8">3507734</Frequency><Timestamp dt:dt="r8">372097548914</Timestamp><Current dt:dt="r8">0</Current><DateUtc dt:dt="string">2015-08-26T21:08:31Z</DateUtc></FrequencyChange></FrequencyChanges></Clock>\n	Hungry_Donkey_bar_English_2-123-1	60.018	-146	1.0.0.18	1	-1563920891	Standard	2.0.10.353	2.0.10.353	08-26-2015	8/26/2015 9:08:32 PM	17:08:32	2.0.10.248	17	Bar50-50.bmp	46	4	?	12r_4g.bmp	0r_4g.bmp	3r_2g.bmp	0r_2g.bmp				0r_2g.bmp	TrialProc	TrialList	0	cvbn	-999999	16	102967	0	n	1132	104099	60	-70	-10	-12	-6	2	6	5	2	17	-12	0	-3	0	4	4	2	2	0	2
Hungry_Donkey_bar_English_2	123	1	<?xml version="1.0"?>\n<Clock xmlns:dt="urn:schemas-microsoft-com:datatypes"><Description dt:dt="string">E-Prime Primary Realtime Clock</Description><StartTime><Timestamp dt:dt="int">0</Timestamp><DateUtc dt:dt="string">2015-08-26T21:08:31Z</DateUtc></StartTime><FrequencyChanges><FrequencyChange><Frequency dt:dt="r8">3507734</Frequency><Timestamp dt:dt="r8">372097548914</Timestamp><Current dt:dt="r8">0</Current><DateUtc dt:dt="string">2015-08-26T21:08:31Z</DateUtc></FrequencyChange></FrequencyChanges></Clock>\n	Hungry_Donkey_bar_English_2-123-1	60.018	-146	1.0.0.18	1	-1563920891	Standard	2.0.10.353	2.0.10.353	08-26-2015	8/26/2015 9:08:32 PM	17:08:32	2.0.10.248	18	Bar50-50.bmp	46	3	?	10r_4g.bmp	0r_4g.bmp	2r_2g.bmp	0r_2g.bmp			2r_2g.bmp		TrialProc	TrialList	0	cvbn	-999999	17	106133	0	b	862	106995	62	-72	-10	-12	-6	2	6	3	2	18	-10	0	-2	0	4	4	2	2	-2	2
Hungry_Donkey_bar_English_2	123	1	<?xml version="1.0"?>\n<Clock xmlns:dt="urn:schemas-microsoft-com:datatypes"><Description dt:dt="string">E-Prime Primary Realtime Clock</Description><StartTime><Timestamp dt:dt="int">0</Timestamp><DateUtc dt:dt="string">2015-08-26T21:08:31Z</DateUtc></StartTime><FrequencyChanges><FrequencyChange><Frequency dt:dt="r8">3507734</Frequency><Timestamp dt:dt="r8">372097548914</Timestamp><Current dt:dt="r8">0</Current><DateUtc dt:dt="string">2015-08-26T21:08:31Z</DateUtc></FrequencyChange></FrequencyChanges></Clock>\n	Hungry_Donkey_bar_English_2-123-1	60.018	-146	1.0.0.18	1	-1563920891	Standard	2.0.10.353	2.0.10.353	08-26-2015	8/26/2015 9:08:32 PM	17:08:32	2.0.10.248	19	Bar50-50.bmp	45	1	?	10r_4g.bmp	0r_4g.bmp	2r_2g.bmp	0r_2g.bmp	10r_4g.bmp				TrialProc	TrialList	0	cvbn	-999999	16	109032	0	c	795	109827	66	-82	-16	-18	-6	2	6	4	2	19	-10	0	-2	0	4	4	2	2	-10	4
Hungry_Donkey_bar_English_2	123	1	<?xml version="1.0"?>\n<Clock xmlns:dt="urn:schemas-microsoft-com:datatypes"><Description dt:dt="string">E-Prime Primary Realtime Clock</Description><StartTime><Timestamp dt:dt="int">0</Timestamp><DateUtc dt:dt="string">2015-08-26T21:08:31Z</DateUtc></StartTime><FrequencyChanges><FrequencyChange><Frequency dt:dt="r8">3507734</Frequency><Timestamp dt:dt="r8">372097548914</Timestamp><Current dt:dt="r8">0</Current><DateUtc dt:dt="string">2015-08-26T21:08:31Z</DateUtc></FrequencyChange></FrequencyChanges></Clock>\n	Hungry_Donkey_bar_English_2-123-1	60.018	-146	1.0.0.18	1	-1563920891	Standard	2.0.10.353	2.0.10.353	08-26-2015	8/26/2015 9:08:32 PM	17:08:32	2.0.10.248	20	Bar50-50.bmp	46	2	?	0r_4g.bmp	0r_4g.bmp	0r_2g.bmp	0r_2g.bmp		0r_4g.bmp			TrialProc	TrialList	0	cvbn	-999999	16	111864	0	v	731	112595	70	-82	-12	-18	-2	2	6	8	2	20	0	0	0	0	4	4	2	2	0	4
Hungry_Donkey_bar_English_2	123	1	<?xml version="1.0"?>\n<Clock xmlns:dt="urn:schemas-microsoft-com:datatypes"><Description dt:dt="string">E-Prime Primary Realtime Clock</Description><StartTime><Timestamp dt:dt="int">0</Timestamp><DateUtc dt:dt="string">2015-08-26T21:08:31Z</DateUtc></StartTime><FrequencyChanges><FrequencyChange><Frequency dt:dt="r8">3507734</Frequency><Timestamp dt:dt="r8">372097548914</Timestamp><Current dt:dt="r8">0</Current><DateUtc dt:dt="string">2015-08-26T21:08:31Z</DateUtc></FrequencyChange></FrequencyChanges></Clock>\n	Hungry_Donkey_bar_English_2-123-1	60.018	-146	1.0.0.18	1	-1563920891	Standard	2.0.10.353	2.0.10.353	08-26-2015	8/26/2015 9:08:32 PM	17:08:32	2.0.10.248	21	Bar50-50.bmp	47	2	?	0r_4g.bmp	0r_4g.bmp	0r_2g.bmp	0r_2g.bmp		0r_4g.bmp			TrialProc	TrialList	0	cvbn	-999999	16	114630	0	v	364	114994	74	-82	-8	-18	2	2	6	7	3	21	0	0	0	0	4	4	2	2	0	4
Hungry_Donkey_bar_English_2	123	1	<?xml version="1.0"?>\n<Clock xmlns:dt="urn:schemas-microsoft-com:datatypes"><Description dt:dt="string">E-Prime Primary Realtime Clock</Description><StartTime><Timestamp dt:dt="int">0</Timestamp><DateUtc dt:dt="string">2015-08-26T21:08:31Z</DateUtc></StartTime><FrequencyChanges><FrequencyChange><Frequency dt:dt="r8">3507734</Frequency><Timestamp dt:dt="r8">372097548914</Timestamp><Current dt:dt="r8">0</Current><DateUtc dt:dt="string">2015-08-26T21:08:31Z</DateUtc></FrequencyChange></FrequencyChanges></Clock>\n	Hungry_Donkey_bar_English_2-123-1	60.018	-146	1.0.0.18	1	-1563920891	Standard	2.0.10.353	2.0.10.353	08-26-2015	8/26/2015 9:08:32 PM	17:08:32	2.0.10.248	22	Bar50-50.bmp	49	2	?	0r_4g.bmp	0r_4g.bmp	0r_2g.bmp	0r_2g.bmp		0r_4g.bmp			TrialProc	TrialList	0	cvbn	-999999	16	117029	0	v	493	117522	78	-82	-4	-18	6	2	6	10	3	22	0	0	0	0	4	4	2	2	0	4
Hungry_Donkey_bar_English_2	123	1	<?xml version="1.0"?>\n<Clock xmlns:dt="urn:schemas-microsoft-com:datatypes"><Description dt:dt="string">E-Prime Primary Realtime Clock</Description><StartTime><Timestamp dt:dt="int">0</Timestamp><DateUtc dt:dt="string">2015-08-26T21:08:31Z</DateUtc></StartTime><FrequencyChanges><FrequencyChange><Frequency dt:dt="r8">3507734</Frequency><Timestamp dt:dt="r8">372097548914</Timestamp><Current dt:dt="r8">0</Current><DateUtc dt:dt="string">2015-08-26T21:08:31Z</DateUtc></FrequencyChange></FrequencyChanges></Clock>\n	Hungry_Donkey_bar_English_2-123-1	60.018	-146	1.0.0.18	1	-1563920891	Standard	2.0.10.353	2.0.10.353	08-26-2015	8/26/2015 9:08:32 PM	17:08:32	2.0.10.248	23	Bar37-63.bmp	38	2	?	8r_4g.bmp	50r_4g.bmp	1r_2g.bmp	10r_2g.bmp		50r_4g.bmp			TrialProc	TrialList	0	cvbn	-999999	15	119545	0	v	345	119890	82	-132	-50	-18	-40	2	6	1	3	23	-8	-50	-1	-10	4	4	2	2	-50	4
Hungry_Donkey_bar_English_2	123	1	<?xml version="1.0"?>\n<Clock xmlns:dt="urn:schemas-microsoft-com:datatypes"><Description dt:dt="string">E-Prime Primary Realtime Clock</Description><StartTime><Timestamp dt:dt="int">0</Timestamp><DateUtc dt:dt="string">2015-08-26T21:08:31Z</DateUtc></StartTime><FrequencyChanges><FrequencyChange><Frequency dt:dt="r8">3507734</Frequency><Timestamp dt:dt="r8">372097548914</Timestamp><Current dt:dt="r8">0</Current><DateUtc dt:dt="string">2015-08-26T21:08:31Z</DateUtc></FrequencyChange></FrequencyChanges></Clock>\n	Hungry_Donkey_bar_English_2-123-1	60.018	-146	1.0.0.18	1	-1563920891	Standard	2.0.10.353	2.0.10.353	08-26-2015	8/26/2015 9:08:32 PM	17:08:32	2.0.10.248	24	Bar37-63.bmp	39	4	?	10r_4g.bmp	0r_4g.bmp	2r_2g.bmp	0r_2g.bmp				0r_2g.bmp	TrialProc	TrialList	0	cvbn	-999999	16	121928	0	n	890	122818	84	-132	-48	-18	-40	2	8	2	3	24	-10	0	-2	0	4	4	2	2	0	2
Hungry_Donkey_bar_English_2	123	1	<?xml version="1.0"?>\n<Clock xmlns:dt="urn:schemas-microsoft-com:datatypes"><Description dt:dt="string">E-Prime Primary Realtime Clock</Description><StartTime><Timestamp dt:dt="int">0</Timestamp><DateUtc dt:dt="string">2015-08-26T21:08:31Z</DateUtc></StartTime><FrequencyChanges><FrequencyChange><Frequency dt:dt="r8">3507734</Frequency><Timestamp dt:dt="r8">372097548914</Timestamp><Current dt:dt="r8">0</Current><DateUtc dt:dt="string">2015-08-26T21:08:31Z</DateUtc></FrequencyChange></FrequencyChanges></Clock>\n	Hungry_Donkey_bar_English_2-123-1	60.018	-146	1.0.0.18	1	-1563920891	Standard	2.0.10.353	2.0.10.353	08-26-2015	8/26/2015 9:08:32 PM	17:08:32	2.0.10.248	25	Bar37-63.bmp	39	3	?	0r_4g.bmp	0r_4g.bmp	0r_2g.bmp	0r_2g.bmp			0r_2g.bmp		TrialProc	TrialList	0	cvbn	-999999	17	124844	0	b	806	125650	86	-132	-46	-18	-40	4	8	6	3	25	0	0	0	0	4	4	2	2	0	2
Hungry_Donkey_bar_English_2	123	1	<?xml version="1.0"?>\n<Clock xmlns:dt="urn:schemas-microsoft-com:datatypes"><Description dt:dt="string">E-Prime Primary Realtime Clock</Description><StartTime><Timestamp dt:dt="int">0</Timestamp><DateUtc dt:dt="string">2015-08-26T21:08:31Z</DateUtc></StartTime><FrequencyChanges><FrequencyChange><Frequency dt:dt="r8">3507734</Frequency><Timestamp dt:dt="r8">372097548914</Timestamp><Current dt:dt="r8">0</Current><DateUtc dt:dt="string">2015-08-26T21:08:31Z</DateUtc></FrequencyChange></FrequencyChanges></Clock>\n	Hungry_Donkey_bar_English_2-123-1	60.018	-146	1.0.0.18	1	-1563920891	Standard	2.0.10.353	2.0.10.353	08-26-2015	8/26/2015 9:08:32 PM	17:08:32	2.0.10.248	26	Bar37-63.bmp	40	3	?	10r_4g.bmp	0r_4g.bmp	2r_2g.bmp	0r_2g.bmp			2r_2g.bmp		TrialProc	TrialList	0	cvbn	-999999	16	127676	0	b	406	128082	88	-134	-46	-18	-40	4	8	3	3	26	-10	0	-2	0	4	4	2	2	-2	2
Hungry_Donkey_bar_English_2	123	1	<?xml version="1.0"?>\n<Clock xmlns:dt="urn:schemas-microsoft-com:datatypes"><Description dt:dt="string">E-Prime Primary Realtime Clock</Description><StartTime><Timestamp dt:dt="int">0</Timestamp><DateUtc dt:dt="string">2015-08-26T21:08:31Z</DateUtc></StartTime><FrequencyChanges><FrequencyChange><Frequency dt:dt="r8">3507734</Frequency><Timestamp dt:dt="r8">372097548914</Timestamp><Current dt:dt="r8">0</Current><DateUtc dt:dt="string">2015-08-26T21:08:31Z</DateUtc></FrequencyChange></FrequencyChanges></Clock>\n	Hungry_Donkey_bar_English_2-123-1	60.018	-146	1.0.0.18	1	-1563920891	Standard	2.0.10.353	2.0.10.353	08-26-2015	8/26/2015 9:08:32 PM	17:08:32	2.0.10.248	27	Bar37-63.bmp	40	4	?	10r_4g.bmp	0r_4g.bmp	2r_2g.bmp	0r_2g.bmp				0r_2g.bmp	TrialProc	TrialList	0	cvbn	-999999	16	130109	0	n	324	130433	90	-134	-44	-18	-40	4	10	4	3	27	-10	0	-2	0	4	4	2	2	0	2
Hungry_Donkey_bar_English_2	123	1	<?xml version="1.0"?>\n<Clock xmlns:dt="urn:schemas-microsoft-com:datatypes"><Description dt:dt="string">E-Prime Primary Realtime Clock</Description><StartTime><Timestamp dt:dt="int">0</Timestamp><DateUtc dt:dt="string">2015-08-26T21:08:31Z</DateUtc></StartTime><FrequencyChanges><FrequencyChange><Frequency dt:dt="r8">3507734</Frequency><Timestamp dt:dt="r8">372097548914</Timestamp><Current dt:dt="r8">0</Current><DateUtc dt:dt="string">2015-08-26T21:08:31Z</DateUtc></FrequencyChange></FrequencyChanges></Clock>\n	Hungry_Donkey_bar_English_2-123-1	60.018	-146	1.0.0.18	1	-1563920891	Standard	2.0.10.353	2.0.10.353	08-26-2015	8/26/2015 9:08:32 PM	17:08:32	2.0.10.248	28	Bar37-63.bmp	41	3	?	0r_4g.bmp	0r_4g.bmp	0r_2g.bmp	0r_2g.bmp			0r_2g.bmp		TrialProc	TrialList	0	cvbn	-999999	16	132458	0	b	647	133105	92	-134	-42	-18	-40	6	10	9	3	28	0	0	0	0	4	4	2	2	0	2
Hungry_Donkey_bar_English_2	123	1	<?xml version="1.0"?>\n<Clock xmlns:dt="urn:schemas-microsoft-com:datatypes"><Description dt:dt="string">E-Prime Primary Realtime Clock</Description><StartTime><Timestamp dt:dt="int">0</Timestamp><DateUtc dt:dt="string">2015-08-26T21:08:31Z</DateUtc></StartTime><FrequencyChanges><FrequencyChange><Frequency dt:dt="r8">3507734</Frequency><Timestamp dt:dt="r8">372097548914</Timestamp><Current dt:dt="r8">0</Current><DateUtc dt:dt="string">2015-08-26T21:08:31Z</DateUtc></FrequencyChange></FrequencyChanges></Clock>\n	Hungry_Donkey_bar_English_2-123-1	60.018	-146	1.0.0.18	1	-1563920891	Standard	2.0.10.353	2.0.10.353	08-26-2015	8/26/2015 9:08:32 PM	17:08:32	2.0.10.248	29	Bar37-63.bmp	42	2	?	12r_4g.bmp	0r_4g.bmp	3r_2g.bmp	0r_2g.bmp		0r_4g.bmp			TrialProc	TrialList	0	cvbn	-999999	16	135140	0	v	525	135665	96	-134	-38	-18	-36	6	10	5	3	29	-12	0	-3	0	4	4	2	2	0	4
Hungry_Donkey_bar_English_2	123	1	<?xml version="1.0"?>\n<Clock xmlns:dt="urn:schemas-microsoft-com:datatypes"><Description dt:dt="string">E-Prime Primary Realtime Clock</Description><StartTime><Timestamp dt:dt="int">0</Timestamp><DateUtc dt:dt="string">2015-08-26T21:08:31Z</DateUtc></StartTime><FrequencyChanges><FrequencyChange><Frequency dt:dt="r8">3507734</Frequency><Timestamp dt:dt="r8">372097548914</Timestamp><Current dt:dt="r8">0</Current><DateUtc dt:dt="string">2015-08-26T21:08:31Z</DateUtc></FrequencyChange></FrequencyChanges></Clock>\n	Hungry_Donkey_bar_English_2-123-1	60.018	-146	1.0.0.18	1	-1563920891	Standard	2.0.10.353	2.0.10.353	08-26-2015	8/26/2015 9:08:32 PM	17:08:32	2.0.10.248	30	Bar37-63.bmp	43	1	?	0r_4g.bmp	0r_4g.bmp	0r_2g.bmp	0r_2g.bmp	0r_4g.bmp				TrialProc	TrialList	0	cvbn	-999999	16	137690	0	c	391	138081	100	-134	-34	-14	-36	6	10	8	3	30	0	0	0	0	4	4	2	2	0	4
Hungry_Donkey_bar_English_2	123	1	<?xml version="1.0"?>\n<Clock xmlns:dt="urn:schemas-microsoft-com:datatypes"><Description dt:dt="string">E-Prime Primary Realtime Clock</Description><StartTime><Timestamp dt:dt="int">0</Timestamp><DateUtc dt:dt="string">2015-08-26T21:08:31Z</DateUtc></StartTime><FrequencyChanges><FrequencyChange><Frequency dt:dt="r8">3507734</Frequency><Timestamp dt:dt="r8">372097548914</Timestamp><Current dt:dt="r8">0</Current><DateUtc dt:dt="string">2015-08-26T21:08:31Z</DateUtc></FrequencyChange></FrequencyChanges></Clock>\n	Hungry_Donkey_bar_English_2-123-1	60.018	-146	1.0.0.18	1	-1563920891	Standard	2.0.10.353	2.0.10.353	08-26-2015	8/26/2015 9:08:32 PM	17:08:32	2.0.10.248	31	Bar37-63.bmp	42	1	?	10r_4g.bmp	0r_4g.bmp	2r_2g.bmp	0r_2g.bmp	10r_4g.bmp				TrialProc	TrialList	0	cvbn	-999999	17	140106	0	c	375	140481	104	-144	-40	-20	-36	6	10	3	4	31	-10	0	-2	0	4	4	2	2	-10	4
Hungry_Donkey_bar_English_2	123	1	<?xml version="1.0"?>\n<Clock xmlns:dt="urn:schemas-microsoft-com:datatypes"><Description dt:dt="string">E-Prime Primary Realtime Clock</Description><StartTime><Timestamp dt:dt="int">0</Timestamp><DateUtc dt:dt="string">2015-08-26T21:08:31Z</DateUtc></StartTime><FrequencyChanges><FrequencyChange><Frequency dt:dt="r8">3507734</Frequency><Timestamp dt:dt="r8">372097548914</Timestamp><Current dt:dt="r8">0</Current><DateUtc dt:dt="string">2015-08-26T21:08:31Z</DateUtc></FrequencyChange></FrequencyChanges></Clock>\n	Hungry_Donkey_bar_English_2-123-1	60.018	-146	1.0.0.18	1	-1563920891	Standard	2.0.10.353	2.0.10.353	08-26-2015	8/26/2015 9:08:32 PM	17:08:32	2.0.10.248	32	Bar37-63.bmp	36	2	?	8r_4g.bmp	50r_4g.bmp	1r_2g.bmp	10r_2g.bmp		50r_4g.bmp			TrialProc	TrialList	0	cvbn	-999999	16	142505	0	v	344	142849	108	-194	-86	-20	-82	6	10	1	4	32	-8	-50	-1	-10	4	4	2	2	-50	4
Hungry_Donkey_bar_English_2	123	1	<?xml version="1.0"?>\n<Clock xmlns:dt="urn:schemas-microsoft-com:datatypes"><Description dt:dt="string">E-Prime Primary Realtime Clock</Description><StartTime><Timestamp dt:dt="int">0</Timestamp><DateUtc dt:dt="string">2015-08-26T21:08:31Z</DateUtc></StartTime><FrequencyChanges><FrequencyChange><Frequency dt:dt="r8">3507734</Frequency><Timestamp dt:dt="r8">372097548914</Timestamp><Current dt:dt="r8">0</Current><DateUtc dt:dt="string">2015-08-26T21:08:31Z</DateUtc></FrequencyChange></FrequencyChanges></Clock>\n	Hungry_Donkey_bar_English_2-123-1	60.018	-146	1.0.0.18	1	-1563920891	Standard	2.0.10.353	2.0.10.353	08-26-2015	8/26/2015 9:08:32 PM	17:08:32	2.0.10.248	33	Bar37-63.bmp	36	3	?	10r_4g.bmp	0r_4g.bmp	2r_2g.bmp	0r_2g.bmp			2r_2g.bmp		TrialProc	TrialList	0	cvbn	-999999	16	144887	0	b	297	145184	110	-196	-86	-20	-82	6	10	2	4	33	-10	0	-2	0	4	4	2	2	-2	2
Hungry_Donkey_bar_English_2	123	1	<?xml version="1.0"?>\n<Clock xmlns:dt="urn:schemas-microsoft-com:datatypes"><Description dt:dt="string">E-Prime Primary Realtime Clock</Description><StartTime><Timestamp dt:dt="int">0</Timestamp><DateUtc dt:dt="string">2015-08-26T21:08:31Z</DateUtc></StartTime><FrequencyChanges><FrequencyChange><Frequency dt:dt="r8">3507734</Frequency><Timestamp dt:dt="r8">372097548914</Timestamp><Current dt:dt="r8">0</Current><DateUtc dt:dt="string">2015-08-26T21:08:31Z</DateUtc></FrequencyChange></FrequencyChanges></Clock>\n	Hungry_Donkey_bar_English_2-123-1	60.018	-146	1.0.0.18	1	-1563920891	Standard	2.0.10.353	2.0.10.353	08-26-2015	8/26/2015 9:08:32 PM	17:08:32	2.0.10.248	34	Bar37-63.bmp	36	4	?	0r_4g.bmp	0r_4g.bmp	0r_2g.bmp	0r_2g.bmp				0r_2g.bmp	TrialProc	TrialList	0	cvbn	-999999	16	147220	0	n	412	147632	112	-196	-84	-20	-82	6	12	9	4	34	0	0	0	0	4	4	2	2	0	2
Hungry_Donkey_bar_English_2	123	1	<?xml version="1.0"?>\n<Clock xmlns:dt="urn:schemas-microsoft-com:datatypes"><Description dt:dt="string">E-Prime Primary Realtime Clock</Description><StartTime><Timestamp dt:dt="int">0</Timestamp><DateUtc dt:dt="string">2015-08-26T21:08:31Z</DateUtc></StartTime><FrequencyChanges><FrequencyChange><Frequency dt:dt="r8">3507734</Frequency><Timestamp dt:dt="r8">372097548914</Timestamp><Current dt:dt="r8">0</Current><DateUtc dt:dt="string">2015-08-26T21:08:31Z</DateUtc></FrequencyChange></FrequencyChanges></Clock>\n	Hungry_Donkey_bar_English_2-123-1	60.018	-146	1.0.0.18	1	-1563920891	Standard	2.0.10.353	2.0.10.353	08-26-2015	8/26/2015 9:08:32 PM	17:08:32	2.0.10.248	35	Bar37-63.bmp	37	1	?	0r_4g.bmp	0r_4g.bmp	0r_2g.bmp	0r_2g.bmp	0r_4g.bmp				TrialProc	TrialList	0	cvbn	-999999	16	149669	0	c	251	149920	116	-196	-80	-16	-82	6	12	6	4	35	0	0	0	0	4	4	2	2	0	4
Hungry_Donkey_bar_English_2	123	1	<?xml version="1.0"?>\n<Clock xmlns:dt="urn:schemas-microsoft-com:datatypes"><Description dt:dt="string">E-Prime Primary Realtime Clock</Description><StartTime><Timestamp dt:dt="int">0</Timestamp><DateUtc dt:dt="string">2015-08-26T21:08:31Z</DateUtc></StartTime><FrequencyChanges><FrequencyChange><Frequency dt:dt="r8">3507734</Frequency><Timestamp dt:dt="r8">372097548914</Timestamp><Current dt:dt="r8">0</Current><DateUtc dt:dt="string">2015-08-26T21:08:31Z</DateUtc></FrequencyChange></FrequencyChanges></Clock>\n	Hungry_Donkey_bar_English_2-123-1	60.018	-146	1.0.0.18	1	-1563920891	Standard	2.0.10.353	2.0.10.353	08-26-2015	8/26/2015 9:08:32 PM	17:08:32	2.0.10.248	36	Bar37-63.bmp	37	1	?	10r_4g.bmp	0r_4g.bmp	2r_2g.bmp	0r_2g.bmp	10r_4g.bmp				TrialProc	TrialList	0	cvbn	-999999	16	151952	0	c	848	152800	120	-206	-86	-22	-82	6	12	4	4	36	-10	0	-2	0	4	4	2	2	-10	4
Hungry_Donkey_bar_English_2	123	1	<?xml version="1.0"?>\n<Clock xmlns:dt="urn:schemas-microsoft-com:datatypes"><Description dt:dt="string">E-Prime Primary Realtime Clock</Description><StartTime><Timestamp dt:dt="int">0</Timestamp><DateUtc dt:dt="string">2015-08-26T21:08:31Z</DateUtc></StartTime><FrequencyChanges><FrequencyChange><Frequency dt:dt="r8">3507734</Frequency><Timestamp dt:dt="r8">372097548914</Timestamp><Current dt:dt="r8">0</Current><DateUtc dt:dt="string">2015-08-26T21:08:31Z</DateUtc></FrequencyChange></FrequencyChanges></Clock>\n	Hungry_Donkey_bar_English_2-123-1	60.018	-146	1.0.0.18	1	-1563920891	Standard	2.0.10.353	2.0.10.353	08-26-2015	8/26/2015 9:08:32 PM	17:08:32	2.0.10.248	37	Bar37-63.bmp	38	2	?	12r_4g.bmp	0r_4g.bmp	3r_2g.bmp	0r_2g.bmp		0r_4g.bmp			TrialProc	TrialList	0	cvbn	-999999	16	154834	0	v	478	155312	124	-206	-82	-22	-78	6	12	5	4	37	-12	0	-3	0	4	4	2	2	0	4
Hungry_Donkey_bar_English_2	123	1	<?xml version="1.0"?>\n<Clock xmlns:dt="urn:schemas-microsoft-com:datatypes"><Description dt:dt="string">E-Prime Primary Realtime Clock</Description><StartTime><Timestamp dt:dt="int">0</Timestamp><DateUtc dt:dt="string">2015-08-26T21:08:31Z</DateUtc></StartTime><FrequencyChanges><FrequencyChange><Frequency dt:dt="r8">3507734</Frequency><Timestamp dt:dt="r8">372097548914</Timestamp><Current dt:dt="r8">0</Current><DateUtc dt:dt="string">2015-08-26T21:08:31Z</DateUtc></FrequencyChange></FrequencyChanges></Clock>\n	Hungry_Donkey_bar_English_2-123-1	60.018	-146	1.0.0.18	1	-1563920891	Standard	2.0.10.353	2.0.10.353	08-26-2015	8/26/2015 9:08:32 PM	17:08:32	2.0.10.248	38	Bar37-63.bmp	38	2	?	0r_4g.bmp	0r_4g.bmp	0r_2g.bmp	0r_2g.bmp		0r_4g.bmp			TrialProc	TrialList	0	cvbn	-999999	16	157350	0	v	314	157664	128	-206	-78	-22	-74	6	12	7	4	38	0	0	0	0	4	4	2	2	0	4
Hungry_Donkey_bar_English_2	123	1	<?xml version="1.0"?>\n<Clock xmlns:dt="urn:schemas-microsoft-com:datatypes"><Description dt:dt="string">E-Prime Primary Realtime Clock</Description><StartTime><Timestamp dt:dt="int">0</Timestamp><DateUtc dt:dt="string">2015-08-26T21:08:31Z</DateUtc></StartTime><FrequencyChanges><FrequencyChange><Frequency dt:dt="r8">3507734</Frequency><Timestamp dt:dt="r8">372097548914</Timestamp><Current dt:dt="r8">0</Current><DateUtc dt:dt="string">2015-08-26T21:08:31Z</DateUtc></FrequencyChange></FrequencyChanges></Clock>\n	Hungry_Donkey_bar_English_2-123-1	60.018	-146	1.0.0.18	1	-1563920891	Standard	2.0.10.353	2.0.10.353	08-26-2015	8/26/2015 9:08:32 PM	17:08:32	2.0.10.248	39	Bar37-63.bmp	39	4	?	0r_4g.bmp	0r_4g.bmp	0r_2g.bmp	0r_2g.bmp				0r_2g.bmp	TrialProc	TrialList	0	cvbn	-999999	16	159700	0	n	299	159999	130	-206	-76	-22	-74	6	14	8	4	39	0	0	0	0	4	4	2	2	0	2
Hungry_Donkey_bar_English_2	123	1	<?xml version="1.0"?>\n<Clock xmlns:dt="urn:schemas-microsoft-com:datatypes"><Description dt:dt="string">E-Prime Primary Realtime Clock</Description><StartTime><Timestamp dt:dt="int">0</Timestamp><DateUtc dt:dt="string">2015-08-26T21:08:31Z</DateUtc></StartTime><FrequencyChanges><FrequencyChange><Frequency dt:dt="r8">3507734</Frequency><Timestamp dt:dt="r8">372097548914</Timestamp><Current dt:dt="r8">0</Current><DateUtc dt:dt="string">2015-08-26T21:08:31Z</DateUtc></FrequencyChange></FrequencyChanges></Clock>\n	Hungry_Donkey_bar_English_2-123-1	60.018	-146	1.0.0.18	1	-1563920891	Standard	2.0.10.353	2.0.10.353	08-26-2015	8/26/2015 9:08:32 PM	17:08:32	2.0.10.248	40	Bar37-63.bmp	39	4	?	0r_4g.bmp	0r_4g.bmp	0r_2g.bmp	0r_2g.bmp				0r_2g.bmp	TrialProc	TrialList	0	cvbn	-999999	16	162032	0	n	431	162463	132	-206	-74	-22	-74	6	16	10	4	40	0	0	0	0	4	4	2	2	0	2
Hungry_Donkey_bar_English_2	123	1	<?xml version="1.0"?>\n<Clock xmlns:dt="urn:schemas-microsoft-com:datatypes"><Description dt:dt="string">E-Prime Primary Realtime Clock</Description><StartTime><Timestamp dt:dt="int">0</Timestamp><DateUtc dt:dt="string">2015-08-26T21:08:31Z</DateUtc></StartTime><FrequencyChanges><FrequencyChange><Frequency dt:dt="r8">3507734</Frequency><Timestamp dt:dt="r8">372097548914</Timestamp><Current dt:dt="r8">0</Current><DateUtc dt:dt="string">2015-08-26T21:08:31Z</DateUtc></FrequencyChange></FrequencyChanges></Clock>\n	Hungry_Donkey_bar_English_2-123-1	60.018	-146	1.0.0.18	1	-1563920891	Standard	2.0.10.353	2.0.10.353	08-26-2015	8/26/2015 9:08:32 PM	17:08:32	2.0.10.248	41	Bar37-63.bmp	38	4	?	8r_4g.bmp	50r_4g.bmp	1r_2g.bmp	10r_2g.bmp				10r_2g.bmp	TrialProc	TrialList	0	cvbn	-999999	16	164498	0	n	509	165007	134	-216	-82	-22	-74	6	8	1	5	41	-8	-50	-1	-10	4	4	2	2	-10	2
Hungry_Donkey_bar_English_2	123	1	<?xml version="1.0"?>\n<Clock xmlns:dt="urn:schemas-microsoft-com:datatypes"><Description dt:dt="string">E-Prime Primary Realtime Clock</Description><StartTime><Timestamp dt:dt="int">0</Timestamp><DateUtc dt:dt="string">2015-08-26T21:08:31Z</DateUtc></StartTime><FrequencyChanges><FrequencyChange><Frequency dt:dt="r8">3507734</Frequency><Timestamp dt:dt="r8">372097548914</Timestamp><Current dt:dt="r8">0</Current><DateUtc dt:dt="string">2015-08-26T21:08:31Z</DateUtc></FrequencyChange></FrequencyChanges></Clock>\n	Hungry_Donkey_bar_English_2-123-1	60.018	-146	1.0.0.18	1	-1563920891	Standard	2.0.10.353	2.0.10.353	08-26-2015	8/26/2015 9:08:32 PM	17:08:32	2.0.10.248	42	Bar37-63.bmp	38	3	?	10r_4g.bmp	0r_4g.bmp	2r_2g.bmp	0r_2g.bmp			2r_2g.bmp		TrialProc	TrialList	0	cvbn	-999999	16	167047	0	b	216	167263	136	-218	-82	-22	-74	6	8	4	5	42	-10	0	-2	0	4	4	2	2	-2	2
Hungry_Donkey_bar_English_2	123	1	<?xml version="1.0"?>\n<Clock xmlns:dt="urn:schemas-microsoft-com:datatypes"><Description dt:dt="string">E-Prime Primary Realtime Clock</Description><StartTime><Timestamp dt:dt="int">0</Timestamp><DateUtc dt:dt="string">2015-08-26T21:08:31Z</DateUtc></StartTime><FrequencyChanges><FrequencyChange><Frequency dt:dt="r8">3507734</Frequency><Timestamp dt:dt="r8">372097548914</Timestamp><Current dt:dt="r8">0</Current><DateUtc dt:dt="string">2015-08-26T21:08:31Z</DateUtc></FrequencyChange></FrequencyChanges></Clock>\n	Hungry_Donkey_bar_English_2-123-1	60.018	-146	1.0.0.18	1	-1563920891	Standard	2.0.10.353	2.0.10.353	08-26-2015	8/26/2015 9:08:32 PM	17:08:32	2.0.10.248	43	Bar37-63.bmp	39	2	?	12r_4g.bmp	0r_4g.bmp	3r_2g.bmp	0r_2g.bmp		0r_4g.bmp			TrialProc	TrialList	0	cvbn	-999999	16	169297	0	v	254	169551	140	-218	-78	-22	-70	6	8	5	5	43	-12	0	-3	0	4	4	2	2	0	4
Hungry_Donkey_bar_English_2	123	1	<?xml version="1.0"?>\n<Clock xmlns:dt="urn:schemas-microsoft-com:datatypes"><Description dt:dt="string">E-Prime Primary Realtime Clock</Description><StartTime><Timestamp dt:dt="int">0</Timestamp><DateUtc dt:dt="string">2015-08-26T21:08:31Z</DateUtc></StartTime><FrequencyChanges><FrequencyChange><Frequency dt:dt="r8">3507734</Frequency><Timestamp dt:dt="r8">372097548914</Timestamp><Current dt:dt="r8">0</Current><DateUtc dt:dt="string">2015-08-26T21:08:31Z</DateUtc></FrequencyChange></FrequencyChanges></Clock>\n	Hungry_Donkey_bar_English_2-123-1	60.018	-146	1.0.0.18	1	-1563920891	Standard	2.0.10.353	2.0.10.353	08-26-2015	8/26/2015 9:08:32 PM	17:08:32	2.0.10.248	44	Bar37-63.bmp	40	1	?	0r_4g.bmp	0r_4g.bmp	0r_2g.bmp	0r_2g.bmp	0r_4g.bmp				TrialProc	TrialList	0	cvbn	-999999	16	171579	0	c	4	171583	144	-218	-74	-18	-70	6	8	7	5	44	0	0	0	0	4	4	2	2	0	4
Hungry_Donkey_bar_English_2	123	1	<?xml version="1.0"?>\n<Clock xmlns:dt="urn:schemas-microsoft-com:datatypes"><Description dt:dt="string">E-Prime Primary Realtime Clock</Description><StartTime><Timestamp dt:dt="int">0</Timestamp><DateUtc dt:dt="string">2015-08-26T21:08:31Z</DateUtc></StartTime><FrequencyChanges><FrequencyChange><Frequency dt:dt="r8">3507734</Frequency><Timestamp dt:dt="r8">372097548914</Timestamp><Current dt:dt="r8">0</Current><DateUtc dt:dt="string">2015-08-26T21:08:31Z</DateUtc></FrequencyChange></FrequencyChanges></Clock>\n	Hungry_Donkey_bar_English_2-123-1	60.018	-146	1.0.0.18	1	-1563920891	Standard	2.0.10.353	2.0.10.353	08-26-2015	8/26/2015 9:08:32 PM	17:08:32	2.0.10.248	45	Bar37-63.bmp	40	1	?	0r_4g.bmp	0r_4g.bmp	0r_2g.bmp	0r_2g.bmp	0r_4g.bmp				TrialProc	TrialList	0	cvbn	-999999	16	173612	0	c	371	173983	148	-218	-70	-14	-70	6	8	10	5	45	0	0	0	0	4	4	2	2	0	4
Hungry_Donkey_bar_English_2	123	1	<?xml version="1.0"?>\n<Clock xmlns:dt="urn:schemas-microsoft-com:datatypes"><Description dt:dt="string">E-Prime Primary Realtime Clock</Description><StartTime><Timestamp dt:dt="int">0</Timestamp><DateUtc dt:dt="string">2015-08-26T21:08:31Z</DateUtc></StartTime><FrequencyChanges><FrequencyChange><Frequency dt:dt="r8">3507734</Frequency><Timestamp dt:dt="r8">372097548914</Timestamp><Current dt:dt="r8">0</Current><DateUtc dt:dt="string">2015-08-26T21:08:31Z</DateUtc></FrequencyChange></FrequencyChanges></Clock>\n	Hungry_Donkey_bar_English_2-123-1	60.018	-146	1.0.0.18	1	-1563920891	Standard	2.0.10.353	2.0.10.353	08-26-2015	8/26/2015 9:08:32 PM	17:08:32	2.0.10.248	46	Bar37-63.bmp	41	1	?	0r_4g.bmp	0r_4g.bmp	0r_2g.bmp	0r_2g.bmp	0r_4g.bmp				TrialProc	TrialList	0	cvbn	-999999	16	176011	0	c	403	176414	152	-218	-66	-10	-70	6	8	8	5	46	0	0	0	0	4	4	2	2	0	4
Hungry_Donkey_bar_English_2	123	1	<?xml version="1.0"?>\n<Clock xmlns:dt="urn:schemas-microsoft-com:datatypes"><Description dt:dt="string">E-Prime Primary Realtime Clock</Description><StartTime><Timestamp dt:dt="int">0</Timestamp><DateUtc dt:dt="string">2015-08-26T21:08:31Z</DateUtc></StartTime><FrequencyChanges><FrequencyChange><Frequency dt:dt="r8">3507734</Frequency><Timestamp dt:dt="r8">372097548914</Timestamp><Current dt:dt="r8">0</Current><DateUtc dt:dt="string">2015-08-26T21:08:31Z</DateUtc></FrequencyChange></FrequencyChanges></Clock>\n	Hungry_Donkey_bar_English_2-123-1	60.018	-146	1.0.0.18	1	-1563920891	Standard	2.0.10.353	2.0.10.353	08-26-2015	8/26/2015 9:08:32 PM	17:08:32	2.0.10.248	47	Bar37-63.bmp	41	1	?	10r_4g.bmp	0r_4g.bmp	2r_2g.bmp	0r_2g.bmp	10r_4g.bmp				TrialProc	TrialList	0	cvbn	-999999	16	178444	0	c	322	178766	156	-228	-72	-16	-70	6	8	2	5	47	-10	0	-2	0	4	4	2	2	-10	4
Hungry_Donkey_bar_English_2	123	1	<?xml version="1.0"?>\n<Clock xmlns:dt="urn:schemas-microsoft-com:datatypes"><Description dt:dt="string">E-Prime Primary Realtime Clock</Description><StartTime><Timestamp dt:dt="int">0</Timestamp><DateUtc dt:dt="string">2015-08-26T21:08:31Z</DateUtc></StartTime><FrequencyChanges><FrequencyChange><Frequency dt:dt="r8">3507734</Frequency><Timestamp dt:dt="r8">372097548914</Timestamp><Current dt:dt="r8">0</Current><DateUtc dt:dt="string">2015-08-26T21:08:31Z</DateUtc></FrequencyChange></FrequencyChanges></Clock>\n	Hungry_Donkey_bar_English_2-123-1	60.018	-146	1.0.0.18	1	-1563920891	Standard	2.0.10.353	2.0.10.353	08-26-2015	8/26/2015 9:08:32 PM	17:08:32	2.0.10.248	48	Bar37-63.bmp	41	2	?	10r_4g.bmp	0r_4g.bmp	2r_2g.bmp	0r_2g.bmp		0r_4g.bmp			TrialProc	TrialList	0	cvbn	-999999	16	180793	0	v	453	181246	160	-228	-68	-16	-66	6	8	3	5	48	-10	0	-2	0	4	4	2	2	0	4
Hungry_Donkey_bar_English_2	123	1	<?xml version="1.0"?>\n<Clock xmlns:dt="urn:schemas-microsoft-com:datatypes"><Description dt:dt="string">E-Prime Primary Realtime Clock</Description><StartTime><Timestamp dt:dt="int">0</Timestamp><DateUtc dt:dt="string">2015-08-26T21:08:31Z</DateUtc></StartTime><FrequencyChanges><FrequencyChange><Frequency dt:dt="r8">3507734</Frequency><Timestamp dt:dt="r8">372097548914</Timestamp><Current dt:dt="r8">0</Current><DateUtc dt:dt="string">2015-08-26T21:08:31Z</DateUtc></FrequencyChange></FrequencyChanges></Clock>\n	Hungry_Donkey_bar_English_2-123-1	60.018	-146	1.0.0.18	1	-1563920891	Standard	2.0.10.353	2.0.10.353	08-26-2015	8/26/2015 9:08:32 PM	17:08:32	2.0.10.248	49	Bar37-63.bmp	42	2	?	0r_4g.bmp	0r_4g.bmp	0r_2g.bmp	0r_2g.bmp		0r_4g.bmp			TrialProc	TrialList	0	cvbn	-999999	16	183276	0	v	322	183598	164	-228	-64	-16	-62	6	8	6	5	49	0	0	0	0	4	4	2	2	0	4
Hungry_Donkey_bar_English_2	123	1	<?xml version="1.0"?>\n<Clock xmlns:dt="urn:schemas-microsoft-com:datatypes"><Description dt:dt="string">E-Prime Primary Realtime Clock</Description><StartTime><Timestamp dt:dt="int">0</Timestamp><DateUtc dt:dt="string">2015-08-26T21:08:31Z</DateUtc></StartTime><FrequencyChanges><FrequencyChange><Frequency dt:dt="r8">3507734</Frequency><Timestamp dt:dt="r8">372097548914</Timestamp><Current dt:dt="r8">0</Current><DateUtc dt:dt="string">2015-08-26T21:08:31Z</DateUtc></FrequencyChange></FrequencyChanges></Clock>\n	Hungry_Donkey_bar_English_2-123-1	60.018	-146	1.0.0.18	1	-1563920891	Standard	2.0.10.353	2.0.10.353	08-26-2015	8/26/2015 9:08:32 PM	17:08:32	2.0.10.248	50	Bar37-63.bmp	42	3	?	0r_4g.bmp	0r_4g.bmp	0r_2g.bmp	0r_2g.bmp			0r_2g.bmp		TrialProc	TrialList	0	cvbn	-999999	16	185625	0	b	325	185950	166	-228	-62	-16	-62	8	8	9	5	50	0	0	0	0	4	4	2	2	0	2
Hungry_Donkey_bar_English_2	123	1	<?xml version="1.0"?>\n<Clock xmlns:dt="urn:schemas-microsoft-com:datatypes"><Description dt:dt="string">E-Prime Primary Realtime Clock</Description><StartTime><Timestamp dt:dt="int">0</Timestamp><DateUtc dt:dt="string">2015-08-26T21:08:31Z</DateUtc></StartTime><FrequencyChanges><FrequencyChange><Frequency dt:dt="r8">3507734</Frequency><Timestamp dt:dt="r8">372097548914</Timestamp><Current dt:dt="r8">0</Current><DateUtc dt:dt="string">2015-08-26T21:08:31Z</DateUtc></FrequencyChange></FrequencyChanges></Clock>\n	Hungry_Donkey_bar_English_2-123-1	60.018	-146	1.0.0.18	1	-1563920891	Standard	2.0.10.353	2.0.10.353	08-26-2015	8/26/2015 9:08:32 PM	17:08:32	2.0.10.248	51	Bar37-63.bmp	42	3	?	8r_4g.bmp	50r_4g.bmp	1r_2g.bmp	10r_2g.bmp			1r_2g.bmp		TrialProc	TrialList	0	cvbn	-999999	16	187974	0	b	392	188366	168	-229	-61	-16	-62	9	8	1	6	51	-8	-50	-1	-10	4	4	2	2	-1	2
Hungry_Donkey_bar_English_2	123	1	<?xml version="1.0"?>\n<Clock xmlns:dt="urn:schemas-microsoft-com:datatypes"><Description dt:dt="string">E-Prime Primary Realtime Clock</Description><StartTime><Timestamp dt:dt="int">0</Timestamp><DateUtc dt:dt="string">2015-08-26T21:08:31Z</DateUtc></StartTime><FrequencyChanges><FrequencyChange><Frequency dt:dt="r8">3507734</Frequency><Timestamp dt:dt="r8">372097548914</Timestamp><Current dt:dt="r8">0</Current><DateUtc dt:dt="string">2015-08-26T21:08:31Z</DateUtc></FrequencyChange></FrequencyChanges></Clock>\n	Hungry_Donkey_bar_English_2-123-1	60.018	-146	1.0.0.18	1	-1563920891	Standard	2.0.10.353	2.0.10.353	08-26-2015	8/26/2015 9:08:32 PM	17:08:32	2.0.10.248	52	Bar37-63.bmp	43	4	?	0r_4g.bmp	0r_4g.bmp	0r_2g.bmp	0r_2g.bmp				0r_2g.bmp	TrialProc	TrialList	0	cvbn	-999999	16	190407	0	n	406	190813	170	-229	-59	-16	-62	9	10	6	6	52	0	0	0	0	4	4	2	2	0	2
Hungry_Donkey_bar_English_2	123	1	<?xml version="1.0"?>\n<Clock xmlns:dt="urn:schemas-microsoft-com:datatypes"><Description dt:dt="string">E-Prime Primary Realtime Clock</Description><StartTime><Timestamp dt:dt="int">0</Timestamp><DateUtc dt:dt="string">2015-08-26T21:08:31Z</DateUtc></StartTime><FrequencyChanges><FrequencyChange><Frequency dt:dt="r8">3507734</Frequency><Timestamp dt:dt="r8">372097548914</Timestamp><Current dt:dt="r8">0</Current><DateUtc dt:dt="string">2015-08-26T21:08:31Z</DateUtc></FrequencyChange></FrequencyChanges></Clock>\n	Hungry_Donkey_bar_English_2-123-1	60.018	-146	1.0.0.18	1	-1563920891	Standard	2.0.10.353	2.0.10.353	08-26-2015	8/26/2015 9:08:32 PM	17:08:32	2.0.10.248	53	Bar37-63.bmp	43	4	?	10r_4g.bmp	0r_4g.bmp	2r_2g.bmp	0r_2g.bmp				0r_2g.bmp	TrialProc	TrialList	0	cvbn	-999999	16	192840	0	n	373	193213	172	-229	-57	-16	-62	9	12	4	6	53	-10	0	-2	0	4	4	2	2	0	2
Hungry_Donkey_bar_English_2	123	1	<?xml version="1.0"?>\n<Clock xmlns:dt="urn:schemas-microsoft-com:datatypes"><Description dt:dt="string">E-Prime Primary Realtime Clock</Description><StartTime><Timestamp dt:dt="int">0</Timestamp><DateUtc dt:dt="string">2015-08-26T21:08:31Z</DateUtc></StartTime><FrequencyChanges><FrequencyChange><Frequency dt:dt="r8">3507734</Frequency><Timestamp dt:dt="r8">372097548914</Timestamp><Current dt:dt="r8">0</Current><DateUtc dt:dt="string">2015-08-26T21:08:31Z</DateUtc></FrequencyChange></FrequencyChanges></Clock>\n	Hungry_Donkey_bar_English_2-123-1	60.018	-146	1.0.0.18	1	-1563920891	Standard	2.0.10.353	2.0.10.353	08-26-2015	8/26/2015 9:08:32 PM	17:08:32	2.0.10.248	54	Bar37-63.bmp	43	1	?	0r_4g.bmp	0r_4g.bmp	0r_2g.bmp	0r_2g.bmp	0r_4g.bmp				TrialProc	TrialList	0	cvbn	-999999	16	195239	0	c	486	195725	176	-229	-53	-12	-62	9	12	10	6	54	0	0	0	0	4	4	2	2	0	4
Hungry_Donkey_bar_English_2	123	1	<?xml version="1.0"?>\n<Clock xmlns:dt="urn:schemas-microsoft-com:datatypes"><Description dt:dt="string">E-Prime Primary Realtime Clock</Description><StartTime><Timestamp dt:dt="int">0</Timestamp><DateUtc dt:dt="string">2015-08-26T21:08:31Z</DateUtc></StartTime><FrequencyChanges><FrequencyChange><Frequency dt:dt="r8">3507734</Frequency><Timestamp dt:dt="r8">372097548914</Timestamp><Current dt:dt="r8">0</Current><DateUtc dt:dt="string">2015-08-26T21:08:31Z</DateUtc></FrequencyChange></FrequencyChanges></Clock>\n	Hungry_Donkey_bar_English_2-123-1	60.018	-146	1.0.0.18	1	-1563920891	Standard	2.0.10.353	2.0.10.353	08-26-2015	8/26/2015 9:08:32 PM	17:08:32	2.0.10.248	55	Bar50-50.bmp	44	1	?	0r_4g.bmp	0r_4g.bmp	0r_2g.bmp	0r_2g.bmp	0r_4g.bmp				TrialProc	TrialList	0	cvbn	-999999	16	197755	0	c	386	198141	180	-229	-49	-8	-62	9	12	7	6	55	0	0	0	0	4	4	2	2	0	4
Hungry_Donkey_bar_English_2	123	1	<?xml version="1.0"?>\n<Clock xmlns:dt="urn:schemas-microsoft-com:datatypes"><Description dt:dt="string">E-Prime Primary Realtime Clock</Description><StartTime><Timestamp dt:dt="int">0</Timestamp><DateUtc dt:dt="string">2015-08-26T21:08:31Z</DateUtc></StartTime><FrequencyChanges><FrequencyChange><Frequency dt:dt="r8">3507734</Frequency><Timestamp dt:dt="r8">372097548914</Timestamp><Current dt:dt="r8">0</Current><DateUtc dt:dt="string">2015-08-26T21:08:31Z</DateUtc></FrequencyChange></FrequencyChanges></Clock>\n	Hungry_Donkey_bar_English_2-123-1	60.018	-146	1.0.0.18	1	-1563920891	Standard	2.0.10.353	2.0.10.353	08-26-2015	8/26/2015 9:08:32 PM	17:08:32	2.0.10.248	56	Bar50-50.bmp	45	2	?	0r_4g.bmp	0r_4g.bmp	0r_2g.bmp	0r_2g.bmp		0r_4g.bmp			TrialProc	TrialList	0	cvbn	-999999	16	200171	0	v	322	200493	184	-229	-45	-8	-58	9	12	8	6	56	0	0	0	0	4	4	2	2	0	4
Hungry_Donkey_bar_English_2	123	1	<?xml version="1.0"?>\n<Clock xmlns:dt="urn:schemas-microsoft-com:datatypes"><Description dt:dt="string">E-Prime Primary Realtime Clock</Description><StartTime><Timestamp dt:dt="int">0</Timestamp><DateUtc dt:dt="string">2015-08-26T21:08:31Z</DateUtc></StartTime><FrequencyChanges><FrequencyChange><Frequency dt:dt="r8">3507734</Frequency><Timestamp dt:dt="r8">372097548914</Timestamp><Current dt:dt="r8">0</Current><DateUtc dt:dt="string">2015-08-26T21:08:31Z</DateUtc></FrequencyChange></FrequencyChanges></Clock>\n	Hungry_Donkey_bar_English_2-123-1	60.018	-146	1.0.0.18	1	-1563920891	Standard	2.0.10.353	2.0.10.353	08-26-2015	8/26/2015 9:08:32 PM	17:08:32	2.0.10.248	57	Bar50-50.bmp	45	2	?	10r_4g.bmp	0r_4g.bmp	2r_2g.bmp	0r_2g.bmp		0r_4g.bmp			TrialProc	TrialList	0	cvbn	-999999	16	202520	0	v	309	202829	188	-229	-41	-8	-54	9	12	2	6	57	-10	0	-2	0	4	4	2	2	0	4
Hungry_Donkey_bar_English_2	123	1	<?xml version="1.0"?>\n<Clock xmlns:dt="urn:schemas-microsoft-com:datatypes"><Description dt:dt="string">E-Prime Primary Realtime Clock</Description><StartTime><Timestamp dt:dt="int">0</Timestamp><DateUtc dt:dt="string">2015-08-26T21:08:31Z</DateUtc></StartTime><FrequencyChanges><FrequencyChange><Frequency dt:dt="r8">3507734</Frequency><Timestamp dt:dt="r8">372097548914</Timestamp><Current dt:dt="r8">0</Current><DateUtc dt:dt="string">2015-08-26T21:08:31Z</DateUtc></FrequencyChange></FrequencyChanges></Clock>\n	Hungry_Donkey_bar_English_2-123-1	60.018	-146	1.0.0.18	1	-1563920891	Standard	2.0.10.353	2.0.10.353	08-26-2015	8/26/2015 9:08:32 PM	17:08:32	2.0.10.248	58	Bar50-50.bmp	45	3	?	10r_4g.bmp	0r_4g.bmp	2r_2g.bmp	0r_2g.bmp			2r_2g.bmp		TrialProc	TrialList	0	cvbn	-999999	16	204853	0	b	327	205180	190	-231	-41	-8	-54	9	12	3	6	58	-10	0	-2	0	4	4	2	2	-2	2
Hungry_Donkey_bar_English_2	123	1	<?xml version="1.0"?>\n<Clock xmlns:dt="urn:schemas-microsoft-com:datatypes"><Description dt:dt="string">E-Prime Primary Realtime Clock</Description><StartTime><Timestamp dt:dt="int">0</Timestamp><DateUtc dt:dt="string">2015-08-26T21:08:31Z</DateUtc></StartTime><FrequencyChanges><FrequencyChange><Frequency dt:dt="r8">3507734</Frequency><Timestamp dt:dt="r8">372097548914</Timestamp><Current dt:dt="r8">0</Current><DateUtc dt:dt="string">2015-08-26T21:08:31Z</DateUtc></FrequencyChange></FrequencyChanges></Clock>\n	Hungry_Donkey_bar_English_2-123-1	60.018	-146	1.0.0.18	1	-1563920891	Standard	2.0.10.353	2.0.10.353	08-26-2015	8/26/2015 9:08:32 PM	17:08:32	2.0.10.248	59	Bar50-50.bmp	45	3	?	12r_4g.bmp	0r_4g.bmp	3r_2g.bmp	0r_2g.bmp			3r_2g.bmp		TrialProc	TrialList	0	cvbn	-999999	16	207219	0	b	441	207660	192	-234	-42	-8	-54	8	12	5	6	59	-12	0	-3	0	4	4	2	2	-3	2
Hungry_Donkey_bar_English_2	123	1	<?xml version="1.0"?>\n<Clock xmlns:dt="urn:schemas-microsoft-com:datatypes"><Description dt:dt="string">E-Prime Primary Realtime Clock</Description><StartTime><Timestamp dt:dt="int">0</Timestamp><DateUtc dt:dt="string">2015-08-26T21:08:31Z</DateUtc></StartTime><FrequencyChanges><FrequencyChange><Frequency dt:dt="r8">3507734</Frequency><Timestamp dt:dt="r8">372097548914</Timestamp><Current dt:dt="r8">0</Current><DateUtc dt:dt="string">2015-08-26T21:08:31Z</DateUtc></FrequencyChange></FrequencyChanges></Clock>\n	Hungry_Donkey_bar_English_2-123-1	60.018	-146	1.0.0.18	1	-1563920891	Standard	2.0.10.353	2.0.10.353	08-26-2015	8/26/2015 9:08:32 PM	17:08:32	2.0.10.248	60	Bar50-50.bmp	45	4	?	0r_4g.bmp	0r_4g.bmp	0r_2g.bmp	0r_2g.bmp				0r_2g.bmp	TrialProc	TrialList	0	cvbn	-999999	16	209701	0	n	359	210060	194	-234	-40	-8	-54	8	14	9	6	60	0	0	0	0	4	4	2	2	0	2
Hungry_Donkey_bar_English_2	123	1	<?xml version="1.0"?>\n<Clock xmlns:dt="urn:schemas-microsoft-com:datatypes"><Description dt:dt="string">E-Prime Primary Realtime Clock</Description><StartTime><Timestamp dt:dt="int">0</Timestamp><DateUtc dt:dt="string">2015-08-26T21:08:31Z</DateUtc></StartTime><FrequencyChanges><FrequencyChange><Frequency dt:dt="r8">3507734</Frequency><Timestamp dt:dt="r8">372097548914</Timestamp><Current dt:dt="r8">0</Current><DateUtc dt:dt="string">2015-08-26T21:08:31Z</DateUtc></FrequencyChange></FrequencyChanges></Clock>\n	Hungry_Donkey_bar_English_2-123-1	60.018	-146	1.0.0.18	1	-1563920891	Standard	2.0.10.353	2.0.10.353	08-26-2015	8/26/2015 9:08:32 PM	17:08:32	2.0.10.248	61	Bar50-50.bmp	46	4	?	0r_4g.bmp	0r_4g.bmp	0r_2g.bmp	0r_2g.bmp				0r_2g.bmp	TrialProc	TrialList	0	cvbn	-999999	16	212084	0	n	376	212460	196	-234	-38	-8	-54	8	16	8	7	61	0	0	0	0	4	4	2	2	0	2
Hungry_Donkey_bar_English_2	123	1	<?xml version="1.0"?>\n<Clock xmlns:dt="urn:schemas-microsoft-com:datatypes"><Description dt:dt="string">E-Prime Primary Realtime Clock</Description><StartTime><Timestamp dt:dt="int">0</Timestamp><DateUtc dt:dt="string">2015-08-26T21:08:31Z</DateUtc></StartTime><FrequencyChanges><FrequencyChange><Frequency dt:dt="r8">3507734</Frequency><Timestamp dt:dt="r8">372097548914</Timestamp><Current dt:dt="r8">0</Current><DateUtc dt:dt="string">2015-08-26T21:08:31Z</DateUtc></FrequencyChange></FrequencyChanges></Clock>\n	Hungry_Donkey_bar_English_2-123-1	60.018	-146	1.0.0.18	1	-1563920891	Standard	2.0.10.353	2.0.10.353	08-26-2015	8/26/2015 9:08:32 PM	17:08:32	2.0.10.248	62	Bar50-50.bmp	45	1	?	12r_4g.bmp	0r_4g.bmp	3r_2g.bmp	0r_2g.bmp	12r_4g.bmp				TrialProc	TrialList	0	cvbn	-999999	16	214500	0	c	344	214844	200	-246	-46	-16	-54	8	16	5	7	62	-12	0	-3	0	4	4	2	2	-12	4
Hungry_Donkey_bar_English_2	123	1	<?xml version="1.0"?>\n<Clock xmlns:dt="urn:schemas-microsoft-com:datatypes"><Description dt:dt="string">E-Prime Primary Realtime Clock</Description><StartTime><Timestamp dt:dt="int">0</Timestamp><DateUtc dt:dt="string">2015-08-26T21:08:31Z</DateUtc></StartTime><FrequencyChanges><FrequencyChange><Frequency dt:dt="r8">3507734</Frequency><Timestamp dt:dt="r8">372097548914</Timestamp><Current dt:dt="r8">0</Current><DateUtc dt:dt="string">2015-08-26T21:08:31Z</DateUtc></FrequencyChange></FrequencyChanges></Clock>\n	Hungry_Donkey_bar_English_2-123-1	60.018	-146	1.0.0.18	1	-1563920891	Standard	2.0.10.353	2.0.10.353	08-26-2015	8/26/2015 9:08:32 PM	17:08:32	2.0.10.248	63	Bar50-50.bmp	45	1	?	0r_4g.bmp	0r_4g.bmp	0r_2g.bmp	0r_2g.bmp	0r_4g.bmp				TrialProc	TrialList	0	cvbn	-999999	16	216882	0	c	410	217292	204	-246	-42	-12	-54	8	16	10	7	63	0	0	0	0	4	4	2	2	0	4
Hungry_Donkey_bar_English_2	123	1	<?xml version="1.0"?>\n<Clock xmlns:dt="urn:schemas-microsoft-com:datatypes"><Description dt:dt="string">E-Prime Primary Realtime Clock</Description><StartTime><Timestamp dt:dt="int">0</Timestamp><DateUtc dt:dt="string">2015-08-26T21:08:31Z</DateUtc></StartTime><FrequencyChanges><FrequencyChange><Frequency dt:dt="r8">3507734</Frequency><Timestamp dt:dt="r8">372097548914</Timestamp><Current dt:dt="r8">0</Current><DateUtc dt:dt="string">2015-08-26T21:08:31Z</DateUtc></FrequencyChange></FrequencyChanges></Clock>\n	Hungry_Donkey_bar_English_2-123-1	60.018	-146	1.0.0.18	1	-1563920891	Standard	2.0.10.353	2.0.10.353	08-26-2015	8/26/2015 9:08:32 PM	17:08:32	2.0.10.248	64	Bar50-50.bmp	46	2	?	0r_4g.bmp	0r_4g.bmp	0r_2g.bmp	0r_2g.bmp		0r_4g.bmp			TrialProc	TrialList	0	cvbn	-999999	16	219315	0	v	361	219676	208	-246	-38	-12	-50	8	16	9	7	64	0	0	0	0	4	4	2	2	0	4
Hungry_Donkey_bar_English_2	123	1	<?xml version="1.0"?>\n<Clock xmlns:dt="urn:schemas-microsoft-com:datatypes"><Description dt:dt="string">E-Prime Primary Realtime Clock</Description><StartTime><Timestamp dt:dt="int">0</Timestamp><DateUtc dt:dt="string">2015-08-26T21:08:31Z</DateUtc></StartTime><FrequencyChanges><FrequencyChange><Frequency dt:dt="r8">3507734</Frequency><Timestamp dt:dt="r8">372097548914</Timestamp><Current dt:dt="r8">0</Current><DateUtc dt:dt="string">2015-08-26T21:08:31Z</DateUtc></FrequencyChange></FrequencyChanges></Clock>\n	Hungry_Donkey_bar_English_2-123-1	60.018	-146	1.0.0.18	1	-1563920891	Standard	2.0.10.353	2.0.10.353	08-26-2015	8/26/2015 9:08:32 PM	17:08:32	2.0.10.248	65	Bar50-50.bmp	46	2	?	10r_4g.bmp	0r_4g.bmp	2r_2g.bmp	0r_2g.bmp		0r_4g.bmp			TrialProc	TrialList	0	cvbn	-999999	16	221714	0	v	681	222395	212	-246	-34	-12	-46	8	16	3	7	65	-10	0	-2	0	4	4	2	2	0	4
Hungry_Donkey_bar_English_2	123	1	<?xml version="1.0"?>\n<Clock xmlns:dt="urn:schemas-microsoft-com:datatypes"><Description dt:dt="string">E-Prime Primary Realtime Clock</Description><StartTime><Timestamp dt:dt="int">0</Timestamp><DateUtc dt:dt="string">2015-08-26T21:08:31Z</DateUtc></StartTime><FrequencyChanges><FrequencyChange><Frequency dt:dt="r8">3507734</Frequency><Timestamp dt:dt="r8">372097548914</Timestamp><Current dt:dt="r8">0</Current><DateUtc dt:dt="string">2015-08-26T21:08:31Z</DateUtc></FrequencyChange></FrequencyChanges></Clock>\n	Hungry_Donkey_bar_English_2-123-1	60.018	-146	1.0.0.18	1	-1563920891	Standard	2.0.10.353	2.0.10.353	08-26-2015	8/26/2015 9:08:32 PM	17:08:32	2.0.10.248	66	Bar50-50.bmp	46	3	?	10r_4g.bmp	0r_4g.bmp	2r_2g.bmp	0r_2g.bmp			2r_2g.bmp		TrialProc	TrialList	0	cvbn	-999999	16	224430	0	b	317	224747	214	-248	-34	-12	-46	8	16	2	7	66	-10	0	-2	0	4	4	2	2	-2	2
Hungry_Donkey_bar_English_2	123	1	<?xml version="1.0"?>\n<Clock xmlns:dt="urn:schemas-microsoft-com:datatypes"><Description dt:dt="string">E-Prime Primary Realtime Clock</Description><StartTime><Timestamp dt:dt="int">0</Timestamp><DateUtc dt:dt="string">2015-08-26T21:08:31Z</DateUtc></StartTime><FrequencyChanges><FrequencyChange><Frequency dt:dt="r8">3507734</Frequency><Timestamp dt:dt="r8">372097548914</Timestamp><Current dt:dt="r8">0</Current><DateUtc dt:dt="string">2015-08-26T21:08:31Z</DateUtc></FrequencyChange></FrequencyChanges></Clock>\n	Hungry_Donkey_bar_English_2-123-1	60.018	-146	1.0.0.18	1	-1563920891	Standard	2.0.10.353	2.0.10.353	08-26-2015	8/26/2015 9:08:32 PM	17:08:32	2.0.10.248	67	Bar50-50.bmp	46	3	?	10r_4g.bmp	0r_4g.bmp	2r_2g.bmp	0r_2g.bmp			2r_2g.bmp		TrialProc	TrialList	0	cvbn	-999999	16	226779	0	b	288	227067	216	-250	-34	-12	-46	8	16	4	7	67	-10	0	-2	0	4	4	2	2	-2	2
Hungry_Donkey_bar_English_2	123	1	<?xml version="1.0"?>\n<Clock xmlns:dt="urn:schemas-microsoft-com:datatypes"><Description dt:dt="string">E-Prime Primary Realtime Clock</Description><StartTime><Timestamp dt:dt="int">0</Timestamp><DateUtc dt:dt="string">2015-08-26T21:08:31Z</DateUtc></StartTime><FrequencyChanges><FrequencyChange><Frequency dt:dt="r8">3507734</Frequency><Timestamp dt:dt="r8">372097548914</Timestamp><Current dt:dt="r8">0</Current><DateUtc dt:dt="string">2015-08-26T21:08:31Z</DateUtc></FrequencyChange></FrequencyChanges></Clock>\n	Hungry_Donkey_bar_English_2-123-1	60.018	-146	1.0.0.18	1	-1563920891	Standard	2.0.10.353	2.0.10.353	08-26-2015	8/26/2015 9:08:32 PM	17:08:32	2.0.10.248	68	Bar50-50.bmp	47	4	?	0r_4g.bmp	0r_4g.bmp	0r_2g.bmp	0r_2g.bmp				0r_2g.bmp	TrialProc	TrialList	0	cvbn	-999999	16	229095	0	n	516	229611	218	-250	-32	-12	-46	8	18	7	7	68	0	0	0	0	4	4	2	2	0	2
Hungry_Donkey_bar_English_2	123	1	<?xml version="1.0"?>\n<Clock xmlns:dt="urn:schemas-microsoft-com:datatypes"><Description dt:dt="string">E-Prime Primary Realtime Clock</Description><StartTime><Timestamp dt:dt="int">0</Timestamp><DateUtc dt:dt="string">2015-08-26T21:08:31Z</DateUtc></StartTime><FrequencyChanges><FrequencyChange><Frequency dt:dt="r8">3507734</Frequency><Timestamp dt:dt="r8">372097548914</Timestamp><Current dt:dt="r8">0</Current><DateUtc dt:dt="string">2015-08-26T21:08:31Z</DateUtc></FrequencyChange></FrequencyChanges></Clock>\n	Hungry_Donkey_bar_English_2-123-1	60.018	-146	1.0.0.18	1	-1563920891	Standard	2.0.10.353	2.0.10.353	08-26-2015	8/26/2015 9:08:32 PM	17:08:32	2.0.10.248	69	Bar50-50.bmp	46	4	?	8r_4g.bmp	50r_4g.bmp	1r_2g.bmp	10r_2g.bmp				10r_2g.bmp	TrialProc	TrialList	0	cvbn	-999999	17	231645	0	n	254	231899	220	-260	-40	-12	-46	8	10	1	7	69	-8	-50	-1	-10	4	4	2	2	-10	2
Hungry_Donkey_bar_English_2	123	1	<?xml version="1.0"?>\n<Clock xmlns:dt="urn:schemas-microsoft-com:datatypes"><Description dt:dt="string">E-Prime Primary Realtime Clock</Description><StartTime><Timestamp dt:dt="int">0</Timestamp><DateUtc dt:dt="string">2015-08-26T21:08:31Z</DateUtc></StartTime><FrequencyChanges><FrequencyChange><Frequency dt:dt="r8">3507734</Frequency><Timestamp dt:dt="r8">372097548914</Timestamp><Current dt:dt="r8">0</Current><DateUtc dt:dt="string">2015-08-26T21:08:31Z</DateUtc></FrequencyChange></FrequencyChanges></Clock>\n	Hungry_Donkey_bar_English_2-123-1	60.018	-146	1.0.0.18	1	-1563920891	Standard	2.0.10.353	2.0.10.353	08-26-2015	8/26/2015 9:08:32 PM	17:08:32	2.0.10.248	70	Bar50-50.bmp	46	1	?	0r_4g.bmp	0r_4g.bmp	0r_2g.bmp	0r_2g.bmp	0r_4g.bmp				TrialProc	TrialList	0	cvbn	-999999	16	233927	0	c	388	234315	224	-260	-36	-8	-46	8	10	6	7	70	0	0	0	0	4	4	2	2	0	4
Hungry_Donkey_bar_English_2	123	1	<?xml version="1.0"?>\n<Clock xmlns:dt="urn:schemas-microsoft-com:datatypes"><Description dt:dt="string">E-Prime Primary Realtime Clock</Description><StartTime><Timestamp dt:dt="int">0</Timestamp><DateUtc dt:dt="string">2015-08-26T21:08:31Z</DateUtc></StartTime><FrequencyChanges><FrequencyChange><Frequency dt:dt="r8">3507734</Frequency><Timestamp dt:dt="r8">372097548914</Timestamp><Current dt:dt="r8">0</Current><DateUtc dt:dt="string">2015-08-26T21:08:31Z</DateUtc></FrequencyChange></FrequencyChanges></Clock>\n	Hungry_Donkey_bar_English_2-123-1	60.018	-146	1.0.0.18	1	-1563920891	Standard	2.0.10.353	2.0.10.353	08-26-2015	8/26/2015 9:08:32 PM	17:08:32	2.0.10.248	71	Bar50-50.bmp	46	1	?	10r_4g.bmp	0r_4g.bmp	2r_2g.bmp	0r_2g.bmp	10r_4g.bmp				TrialProc	TrialList	0	cvbn	-999999	16	236343	0	c	403	236746	228	-270	-42	-14	-46	8	10	2	8	71	-10	0	-2	0	4	4	2	2	-10	4
Hungry_Donkey_bar_English_2	123	1	<?xml version="1.0"?>\n<Clock xmlns:dt="urn:schemas-microsoft-com:datatypes"><Description dt:dt="string">E-Prime Primary Realtime Clock</Description><StartTime><Timestamp dt:dt="int">0</Timestamp><DateUtc dt:dt="string">2015-08-26T21:08:31Z</DateUtc></StartTime><FrequencyChanges><FrequencyChange><Frequency dt:dt="r8">3507734</Frequency><Timestamp dt:dt="r8">372097548914</Timestamp><Current dt:dt="r8">0</Current><DateUtc dt:dt="string">2015-08-26T21:08:31Z</DateUtc></FrequencyChange></FrequencyChanges></Clock>\n	Hungry_Donkey_bar_English_2-123-1	60.018	-146	1.0.0.18	1	-1563920891	Standard	2.0.10.353	2.0.10.353	08-26-2015	8/26/2015 9:08:32 PM	17:08:32	2.0.10.248	72	Bar50-50.bmp	46	2	?	0r_4g.bmp	0r_4g.bmp	0r_2g.bmp	0r_2g.bmp		0r_4g.bmp			TrialProc	TrialList	0	cvbn	-999999	16	238776	0	v	386	239162	232	-270	-38	-14	-42	8	10	10	8	72	0	0	0	0	4	4	2	2	0	4
Hungry_Donkey_bar_English_2	123	1	<?xml version="1.0"?>\n<Clock xmlns:dt="urn:schemas-microsoft-com:datatypes"><Description dt:dt="string">E-Prime Primary Realtime Clock</Description><StartTime><Timestamp dt:dt="int">0</Timestamp><DateUtc dt:dt="string">2015-08-26T21:08:31Z</DateUtc></StartTime><FrequencyChanges><FrequencyChange><Frequency dt:dt="r8">3507734</Frequency><Timestamp dt:dt="r8">372097548914</Timestamp><Current dt:dt="r8">0</Current><DateUtc dt:dt="string">2015-08-26T21:08:31Z</DateUtc></FrequencyChange></FrequencyChanges></Clock>\n	Hungry_Donkey_bar_English_2-123-1	60.018	-146	1.0.0.18	1	-1563920891	Standard	2.0.10.353	2.0.10.353	08-26-2015	8/26/2015 9:08:32 PM	17:08:32	2.0.10.248	73	Bar50-50.bmp	46	3	?	0r_4g.bmp	0r_4g.bmp	0r_2g.bmp	0r_2g.bmp			0r_2g.bmp		TrialProc	TrialList	0	cvbn	-999999	16	241192	0	b	338	241530	234	-270	-36	-14	-42	10	10	7	8	73	0	0	0	0	4	4	2	2	0	2
Hungry_Donkey_bar_English_2	123	1	<?xml version="1.0"?>\n<Clock xmlns:dt="urn:schemas-microsoft-com:datatypes"><Description dt:dt="string">E-Prime Primary Realtime Clock</Description><StartTime><Timestamp dt:dt="int">0</Timestamp><DateUtc dt:dt="string">2015-08-26T21:08:31Z</DateUtc></StartTime><FrequencyChanges><FrequencyChange><Frequency dt:dt="r8">3507734</Frequency><Timestamp dt:dt="r8">372097548914</Timestamp><Current dt:dt="r8">0</Current><DateUtc dt:dt="string">2015-08-26T21:08:31Z</DateUtc></FrequencyChange></FrequencyChanges></Clock>\n	Hungry_Donkey_bar_English_2-123-1	60.018	-146	1.0.0.18	1	-1563920891	Standard	2.0.10.353	2.0.10.353	08-26-2015	8/26/2015 9:08:32 PM	17:08:32	2.0.10.248	74	Bar50-50.bmp	47	4	?	0r_4g.bmp	0r_4g.bmp	0r_2g.bmp	0r_2g.bmp				0r_2g.bmp	TrialProc	TrialList	0	cvbn	-999999	16	243558	0	n	308	243866	236	-270	-34	-14	-42	10	12	9	8	74	0	0	0	0	4	4	2	2	0	2
Hungry_Donkey_bar_English_2	123	1	<?xml version="1.0"?>\n<Clock xmlns:dt="urn:schemas-microsoft-com:datatypes"><Description dt:dt="string">E-Prime Primary Realtime Clock</Description><StartTime><Timestamp dt:dt="int">0</Timestamp><DateUtc dt:dt="string">2015-08-26T21:08:31Z</DateUtc></StartTime><FrequencyChanges><FrequencyChange><Frequency dt:dt="r8">3507734</Frequency><Timestamp dt:dt="r8">372097548914</Timestamp><Current dt:dt="r8">0</Current><DateUtc dt:dt="string">2015-08-26T21:08:31Z</DateUtc></FrequencyChange></FrequencyChanges></Clock>\n	Hungry_Donkey_bar_English_2-123-1	60.018	-146	1.0.0.18	1	-1563920891	Standard	2.0.10.353	2.0.10.353	08-26-2015	8/26/2015 9:08:32 PM	17:08:32	2.0.10.248	75	Bar50-50.bmp	46	1	?	8r_4g.bmp	50r_4g.bmp	1r_2g.bmp	10r_2g.bmp	8r_4g.bmp				TrialProc	TrialList	0	cvbn	-999999	16	245890	0	c	328	246218	240	-278	-38	-18	-42	10	12	1	8	75	-8	-50	-1	-10	4	4	2	2	-8	4
Hungry_Donkey_bar_English_2	123	1	<?xml version="1.0"?>\n<Clock xmlns:dt="urn:schemas-microsoft-com:datatypes"><Description dt:dt="string">E-Prime Primary Realtime Clock</Description><StartTime><Timestamp dt:dt="int">0</Timestamp><DateUtc dt:dt="string">2015-08-26T21:08:31Z</DateUtc></StartTime><FrequencyChanges><FrequencyChange><Frequency dt:dt="r8">3507734</Frequency><Timestamp dt:dt="r8">372097548914</Timestamp><Current dt:dt="r8">0</Current><DateUtc dt:dt="string">2015-08-26T21:08:31Z</DateUtc></FrequencyChange></FrequencyChanges></Clock>\n	Hungry_Donkey_bar_English_2-123-1	60.018	-146	1.0.0.18	1	-1563920891	Standard	2.0.10.353	2.0.10.353	08-26-2015	8/26/2015 9:08:32 PM	17:08:32	2.0.10.248	76	Bar50-50.bmp	47	2	?	10r_4g.bmp	0r_4g.bmp	2r_2g.bmp	0r_2g.bmp		0r_4g.bmp			TrialProc	TrialList	0	cvbn	-999999	16	248256	0	v	298	248554	244	-278	-34	-18	-38	10	12	4	8	76	-10	0	-2	0	4	4	2	2	0	4
Hungry_Donkey_bar_English_2	123	1	<?xml version="1.0"?>\n<Clock xmlns:dt="urn:schemas-microsoft-com:datatypes"><Description dt:dt="string">E-Prime Primary Realtime Clock</Description><StartTime><Timestamp dt:dt="int">0</Timestamp><DateUtc dt:dt="string">2015-08-26T21:08:31Z</DateUtc></StartTime><FrequencyChanges><FrequencyChange><Frequency dt:dt="r8">3507734</Frequency><Timestamp dt:dt="r8">372097548914</Timestamp><Current dt:dt="r8">0</Current><DateUtc dt:dt="string">2015-08-26T21:08:31Z</DateUtc></FrequencyChange></FrequencyChanges></Clock>\n	Hungry_Donkey_bar_English_2-123-1	60.018	-146	1.0.0.18	1	-1563920891	Standard	2.0.10.353	2.0.10.353	08-26-2015	8/26/2015 9:08:32 PM	17:08:32	2.0.10.248	77	Bar50-50.bmp	47	3	?	0r_4g.bmp	0r_4g.bmp	0r_2g.bmp	0r_2g.bmp			0r_2g.bmp		TrialProc	TrialList	0	cvbn	-999999	16	250589	0	b	333	250922	246	-278	-32	-18	-38	12	12	6	8	77	0	0	0	0	4	4	2	2	0	2
Hungry_Donkey_bar_English_2	123	1	<?xml version="1.0"?>\n<Clock xmlns:dt="urn:schemas-microsoft-com:datatypes"><Description dt:dt="string">E-Prime Primary Realtime Clock</Description><StartTime><Timestamp dt:dt="int">0</Timestamp><DateUtc dt:dt="string">2015-08-26T21:08:31Z</DateUtc></StartTime><FrequencyChanges><FrequencyChange><Frequency dt:dt="r8">3507734</Frequency><Timestamp dt:dt="r8">372097548914</Timestamp><Current dt:dt="r8">0</Current><DateUtc dt:dt="string">2015-08-26T21:08:31Z</DateUtc></FrequencyChange></FrequencyChanges></Clock>\n	Hungry_Donkey_bar_English_2-123-1	60.018	-146	1.0.0.18	1	-1563920891	Standard	2.0.10.353	2.0.10.353	08-26-2015	8/26/2015 9:08:32 PM	17:08:32	2.0.10.248	78	Bar50-50.bmp	47	4	?	10r_4g.bmp	0r_4g.bmp	2r_2g.bmp	0r_2g.bmp				0r_2g.bmp	TrialProc	TrialList	0	cvbn	-999999	16	252955	0	n	254	253209	248	-278	-30	-18	-38	12	14	3	8	78	-10	0	-2	0	4	4	2	2	0	2
Hungry_Donkey_bar_English_2	123	1	<?xml version="1.0"?>\n<Clock xmlns:dt="urn:schemas-microsoft-com:datatypes"><Description dt:dt="string">E-Prime Primary Realtime Clock</Description><StartTime><Timestamp dt:dt="int">0</Timestamp><DateUtc dt:dt="string">2015-08-26T21:08:31Z</DateUtc></StartTime><FrequencyChanges><FrequencyChange><Frequency dt:dt="r8">3507734</Frequency><Timestamp dt:dt="r8">372097548914</Timestamp><Current dt:dt="r8">0</Current><DateUtc dt:dt="string">2015-08-26T21:08:31Z</DateUtc></FrequencyChange></FrequencyChanges></Clock>\n	Hungry_Donkey_bar_English_2-123-1	60.018	-146	1.0.0.18	1	-1563920891	Standard	2.0.10.353	2.0.10.353	08-26-2015	8/26/2015 9:08:32 PM	17:08:32	2.0.10.248	79	Bar50-50.bmp	47	4	?	12r_4g.bmp	0r_4g.bmp	3r_2g.bmp	0r_2g.bmp				0r_2g.bmp	TrialProc	TrialList	0	cvbn	-999999	16	255237	0	n	260	255497	250	-278	-28	-18	-38	12	16	5	8	79	-12	0	-3	0	4	4	2	2	0	2
Hungry_Donkey_bar_English_2	123	1	<?xml version="1.0"?>\n<Clock xmlns:dt="urn:schemas-microsoft-com:datatypes"><Description dt:dt="string">E-Prime Primary Realtime Clock</Description><StartTime><Timestamp dt:dt="int">0</Timestamp><DateUtc dt:dt="string">2015-08-26T21:08:31Z</DateUtc></StartTime><FrequencyChanges><FrequencyChange><Frequency dt:dt="r8">3507734</Frequency><Timestamp dt:dt="r8">372097548914</Timestamp><Current dt:dt="r8">0</Current><DateUtc dt:dt="string">2015-08-26T21:08:31Z</DateUtc></FrequencyChange></FrequencyChanges></Clock>\n	Hungry_Donkey_bar_English_2-123-1	60.018	-146	1.0.0.18	1	-1563920891	Standard	2.0.10.353	2.0.10.353	08-26-2015	8/26/2015 9:08:32 PM	17:08:32	2.0.10.248	80	Bar50-50.bmp	48	4	?	0r_4g.bmp	0r_4g.bmp	0r_2g.bmp	0r_2g.bmp				0r_2g.bmp	TrialProc	TrialList	0	cvbn	-999999	15	257520	0	n	361	257881	252	-278	-26	-18	-38	12	18	8	8	80	0	0	0	0	4	4	2	2	0	2
Hungry_Donkey_bar_English_2	123	1	<?xml version="1.0"?>\n<Clock xmlns:dt="urn:schemas-microsoft-com:datatypes"><Description dt:dt="string">E-Prime Primary Realtime Clock</Description><StartTime><Timestamp dt:dt="int">0</Timestamp><DateUtc dt:dt="string">2015-08-26T21:08:31Z</DateUtc></StartTime><FrequencyChanges><FrequencyChange><Frequency dt:dt="r8">3507734</Frequency><Timestamp dt:dt="r8">372097548914</Timestamp><Current dt:dt="r8">0</Current><DateUtc dt:dt="string">2015-08-26T21:08:31Z</DateUtc></FrequencyChange></FrequencyChanges></Clock>\n	Hungry_Donkey_bar_English_2-123-1	60.018	-146	1.0.0.18	1	-1563920891	Standard	2.0.10.353	2.0.10.353	08-26-2015	8/26/2015 9:08:32 PM	17:08:32	2.0.10.248	81	Bar50-50.bmp	48	4	?	10r_4g.bmp	0r_4g.bmp	2r_2g.bmp	0r_2g.bmp				0r_2g.bmp	TrialProc	TrialList	0	cvbn	-999999	16	259919	0	n	474	260393	254	-278	-24	-18	-38	12	20	3	9	81	-10	0	-2	0	4	4	2	2	0	2
Hungry_Donkey_bar_English_2	123	1	<?xml version="1.0"?>\n<Clock xmlns:dt="urn:schemas-microsoft-com:datatypes"><Description dt:dt="string">E-Prime Primary Realtime Clock</Description><StartTime><Timestamp dt:dt="int">0</Timestamp><DateUtc dt:dt="string">2015-08-26T21:08:31Z</DateUtc></StartTime><FrequencyChanges><FrequencyChange><Frequency dt:dt="r8">3507734</Frequency><Timestamp dt:dt="r8">372097548914</Timestamp><Current dt:dt="r8">0</Current><DateUtc dt:dt="string">2015-08-26T21:08:31Z</DateUtc></FrequencyChange></FrequencyChanges></Clock>\n	Hungry_Donkey_bar_English_2-123-1	60.018	-146	1.0.0.18	1	-1563920891	Standard	2.0.10.353	2.0.10.353	08-26-2015	8/26/2015 9:08:32 PM	17:08:32	2.0.10.248	82	Bar50-50.bmp	48	4	?	10r_4g.bmp	0r_4g.bmp	2r_2g.bmp	0r_2g.bmp				0r_2g.bmp	TrialProc	TrialList	0	cvbn	-999999	17	262419	0	n	358	262777	256	-278	-22	-18	-38	12	22	4	9	82	-10	0	-2	0	4	4	2	2	0	2
Hungry_Donkey_bar_English_2	123	1	<?xml version="1.0"?>\n<Clock xmlns:dt="urn:schemas-microsoft-com:datatypes"><Description dt:dt="string">E-Prime Primary Realtime Clock</Description><StartTime><Timestamp dt:dt="int">0</Timestamp><DateUtc dt:dt="string">2015-08-26T21:08:31Z</DateUtc></StartTime><FrequencyChanges><FrequencyChange><Frequency dt:dt="r8">3507734</Frequency><Timestamp dt:dt="r8">372097548914</Timestamp><Current dt:dt="r8">0</Current><DateUtc dt:dt="string">2015-08-26T21:08:31Z</DateUtc></FrequencyChange></FrequencyChanges></Clock>\n	Hungry_Donkey_bar_English_2-123-1	60.018	-146	1.0.0.18	1	-1563920891	Standard	2.0.10.353	2.0.10.353	08-26-2015	8/26/2015 9:08:32 PM	17:08:32	2.0.10.248	83	Bar50-50.bmp	48	3	?	10r_4g.bmp	0r_4g.bmp	2r_2g.bmp	0r_2g.bmp			2r_2g.bmp		TrialProc	TrialList	0	cvbn	-999999	16	264801	0	b	264	265065	258	-280	-22	-18	-38	12	22	2	9	83	-10	0	-2	0	4	4	2	2	-2	2
Hungry_Donkey_bar_English_2	123	1	<?xml version="1.0"?>\n<Clock xmlns:dt="urn:schemas-microsoft-com:datatypes"><Description dt:dt="string">E-Prime Primary Realtime Clock</Description><StartTime><Timestamp dt:dt="int">0</Timestamp><DateUtc dt:dt="string">2015-08-26T21:08:31Z</DateUtc></StartTime><FrequencyChanges><FrequencyChange><Frequency dt:dt="r8">3507734</Frequency><Timestamp dt:dt="r8">372097548914</Timestamp><Current dt:dt="r8">0</Current><DateUtc dt:dt="string">2015-08-26T21:08:31Z</DateUtc></FrequencyChange></FrequencyChanges></Clock>\n	Hungry_Donkey_bar_English_2-123-1	60.018	-146	1.0.0.18	1	-1563920891	Standard	2.0.10.353	2.0.10.353	08-26-2015	8/26/2015 9:08:32 PM	17:08:32	2.0.10.248	84	Bar50-50.bmp	48	2	?	0r_4g.bmp	0r_4g.bmp	0r_2g.bmp	0r_2g.bmp		0r_4g.bmp			TrialProc	TrialList	0	cvbn	-999999	16	267100	0	v	252	267352	262	-280	-18	-18	-34	12	22	10	9	84	0	0	0	0	4	4	2	2	0	4
Hungry_Donkey_bar_English_2	123	1	<?xml version="1.0"?>\n<Clock xmlns:dt="urn:schemas-microsoft-com:datatypes"><Description dt:dt="string">E-Prime Primary Realtime Clock</Description><StartTime><Timestamp dt:dt="int">0</Timestamp><DateUtc dt:dt="string">2015-08-26T21:08:31Z</DateUtc></StartTime><FrequencyChanges><FrequencyChange><Frequency dt:dt="r8">3507734</Frequency><Timestamp dt:dt="r8">372097548914</Timestamp><Current dt:dt="r8">0</Current><DateUtc dt:dt="string">2015-08-26T21:08:31Z</DateUtc></FrequencyChange></FrequencyChanges></Clock>\n	Hungry_Donkey_bar_English_2-123-1	60.018	-146	1.0.0.18	1	-1563920891	Standard	2.0.10.353	2.0.10.353	08-26-2015	8/26/2015 9:08:32 PM	17:08:32	2.0.10.248	85	Bar50-50.bmp	49	2	?	12r_4g.bmp	0r_4g.bmp	3r_2g.bmp	0r_2g.bmp		0r_4g.bmp			TrialProc	TrialList	0	cvbn	-999999	16	269383	0	v	401	269784	266	-280	-14	-18	-30	12	22	5	9	85	-12	0	-3	0	4	4	2	2	0	4
Hungry_Donkey_bar_English_2	123	1	<?xml version="1.0"?>\n<Clock xmlns:dt="urn:schemas-microsoft-com:datatypes"><Description dt:dt="string">E-Prime Primary Realtime Clock</Description><StartTime><Timestamp dt:dt="int">0</Timestamp><DateUtc dt:dt="string">2015-08-26T21:08:31Z</DateUtc></StartTime><FrequencyChanges><FrequencyChange><Frequency dt:dt="r8">3507734</Frequency><Timestamp dt:dt="r8">372097548914</Timestamp><Current dt:dt="r8">0</Current><DateUtc dt:dt="string">2015-08-26T21:08:31Z</DateUtc></FrequencyChange></FrequencyChanges></Clock>\n	Hungry_Donkey_bar_English_2-123-1	60.018	-146	1.0.0.18	1	-1563920891	Standard	2.0.10.353	2.0.10.353	08-26-2015	8/26/2015 9:08:32 PM	17:08:32	2.0.10.248	86	Bar50-50.bmp	49	2	?	0r_4g.bmp	0r_4g.bmp	0r_2g.bmp	0r_2g.bmp		0r_4g.bmp			TrialProc	TrialList	0	cvbn	-999999	16	271816	0	v	432	272248	270	-280	-10	-18	-26	12	22	6	9	86	0	0	0	0	4	4	2	2	0	4
Hungry_Donkey_bar_English_2	123	1	<?xml version="1.0"?>\n<Clock xmlns:dt="urn:schemas-microsoft-com:datatypes"><Description dt:dt="string">E-Prime Primary Realtime Clock</Description><StartTime><Timestamp dt:dt="int">0</Timestamp><DateUtc dt:dt="string">2015-08-26T21:08:31Z</DateUtc></StartTime><FrequencyChanges><FrequencyChange><Frequency dt:dt="r8">3507734</Frequency><Timestamp dt:dt="r8">372097548914</Timestamp><Current dt:dt="r8">0</Current><DateUtc dt:dt="string">2015-08-26T21:08:31Z</DateUtc></FrequencyChange></FrequencyChanges></Clock>\n	Hungry_Donkey_bar_English_2-123-1	60.018	-146	1.0.0.18	1	-1563920891	Standard	2.0.10.353	2.0.10.353	08-26-2015	8/26/2015 9:08:32 PM	17:08:32	2.0.10.248	87	Bar50-50.bmp	45	2	?	8r_4g.bmp	50r_4g.bmp	1r_2g.bmp	10r_2g.bmp		50r_4g.bmp			TrialProc	TrialList	0	cvbn	-999999	16	274282	0	v	334	274616	274	-330	-56	-18	-72	12	22	1	9	87	-8	-50	-1	-10	4	4	2	2	-50	4
Hungry_Donkey_bar_English_2	123	1	<?xml version="1.0"?>\n<Clock xmlns:dt="urn:schemas-microsoft-com:datatypes"><Description dt:dt="string">E-Prime Primary Realtime Clock</Description><StartTime><Timestamp dt:dt="int">0</Timestamp><DateUtc dt:dt="string">2015-08-26T21:08:31Z</DateUtc></StartTime><FrequencyChanges><FrequencyChange><Frequency dt:dt="r8">3507734</Frequency><Timestamp dt:dt="r8">372097548914</Timestamp><Current dt:dt="r8">0</Current><DateUtc dt:dt="string">2015-08-26T21:08:31Z</DateUtc></FrequencyChange></FrequencyChanges></Clock>\n	Hungry_Donkey_bar_English_2-123-1	60.018	-146	1.0.0.18	1	-1563920891	Standard	2.0.10.353	2.0.10.353	08-26-2015	8/26/2015 9:08:32 PM	17:08:32	2.0.10.248	88	Bar50-50.bmp	46	4	?	0r_4g.bmp	0r_4g.bmp	0r_2g.bmp	0r_2g.bmp				0r_2g.bmp	TrialProc	TrialList	0	cvbn	-999999	17	276648	0	n	352	277000	276	-330	-54	-18	-72	12	24	9	9	88	0	0	0	0	4	4	2	2	0	2
Hungry_Donkey_bar_English_2	123	1	<?xml version="1.0"?>\n<Clock xmlns:dt="urn:schemas-microsoft-com:datatypes"><Description dt:dt="string">E-Prime Primary Realtime Clock</Description><StartTime><Timestamp dt:dt="int">0</Timestamp><DateUtc dt:dt="string">2015-08-26T21:08:31Z</DateUtc></StartTime><FrequencyChanges><FrequencyChange><Frequency dt:dt="r8">3507734</Frequency><Timestamp dt:dt="r8">372097548914</Timestamp><Current dt:dt="r8">0</Current><DateUtc dt:dt="string">2015-08-26T21:08:31Z</DateUtc></FrequencyChange></FrequencyChanges></Clock>\n	Hungry_Donkey_bar_English_2-123-1	60.018	-146	1.0.0.18	1	-1563920891	Standard	2.0.10.353	2.0.10.353	08-26-2015	8/26/2015 9:08:32 PM	17:08:32	2.0.10.248	89	Bar50-50.bmp	46	4	?	0r_4g.bmp	0r_4g.bmp	0r_2g.bmp	0r_2g.bmp				0r_2g.bmp	TrialProc	TrialList	0	cvbn	-999999	16	279030	0	n	370	279400	278	-330	-52	-18	-72	12	26	7	9	89	0	0	0	0	4	4	2	2	0	2
Hungry_Donkey_bar_English_2	123	1	<?xml version="1.0"?>\n<Clock xmlns:dt="urn:schemas-microsoft-com:datatypes"><Description dt:dt="string">E-Prime Primary Realtime Clock</Description><StartTime><Timestamp dt:dt="int">0</Timestamp><DateUtc dt:dt="string">2015-08-26T21:08:31Z</DateUtc></StartTime><FrequencyChanges><FrequencyChange><Frequency dt:dt="r8">3507734</Frequency><Timestamp dt:dt="r8">372097548914</Timestamp><Current dt:dt="r8">0</Current><DateUtc dt:dt="string">2015-08-26T21:08:31Z</DateUtc></FrequencyChange></FrequencyChanges></Clock>\n	Hungry_Donkey_bar_English_2-123-1	60.018	-146	1.0.0.18	1	-1563920891	Standard	2.0.10.353	2.0.10.353	08-26-2015	8/26/2015 9:08:32 PM	17:08:32	2.0.10.248	90	Bar50-50.bmp	46	3	?	0r_4g.bmp	0r_4g.bmp	0r_2g.bmp	0r_2g.bmp			0r_2g.bmp		TrialProc	TrialList	0	cvbn	-999999	16	281429	0	b	323	281752	280	-330	-50	-18	-72	14	26	8	9	90	0	0	0	0	4	4	2	2	0	2
Hungry_Donkey_bar_English_2	123	1	<?xml version="1.0"?>\n<Clock xmlns:dt="urn:schemas-microsoft-com:datatypes"><Description dt:dt="string">E-Prime Primary Realtime Clock</Description><StartTime><Timestamp dt:dt="int">0</Timestamp><DateUtc dt:dt="string">2015-08-26T21:08:31Z</DateUtc></StartTime><FrequencyChanges><FrequencyChange><Frequency dt:dt="r8">3507734</Frequency><Timestamp dt:dt="r8">372097548914</Timestamp><Current dt:dt="r8">0</Current><DateUtc dt:dt="string">2015-08-26T21:08:31Z</DateUtc></FrequencyChange></FrequencyChanges></Clock>\n	Hungry_Donkey_bar_English_2-123-1	60.018	-146	1.0.0.18	1	-1563920891	Standard	2.0.10.353	2.0.10.353	08-26-2015	8/26/2015 9:08:32 PM	17:08:32	2.0.10.248	91	Bar37-63.bmp	43	2	?	8r_4g.bmp	50r_4g.bmp	1r_2g.bmp	10r_2g.bmp		50r_4g.bmp			TrialProc	TrialList	0	cvbn	-999999	16	283779	0	v	324	284103	284	-380	-96	-18	-118	14	26	1	10	91	-8	-50	-1	-10	4	4	2	2	-50	4
Hungry_Donkey_bar_English_2	123	1	<?xml version="1.0"?>\n<Clock xmlns:dt="urn:schemas-microsoft-com:datatypes"><Description dt:dt="string">E-Prime Primary Realtime Clock</Description><StartTime><Timestamp dt:dt="int">0</Timestamp><DateUtc dt:dt="string">2015-08-26T21:08:31Z</DateUtc></StartTime><FrequencyChanges><FrequencyChange><Frequency dt:dt="r8">3507734</Frequency><Timestamp dt:dt="r8">372097548914</Timestamp><Current dt:dt="r8">0</Current><DateUtc dt:dt="string">2015-08-26T21:08:31Z</DateUtc></FrequencyChange></FrequencyChanges></Clock>\n	Hungry_Donkey_bar_English_2-123-1	60.018	-146	1.0.0.18	1	-1563920891	Standard	2.0.10.353	2.0.10.353	08-26-2015	8/26/2015 9:08:32 PM	17:08:32	2.0.10.248	92	Bar37-63.bmp	43	1	?	0r_4g.bmp	0r_4g.bmp	0r_2g.bmp	0r_2g.bmp	0r_4g.bmp				TrialProc	TrialList	0	cvbn	-999999	15	286128	0	c	359	286487	288	-380	-92	-14	-118	14	26	8	10	92	0	0	0	0	4	4	2	2	0	4
Hungry_Donkey_bar_English_2	123	1	<?xml version="1.0"?>\n<Clock xmlns:dt="urn:schemas-microsoft-com:datatypes"><Description dt:dt="string">E-Prime Primary Realtime Clock</Description><StartTime><Timestamp dt:dt="int">0</Timestamp><DateUtc dt:dt="string">2015-08-26T21:08:31Z</DateUtc></StartTime><FrequencyChanges><FrequencyChange><Frequency dt:dt="r8">3507734</Frequency><Timestamp dt:dt="r8">372097548914</Timestamp><Current dt:dt="r8">0</Current><DateUtc dt:dt="string">2015-08-26T21:08:31Z</DateUtc></FrequencyChange></FrequencyChanges></Clock>\n	Hungry_Donkey_bar_English_2-123-1	60.018	-146	1.0.0.18	1	-1563920891	Standard	2.0.10.353	2.0.10.353	08-26-2015	8/26/2015 9:08:32 PM	17:08:32	2.0.10.248	93	Bar37-63.bmp	43	1	?	0r_4g.bmp	0r_4g.bmp	0r_2g.bmp	0r_2g.bmp	0r_4g.bmp				TrialProc	TrialList	0	cvbn	-999999	16	288527	0	c	152	288679	292	-380	-88	-10	-118	14	26	6	10	93	0	0	0	0	4	4	2	2	0	4
Hungry_Donkey_bar_English_2	123	1	<?xml version="1.0"?>\n<Clock xmlns:dt="urn:schemas-microsoft-com:datatypes"><Description dt:dt="string">E-Prime Primary Realtime Clock</Description><StartTime><Timestamp dt:dt="int">0</Timestamp><DateUtc dt:dt="string">2015-08-26T21:08:31Z</DateUtc></StartTime><FrequencyChanges><FrequencyChange><Frequency dt:dt="r8">3507734</Frequency><Timestamp dt:dt="r8">372097548914</Timestamp><Current dt:dt="r8">0</Current><DateUtc dt:dt="string">2015-08-26T21:08:31Z</DateUtc></FrequencyChange></FrequencyChanges></Clock>\n	Hungry_Donkey_bar_English_2-123-1	60.018	-146	1.0.0.18	1	-1563920891	Standard	2.0.10.353	2.0.10.353	08-26-2015	8/26/2015 9:08:32 PM	17:08:32	2.0.10.248	94	Bar50-50.bmp	44	1	?	0r_4g.bmp	0r_4g.bmp	0r_2g.bmp	0r_2g.bmp	0r_4g.bmp				TrialProc	TrialList	0	cvbn	-999999	16	290710	0	c	257	290967	296	-380	-84	-6	-118	14	26	7	10	94	0	0	0	0	4	4	2	2	0	4
Hungry_Donkey_bar_English_2	123	1	<?xml version="1.0"?>\n<Clock xmlns:dt="urn:schemas-microsoft-com:datatypes"><Description dt:dt="string">E-Prime Primary Realtime Clock</Description><StartTime><Timestamp dt:dt="int">0</Timestamp><DateUtc dt:dt="string">2015-08-26T21:08:31Z</DateUtc></StartTime><FrequencyChanges><FrequencyChange><Frequency dt:dt="r8">3507734</Frequency><Timestamp dt:dt="r8">372097548914</Timestamp><Current dt:dt="r8">0</Current><DateUtc dt:dt="string">2015-08-26T21:08:31Z</DateUtc></FrequencyChange></FrequencyChanges></Clock>\n	Hungry_Donkey_bar_English_2-123-1	60.018	-146	1.0.0.18	1	-1563920891	Standard	2.0.10.353	2.0.10.353	08-26-2015	8/26/2015 9:08:32 PM	17:08:32	2.0.10.248	95	Bar37-63.bmp	43	1	?	10r_4g.bmp	0r_4g.bmp	2r_2g.bmp	0r_2g.bmp	10r_4g.bmp				TrialProc	TrialList	0	cvbn	-999999	16	292993	0	c	6	292999	300	-390	-90	-12	-118	14	26	4	10	95	-10	0	-2	0	4	4	2	2	-10	4
Hungry_Donkey_bar_English_2	123	1	<?xml version="1.0"?>\n<Clock xmlns:dt="urn:schemas-microsoft-com:datatypes"><Description dt:dt="string">E-Prime Primary Realtime Clock</Description><StartTime><Timestamp dt:dt="int">0</Timestamp><DateUtc dt:dt="string">2015-08-26T21:08:31Z</DateUtc></StartTime><FrequencyChanges><FrequencyChange><Frequency dt:dt="r8">3507734</Frequency><Timestamp dt:dt="r8">372097548914</Timestamp><Current dt:dt="r8">0</Current><DateUtc dt:dt="string">2015-08-26T21:08:31Z</DateUtc></FrequencyChange></FrequencyChanges></Clock>\n	Hungry_Donkey_bar_English_2-123-1	60.018	-146	1.0.0.18	1	-1563920891	Standard	2.0.10.353	2.0.10.353	08-26-2015	8/26/2015 9:08:32 PM	17:08:32	2.0.10.248	96	Bar50-50.bmp	44	2	?	10r_4g.bmp	0r_4g.bmp	2r_2g.bmp	0r_2g.bmp		0r_4g.bmp			TrialProc	TrialList	0	cvbn	-999999	16	295025	0	v	438	295463	304	-390	-86	-12	-114	14	26	2	10	96	-10	0	-2	0	4	4	2	2	0	4
Hungry_Donkey_bar_English_2	123	1	<?xml version="1.0"?>\n<Clock xmlns:dt="urn:schemas-microsoft-com:datatypes"><Description dt:dt="string">E-Prime Primary Realtime Clock</Description><StartTime><Timestamp dt:dt="int">0</Timestamp><DateUtc dt:dt="string">2015-08-26T21:08:31Z</DateUtc></StartTime><FrequencyChanges><FrequencyChange><Frequency dt:dt="r8">3507734</Frequency><Timestamp dt:dt="r8">372097548914</Timestamp><Current dt:dt="r8">0</Current><DateUtc dt:dt="string">2015-08-26T21:08:31Z</DateUtc></FrequencyChange></FrequencyChanges></Clock>\n	Hungry_Donkey_bar_English_2-123-1	60.018	-146	1.0.0.18	1	-1563920891	Standard	2.0.10.353	2.0.10.353	08-26-2015	8/26/2015 9:08:32 PM	17:08:32	2.0.10.248	97	Bar50-50.bmp	44	2	?	12r_4g.bmp	0r_4g.bmp	3r_2g.bmp	0r_2g.bmp		0r_4g.bmp			TrialProc	TrialList	0	cvbn	-999999	16	297491	0	v	595	298086	308	-390	-82	-12	-110	14	26	5	10	97	-12	0	-3	0	4	4	2	2	0	4
Hungry_Donkey_bar_English_2	123	1	<?xml version="1.0"?>\n<Clock xmlns:dt="urn:schemas-microsoft-com:datatypes"><Description dt:dt="string">E-Prime Primary Realtime Clock</Description><StartTime><Timestamp dt:dt="int">0</Timestamp><DateUtc dt:dt="string">2015-08-26T21:08:31Z</DateUtc></StartTime><FrequencyChanges><FrequencyChange><Frequency dt:dt="r8">3507734</Frequency><Timestamp dt:dt="r8">372097548914</Timestamp><Current dt:dt="r8">0</Current><DateUtc dt:dt="string">2015-08-26T21:08:31Z</DateUtc></FrequencyChange></FrequencyChanges></Clock>\n	Hungry_Donkey_bar_English_2-123-1	60.018	-146	1.0.0.18	1	-1563920891	Standard	2.0.10.353	2.0.10.353	08-26-2015	8/26/2015 9:08:32 PM	17:08:32	2.0.10.248	98	Bar50-50.bmp	44	3	?	0r_4g.bmp	0r_4g.bmp	0r_2g.bmp	0r_2g.bmp			0r_2g.bmp		TrialProc	TrialList	0	cvbn	-999999	16	300124	0	b	330	300454	310	-390	-80	-12	-110	16	26	10	10	98	0	0	0	0	4	4	2	2	0	2
Hungry_Donkey_bar_English_2	123	1	<?xml version="1.0"?>\n<Clock xmlns:dt="urn:schemas-microsoft-com:datatypes"><Description dt:dt="string">E-Prime Primary Realtime Clock</Description><StartTime><Timestamp dt:dt="int">0</Timestamp><DateUtc dt:dt="string">2015-08-26T21:08:31Z</DateUtc></StartTime><FrequencyChanges><FrequencyChange><Frequency dt:dt="r8">3507734</Frequency><Timestamp dt:dt="r8">372097548914</Timestamp><Current dt:dt="r8">0</Current><DateUtc dt:dt="string">2015-08-26T21:08:31Z</DateUtc></FrequencyChange></FrequencyChanges></Clock>\n	Hungry_Donkey_bar_English_2-123-1	60.018	-146	1.0.0.18	1	-1563920891	Standard	2.0.10.353	2.0.10.353	08-26-2015	8/26/2015 9:08:32 PM	17:08:32	2.0.10.248	99	Bar50-50.bmp	45	2	?	0r_4g.bmp	0r_4g.bmp	0r_2g.bmp	0r_2g.bmp		0r_4g.bmp			TrialProc	TrialList	0	cvbn	-999999	16	302490	0	v	348	302838	314	-390	-76	-12	-106	16	26	9	10	99	0	0	0	0	4	4	2	2	0	4
Hungry_Donkey_bar_English_2	123	1	<?xml version="1.0"?>\n<Clock xmlns:dt="urn:schemas-microsoft-com:datatypes"><Description dt:dt="string">E-Prime Primary Realtime Clock</Description><StartTime><Timestamp dt:dt="int">0</Timestamp><DateUtc dt:dt="string">2015-08-26T21:08:31Z</DateUtc></StartTime><FrequencyChanges><FrequencyChange><Frequency dt:dt="r8">3507734</Frequency><Timestamp dt:dt="r8">372097548914</Timestamp><Current dt:dt="r8">0</Current><DateUtc dt:dt="string">2015-08-26T21:08:31Z</DateUtc></FrequencyChange></FrequencyChanges></Clock>\n	Hungry_Donkey_bar_English_2-123-1	60.018	-146	1.0.0.18	1	-1563920891	Standard	2.0.10.353	2.0.10.353	08-26-2015	8/26/2015 9:08:32 PM	17:08:32	2.0.10.248	100	Bar50-50.bmp	45	2	?	10r_4g.bmp	0r_4g.bmp	2r_2g.bmp	0r_2g.bmp		0r_4g.bmp			TrialProc	TrialList	0	cvbn	-999999	16	304872	0	v	446	305318	318	-390	-72	-12	-102	16	26	3	10	100	-10	0	-2	0	4	4	2	2	0	4
Hungry_Donkey_bar_English_2	123	1	<?xml version="1.0"?>\n<Clock xmlns:dt="urn:schemas-microsoft-com:datatypes"><Description dt:dt="string">E-Prime Primary Realtime Clock</Description><StartTime><Timestamp dt:dt="int">0</Timestamp><DateUtc dt:dt="string">2015-08-26T21:08:31Z</DateUtc></StartTime><FrequencyChanges><FrequencyChange><Frequency dt:dt="r8">3507734</Frequency><Timestamp dt:dt="r8">372097548914</Timestamp><Current dt:dt="r8">0</Current><DateUtc dt:dt="string">2015-08-26T21:08:31Z</DateUtc></FrequencyChange></FrequencyChanges></Clock>\n	Hungry_Donkey_bar_English_2-123-1	60.018	-146	1.0.0.18	1	-1563920891	Standard	2.0.10.353	2.0.10.353	08-26-2015	8/26/2015 9:08:32 PM	17:08:32	2.0.10.248	101	Bar50-50.bmp	45	2	?	10r_4g.bmp	0r_4g.bmp	2r_2g.bmp	0r_2g.bmp		0r_4g.bmp			TrialProc	TrialList	0	cvbn	-999999	16	307355	0	v	427	307782	322	-390	-68	-12	-98	16	26	2	11	101	-10	0	-2	0	4	4	2	2	0	4
Hungry_Donkey_bar_English_2	123	1	<?xml version="1.0"?>\n<Clock xmlns:dt="urn:schemas-microsoft-com:datatypes"><Description dt:dt="string">E-Prime Primary Realtime Clock</Description><StartTime><Timestamp dt:dt="int">0</Timestamp><DateUtc dt:dt="string">2015-08-26T21:08:31Z</DateUtc></StartTime><FrequencyChanges><FrequencyChange><Frequency dt:dt="r8">3507734</Frequency><Timestamp dt:dt="r8">372097548914</Timestamp><Current dt:dt="r8">0</Current><DateUtc dt:dt="string">2015-08-26T21:08:31Z</DateUtc></FrequencyChange></FrequencyChanges></Clock>\n	Hungry_Donkey_bar_English_2-123-1	60.018	-146	1.0.0.18	1	-1563920891	Standard	2.0.10.353	2.0.10.353	08-26-2015	8/26/2015 9:08:32 PM	17:08:32	2.0.10.248	102	Bar50-50.bmp	46	2	?	12r_4g.bmp	0r_4g.bmp	3r_2g.bmp	0r_2g.bmp		0r_4g.bmp			TrialProc	TrialList	0	cvbn	-999999	16	309821	0	v	361	310182	326	-390	-64	-12	-94	16	26	5	11	102	-12	0	-3	0	4	4	2	2	0	4
Hungry_Donkey_bar_English_2	123	1	<?xml version="1.0"?>\n<Clock xmlns:dt="urn:schemas-microsoft-com:datatypes"><Description dt:dt="string">E-Prime Primary Realtime Clock</Description><StartTime><Timestamp dt:dt="int">0</Timestamp><DateUtc dt:dt="string">2015-08-26T21:08:31Z</DateUtc></StartTime><FrequencyChanges><FrequencyChange><Frequency dt:dt="r8">3507734</Frequency><Timestamp dt:dt="r8">372097548914</Timestamp><Current dt:dt="r8">0</Current><DateUtc dt:dt="string">2015-08-26T21:08:31Z</DateUtc></FrequencyChange></FrequencyChanges></Clock>\n	Hungry_Donkey_bar_English_2-123-1	60.018	-146	1.0.0.18	1	-1563920891	Standard	2.0.10.353	2.0.10.353	08-26-2015	8/26/2015 9:08:32 PM	17:08:32	2.0.10.248	103	Bar50-50.bmp	46	2	?	0r_4g.bmp	0r_4g.bmp	0r_2g.bmp	0r_2g.bmp		0r_4g.bmp			TrialProc	TrialList	0	cvbn	-999999	16	312220	0	v	409	312629	330	-390	-60	-12	-90	16	26	6	11	103	0	0	0	0	4	4	2	2	0	4
Hungry_Donkey_bar_English_2	123	1	<?xml version="1.0"?>\n<Clock xmlns:dt="urn:schemas-microsoft-com:datatypes"><Description dt:dt="string">E-Prime Primary Realtime Clock</Description><StartTime><Timestamp dt:dt="int">0</Timestamp><DateUtc dt:dt="string">2015-08-26T21:08:31Z</DateUtc></StartTime><FrequencyChanges><FrequencyChange><Frequency dt:dt="r8">3507734</Frequency><Timestamp dt:dt="r8">372097548914</Timestamp><Current dt:dt="r8">0</Current><DateUtc dt:dt="string">2015-08-26T21:08:31Z</DateUtc></FrequencyChange></FrequencyChanges></Clock>\n	Hungry_Donkey_bar_English_2-123-1	60.018	-146	1.0.0.18	1	-1563920891	Standard	2.0.10.353	2.0.10.353	08-26-2015	8/26/2015 9:08:32 PM	17:08:32	2.0.10.248	104	Bar50-50.bmp	46	4	?	0r_4g.bmp	0r_4g.bmp	0r_2g.bmp	0r_2g.bmp				0r_2g.bmp	TrialProc	TrialList	0	cvbn	-999999	16	314669	0	n	328	314997	332	-390	-58	-12	-90	16	28	7	11	104	0	0	0	0	4	4	2	2	0	2
Hungry_Donkey_bar_English_2	123	1	<?xml version="1.0"?>\n<Clock xmlns:dt="urn:schemas-microsoft-com:datatypes"><Description dt:dt="string">E-Prime Primary Realtime Clock</Description><StartTime><Timestamp dt:dt="int">0</Timestamp><DateUtc dt:dt="string">2015-08-26T21:08:31Z</DateUtc></StartTime><FrequencyChanges><FrequencyChange><Frequency dt:dt="r8">3507734</Frequency><Timestamp dt:dt="r8">372097548914</Timestamp><Current dt:dt="r8">0</Current><DateUtc dt:dt="string">2015-08-26T21:08:31Z</DateUtc></FrequencyChange></FrequencyChanges></Clock>\n	Hungry_Donkey_bar_English_2-123-1	60.018	-146	1.0.0.18	1	-1563920891	Standard	2.0.10.353	2.0.10.353	08-26-2015	8/26/2015 9:08:32 PM	17:08:32	2.0.10.248	105	Bar50-50.bmp	46	4	?	0r_4g.bmp	0r_4g.bmp	0r_2g.bmp	0r_2g.bmp				0r_2g.bmp	TrialProc	TrialList	0	cvbn	-999999	16	317035	0	n	474	317509	334	-390	-56	-12	-90	16	30	9	11	105	0	0	0	0	4	4	2	2	0	2
Hungry_Donkey_bar_English_2	123	1	<?xml version="1.0"?>\n<Clock xmlns:dt="urn:schemas-microsoft-com:datatypes"><Description dt:dt="string">E-Prime Primary Realtime Clock</Description><StartTime><Timestamp dt:dt="int">0</Timestamp><DateUtc dt:dt="string">2015-08-26T21:08:31Z</DateUtc></StartTime><FrequencyChanges><FrequencyChange><Frequency dt:dt="r8">3507734</Frequency><Timestamp dt:dt="r8">372097548914</Timestamp><Current dt:dt="r8">0</Current><DateUtc dt:dt="string">2015-08-26T21:08:31Z</DateUtc></FrequencyChange></FrequencyChanges></Clock>\n	Hungry_Donkey_bar_English_2-123-1	60.018	-146	1.0.0.18	1	-1563920891	Standard	2.0.10.353	2.0.10.353	08-26-2015	8/26/2015 9:08:32 PM	17:08:32	2.0.10.248	106	Bar50-50.bmp	46	3	?	0r_4g.bmp	0r_4g.bmp	0r_2g.bmp	0r_2g.bmp			0r_2g.bmp		TrialProc	TrialList	0	cvbn	-999999	16	319535	0	b	294	319829	336	-390	-54	-12	-90	18	30	10	11	106	0	0	0	0	4	4	2	2	0	2
Hungry_Donkey_bar_English_2	123	1	<?xml version="1.0"?>\n<Clock xmlns:dt="urn:schemas-microsoft-com:datatypes"><Description dt:dt="string">E-Prime Primary Realtime Clock</Description><StartTime><Timestamp dt:dt="int">0</Timestamp><DateUtc dt:dt="string">2015-08-26T21:08:31Z</DateUtc></StartTime><FrequencyChanges><FrequencyChange><Frequency dt:dt="r8">3507734</Frequency><Timestamp dt:dt="r8">372097548914</Timestamp><Current dt:dt="r8">0</Current><DateUtc dt:dt="string">2015-08-26T21:08:31Z</DateUtc></FrequencyChange></FrequencyChanges></Clock>\n	Hungry_Donkey_bar_English_2-123-1	60.018	-146	1.0.0.18	1	-1563920891	Standard	2.0.10.353	2.0.10.353	08-26-2015	8/26/2015 9:08:32 PM	17:08:32	2.0.10.248	107	Bar50-50.bmp	47	2	?	0r_4g.bmp	0r_4g.bmp	0r_2g.bmp	0r_2g.bmp		0r_4g.bmp			TrialProc	TrialList	0	cvbn	-999999	16	321867	0	v	330	322197	340	-390	-50	-12	-86	18	30	8	11	107	0	0	0	0	4	4	2	2	0	4
Hungry_Donkey_bar_English_2	123	1	<?xml version="1.0"?>\n<Clock xmlns:dt="urn:schemas-microsoft-com:datatypes"><Description dt:dt="string">E-Prime Primary Realtime Clock</Description><StartTime><Timestamp dt:dt="int">0</Timestamp><DateUtc dt:dt="string">2015-08-26T21:08:31Z</DateUtc></StartTime><FrequencyChanges><FrequencyChange><Frequency dt:dt="r8">3507734</Frequency><Timestamp dt:dt="r8">372097548914</Timestamp><Current dt:dt="r8">0</Current><DateUtc dt:dt="string">2015-08-26T21:08:31Z</DateUtc></FrequencyChange></FrequencyChanges></Clock>\n	Hungry_Donkey_bar_English_2-123-1	60.018	-146	1.0.0.18	1	-1563920891	Standard	2.0.10.353	2.0.10.353	08-26-2015	8/26/2015 9:08:32 PM	17:08:32	2.0.10.248	108	Bar50-50.bmp	47	2	?	10r_4g.bmp	0r_4g.bmp	2r_2g.bmp	0r_2g.bmp		0r_4g.bmp			TrialProc	TrialList	0	cvbn	-999999	16	324233	0	v	380	324613	344	-390	-46	-12	-82	18	30	4	11	108	-10	0	-2	0	4	4	2	2	0	4
Hungry_Donkey_bar_English_2	123	1	<?xml version="1.0"?>\n<Clock xmlns:dt="urn:schemas-microsoft-com:datatypes"><Description dt:dt="string">E-Prime Primary Realtime Clock</Description><StartTime><Timestamp dt:dt="int">0</Timestamp><DateUtc dt:dt="string">2015-08-26T21:08:31Z</DateUtc></StartTime><FrequencyChanges><FrequencyChange><Frequency dt:dt="r8">3507734</Frequency><Timestamp dt:dt="r8">372097548914</Timestamp><Current dt:dt="r8">0</Current><DateUtc dt:dt="string">2015-08-26T21:08:31Z</DateUtc></FrequencyChange></FrequencyChanges></Clock>\n	Hungry_Donkey_bar_English_2-123-1	60.018	-146	1.0.0.18	1	-1563920891	Standard	2.0.10.353	2.0.10.353	08-26-2015	8/26/2015 9:08:32 PM	17:08:32	2.0.10.248	109	Bar50-50.bmp	47	3	?	10r_4g.bmp	0r_4g.bmp	2r_2g.bmp	0r_2g.bmp			2r_2g.bmp		TrialProc	TrialList	0	cvbn	-999999	16	326649	0	b	412	327061	346	-392	-46	-12	-82	18	30	3	11	109	-10	0	-2	0	4	4	2	2	-2	2
Hungry_Donkey_bar_English_2	123	1	<?xml version="1.0"?>\n<Clock xmlns:dt="urn:schemas-microsoft-com:datatypes"><Description dt:dt="string">E-Prime Primary Realtime Clock</Description><StartTime><Timestamp dt:dt="int">0</Timestamp><DateUtc dt:dt="string">2015-08-26T21:08:31Z</DateUtc></StartTime><FrequencyChanges><FrequencyChange><Frequency dt:dt="r8">3507734</Frequency><Timestamp dt:dt="r8">372097548914</Timestamp><Current dt:dt="r8">0</Current><DateUtc dt:dt="string">2015-08-26T21:08:31Z</DateUtc></FrequencyChange></FrequencyChanges></Clock>\n	Hungry_Donkey_bar_English_2-123-1	60.018	-146	1.0.0.18	1	-1563920891	Standard	2.0.10.353	2.0.10.353	08-26-2015	8/26/2015 9:08:32 PM	17:08:32	2.0.10.248	110	Bar50-50.bmp	44	2	?	8r_4g.bmp	50r_4g.bmp	1r_2g.bmp	10r_2g.bmp		50r_4g.bmp			TrialProc	TrialList	0	cvbn	-999999	16	329098	0	v	410	329508	350	-442	-92	-12	-128	18	30	1	11	110	-8	-50	-1	-10	4	4	2	2	-50	4
