ExperimentName	Subject	Session	Clock.Information	DataFile.Basename	Display.RefreshRate	Eindtotaal[Session]	ExperimentVersion	Group	RandomSeed	RuntimeCapabilities	RuntimeVersion	RuntimeVersionExpected	SessionDate	SessionStartDateTimeUtc	SessionTime	StudioVersion	Block	BarImage	BarTotalWinst	DoorChoice	Eindtotaal[Block]	FBDoor1	FBDoor2	FBDoor3	FBDoor4	Image1	Image2	Image3	Image4	Procedure	Running	spel.ACC	spel.CRESP	spel.DurationError	spel.OnsetDelay	spel.OnsetTime	spel.OnsetToOnsetTime	spel.RESP	spel.RT	spel.RTTime	TotalGain	TotalLose	Totalsum	TotalsumD1	TotalsumD2	TotalsumD3	TotalsumD4	TrialList	TrialList.Cycle	TrialList.Sample	varV1	varV2	varV3	varV4	varW1	varW2	varW3	varW4	Verliesbedrag	Winstbedrag
Hungry_Donkey_bar_English_2	128	1	<?xml version="1.0"?>\n<Clock xmlns:dt="urn:schemas-microsoft-com:datatypes"><Description dt:dt="string">E-Prime Primary Realtime Clock</Description><StartTime><Timestamp dt:dt="int">0</Timestamp><DateUtc dt:dt="string">2015-08-20T21:05:04Z</DateUtc></StartTime><FrequencyChanges><FrequencyChange><Frequency dt:dt="r8">3507675</Frequency><Timestamp dt:dt="r8">37648342496</Timestamp><Current dt:dt="r8">0</Current><DateUtc dt:dt="string">2015-08-20T21:05:04Z</DateUtc></FrequencyChange></FrequencyChanges></Clock>\n	Hungry_Donkey_bar_English_2-128-1	60.017	-143	1.0.0.18	1	-1005648185	Standard	2.0.10.353	2.0.10.353	08-20-2015	8/20/2015 9:05:04 PM	17:05:04	2.0.10.248	1	Bar50-50.bmp	50	3	?	10r_4g.bmp	0r_4g.bmp	2r_2g.bmp	0r_2g.bmp			2r_2g.bmp		TrialProc	TrialList	0	cvbn	-999999	20	57593	0	b	4875	62468	2	-2	0	0	0	0	0	3	1	1	-10	0	-2	0	4	4	2	2	-2	2
Hungry_Donkey_bar_English_2	128	1	<?xml version="1.0"?>\n<Clock xmlns:dt="urn:schemas-microsoft-com:datatypes"><Description dt:dt="string">E-Prime Primary Realtime Clock</Description><StartTime><Timestamp dt:dt="int">0</Timestamp><DateUtc dt:dt="string">2015-08-20T21:05:04Z</DateUtc></StartTime><FrequencyChanges><FrequencyChange><Frequency dt:dt="r8">3507675</Frequency><Timestamp dt:dt="r8">37648342496</Timestamp><Current dt:dt="r8">0</Current><DateUtc dt:dt="string">2015-08-20T21:05:04Z</DateUtc></FrequencyChange></FrequencyChanges></Clock>\n	Hungry_Donkey_bar_English_2-128-1	60.017	-143	1.0.0.18	1	-1005648185	Standard	2.0.10.353	2.0.10.353	08-20-2015	8/20/2015 9:05:04 PM	17:05:04	2.0.10.248	2	Bar75-25.bmp	75	2	?	0r_4g.bmp	0r_4g.bmp	0r_2g.bmp	0r_2g.bmp		0r_4g.bmp			TrialProc	TrialList	0	cvbn	-999999	16	64507	0	v	2281	66788	6	-2	4	0	4	0	0	8	1	2	0	0	0	0	4	4	2	2	0	4
Hungry_Donkey_bar_English_2	128	1	<?xml version="1.0"?>\n<Clock xmlns:dt="urn:schemas-microsoft-com:datatypes"><Description dt:dt="string">E-Prime Primary Realtime Clock</Description><StartTime><Timestamp dt:dt="int">0</Timestamp><DateUtc dt:dt="string">2015-08-20T21:05:04Z</DateUtc></StartTime><FrequencyChanges><FrequencyChange><Frequency dt:dt="r8">3507675</Frequency><Timestamp dt:dt="r8">37648342496</Timestamp><Current dt:dt="r8">0</Current><DateUtc dt:dt="string">2015-08-20T21:05:04Z</DateUtc></FrequencyChange></FrequencyChanges></Clock>\n	Hungry_Donkey_bar_English_2-128-1	60.017	-143	1.0.0.18	1	-1005648185	Standard	2.0.10.353	2.0.10.353	08-20-2015	8/20/2015 9:05:04 PM	17:05:04	2.0.10.248	3	Bar87-13.bmp	83	2	?	10r_4g.bmp	0r_4g.bmp	2r_2g.bmp	0r_2g.bmp		0r_4g.bmp			TrialProc	TrialList	0	cvbn	-999999	17	68823	0	v	1677	70500	10	-2	8	0	8	0	0	2	1	3	-10	0	-2	0	4	4	2	2	0	4
Hungry_Donkey_bar_English_2	128	1	<?xml version="1.0"?>\n<Clock xmlns:dt="urn:schemas-microsoft-com:datatypes"><Description dt:dt="string">E-Prime Primary Realtime Clock</Description><StartTime><Timestamp dt:dt="int">0</Timestamp><DateUtc dt:dt="string">2015-08-20T21:05:04Z</DateUtc></StartTime><FrequencyChanges><FrequencyChange><Frequency dt:dt="r8">3507675</Frequency><Timestamp dt:dt="r8">37648342496</Timestamp><Current dt:dt="r8">0</Current><DateUtc dt:dt="string">2015-08-20T21:05:04Z</DateUtc></FrequencyChange></FrequencyChanges></Clock>\n	Hungry_Donkey_bar_English_2-128-1	60.017	-143	1.0.0.18	1	-1005648185	Standard	2.0.10.353	2.0.10.353	08-20-2015	8/20/2015 9:05:04 PM	17:05:04	2.0.10.248	4	Bar50-50.bmp	54	1	?	10r_4g.bmp	0r_4g.bmp	2r_2g.bmp	0r_2g.bmp	10r_4g.bmp				TrialProc	TrialList	0	cvbn	-999999	16	72538	0	c	1098	73636	14	-12	2	-6	8	0	0	4	1	4	-10	0	-2	0	4	4	2	2	-10	4
Hungry_Donkey_bar_English_2	128	1	<?xml version="1.0"?>\n<Clock xmlns:dt="urn:schemas-microsoft-com:datatypes"><Description dt:dt="string">E-Prime Primary Realtime Clock</Description><StartTime><Timestamp dt:dt="int">0</Timestamp><DateUtc dt:dt="string">2015-08-20T21:05:04Z</DateUtc></StartTime><FrequencyChanges><FrequencyChange><Frequency dt:dt="r8">3507675</Frequency><Timestamp dt:dt="r8">37648342496</Timestamp><Current dt:dt="r8">0</Current><DateUtc dt:dt="string">2015-08-20T21:05:04Z</DateUtc></FrequencyChange></FrequencyChanges></Clock>\n	Hungry_Donkey_bar_English_2-128-1	60.017	-143	1.0.0.18	1	-1005648185	Standard	2.0.10.353	2.0.10.353	08-20-2015	8/20/2015 9:05:04 PM	17:05:04	2.0.10.248	5	Bar63-37.bmp	60	2	?	0r_4g.bmp	0r_4g.bmp	0r_2g.bmp	0r_2g.bmp		0r_4g.bmp			TrialProc	TrialList	0	cvbn	-999999	16	75671	0	v	669	76340	18	-12	6	-6	12	0	0	6	1	5	0	0	0	0	4	4	2	2	0	4
Hungry_Donkey_bar_English_2	128	1	<?xml version="1.0"?>\n<Clock xmlns:dt="urn:schemas-microsoft-com:datatypes"><Description dt:dt="string">E-Prime Primary Realtime Clock</Description><StartTime><Timestamp dt:dt="int">0</Timestamp><DateUtc dt:dt="string">2015-08-20T21:05:04Z</DateUtc></StartTime><FrequencyChanges><FrequencyChange><Frequency dt:dt="r8">3507675</Frequency><Timestamp dt:dt="r8">37648342496</Timestamp><Current dt:dt="r8">0</Current><DateUtc dt:dt="string">2015-08-20T21:05:04Z</DateUtc></FrequencyChange></FrequencyChanges></Clock>\n	Hungry_Donkey_bar_English_2-128-1	60.017	-143	1.0.0.18	1	-1005648185	Standard	2.0.10.353	2.0.10.353	08-20-2015	8/20/2015 9:05:04 PM	17:05:04	2.0.10.248	6	Bar63-37.bmp	65	2	?	0r_4g.bmp	0r_4g.bmp	0r_2g.bmp	0r_2g.bmp		0r_4g.bmp			TrialProc	TrialList	0	cvbn	-999999	16	78370	0	v	370	78740	22	-12	10	-6	16	0	0	9	1	6	0	0	0	0	4	4	2	2	0	4
Hungry_Donkey_bar_English_2	128	1	<?xml version="1.0"?>\n<Clock xmlns:dt="urn:schemas-microsoft-com:datatypes"><Description dt:dt="string">E-Prime Primary Realtime Clock</Description><StartTime><Timestamp dt:dt="int">0</Timestamp><DateUtc dt:dt="string">2015-08-20T21:05:04Z</DateUtc></StartTime><FrequencyChanges><FrequencyChange><Frequency dt:dt="r8">3507675</Frequency><Timestamp dt:dt="r8">37648342496</Timestamp><Current dt:dt="r8">0</Current><DateUtc dt:dt="string">2015-08-20T21:05:04Z</DateUtc></FrequencyChange></FrequencyChanges></Clock>\n	Hungry_Donkey_bar_English_2-128-1	60.017	-143	1.0.0.18	1	-1005648185	Standard	2.0.10.353	2.0.10.353	08-20-2015	8/20/2015 9:05:04 PM	17:05:04	2.0.10.248	7	Bar25-75.bmp	30	2	?	8r_4g.bmp	50r_4g.bmp	1r_2g.bmp	10r_2g.bmp		50r_4g.bmp			TrialProc	TrialList	0	cvbn	-999999	16	80769	0	v	354	81123	26	-62	-36	-6	-30	0	0	1	1	7	-8	-50	-1	-10	4	4	2	2	-50	4
Hungry_Donkey_bar_English_2	128	1	<?xml version="1.0"?>\n<Clock xmlns:dt="urn:schemas-microsoft-com:datatypes"><Description dt:dt="string">E-Prime Primary Realtime Clock</Description><StartTime><Timestamp dt:dt="int">0</Timestamp><DateUtc dt:dt="string">2015-08-20T21:05:04Z</DateUtc></StartTime><FrequencyChanges><FrequencyChange><Frequency dt:dt="r8">3507675</Frequency><Timestamp dt:dt="r8">37648342496</Timestamp><Current dt:dt="r8">0</Current><DateUtc dt:dt="string">2015-08-20T21:05:04Z</DateUtc></FrequencyChange></FrequencyChanges></Clock>\n	Hungry_Donkey_bar_English_2-128-1	60.017	-143	1.0.0.18	1	-1005648185	Standard	2.0.10.353	2.0.10.353	08-20-2015	8/20/2015 9:05:04 PM	17:05:04	2.0.10.248	8	Bar25-75.bmp	31	3	?	0r_4g.bmp	0r_4g.bmp	0r_2g.bmp	0r_2g.bmp			0r_2g.bmp		TrialProc	TrialList	0	cvbn	-999999	16	83152	0	b	1075	84227	28	-62	-34	-6	-30	2	0	7	1	8	0	0	0	0	4	4	2	2	0	2
Hungry_Donkey_bar_English_2	128	1	<?xml version="1.0"?>\n<Clock xmlns:dt="urn:schemas-microsoft-com:datatypes"><Description dt:dt="string">E-Prime Primary Realtime Clock</Description><StartTime><Timestamp dt:dt="int">0</Timestamp><DateUtc dt:dt="string">2015-08-20T21:05:04Z</DateUtc></StartTime><FrequencyChanges><FrequencyChange><Frequency dt:dt="r8">3507675</Frequency><Timestamp dt:dt="r8">37648342496</Timestamp><Current dt:dt="r8">0</Current><DateUtc dt:dt="string">2015-08-20T21:05:04Z</DateUtc></FrequencyChange></FrequencyChanges></Clock>\n	Hungry_Donkey_bar_English_2-128-1	60.017	-143	1.0.0.18	1	-1005648185	Standard	2.0.10.353	2.0.10.353	08-20-2015	8/20/2015 9:05:04 PM	17:05:04	2.0.10.248	9	Bar37-63.bmp	33	3	?	0r_4g.bmp	0r_4g.bmp	0r_2g.bmp	0r_2g.bmp			0r_2g.bmp		TrialProc	TrialList	0	cvbn	-999999	16	86268	0	b	1271	87539	30	-62	-32	-6	-30	4	0	10	1	9	0	0	0	0	4	4	2	2	0	2
Hungry_Donkey_bar_English_2	128	1	<?xml version="1.0"?>\n<Clock xmlns:dt="urn:schemas-microsoft-com:datatypes"><Description dt:dt="string">E-Prime Primary Realtime Clock</Description><StartTime><Timestamp dt:dt="int">0</Timestamp><DateUtc dt:dt="string">2015-08-20T21:05:04Z</DateUtc></StartTime><FrequencyChanges><FrequencyChange><Frequency dt:dt="r8">3507675</Frequency><Timestamp dt:dt="r8">37648342496</Timestamp><Current dt:dt="r8">0</Current><DateUtc dt:dt="string">2015-08-20T21:05:04Z</DateUtc></FrequencyChange></FrequencyChanges></Clock>\n	Hungry_Donkey_bar_English_2-128-1	60.017	-143	1.0.0.18	1	-1005648185	Standard	2.0.10.353	2.0.10.353	08-20-2015	8/20/2015 9:05:04 PM	17:05:04	2.0.10.248	10	Bar37-63.bmp	33	3	?	12r_4g.bmp	0r_4g.bmp	3r_2g.bmp	0r_2g.bmp			3r_2g.bmp		TrialProc	TrialList	0	cvbn	-999999	16	89567	0	b	516	90083	32	-65	-33	-6	-30	3	0	5	1	10	-12	0	-3	0	4	4	2	2	-3	2
Hungry_Donkey_bar_English_2	128	1	<?xml version="1.0"?>\n<Clock xmlns:dt="urn:schemas-microsoft-com:datatypes"><Description dt:dt="string">E-Prime Primary Realtime Clock</Description><StartTime><Timestamp dt:dt="int">0</Timestamp><DateUtc dt:dt="string">2015-08-20T21:05:04Z</DateUtc></StartTime><FrequencyChanges><FrequencyChange><Frequency dt:dt="r8">3507675</Frequency><Timestamp dt:dt="r8">37648342496</Timestamp><Current dt:dt="r8">0</Current><DateUtc dt:dt="string">2015-08-20T21:05:04Z</DateUtc></FrequencyChange></FrequencyChanges></Clock>\n	Hungry_Donkey_bar_English_2-128-1	60.017	-143	1.0.0.18	1	-1005648185	Standard	2.0.10.353	2.0.10.353	08-20-2015	8/20/2015 9:05:04 PM	17:05:04	2.0.10.248	11	Bar37-63.bmp	36	2	?	10r_4g.bmp	0r_4g.bmp	2r_2g.bmp	0r_2g.bmp		0r_4g.bmp			TrialProc	TrialList	0	cvbn	-999999	16	92116	0	v	1135	93251	36	-65	-29	-6	-26	3	0	3	2	11	-10	0	-2	0	4	4	2	2	0	4
Hungry_Donkey_bar_English_2	128	1	<?xml version="1.0"?>\n<Clock xmlns:dt="urn:schemas-microsoft-com:datatypes"><Description dt:dt="string">E-Prime Primary Realtime Clock</Description><StartTime><Timestamp dt:dt="int">0</Timestamp><DateUtc dt:dt="string">2015-08-20T21:05:04Z</DateUtc></StartTime><FrequencyChanges><FrequencyChange><Frequency dt:dt="r8">3507675</Frequency><Timestamp dt:dt="r8">37648342496</Timestamp><Current dt:dt="r8">0</Current><DateUtc dt:dt="string">2015-08-20T21:05:04Z</DateUtc></FrequencyChange></FrequencyChanges></Clock>\n	Hungry_Donkey_bar_English_2-128-1	60.017	-143	1.0.0.18	1	-1005648185	Standard	2.0.10.353	2.0.10.353	08-20-2015	8/20/2015 9:05:04 PM	17:05:04	2.0.10.248	12	Bar37-63.bmp	37	4	?	0r_4g.bmp	0r_4g.bmp	0r_2g.bmp	0r_2g.bmp				0r_2g.bmp	TrialProc	TrialList	0	cvbn	-999999	16	95282	0	n	2449	97731	38	-65	-27	-6	-26	3	2	6	2	12	0	0	0	0	4	4	2	2	0	2
Hungry_Donkey_bar_English_2	128	1	<?xml version="1.0"?>\n<Clock xmlns:dt="urn:schemas-microsoft-com:datatypes"><Description dt:dt="string">E-Prime Primary Realtime Clock</Description><StartTime><Timestamp dt:dt="int">0</Timestamp><DateUtc dt:dt="string">2015-08-20T21:05:04Z</DateUtc></StartTime><FrequencyChanges><FrequencyChange><Frequency dt:dt="r8">3507675</Frequency><Timestamp dt:dt="r8">37648342496</Timestamp><Current dt:dt="r8">0</Current><DateUtc dt:dt="string">2015-08-20T21:05:04Z</DateUtc></FrequencyChange></FrequencyChanges></Clock>\n	Hungry_Donkey_bar_English_2-128-1	60.017	-143	1.0.0.18	1	-1005648185	Standard	2.0.10.353	2.0.10.353	08-20-2015	8/20/2015 9:05:04 PM	17:05:04	2.0.10.248	13	Bar37-63.bmp	35	1	?	12r_4g.bmp	0r_4g.bmp	3r_2g.bmp	0r_2g.bmp	12r_4g.bmp				TrialProc	TrialList	0	cvbn	-999999	16	99764	0	c	1599	101363	42	-77	-35	-14	-26	3	2	5	2	13	-12	0	-3	0	4	4	2	2	-12	4
Hungry_Donkey_bar_English_2	128	1	<?xml version="1.0"?>\n<Clock xmlns:dt="urn:schemas-microsoft-com:datatypes"><Description dt:dt="string">E-Prime Primary Realtime Clock</Description><StartTime><Timestamp dt:dt="int">0</Timestamp><DateUtc dt:dt="string">2015-08-20T21:05:04Z</DateUtc></StartTime><FrequencyChanges><FrequencyChange><Frequency dt:dt="r8">3507675</Frequency><Timestamp dt:dt="r8">37648342496</Timestamp><Current dt:dt="r8">0</Current><DateUtc dt:dt="string">2015-08-20T21:05:04Z</DateUtc></FrequencyChange></FrequencyChanges></Clock>\n	Hungry_Donkey_bar_English_2-128-1	60.017	-143	1.0.0.18	1	-1005648185	Standard	2.0.10.353	2.0.10.353	08-20-2015	8/20/2015 9:05:04 PM	17:05:04	2.0.10.248	14	Bar37-63.bmp	36	3	?	10r_4g.bmp	0r_4g.bmp	2r_2g.bmp	0r_2g.bmp			2r_2g.bmp		TrialProc	TrialList	0	cvbn	-999999	16	103396	0	b	1102	104498	44	-79	-35	-14	-26	3	2	4	2	14	-10	0	-2	0	4	4	2	2	-2	2
Hungry_Donkey_bar_English_2	128	1	<?xml version="1.0"?>\n<Clock xmlns:dt="urn:schemas-microsoft-com:datatypes"><Description dt:dt="string">E-Prime Primary Realtime Clock</Description><StartTime><Timestamp dt:dt="int">0</Timestamp><DateUtc dt:dt="string">2015-08-20T21:05:04Z</DateUtc></StartTime><FrequencyChanges><FrequencyChange><Frequency dt:dt="r8">3507675</Frequency><Timestamp dt:dt="r8">37648342496</Timestamp><Current dt:dt="r8">0</Current><DateUtc dt:dt="string">2015-08-20T21:05:04Z</DateUtc></FrequencyChange></FrequencyChanges></Clock>\n	Hungry_Donkey_bar_English_2-128-1	60.017	-143	1.0.0.18	1	-1005648185	Standard	2.0.10.353	2.0.10.353	08-20-2015	8/20/2015 9:05:04 PM	17:05:04	2.0.10.248	15	Bar37-63.bmp	38	2	?	0r_4g.bmp	0r_4g.bmp	0r_2g.bmp	0r_2g.bmp		0r_4g.bmp			TrialProc	TrialList	0	cvbn	-999999	16	106528	0	v	418	106946	48	-79	-31	-14	-22	3	2	10	2	15	0	0	0	0	4	4	2	2	0	4
Hungry_Donkey_bar_English_2	128	1	<?xml version="1.0"?>\n<Clock xmlns:dt="urn:schemas-microsoft-com:datatypes"><Description dt:dt="string">E-Prime Primary Realtime Clock</Description><StartTime><Timestamp dt:dt="int">0</Timestamp><DateUtc dt:dt="string">2015-08-20T21:05:04Z</DateUtc></StartTime><FrequencyChanges><FrequencyChange><Frequency dt:dt="r8">3507675</Frequency><Timestamp dt:dt="r8">37648342496</Timestamp><Current dt:dt="r8">0</Current><DateUtc dt:dt="string">2015-08-20T21:05:04Z</DateUtc></FrequencyChange></FrequencyChanges></Clock>\n	Hungry_Donkey_bar_English_2-128-1	60.017	-143	1.0.0.18	1	-1005648185	Standard	2.0.10.353	2.0.10.353	08-20-2015	8/20/2015 9:05:04 PM	17:05:04	2.0.10.248	16	Bar37-63.bmp	38	3	?	8r_4g.bmp	50r_4g.bmp	1r_2g.bmp	10r_2g.bmp			1r_2g.bmp		TrialProc	TrialList	0	cvbn	-999999	16	108978	0	b	2544	111522	50	-80	-30	-14	-22	4	2	1	2	16	-8	-50	-1	-10	4	4	2	2	-1	2
Hungry_Donkey_bar_English_2	128	1	<?xml version="1.0"?>\n<Clock xmlns:dt="urn:schemas-microsoft-com:datatypes"><Description dt:dt="string">E-Prime Primary Realtime Clock</Description><StartTime><Timestamp dt:dt="int">0</Timestamp><DateUtc dt:dt="string">2015-08-20T21:05:04Z</DateUtc></StartTime><FrequencyChanges><FrequencyChange><Frequency dt:dt="r8">3507675</Frequency><Timestamp dt:dt="r8">37648342496</Timestamp><Current dt:dt="r8">0</Current><DateUtc dt:dt="string">2015-08-20T21:05:04Z</DateUtc></FrequencyChange></FrequencyChanges></Clock>\n	Hungry_Donkey_bar_English_2-128-1	60.017	-143	1.0.0.18	1	-1005648185	Standard	2.0.10.353	2.0.10.353	08-20-2015	8/20/2015 9:05:04 PM	17:05:04	2.0.10.248	17	Bar37-63.bmp	40	2	?	0r_4g.bmp	0r_4g.bmp	0r_2g.bmp	0r_2g.bmp		0r_4g.bmp			TrialProc	TrialList	0	cvbn	-999999	16	113560	0	v	986	114546	54	-80	-26	-14	-18	4	2	7	2	17	0	0	0	0	4	4	2	2	0	4
Hungry_Donkey_bar_English_2	128	1	<?xml version="1.0"?>\n<Clock xmlns:dt="urn:schemas-microsoft-com:datatypes"><Description dt:dt="string">E-Prime Primary Realtime Clock</Description><StartTime><Timestamp dt:dt="int">0</Timestamp><DateUtc dt:dt="string">2015-08-20T21:05:04Z</DateUtc></StartTime><FrequencyChanges><FrequencyChange><Frequency dt:dt="r8">3507675</Frequency><Timestamp dt:dt="r8">37648342496</Timestamp><Current dt:dt="r8">0</Current><DateUtc dt:dt="string">2015-08-20T21:05:04Z</DateUtc></FrequencyChange></FrequencyChanges></Clock>\n	Hungry_Donkey_bar_English_2-128-1	60.017	-143	1.0.0.18	1	-1005648185	Standard	2.0.10.353	2.0.10.353	08-20-2015	8/20/2015 9:05:04 PM	17:05:04	2.0.10.248	18	Bar37-63.bmp	41	3	?	0r_4g.bmp	0r_4g.bmp	0r_2g.bmp	0r_2g.bmp			0r_2g.bmp		TrialProc	TrialList	0	cvbn	-999999	16	116576	0	b	1154	117730	56	-80	-24	-14	-18	6	2	9	2	18	0	0	0	0	4	4	2	2	0	2
Hungry_Donkey_bar_English_2	128	1	<?xml version="1.0"?>\n<Clock xmlns:dt="urn:schemas-microsoft-com:datatypes"><Description dt:dt="string">E-Prime Primary Realtime Clock</Description><StartTime><Timestamp dt:dt="int">0</Timestamp><DateUtc dt:dt="string">2015-08-20T21:05:04Z</DateUtc></StartTime><FrequencyChanges><FrequencyChange><Frequency dt:dt="r8">3507675</Frequency><Timestamp dt:dt="r8">37648342496</Timestamp><Current dt:dt="r8">0</Current><DateUtc dt:dt="string">2015-08-20T21:05:04Z</DateUtc></FrequencyChange></FrequencyChanges></Clock>\n	Hungry_Donkey_bar_English_2-128-1	60.017	-143	1.0.0.18	1	-1005648185	Standard	2.0.10.353	2.0.10.353	08-20-2015	8/20/2015 9:05:04 PM	17:05:04	2.0.10.248	19	Bar37-63.bmp	43	2	?	10r_4g.bmp	0r_4g.bmp	2r_2g.bmp	0r_2g.bmp		0r_4g.bmp			TrialProc	TrialList	0	cvbn	-999999	16	119758	0	v	724	120482	60	-80	-20	-14	-14	6	2	2	2	19	-10	0	-2	0	4	4	2	2	0	4
Hungry_Donkey_bar_English_2	128	1	<?xml version="1.0"?>\n<Clock xmlns:dt="urn:schemas-microsoft-com:datatypes"><Description dt:dt="string">E-Prime Primary Realtime Clock</Description><StartTime><Timestamp dt:dt="int">0</Timestamp><DateUtc dt:dt="string">2015-08-20T21:05:04Z</DateUtc></StartTime><FrequencyChanges><FrequencyChange><Frequency dt:dt="r8">3507675</Frequency><Timestamp dt:dt="r8">37648342496</Timestamp><Current dt:dt="r8">0</Current><DateUtc dt:dt="string">2015-08-20T21:05:04Z</DateUtc></FrequencyChange></FrequencyChanges></Clock>\n	Hungry_Donkey_bar_English_2-128-1	60.017	-143	1.0.0.18	1	-1005648185	Standard	2.0.10.353	2.0.10.353	08-20-2015	8/20/2015 9:05:04 PM	17:05:04	2.0.10.248	20	Bar50-50.bmp	44	3	?	0r_4g.bmp	0r_4g.bmp	0r_2g.bmp	0r_2g.bmp			0r_2g.bmp		TrialProc	TrialList	0	cvbn	-999999	16	122507	0	b	470	122977	62	-80	-18	-14	-14	8	2	8	2	20	0	0	0	0	4	4	2	2	0	2
Hungry_Donkey_bar_English_2	128	1	<?xml version="1.0"?>\n<Clock xmlns:dt="urn:schemas-microsoft-com:datatypes"><Description dt:dt="string">E-Prime Primary Realtime Clock</Description><StartTime><Timestamp dt:dt="int">0</Timestamp><DateUtc dt:dt="string">2015-08-20T21:05:04Z</DateUtc></StartTime><FrequencyChanges><FrequencyChange><Frequency dt:dt="r8">3507675</Frequency><Timestamp dt:dt="r8">37648342496</Timestamp><Current dt:dt="r8">0</Current><DateUtc dt:dt="string">2015-08-20T21:05:04Z</DateUtc></FrequencyChange></FrequencyChanges></Clock>\n	Hungry_Donkey_bar_English_2-128-1	60.017	-143	1.0.0.18	1	-1005648185	Standard	2.0.10.353	2.0.10.353	08-20-2015	8/20/2015 9:05:04 PM	17:05:04	2.0.10.248	21	Bar50-50.bmp	45	2	?	10r_4g.bmp	0r_4g.bmp	2r_2g.bmp	0r_2g.bmp		0r_4g.bmp			TrialProc	TrialList	0	cvbn	-999999	17	125007	0	v	386	125393	66	-80	-14	-14	-10	8	2	3	3	21	-10	0	-2	0	4	4	2	2	0	4
Hungry_Donkey_bar_English_2	128	1	<?xml version="1.0"?>\n<Clock xmlns:dt="urn:schemas-microsoft-com:datatypes"><Description dt:dt="string">E-Prime Primary Realtime Clock</Description><StartTime><Timestamp dt:dt="int">0</Timestamp><DateUtc dt:dt="string">2015-08-20T21:05:04Z</DateUtc></StartTime><FrequencyChanges><FrequencyChange><Frequency dt:dt="r8">3507675</Frequency><Timestamp dt:dt="r8">37648342496</Timestamp><Current dt:dt="r8">0</Current><DateUtc dt:dt="string">2015-08-20T21:05:04Z</DateUtc></FrequencyChange></FrequencyChanges></Clock>\n	Hungry_Donkey_bar_English_2-128-1	60.017	-143	1.0.0.18	1	-1005648185	Standard	2.0.10.353	2.0.10.353	08-20-2015	8/20/2015 9:05:04 PM	17:05:04	2.0.10.248	22	Bar50-50.bmp	46	3	?	0r_4g.bmp	0r_4g.bmp	0r_2g.bmp	0r_2g.bmp			0r_2g.bmp		TrialProc	TrialList	0	cvbn	-999999	16	127422	0	b	515	127937	68	-80	-12	-14	-10	10	2	10	3	22	0	0	0	0	4	4	2	2	0	2
Hungry_Donkey_bar_English_2	128	1	<?xml version="1.0"?>\n<Clock xmlns:dt="urn:schemas-microsoft-com:datatypes"><Description dt:dt="string">E-Prime Primary Realtime Clock</Description><StartTime><Timestamp dt:dt="int">0</Timestamp><DateUtc dt:dt="string">2015-08-20T21:05:04Z</DateUtc></StartTime><FrequencyChanges><FrequencyChange><Frequency dt:dt="r8">3507675</Frequency><Timestamp dt:dt="r8">37648342496</Timestamp><Current dt:dt="r8">0</Current><DateUtc dt:dt="string">2015-08-20T21:05:04Z</DateUtc></FrequencyChange></FrequencyChanges></Clock>\n	Hungry_Donkey_bar_English_2-128-1	60.017	-143	1.0.0.18	1	-1005648185	Standard	2.0.10.353	2.0.10.353	08-20-2015	8/20/2015 9:05:04 PM	17:05:04	2.0.10.248	23	Bar37-63.bmp	36	2	?	8r_4g.bmp	50r_4g.bmp	1r_2g.bmp	10r_2g.bmp		50r_4g.bmp			TrialProc	TrialList	0	cvbn	-999999	16	129972	0	v	429	130401	72	-130	-58	-14	-56	10	2	1	3	23	-8	-50	-1	-10	4	4	2	2	-50	4
Hungry_Donkey_bar_English_2	128	1	<?xml version="1.0"?>\n<Clock xmlns:dt="urn:schemas-microsoft-com:datatypes"><Description dt:dt="string">E-Prime Primary Realtime Clock</Description><StartTime><Timestamp dt:dt="int">0</Timestamp><DateUtc dt:dt="string">2015-08-20T21:05:04Z</DateUtc></StartTime><FrequencyChanges><FrequencyChange><Frequency dt:dt="r8">3507675</Frequency><Timestamp dt:dt="r8">37648342496</Timestamp><Current dt:dt="r8">0</Current><DateUtc dt:dt="string">2015-08-20T21:05:04Z</DateUtc></FrequencyChange></FrequencyChanges></Clock>\n	Hungry_Donkey_bar_English_2-128-1	60.017	-143	1.0.0.18	1	-1005648185	Standard	2.0.10.353	2.0.10.353	08-20-2015	8/20/2015 9:05:04 PM	17:05:04	2.0.10.248	24	Bar37-63.bmp	36	3	?	0r_4g.bmp	0r_4g.bmp	0r_2g.bmp	0r_2g.bmp			0r_2g.bmp		TrialProc	TrialList	0	cvbn	-999999	16	132438	0	b	955	133393	74	-130	-56	-14	-56	12	2	6	3	24	0	0	0	0	4	4	2	2	0	2
Hungry_Donkey_bar_English_2	128	1	<?xml version="1.0"?>\n<Clock xmlns:dt="urn:schemas-microsoft-com:datatypes"><Description dt:dt="string">E-Prime Primary Realtime Clock</Description><StartTime><Timestamp dt:dt="int">0</Timestamp><DateUtc dt:dt="string">2015-08-20T21:05:04Z</DateUtc></StartTime><FrequencyChanges><FrequencyChange><Frequency dt:dt="r8">3507675</Frequency><Timestamp dt:dt="r8">37648342496</Timestamp><Current dt:dt="r8">0</Current><DateUtc dt:dt="string">2015-08-20T21:05:04Z</DateUtc></FrequencyChange></FrequencyChanges></Clock>\n	Hungry_Donkey_bar_English_2-128-1	60.017	-143	1.0.0.18	1	-1005648185	Standard	2.0.10.353	2.0.10.353	08-20-2015	8/20/2015 9:05:04 PM	17:05:04	2.0.10.248	25	Bar37-63.bmp	37	4	?	0r_4g.bmp	0r_4g.bmp	0r_2g.bmp	0r_2g.bmp				0r_2g.bmp	TrialProc	TrialList	0	cvbn	-999999	16	135420	0	n	933	136353	76	-130	-54	-14	-56	12	4	7	3	25	0	0	0	0	4	4	2	2	0	2
Hungry_Donkey_bar_English_2	128	1	<?xml version="1.0"?>\n<Clock xmlns:dt="urn:schemas-microsoft-com:datatypes"><Description dt:dt="string">E-Prime Primary Realtime Clock</Description><StartTime><Timestamp dt:dt="int">0</Timestamp><DateUtc dt:dt="string">2015-08-20T21:05:04Z</DateUtc></StartTime><FrequencyChanges><FrequencyChange><Frequency dt:dt="r8">3507675</Frequency><Timestamp dt:dt="r8">37648342496</Timestamp><Current dt:dt="r8">0</Current><DateUtc dt:dt="string">2015-08-20T21:05:04Z</DateUtc></FrequencyChange></FrequencyChanges></Clock>\n	Hungry_Donkey_bar_English_2-128-1	60.017	-143	1.0.0.18	1	-1005648185	Standard	2.0.10.353	2.0.10.353	08-20-2015	8/20/2015 9:05:04 PM	17:05:04	2.0.10.248	26	Bar37-63.bmp	38	3	?	0r_4g.bmp	0r_4g.bmp	0r_2g.bmp	0r_2g.bmp			0r_2g.bmp		TrialProc	TrialList	0	cvbn	-999999	16	138386	0	b	511	138897	78	-130	-52	-14	-56	14	4	9	3	26	0	0	0	0	4	4	2	2	0	2
Hungry_Donkey_bar_English_2	128	1	<?xml version="1.0"?>\n<Clock xmlns:dt="urn:schemas-microsoft-com:datatypes"><Description dt:dt="string">E-Prime Primary Realtime Clock</Description><StartTime><Timestamp dt:dt="int">0</Timestamp><DateUtc dt:dt="string">2015-08-20T21:05:04Z</DateUtc></StartTime><FrequencyChanges><FrequencyChange><Frequency dt:dt="r8">3507675</Frequency><Timestamp dt:dt="r8">37648342496</Timestamp><Current dt:dt="r8">0</Current><DateUtc dt:dt="string">2015-08-20T21:05:04Z</DateUtc></FrequencyChange></FrequencyChanges></Clock>\n	Hungry_Donkey_bar_English_2-128-1	60.017	-143	1.0.0.18	1	-1005648185	Standard	2.0.10.353	2.0.10.353	08-20-2015	8/20/2015 9:05:04 PM	17:05:04	2.0.10.248	27	Bar37-63.bmp	38	4	?	10r_4g.bmp	0r_4g.bmp	2r_2g.bmp	0r_2g.bmp				0r_2g.bmp	TrialProc	TrialList	0	cvbn	-999999	16	140935	0	n	458	141393	80	-130	-50	-14	-56	14	6	4	3	27	-10	0	-2	0	4	4	2	2	0	2
Hungry_Donkey_bar_English_2	128	1	<?xml version="1.0"?>\n<Clock xmlns:dt="urn:schemas-microsoft-com:datatypes"><Description dt:dt="string">E-Prime Primary Realtime Clock</Description><StartTime><Timestamp dt:dt="int">0</Timestamp><DateUtc dt:dt="string">2015-08-20T21:05:04Z</DateUtc></StartTime><FrequencyChanges><FrequencyChange><Frequency dt:dt="r8">3507675</Frequency><Timestamp dt:dt="r8">37648342496</Timestamp><Current dt:dt="r8">0</Current><DateUtc dt:dt="string">2015-08-20T21:05:04Z</DateUtc></FrequencyChange></FrequencyChanges></Clock>\n	Hungry_Donkey_bar_English_2-128-1	60.017	-143	1.0.0.18	1	-1005648185	Standard	2.0.10.353	2.0.10.353	08-20-2015	8/20/2015 9:05:04 PM	17:05:04	2.0.10.248	28	Bar37-63.bmp	38	3	?	12r_4g.bmp	0r_4g.bmp	3r_2g.bmp	0r_2g.bmp			3r_2g.bmp		TrialProc	TrialList	0	cvbn	-999999	16	143418	0	b	438	143856	82	-133	-51	-14	-56	13	6	5	3	28	-12	0	-3	0	4	4	2	2	-3	2
Hungry_Donkey_bar_English_2	128	1	<?xml version="1.0"?>\n<Clock xmlns:dt="urn:schemas-microsoft-com:datatypes"><Description dt:dt="string">E-Prime Primary Realtime Clock</Description><StartTime><Timestamp dt:dt="int">0</Timestamp><DateUtc dt:dt="string">2015-08-20T21:05:04Z</DateUtc></StartTime><FrequencyChanges><FrequencyChange><Frequency dt:dt="r8">3507675</Frequency><Timestamp dt:dt="r8">37648342496</Timestamp><Current dt:dt="r8">0</Current><DateUtc dt:dt="string">2015-08-20T21:05:04Z</DateUtc></FrequencyChange></FrequencyChanges></Clock>\n	Hungry_Donkey_bar_English_2-128-1	60.017	-143	1.0.0.18	1	-1005648185	Standard	2.0.10.353	2.0.10.353	08-20-2015	8/20/2015 9:05:04 PM	17:05:04	2.0.10.248	29	Bar37-63.bmp	39	4	?	10r_4g.bmp	0r_4g.bmp	2r_2g.bmp	0r_2g.bmp				0r_2g.bmp	TrialProc	TrialList	0	cvbn	-999999	16	145884	0	n	484	146368	84	-133	-49	-14	-56	13	8	2	3	29	-10	0	-2	0	4	4	2	2	0	2
Hungry_Donkey_bar_English_2	128	1	<?xml version="1.0"?>\n<Clock xmlns:dt="urn:schemas-microsoft-com:datatypes"><Description dt:dt="string">E-Prime Primary Realtime Clock</Description><StartTime><Timestamp dt:dt="int">0</Timestamp><DateUtc dt:dt="string">2015-08-20T21:05:04Z</DateUtc></StartTime><FrequencyChanges><FrequencyChange><Frequency dt:dt="r8">3507675</Frequency><Timestamp dt:dt="r8">37648342496</Timestamp><Current dt:dt="r8">0</Current><DateUtc dt:dt="string">2015-08-20T21:05:04Z</DateUtc></FrequencyChange></FrequencyChanges></Clock>\n	Hungry_Donkey_bar_English_2-128-1	60.017	-143	1.0.0.18	1	-1005648185	Standard	2.0.10.353	2.0.10.353	08-20-2015	8/20/2015 9:05:04 PM	17:05:04	2.0.10.248	30	Bar37-63.bmp	40	1	?	0r_4g.bmp	0r_4g.bmp	0r_2g.bmp	0r_2g.bmp	0r_4g.bmp				TrialProc	TrialList	0	cvbn	-999999	16	148400	0	c	1536	149936	88	-133	-45	-10	-56	13	8	8	3	30	0	0	0	0	4	4	2	2	0	4
Hungry_Donkey_bar_English_2	128	1	<?xml version="1.0"?>\n<Clock xmlns:dt="urn:schemas-microsoft-com:datatypes"><Description dt:dt="string">E-Prime Primary Realtime Clock</Description><StartTime><Timestamp dt:dt="int">0</Timestamp><DateUtc dt:dt="string">2015-08-20T21:05:04Z</DateUtc></StartTime><FrequencyChanges><FrequencyChange><Frequency dt:dt="r8">3507675</Frequency><Timestamp dt:dt="r8">37648342496</Timestamp><Current dt:dt="r8">0</Current><DateUtc dt:dt="string">2015-08-20T21:05:04Z</DateUtc></FrequencyChange></FrequencyChanges></Clock>\n	Hungry_Donkey_bar_English_2-128-1	60.017	-143	1.0.0.18	1	-1005648185	Standard	2.0.10.353	2.0.10.353	08-20-2015	8/20/2015 9:05:04 PM	17:05:04	2.0.10.248	31	Bar37-63.bmp	41	2	?	10r_4g.bmp	0r_4g.bmp	2r_2g.bmp	0r_2g.bmp		0r_4g.bmp			TrialProc	TrialList	0	cvbn	-999999	16	151965	0	v	355	152320	92	-133	-41	-10	-52	13	8	4	4	31	-10	0	-2	0	4	4	2	2	0	4
Hungry_Donkey_bar_English_2	128	1	<?xml version="1.0"?>\n<Clock xmlns:dt="urn:schemas-microsoft-com:datatypes"><Description dt:dt="string">E-Prime Primary Realtime Clock</Description><StartTime><Timestamp dt:dt="int">0</Timestamp><DateUtc dt:dt="string">2015-08-20T21:05:04Z</DateUtc></StartTime><FrequencyChanges><FrequencyChange><Frequency dt:dt="r8">3507675</Frequency><Timestamp dt:dt="r8">37648342496</Timestamp><Current dt:dt="r8">0</Current><DateUtc dt:dt="string">2015-08-20T21:05:04Z</DateUtc></FrequencyChange></FrequencyChanges></Clock>\n	Hungry_Donkey_bar_English_2-128-1	60.017	-143	1.0.0.18	1	-1005648185	Standard	2.0.10.353	2.0.10.353	08-20-2015	8/20/2015 9:05:04 PM	17:05:04	2.0.10.248	32	Bar37-63.bmp	40	1	?	12r_4g.bmp	0r_4g.bmp	3r_2g.bmp	0r_2g.bmp	12r_4g.bmp				TrialProc	TrialList	0	cvbn	-999999	16	154348	0	c	356	154704	96	-145	-49	-18	-52	13	8	5	4	32	-12	0	-3	0	4	4	2	2	-12	4
Hungry_Donkey_bar_English_2	128	1	<?xml version="1.0"?>\n<Clock xmlns:dt="urn:schemas-microsoft-com:datatypes"><Description dt:dt="string">E-Prime Primary Realtime Clock</Description><StartTime><Timestamp dt:dt="int">0</Timestamp><DateUtc dt:dt="string">2015-08-20T21:05:04Z</DateUtc></StartTime><FrequencyChanges><FrequencyChange><Frequency dt:dt="r8">3507675</Frequency><Timestamp dt:dt="r8">37648342496</Timestamp><Current dt:dt="r8">0</Current><DateUtc dt:dt="string">2015-08-20T21:05:04Z</DateUtc></FrequencyChange></FrequencyChanges></Clock>\n	Hungry_Donkey_bar_English_2-128-1	60.017	-143	1.0.0.18	1	-1005648185	Standard	2.0.10.353	2.0.10.353	08-20-2015	8/20/2015 9:05:04 PM	17:05:04	2.0.10.248	33	Bar37-63.bmp	41	2	?	0r_4g.bmp	0r_4g.bmp	0r_2g.bmp	0r_2g.bmp		0r_4g.bmp			TrialProc	TrialList	0	cvbn	-999999	16	156747	0	v	629	157376	100	-145	-45	-18	-48	13	8	9	4	33	0	0	0	0	4	4	2	2	0	4
Hungry_Donkey_bar_English_2	128	1	<?xml version="1.0"?>\n<Clock xmlns:dt="urn:schemas-microsoft-com:datatypes"><Description dt:dt="string">E-Prime Primary Realtime Clock</Description><StartTime><Timestamp dt:dt="int">0</Timestamp><DateUtc dt:dt="string">2015-08-20T21:05:04Z</DateUtc></StartTime><FrequencyChanges><FrequencyChange><Frequency dt:dt="r8">3507675</Frequency><Timestamp dt:dt="r8">37648342496</Timestamp><Current dt:dt="r8">0</Current><DateUtc dt:dt="string">2015-08-20T21:05:04Z</DateUtc></FrequencyChange></FrequencyChanges></Clock>\n	Hungry_Donkey_bar_English_2-128-1	60.017	-143	1.0.0.18	1	-1005648185	Standard	2.0.10.353	2.0.10.353	08-20-2015	8/20/2015 9:05:04 PM	17:05:04	2.0.10.248	34	Bar37-63.bmp	41	4	?	0r_4g.bmp	0r_4g.bmp	0r_2g.bmp	0r_2g.bmp				0r_2g.bmp	TrialProc	TrialList	0	cvbn	-999999	16	159413	0	n	1515	160928	102	-145	-43	-18	-48	13	10	6	4	34	0	0	0	0	4	4	2	2	0	2
Hungry_Donkey_bar_English_2	128	1	<?xml version="1.0"?>\n<Clock xmlns:dt="urn:schemas-microsoft-com:datatypes"><Description dt:dt="string">E-Prime Primary Realtime Clock</Description><StartTime><Timestamp dt:dt="int">0</Timestamp><DateUtc dt:dt="string">2015-08-20T21:05:04Z</DateUtc></StartTime><FrequencyChanges><FrequencyChange><Frequency dt:dt="r8">3507675</Frequency><Timestamp dt:dt="r8">37648342496</Timestamp><Current dt:dt="r8">0</Current><DateUtc dt:dt="string">2015-08-20T21:05:04Z</DateUtc></FrequencyChange></FrequencyChanges></Clock>\n	Hungry_Donkey_bar_English_2-128-1	60.017	-143	1.0.0.18	1	-1005648185	Standard	2.0.10.353	2.0.10.353	08-20-2015	8/20/2015 9:05:04 PM	17:05:04	2.0.10.248	35	Bar37-63.bmp	42	2	?	0r_4g.bmp	0r_4g.bmp	0r_2g.bmp	0r_2g.bmp		0r_4g.bmp			TrialProc	TrialList	0	cvbn	-999999	16	162962	0	v	462	163424	106	-145	-39	-18	-44	13	10	10	4	35	0	0	0	0	4	4	2	2	0	4
Hungry_Donkey_bar_English_2	128	1	<?xml version="1.0"?>\n<Clock xmlns:dt="urn:schemas-microsoft-com:datatypes"><Description dt:dt="string">E-Prime Primary Realtime Clock</Description><StartTime><Timestamp dt:dt="int">0</Timestamp><DateUtc dt:dt="string">2015-08-20T21:05:04Z</DateUtc></StartTime><FrequencyChanges><FrequencyChange><Frequency dt:dt="r8">3507675</Frequency><Timestamp dt:dt="r8">37648342496</Timestamp><Current dt:dt="r8">0</Current><DateUtc dt:dt="string">2015-08-20T21:05:04Z</DateUtc></FrequencyChange></FrequencyChanges></Clock>\n	Hungry_Donkey_bar_English_2-128-1	60.017	-143	1.0.0.18	1	-1005648185	Standard	2.0.10.353	2.0.10.353	08-20-2015	8/20/2015 9:05:04 PM	17:05:04	2.0.10.248	36	Bar37-63.bmp	41	4	?	8r_4g.bmp	50r_4g.bmp	1r_2g.bmp	10r_2g.bmp				10r_2g.bmp	TrialProc	TrialList	0	cvbn	-999999	16	165462	0	n	313	165775	108	-155	-47	-18	-44	13	2	1	4	36	-8	-50	-1	-10	4	4	2	2	-10	2
Hungry_Donkey_bar_English_2	128	1	<?xml version="1.0"?>\n<Clock xmlns:dt="urn:schemas-microsoft-com:datatypes"><Description dt:dt="string">E-Prime Primary Realtime Clock</Description><StartTime><Timestamp dt:dt="int">0</Timestamp><DateUtc dt:dt="string">2015-08-20T21:05:04Z</DateUtc></StartTime><FrequencyChanges><FrequencyChange><Frequency dt:dt="r8">3507675</Frequency><Timestamp dt:dt="r8">37648342496</Timestamp><Current dt:dt="r8">0</Current><DateUtc dt:dt="string">2015-08-20T21:05:04Z</DateUtc></FrequencyChange></FrequencyChanges></Clock>\n	Hungry_Donkey_bar_English_2-128-1	60.017	-143	1.0.0.18	1	-1005648185	Standard	2.0.10.353	2.0.10.353	08-20-2015	8/20/2015 9:05:04 PM	17:05:04	2.0.10.248	37	Bar37-63.bmp	42	2	?	10r_4g.bmp	0r_4g.bmp	2r_2g.bmp	0r_2g.bmp		0r_4g.bmp			TrialProc	TrialList	0	cvbn	-999999	16	167811	0	v	908	168719	112	-155	-43	-18	-40	13	2	3	4	37	-10	0	-2	0	4	4	2	2	0	4
Hungry_Donkey_bar_English_2	128	1	<?xml version="1.0"?>\n<Clock xmlns:dt="urn:schemas-microsoft-com:datatypes"><Description dt:dt="string">E-Prime Primary Realtime Clock</Description><StartTime><Timestamp dt:dt="int">0</Timestamp><DateUtc dt:dt="string">2015-08-20T21:05:04Z</DateUtc></StartTime><FrequencyChanges><FrequencyChange><Frequency dt:dt="r8">3507675</Frequency><Timestamp dt:dt="r8">37648342496</Timestamp><Current dt:dt="r8">0</Current><DateUtc dt:dt="string">2015-08-20T21:05:04Z</DateUtc></FrequencyChange></FrequencyChanges></Clock>\n	Hungry_Donkey_bar_English_2-128-1	60.017	-143	1.0.0.18	1	-1005648185	Standard	2.0.10.353	2.0.10.353	08-20-2015	8/20/2015 9:05:04 PM	17:05:04	2.0.10.248	38	Bar37-63.bmp	42	3	?	0r_4g.bmp	0r_4g.bmp	0r_2g.bmp	0r_2g.bmp			0r_2g.bmp		TrialProc	TrialList	0	cvbn	-999999	15	170743	0	b	344	171087	114	-155	-41	-18	-40	15	2	8	4	38	0	0	0	0	4	4	2	2	0	2
Hungry_Donkey_bar_English_2	128	1	<?xml version="1.0"?>\n<Clock xmlns:dt="urn:schemas-microsoft-com:datatypes"><Description dt:dt="string">E-Prime Primary Realtime Clock</Description><StartTime><Timestamp dt:dt="int">0</Timestamp><DateUtc dt:dt="string">2015-08-20T21:05:04Z</DateUtc></StartTime><FrequencyChanges><FrequencyChange><Frequency dt:dt="r8">3507675</Frequency><Timestamp dt:dt="r8">37648342496</Timestamp><Current dt:dt="r8">0</Current><DateUtc dt:dt="string">2015-08-20T21:05:04Z</DateUtc></FrequencyChange></FrequencyChanges></Clock>\n	Hungry_Donkey_bar_English_2-128-1	60.017	-143	1.0.0.18	1	-1005648185	Standard	2.0.10.353	2.0.10.353	08-20-2015	8/20/2015 9:05:04 PM	17:05:04	2.0.10.248	39	Bar37-63.bmp	43	2	?	10r_4g.bmp	0r_4g.bmp	2r_2g.bmp	0r_2g.bmp		0r_4g.bmp			TrialProc	TrialList	0	cvbn	-999999	16	173126	0	v	377	173503	118	-155	-37	-18	-36	15	2	2	4	39	-10	0	-2	0	4	4	2	2	0	4
Hungry_Donkey_bar_English_2	128	1	<?xml version="1.0"?>\n<Clock xmlns:dt="urn:schemas-microsoft-com:datatypes"><Description dt:dt="string">E-Prime Primary Realtime Clock</Description><StartTime><Timestamp dt:dt="int">0</Timestamp><DateUtc dt:dt="string">2015-08-20T21:05:04Z</DateUtc></StartTime><FrequencyChanges><FrequencyChange><Frequency dt:dt="r8">3507675</Frequency><Timestamp dt:dt="r8">37648342496</Timestamp><Current dt:dt="r8">0</Current><DateUtc dt:dt="string">2015-08-20T21:05:04Z</DateUtc></FrequencyChange></FrequencyChanges></Clock>\n	Hungry_Donkey_bar_English_2-128-1	60.017	-143	1.0.0.18	1	-1005648185	Standard	2.0.10.353	2.0.10.353	08-20-2015	8/20/2015 9:05:04 PM	17:05:04	2.0.10.248	40	Bar50-50.bmp	44	3	?	0r_4g.bmp	0r_4g.bmp	0r_2g.bmp	0r_2g.bmp			0r_2g.bmp		TrialProc	TrialList	0	cvbn	-999999	16	175542	0	b	425	175967	120	-155	-35	-18	-36	17	2	7	4	40	0	0	0	0	4	4	2	2	0	2
Hungry_Donkey_bar_English_2	128	1	<?xml version="1.0"?>\n<Clock xmlns:dt="urn:schemas-microsoft-com:datatypes"><Description dt:dt="string">E-Prime Primary Realtime Clock</Description><StartTime><Timestamp dt:dt="int">0</Timestamp><DateUtc dt:dt="string">2015-08-20T21:05:04Z</DateUtc></StartTime><FrequencyChanges><FrequencyChange><Frequency dt:dt="r8">3507675</Frequency><Timestamp dt:dt="r8">37648342496</Timestamp><Current dt:dt="r8">0</Current><DateUtc dt:dt="string">2015-08-20T21:05:04Z</DateUtc></FrequencyChange></FrequencyChanges></Clock>\n	Hungry_Donkey_bar_English_2-128-1	60.017	-143	1.0.0.18	1	-1005648185	Standard	2.0.10.353	2.0.10.353	08-20-2015	8/20/2015 9:05:04 PM	17:05:04	2.0.10.248	41	Bar50-50.bmp	44	2	?	0r_4g.bmp	0r_4g.bmp	0r_2g.bmp	0r_2g.bmp		0r_4g.bmp			TrialProc	TrialList	0	cvbn	-999999	16	177991	0	v	408	178399	124	-155	-31	-18	-32	17	2	7	5	41	0	0	0	0	4	4	2	2	0	4
Hungry_Donkey_bar_English_2	128	1	<?xml version="1.0"?>\n<Clock xmlns:dt="urn:schemas-microsoft-com:datatypes"><Description dt:dt="string">E-Prime Primary Realtime Clock</Description><StartTime><Timestamp dt:dt="int">0</Timestamp><DateUtc dt:dt="string">2015-08-20T21:05:04Z</DateUtc></StartTime><FrequencyChanges><FrequencyChange><Frequency dt:dt="r8">3507675</Frequency><Timestamp dt:dt="r8">37648342496</Timestamp><Current dt:dt="r8">0</Current><DateUtc dt:dt="string">2015-08-20T21:05:04Z</DateUtc></FrequencyChange></FrequencyChanges></Clock>\n	Hungry_Donkey_bar_English_2-128-1	60.017	-143	1.0.0.18	1	-1005648185	Standard	2.0.10.353	2.0.10.353	08-20-2015	8/20/2015 9:05:04 PM	17:05:04	2.0.10.248	42	Bar50-50.bmp	45	3	?	0r_4g.bmp	0r_4g.bmp	0r_2g.bmp	0r_2g.bmp			0r_2g.bmp		TrialProc	TrialList	0	cvbn	-999999	16	180424	0	b	391	180815	126	-155	-29	-18	-32	19	2	10	5	42	0	0	0	0	4	4	2	2	0	2
Hungry_Donkey_bar_English_2	128	1	<?xml version="1.0"?>\n<Clock xmlns:dt="urn:schemas-microsoft-com:datatypes"><Description dt:dt="string">E-Prime Primary Realtime Clock</Description><StartTime><Timestamp dt:dt="int">0</Timestamp><DateUtc dt:dt="string">2015-08-20T21:05:04Z</DateUtc></StartTime><FrequencyChanges><FrequencyChange><Frequency dt:dt="r8">3507675</Frequency><Timestamp dt:dt="r8">37648342496</Timestamp><Current dt:dt="r8">0</Current><DateUtc dt:dt="string">2015-08-20T21:05:04Z</DateUtc></FrequencyChange></FrequencyChanges></Clock>\n	Hungry_Donkey_bar_English_2-128-1	60.017	-143	1.0.0.18	1	-1005648185	Standard	2.0.10.353	2.0.10.353	08-20-2015	8/20/2015 9:05:04 PM	17:05:04	2.0.10.248	43	Bar50-50.bmp	46	2	?	0r_4g.bmp	0r_4g.bmp	0r_2g.bmp	0r_2g.bmp		0r_4g.bmp			TrialProc	TrialList	0	cvbn	-999999	16	182840	0	v	487	183327	130	-155	-25	-18	-28	19	2	8	5	43	0	0	0	0	4	4	2	2	0	4
Hungry_Donkey_bar_English_2	128	1	<?xml version="1.0"?>\n<Clock xmlns:dt="urn:schemas-microsoft-com:datatypes"><Description dt:dt="string">E-Prime Primary Realtime Clock</Description><StartTime><Timestamp dt:dt="int">0</Timestamp><DateUtc dt:dt="string">2015-08-20T21:05:04Z</DateUtc></StartTime><FrequencyChanges><FrequencyChange><Frequency dt:dt="r8">3507675</Frequency><Timestamp dt:dt="r8">37648342496</Timestamp><Current dt:dt="r8">0</Current><DateUtc dt:dt="string">2015-08-20T21:05:04Z</DateUtc></FrequencyChange></FrequencyChanges></Clock>\n	Hungry_Donkey_bar_English_2-128-1	60.017	-143	1.0.0.18	1	-1005648185	Standard	2.0.10.353	2.0.10.353	08-20-2015	8/20/2015 9:05:04 PM	17:05:04	2.0.10.248	44	Bar50-50.bmp	46	3	?	10r_4g.bmp	0r_4g.bmp	2r_2g.bmp	0r_2g.bmp			2r_2g.bmp		TrialProc	TrialList	0	cvbn	-999999	16	185356	0	b	402	185758	132	-157	-25	-18	-28	19	2	2	5	44	-10	0	-2	0	4	4	2	2	-2	2
Hungry_Donkey_bar_English_2	128	1	<?xml version="1.0"?>\n<Clock xmlns:dt="urn:schemas-microsoft-com:datatypes"><Description dt:dt="string">E-Prime Primary Realtime Clock</Description><StartTime><Timestamp dt:dt="int">0</Timestamp><DateUtc dt:dt="string">2015-08-20T21:05:04Z</DateUtc></StartTime><FrequencyChanges><FrequencyChange><Frequency dt:dt="r8">3507675</Frequency><Timestamp dt:dt="r8">37648342496</Timestamp><Current dt:dt="r8">0</Current><DateUtc dt:dt="string">2015-08-20T21:05:04Z</DateUtc></FrequencyChange></FrequencyChanges></Clock>\n	Hungry_Donkey_bar_English_2-128-1	60.017	-143	1.0.0.18	1	-1005648185	Standard	2.0.10.353	2.0.10.353	08-20-2015	8/20/2015 9:05:04 PM	17:05:04	2.0.10.248	45	Bar50-50.bmp	46	2	?	10r_4g.bmp	0r_4g.bmp	2r_2g.bmp	0r_2g.bmp		0r_4g.bmp			TrialProc	TrialList	0	cvbn	-999999	17	187789	0	v	369	188158	136	-157	-21	-18	-24	19	2	3	5	45	-10	0	-2	0	4	4	2	2	0	4
Hungry_Donkey_bar_English_2	128	1	<?xml version="1.0"?>\n<Clock xmlns:dt="urn:schemas-microsoft-com:datatypes"><Description dt:dt="string">E-Prime Primary Realtime Clock</Description><StartTime><Timestamp dt:dt="int">0</Timestamp><DateUtc dt:dt="string">2015-08-20T21:05:04Z</DateUtc></StartTime><FrequencyChanges><FrequencyChange><Frequency dt:dt="r8">3507675</Frequency><Timestamp dt:dt="r8">37648342496</Timestamp><Current dt:dt="r8">0</Current><DateUtc dt:dt="string">2015-08-20T21:05:04Z</DateUtc></FrequencyChange></FrequencyChanges></Clock>\n	Hungry_Donkey_bar_English_2-128-1	60.017	-143	1.0.0.18	1	-1005648185	Standard	2.0.10.353	2.0.10.353	08-20-2015	8/20/2015 9:05:04 PM	17:05:04	2.0.10.248	46	Bar50-50.bmp	47	2	?	0r_4g.bmp	0r_4g.bmp	0r_2g.bmp	0r_2g.bmp		0r_4g.bmp			TrialProc	TrialList	0	cvbn	-999999	16	190188	0	v	626	190814	140	-157	-17	-18	-20	19	2	6	5	46	0	0	0	0	4	4	2	2	0	4
Hungry_Donkey_bar_English_2	128	1	<?xml version="1.0"?>\n<Clock xmlns:dt="urn:schemas-microsoft-com:datatypes"><Description dt:dt="string">E-Prime Primary Realtime Clock</Description><StartTime><Timestamp dt:dt="int">0</Timestamp><DateUtc dt:dt="string">2015-08-20T21:05:04Z</DateUtc></StartTime><FrequencyChanges><FrequencyChange><Frequency dt:dt="r8">3507675</Frequency><Timestamp dt:dt="r8">37648342496</Timestamp><Current dt:dt="r8">0</Current><DateUtc dt:dt="string">2015-08-20T21:05:04Z</DateUtc></FrequencyChange></FrequencyChanges></Clock>\n	Hungry_Donkey_bar_English_2-128-1	60.017	-143	1.0.0.18	1	-1005648185	Standard	2.0.10.353	2.0.10.353	08-20-2015	8/20/2015 9:05:04 PM	17:05:04	2.0.10.248	47	Bar50-50.bmp	48	2	?	10r_4g.bmp	0r_4g.bmp	2r_2g.bmp	0r_2g.bmp		0r_4g.bmp			TrialProc	TrialList	0	cvbn	-999999	16	192854	0	v	360	193214	144	-157	-13	-18	-16	19	2	4	5	47	-10	0	-2	0	4	4	2	2	0	4
Hungry_Donkey_bar_English_2	128	1	<?xml version="1.0"?>\n<Clock xmlns:dt="urn:schemas-microsoft-com:datatypes"><Description dt:dt="string">E-Prime Primary Realtime Clock</Description><StartTime><Timestamp dt:dt="int">0</Timestamp><DateUtc dt:dt="string">2015-08-20T21:05:04Z</DateUtc></StartTime><FrequencyChanges><FrequencyChange><Frequency dt:dt="r8">3507675</Frequency><Timestamp dt:dt="r8">37648342496</Timestamp><Current dt:dt="r8">0</Current><DateUtc dt:dt="string">2015-08-20T21:05:04Z</DateUtc></FrequencyChange></FrequencyChanges></Clock>\n	Hungry_Donkey_bar_English_2-128-1	60.017	-143	1.0.0.18	1	-1005648185	Standard	2.0.10.353	2.0.10.353	08-20-2015	8/20/2015 9:05:04 PM	17:05:04	2.0.10.248	48	Bar50-50.bmp	49	2	?	0r_4g.bmp	0r_4g.bmp	0r_2g.bmp	0r_2g.bmp		0r_4g.bmp			TrialProc	TrialList	0	cvbn	-999999	16	195253	0	v	361	195614	148	-157	-9	-18	-12	19	2	9	5	48	0	0	0	0	4	4	2	2	0	4
Hungry_Donkey_bar_English_2	128	1	<?xml version="1.0"?>\n<Clock xmlns:dt="urn:schemas-microsoft-com:datatypes"><Description dt:dt="string">E-Prime Primary Realtime Clock</Description><StartTime><Timestamp dt:dt="int">0</Timestamp><DateUtc dt:dt="string">2015-08-20T21:05:04Z</DateUtc></StartTime><FrequencyChanges><FrequencyChange><Frequency dt:dt="r8">3507675</Frequency><Timestamp dt:dt="r8">37648342496</Timestamp><Current dt:dt="r8">0</Current><DateUtc dt:dt="string">2015-08-20T21:05:04Z</DateUtc></FrequencyChange></FrequencyChanges></Clock>\n	Hungry_Donkey_bar_English_2-128-1	60.017	-143	1.0.0.18	1	-1005648185	Standard	2.0.10.353	2.0.10.353	08-20-2015	8/20/2015 9:05:04 PM	17:05:04	2.0.10.248	49	Bar50-50.bmp	49	2	?	12r_4g.bmp	0r_4g.bmp	3r_2g.bmp	0r_2g.bmp		0r_4g.bmp			TrialProc	TrialList	0	cvbn	-999999	16	197652	0	v	346	197998	152	-157	-5	-18	-8	19	2	5	5	49	-12	0	-3	0	4	4	2	2	0	4
Hungry_Donkey_bar_English_2	128	1	<?xml version="1.0"?>\n<Clock xmlns:dt="urn:schemas-microsoft-com:datatypes"><Description dt:dt="string">E-Prime Primary Realtime Clock</Description><StartTime><Timestamp dt:dt="int">0</Timestamp><DateUtc dt:dt="string">2015-08-20T21:05:04Z</DateUtc></StartTime><FrequencyChanges><FrequencyChange><Frequency dt:dt="r8">3507675</Frequency><Timestamp dt:dt="r8">37648342496</Timestamp><Current dt:dt="r8">0</Current><DateUtc dt:dt="string">2015-08-20T21:05:04Z</DateUtc></FrequencyChange></FrequencyChanges></Clock>\n	Hungry_Donkey_bar_English_2-128-1	60.017	-143	1.0.0.18	1	-1005648185	Standard	2.0.10.353	2.0.10.353	08-20-2015	8/20/2015 9:05:04 PM	17:05:04	2.0.10.248	50	Bar50-50.bmp	48	4	?	8r_4g.bmp	50r_4g.bmp	1r_2g.bmp	10r_2g.bmp				10r_2g.bmp	TrialProc	TrialList	0	cvbn	-999999	16	200035	0	n	411	200446	154	-167	-13	-18	-8	19	-6	1	5	50	-8	-50	-1	-10	4	4	2	2	-10	2
Hungry_Donkey_bar_English_2	128	1	<?xml version="1.0"?>\n<Clock xmlns:dt="urn:schemas-microsoft-com:datatypes"><Description dt:dt="string">E-Prime Primary Realtime Clock</Description><StartTime><Timestamp dt:dt="int">0</Timestamp><DateUtc dt:dt="string">2015-08-20T21:05:04Z</DateUtc></StartTime><FrequencyChanges><FrequencyChange><Frequency dt:dt="r8">3507675</Frequency><Timestamp dt:dt="r8">37648342496</Timestamp><Current dt:dt="r8">0</Current><DateUtc dt:dt="string">2015-08-20T21:05:04Z</DateUtc></FrequencyChange></FrequencyChanges></Clock>\n	Hungry_Donkey_bar_English_2-128-1	60.017	-143	1.0.0.18	1	-1005648185	Standard	2.0.10.353	2.0.10.353	08-20-2015	8/20/2015 9:05:04 PM	17:05:04	2.0.10.248	51	Bar50-50.bmp	49	2	?	0r_4g.bmp	0r_4g.bmp	0r_2g.bmp	0r_2g.bmp		0r_4g.bmp			TrialProc	TrialList	0	cvbn	-999999	16	202484	0	v	314	202798	158	-167	-9	-18	-4	19	-6	10	6	51	0	0	0	0	4	4	2	2	0	4
Hungry_Donkey_bar_English_2	128	1	<?xml version="1.0"?>\n<Clock xmlns:dt="urn:schemas-microsoft-com:datatypes"><Description dt:dt="string">E-Prime Primary Realtime Clock</Description><StartTime><Timestamp dt:dt="int">0</Timestamp><DateUtc dt:dt="string">2015-08-20T21:05:04Z</DateUtc></StartTime><FrequencyChanges><FrequencyChange><Frequency dt:dt="r8">3507675</Frequency><Timestamp dt:dt="r8">37648342496</Timestamp><Current dt:dt="r8">0</Current><DateUtc dt:dt="string">2015-08-20T21:05:04Z</DateUtc></FrequencyChange></FrequencyChanges></Clock>\n	Hungry_Donkey_bar_English_2-128-1	60.017	-143	1.0.0.18	1	-1005648185	Standard	2.0.10.353	2.0.10.353	08-20-2015	8/20/2015 9:05:04 PM	17:05:04	2.0.10.248	52	Bar50-50.bmp	49	2	?	0r_4g.bmp	0r_4g.bmp	0r_2g.bmp	0r_2g.bmp		0r_4g.bmp			TrialProc	TrialList	0	cvbn	-999999	16	204834	0	v	444	205278	162	-167	-5	-18	0	19	-6	7	6	52	0	0	0	0	4	4	2	2	0	4
Hungry_Donkey_bar_English_2	128	1	<?xml version="1.0"?>\n<Clock xmlns:dt="urn:schemas-microsoft-com:datatypes"><Description dt:dt="string">E-Prime Primary Realtime Clock</Description><StartTime><Timestamp dt:dt="int">0</Timestamp><DateUtc dt:dt="string">2015-08-20T21:05:04Z</DateUtc></StartTime><FrequencyChanges><FrequencyChange><Frequency dt:dt="r8">3507675</Frequency><Timestamp dt:dt="r8">37648342496</Timestamp><Current dt:dt="r8">0</Current><DateUtc dt:dt="string">2015-08-20T21:05:04Z</DateUtc></FrequencyChange></FrequencyChanges></Clock>\n	Hungry_Donkey_bar_English_2-128-1	60.017	-143	1.0.0.18	1	-1005648185	Standard	2.0.10.353	2.0.10.353	08-20-2015	8/20/2015 9:05:04 PM	17:05:04	2.0.10.248	53	Bar50-50.bmp	50	2	?	10r_4g.bmp	0r_4g.bmp	2r_2g.bmp	0r_2g.bmp		0r_4g.bmp			TrialProc	TrialList	0	cvbn	-999999	16	207316	0	v	361	207677	166	-167	-1	-18	4	19	-6	4	6	53	-10	0	-2	0	4	4	2	2	0	4
Hungry_Donkey_bar_English_2	128	1	<?xml version="1.0"?>\n<Clock xmlns:dt="urn:schemas-microsoft-com:datatypes"><Description dt:dt="string">E-Prime Primary Realtime Clock</Description><StartTime><Timestamp dt:dt="int">0</Timestamp><DateUtc dt:dt="string">2015-08-20T21:05:04Z</DateUtc></StartTime><FrequencyChanges><FrequencyChange><Frequency dt:dt="r8">3507675</Frequency><Timestamp dt:dt="r8">37648342496</Timestamp><Current dt:dt="r8">0</Current><DateUtc dt:dt="string">2015-08-20T21:05:04Z</DateUtc></FrequencyChange></FrequencyChanges></Clock>\n	Hungry_Donkey_bar_English_2-128-1	60.017	-143	1.0.0.18	1	-1005648185	Standard	2.0.10.353	2.0.10.353	08-20-2015	8/20/2015 9:05:04 PM	17:05:04	2.0.10.248	54	Bar50-50.bmp	50	2	?	12r_4g.bmp	0r_4g.bmp	3r_2g.bmp	0r_2g.bmp		0r_4g.bmp			TrialProc	TrialList	0	cvbn	-999999	16	209716	0	v	361	210077	170	-167	3	-18	8	19	-6	5	6	54	-12	0	-3	0	4	4	2	2	0	4
Hungry_Donkey_bar_English_2	128	1	<?xml version="1.0"?>\n<Clock xmlns:dt="urn:schemas-microsoft-com:datatypes"><Description dt:dt="string">E-Prime Primary Realtime Clock</Description><StartTime><Timestamp dt:dt="int">0</Timestamp><DateUtc dt:dt="string">2015-08-20T21:05:04Z</DateUtc></StartTime><FrequencyChanges><FrequencyChange><Frequency dt:dt="r8">3507675</Frequency><Timestamp dt:dt="r8">37648342496</Timestamp><Current dt:dt="r8">0</Current><DateUtc dt:dt="string">2015-08-20T21:05:04Z</DateUtc></FrequencyChange></FrequencyChanges></Clock>\n	Hungry_Donkey_bar_English_2-128-1	60.017	-143	1.0.0.18	1	-1005648185	Standard	2.0.10.353	2.0.10.353	08-20-2015	8/20/2015 9:05:04 PM	17:05:04	2.0.10.248	55	Bar50-50.bmp	51	2	?	10r_4g.bmp	0r_4g.bmp	2r_2g.bmp	0r_2g.bmp		0r_4g.bmp			TrialProc	TrialList	0	cvbn	-999999	16	212115	0	v	410	212525	174	-167	7	-18	12	19	-6	3	6	55	-10	0	-2	0	4	4	2	2	0	4
Hungry_Donkey_bar_English_2	128	1	<?xml version="1.0"?>\n<Clock xmlns:dt="urn:schemas-microsoft-com:datatypes"><Description dt:dt="string">E-Prime Primary Realtime Clock</Description><StartTime><Timestamp dt:dt="int">0</Timestamp><DateUtc dt:dt="string">2015-08-20T21:05:04Z</DateUtc></StartTime><FrequencyChanges><FrequencyChange><Frequency dt:dt="r8">3507675</Frequency><Timestamp dt:dt="r8">37648342496</Timestamp><Current dt:dt="r8">0</Current><DateUtc dt:dt="string">2015-08-20T21:05:04Z</DateUtc></FrequencyChange></FrequencyChanges></Clock>\n	Hungry_Donkey_bar_English_2-128-1	60.017	-143	1.0.0.18	1	-1005648185	Standard	2.0.10.353	2.0.10.353	08-20-2015	8/20/2015 9:05:04 PM	17:05:04	2.0.10.248	56	Bar50-50.bmp	52	2	?	0r_4g.bmp	0r_4g.bmp	0r_2g.bmp	0r_2g.bmp		0r_4g.bmp			TrialProc	TrialList	0	cvbn	-999999	16	214564	0	v	393	214957	178	-167	11	-18	16	19	-6	9	6	56	0	0	0	0	4	4	2	2	0	4
Hungry_Donkey_bar_English_2	128	1	<?xml version="1.0"?>\n<Clock xmlns:dt="urn:schemas-microsoft-com:datatypes"><Description dt:dt="string">E-Prime Primary Realtime Clock</Description><StartTime><Timestamp dt:dt="int">0</Timestamp><DateUtc dt:dt="string">2015-08-20T21:05:04Z</DateUtc></StartTime><FrequencyChanges><FrequencyChange><Frequency dt:dt="r8">3507675</Frequency><Timestamp dt:dt="r8">37648342496</Timestamp><Current dt:dt="r8">0</Current><DateUtc dt:dt="string">2015-08-20T21:05:04Z</DateUtc></FrequencyChange></FrequencyChanges></Clock>\n	Hungry_Donkey_bar_English_2-128-1	60.017	-143	1.0.0.18	1	-1005648185	Standard	2.0.10.353	2.0.10.353	08-20-2015	8/20/2015 9:05:04 PM	17:05:04	2.0.10.248	57	Bar50-50.bmp	52	2	?	10r_4g.bmp	0r_4g.bmp	2r_2g.bmp	0r_2g.bmp		0r_4g.bmp			TrialProc	TrialList	0	cvbn	-999999	16	216997	0	v	344	217341	182	-167	15	-18	20	19	-6	2	6	57	-10	0	-2	0	4	4	2	2	0	4
Hungry_Donkey_bar_English_2	128	1	<?xml version="1.0"?>\n<Clock xmlns:dt="urn:schemas-microsoft-com:datatypes"><Description dt:dt="string">E-Prime Primary Realtime Clock</Description><StartTime><Timestamp dt:dt="int">0</Timestamp><DateUtc dt:dt="string">2015-08-20T21:05:04Z</DateUtc></StartTime><FrequencyChanges><FrequencyChange><Frequency dt:dt="r8">3507675</Frequency><Timestamp dt:dt="r8">37648342496</Timestamp><Current dt:dt="r8">0</Current><DateUtc dt:dt="string">2015-08-20T21:05:04Z</DateUtc></FrequencyChange></FrequencyChanges></Clock>\n	Hungry_Donkey_bar_English_2-128-1	60.017	-143	1.0.0.18	1	-1005648185	Standard	2.0.10.353	2.0.10.353	08-20-2015	8/20/2015 9:05:04 PM	17:05:04	2.0.10.248	58	Bar50-50.bmp	53	2	?	0r_4g.bmp	0r_4g.bmp	0r_2g.bmp	0r_2g.bmp		0r_4g.bmp			TrialProc	TrialList	0	cvbn	-999999	17	219380	0	v	313	219693	186	-167	19	-18	24	19	-6	6	6	58	0	0	0	0	4	4	2	2	0	4
Hungry_Donkey_bar_English_2	128	1	<?xml version="1.0"?>\n<Clock xmlns:dt="urn:schemas-microsoft-com:datatypes"><Description dt:dt="string">E-Prime Primary Realtime Clock</Description><StartTime><Timestamp dt:dt="int">0</Timestamp><DateUtc dt:dt="string">2015-08-20T21:05:04Z</DateUtc></StartTime><FrequencyChanges><FrequencyChange><Frequency dt:dt="r8">3507675</Frequency><Timestamp dt:dt="r8">37648342496</Timestamp><Current dt:dt="r8">0</Current><DateUtc dt:dt="string">2015-08-20T21:05:04Z</DateUtc></FrequencyChange></FrequencyChanges></Clock>\n	Hungry_Donkey_bar_English_2-128-1	60.017	-143	1.0.0.18	1	-1005648185	Standard	2.0.10.353	2.0.10.353	08-20-2015	8/20/2015 9:05:04 PM	17:05:04	2.0.10.248	59	Bar50-50.bmp	47	2	?	8r_4g.bmp	50r_4g.bmp	1r_2g.bmp	10r_2g.bmp		50r_4g.bmp			TrialProc	TrialList	0	cvbn	-999999	16	221729	0	v	380	222109	190	-217	-27	-18	-22	19	-6	1	6	59	-8	-50	-1	-10	4	4	2	2	-50	4
Hungry_Donkey_bar_English_2	128	1	<?xml version="1.0"?>\n<Clock xmlns:dt="urn:schemas-microsoft-com:datatypes"><Description dt:dt="string">E-Prime Primary Realtime Clock</Description><StartTime><Timestamp dt:dt="int">0</Timestamp><DateUtc dt:dt="string">2015-08-20T21:05:04Z</DateUtc></StartTime><FrequencyChanges><FrequencyChange><Frequency dt:dt="r8">3507675</Frequency><Timestamp dt:dt="r8">37648342496</Timestamp><Current dt:dt="r8">0</Current><DateUtc dt:dt="string">2015-08-20T21:05:04Z</DateUtc></FrequencyChange></FrequencyChanges></Clock>\n	Hungry_Donkey_bar_English_2-128-1	60.017	-143	1.0.0.18	1	-1005648185	Standard	2.0.10.353	2.0.10.353	08-20-2015	8/20/2015 9:05:04 PM	17:05:04	2.0.10.248	60	Bar50-50.bmp	47	4	?	0r_4g.bmp	0r_4g.bmp	0r_2g.bmp	0r_2g.bmp				0r_2g.bmp	TrialProc	TrialList	0	cvbn	-999999	16	224145	0	n	1339	225484	192	-217	-25	-18	-22	19	-4	8	6	60	0	0	0	0	4	4	2	2	0	2
Hungry_Donkey_bar_English_2	128	1	<?xml version="1.0"?>\n<Clock xmlns:dt="urn:schemas-microsoft-com:datatypes"><Description dt:dt="string">E-Prime Primary Realtime Clock</Description><StartTime><Timestamp dt:dt="int">0</Timestamp><DateUtc dt:dt="string">2015-08-20T21:05:04Z</DateUtc></StartTime><FrequencyChanges><FrequencyChange><Frequency dt:dt="r8">3507675</Frequency><Timestamp dt:dt="r8">37648342496</Timestamp><Current dt:dt="r8">0</Current><DateUtc dt:dt="string">2015-08-20T21:05:04Z</DateUtc></FrequencyChange></FrequencyChanges></Clock>\n	Hungry_Donkey_bar_English_2-128-1	60.017	-143	1.0.0.18	1	-1005648185	Standard	2.0.10.353	2.0.10.353	08-20-2015	8/20/2015 9:05:04 PM	17:05:04	2.0.10.248	61	Bar50-50.bmp	47	4	?	0r_4g.bmp	0r_4g.bmp	0r_2g.bmp	0r_2g.bmp				0r_2g.bmp	TrialProc	TrialList	0	cvbn	-999999	17	227511	0	n	357	227868	194	-217	-23	-18	-22	19	-2	8	7	61	0	0	0	0	4	4	2	2	0	2
Hungry_Donkey_bar_English_2	128	1	<?xml version="1.0"?>\n<Clock xmlns:dt="urn:schemas-microsoft-com:datatypes"><Description dt:dt="string">E-Prime Primary Realtime Clock</Description><StartTime><Timestamp dt:dt="int">0</Timestamp><DateUtc dt:dt="string">2015-08-20T21:05:04Z</DateUtc></StartTime><FrequencyChanges><FrequencyChange><Frequency dt:dt="r8">3507675</Frequency><Timestamp dt:dt="r8">37648342496</Timestamp><Current dt:dt="r8">0</Current><DateUtc dt:dt="string">2015-08-20T21:05:04Z</DateUtc></FrequencyChange></FrequencyChanges></Clock>\n	Hungry_Donkey_bar_English_2-128-1	60.017	-143	1.0.0.18	1	-1005648185	Standard	2.0.10.353	2.0.10.353	08-20-2015	8/20/2015 9:05:04 PM	17:05:04	2.0.10.248	62	Bar50-50.bmp	47	4	?	10r_4g.bmp	0r_4g.bmp	2r_2g.bmp	0r_2g.bmp				0r_2g.bmp	TrialProc	TrialList	0	cvbn	-999999	16	229893	0	n	327	230220	196	-217	-21	-18	-22	19	0	4	7	62	-10	0	-2	0	4	4	2	2	0	2
Hungry_Donkey_bar_English_2	128	1	<?xml version="1.0"?>\n<Clock xmlns:dt="urn:schemas-microsoft-com:datatypes"><Description dt:dt="string">E-Prime Primary Realtime Clock</Description><StartTime><Timestamp dt:dt="int">0</Timestamp><DateUtc dt:dt="string">2015-08-20T21:05:04Z</DateUtc></StartTime><FrequencyChanges><FrequencyChange><Frequency dt:dt="r8">3507675</Frequency><Timestamp dt:dt="r8">37648342496</Timestamp><Current dt:dt="r8">0</Current><DateUtc dt:dt="string">2015-08-20T21:05:04Z</DateUtc></FrequencyChange></FrequencyChanges></Clock>\n	Hungry_Donkey_bar_English_2-128-1	60.017	-143	1.0.0.18	1	-1005648185	Standard	2.0.10.353	2.0.10.353	08-20-2015	8/20/2015 9:05:04 PM	17:05:04	2.0.10.248	63	Bar50-50.bmp	48	4	?	12r_4g.bmp	0r_4g.bmp	3r_2g.bmp	0r_2g.bmp				0r_2g.bmp	TrialProc	TrialList	0	cvbn	-999999	16	232259	0	n	617	232876	198	-217	-19	-18	-22	19	2	5	7	63	-12	0	-3	0	4	4	2	2	0	2
Hungry_Donkey_bar_English_2	128	1	<?xml version="1.0"?>\n<Clock xmlns:dt="urn:schemas-microsoft-com:datatypes"><Description dt:dt="string">E-Prime Primary Realtime Clock</Description><StartTime><Timestamp dt:dt="int">0</Timestamp><DateUtc dt:dt="string">2015-08-20T21:05:04Z</DateUtc></StartTime><FrequencyChanges><FrequencyChange><Frequency dt:dt="r8">3507675</Frequency><Timestamp dt:dt="r8">37648342496</Timestamp><Current dt:dt="r8">0</Current><DateUtc dt:dt="string">2015-08-20T21:05:04Z</DateUtc></FrequencyChange></FrequencyChanges></Clock>\n	Hungry_Donkey_bar_English_2-128-1	60.017	-143	1.0.0.18	1	-1005648185	Standard	2.0.10.353	2.0.10.353	08-20-2015	8/20/2015 9:05:04 PM	17:05:04	2.0.10.248	64	Bar50-50.bmp	48	4	?	0r_4g.bmp	0r_4g.bmp	0r_2g.bmp	0r_2g.bmp				0r_2g.bmp	TrialProc	TrialList	0	cvbn	-999999	16	234908	0	n	704	235612	200	-217	-17	-18	-22	19	4	10	7	64	0	0	0	0	4	4	2	2	0	2
Hungry_Donkey_bar_English_2	128	1	<?xml version="1.0"?>\n<Clock xmlns:dt="urn:schemas-microsoft-com:datatypes"><Description dt:dt="string">E-Prime Primary Realtime Clock</Description><StartTime><Timestamp dt:dt="int">0</Timestamp><DateUtc dt:dt="string">2015-08-20T21:05:04Z</DateUtc></StartTime><FrequencyChanges><FrequencyChange><Frequency dt:dt="r8">3507675</Frequency><Timestamp dt:dt="r8">37648342496</Timestamp><Current dt:dt="r8">0</Current><DateUtc dt:dt="string">2015-08-20T21:05:04Z</DateUtc></FrequencyChange></FrequencyChanges></Clock>\n	Hungry_Donkey_bar_English_2-128-1	60.017	-143	1.0.0.18	1	-1005648185	Standard	2.0.10.353	2.0.10.353	08-20-2015	8/20/2015 9:05:04 PM	17:05:04	2.0.10.248	65	Bar50-50.bmp	48	4	?	0r_4g.bmp	0r_4g.bmp	0r_2g.bmp	0r_2g.bmp				0r_2g.bmp	TrialProc	TrialList	0	cvbn	-999999	16	237641	0	n	451	238092	202	-217	-15	-18	-22	19	6	9	7	65	0	0	0	0	4	4	2	2	0	2
Hungry_Donkey_bar_English_2	128	1	<?xml version="1.0"?>\n<Clock xmlns:dt="urn:schemas-microsoft-com:datatypes"><Description dt:dt="string">E-Prime Primary Realtime Clock</Description><StartTime><Timestamp dt:dt="int">0</Timestamp><DateUtc dt:dt="string">2015-08-20T21:05:04Z</DateUtc></StartTime><FrequencyChanges><FrequencyChange><Frequency dt:dt="r8">3507675</Frequency><Timestamp dt:dt="r8">37648342496</Timestamp><Current dt:dt="r8">0</Current><DateUtc dt:dt="string">2015-08-20T21:05:04Z</DateUtc></FrequencyChange></FrequencyChanges></Clock>\n	Hungry_Donkey_bar_English_2-128-1	60.017	-143	1.0.0.18	1	-1005648185	Standard	2.0.10.353	2.0.10.353	08-20-2015	8/20/2015 9:05:04 PM	17:05:04	2.0.10.248	66	Bar50-50.bmp	48	4	?	10r_4g.bmp	0r_4g.bmp	2r_2g.bmp	0r_2g.bmp				0r_2g.bmp	TrialProc	TrialList	0	cvbn	-999999	16	240124	0	n	384	240508	204	-217	-13	-18	-22	19	8	2	7	66	-10	0	-2	0	4	4	2	2	0	2
Hungry_Donkey_bar_English_2	128	1	<?xml version="1.0"?>\n<Clock xmlns:dt="urn:schemas-microsoft-com:datatypes"><Description dt:dt="string">E-Prime Primary Realtime Clock</Description><StartTime><Timestamp dt:dt="int">0</Timestamp><DateUtc dt:dt="string">2015-08-20T21:05:04Z</DateUtc></StartTime><FrequencyChanges><FrequencyChange><Frequency dt:dt="r8">3507675</Frequency><Timestamp dt:dt="r8">37648342496</Timestamp><Current dt:dt="r8">0</Current><DateUtc dt:dt="string">2015-08-20T21:05:04Z</DateUtc></FrequencyChange></FrequencyChanges></Clock>\n	Hungry_Donkey_bar_English_2-128-1	60.017	-143	1.0.0.18	1	-1005648185	Standard	2.0.10.353	2.0.10.353	08-20-2015	8/20/2015 9:05:04 PM	17:05:04	2.0.10.248	67	Bar50-50.bmp	49	4	?	0r_4g.bmp	0r_4g.bmp	0r_2g.bmp	0r_2g.bmp				0r_2g.bmp	TrialProc	TrialList	0	cvbn	-999999	17	242540	0	n	480	243020	206	-217	-11	-18	-22	19	10	6	7	67	0	0	0	0	4	4	2	2	0	2
Hungry_Donkey_bar_English_2	128	1	<?xml version="1.0"?>\n<Clock xmlns:dt="urn:schemas-microsoft-com:datatypes"><Description dt:dt="string">E-Prime Primary Realtime Clock</Description><StartTime><Timestamp dt:dt="int">0</Timestamp><DateUtc dt:dt="string">2015-08-20T21:05:04Z</DateUtc></StartTime><FrequencyChanges><FrequencyChange><Frequency dt:dt="r8">3507675</Frequency><Timestamp dt:dt="r8">37648342496</Timestamp><Current dt:dt="r8">0</Current><DateUtc dt:dt="string">2015-08-20T21:05:04Z</DateUtc></FrequencyChange></FrequencyChanges></Clock>\n	Hungry_Donkey_bar_English_2-128-1	60.017	-143	1.0.0.18	1	-1005648185	Standard	2.0.10.353	2.0.10.353	08-20-2015	8/20/2015 9:05:04 PM	17:05:04	2.0.10.248	68	Bar50-50.bmp	49	4	?	0r_4g.bmp	0r_4g.bmp	0r_2g.bmp	0r_2g.bmp				0r_2g.bmp	TrialProc	TrialList	0	cvbn	-999999	17	245056	0	n	364	245420	208	-217	-9	-18	-22	19	12	7	7	68	0	0	0	0	4	4	2	2	0	2
Hungry_Donkey_bar_English_2	128	1	<?xml version="1.0"?>\n<Clock xmlns:dt="urn:schemas-microsoft-com:datatypes"><Description dt:dt="string">E-Prime Primary Realtime Clock</Description><StartTime><Timestamp dt:dt="int">0</Timestamp><DateUtc dt:dt="string">2015-08-20T21:05:04Z</DateUtc></StartTime><FrequencyChanges><FrequencyChange><Frequency dt:dt="r8">3507675</Frequency><Timestamp dt:dt="r8">37648342496</Timestamp><Current dt:dt="r8">0</Current><DateUtc dt:dt="string">2015-08-20T21:05:04Z</DateUtc></FrequencyChange></FrequencyChanges></Clock>\n	Hungry_Donkey_bar_English_2-128-1	60.017	-143	1.0.0.18	1	-1005648185	Standard	2.0.10.353	2.0.10.353	08-20-2015	8/20/2015 9:05:04 PM	17:05:04	2.0.10.248	69	Bar50-50.bmp	49	4	?	10r_4g.bmp	0r_4g.bmp	2r_2g.bmp	0r_2g.bmp				0r_2g.bmp	TrialProc	TrialList	0	cvbn	-999999	16	247455	0	n	364	247819	210	-217	-7	-18	-22	19	14	3	7	69	-10	0	-2	0	4	4	2	2	0	2
Hungry_Donkey_bar_English_2	128	1	<?xml version="1.0"?>\n<Clock xmlns:dt="urn:schemas-microsoft-com:datatypes"><Description dt:dt="string">E-Prime Primary Realtime Clock</Description><StartTime><Timestamp dt:dt="int">0</Timestamp><DateUtc dt:dt="string">2015-08-20T21:05:04Z</DateUtc></StartTime><FrequencyChanges><FrequencyChange><Frequency dt:dt="r8">3507675</Frequency><Timestamp dt:dt="r8">37648342496</Timestamp><Current dt:dt="r8">0</Current><DateUtc dt:dt="string">2015-08-20T21:05:04Z</DateUtc></FrequencyChange></FrequencyChanges></Clock>\n	Hungry_Donkey_bar_English_2-128-1	60.017	-143	1.0.0.18	1	-1005648185	Standard	2.0.10.353	2.0.10.353	08-20-2015	8/20/2015 9:05:04 PM	17:05:04	2.0.10.248	70	Bar50-50.bmp	48	4	?	8r_4g.bmp	50r_4g.bmp	1r_2g.bmp	10r_2g.bmp				10r_2g.bmp	TrialProc	TrialList	0	cvbn	-999999	16	249854	0	n	333	250187	212	-227	-15	-18	-22	19	6	1	7	70	-8	-50	-1	-10	4	4	2	2	-10	2
Hungry_Donkey_bar_English_2	128	1	<?xml version="1.0"?>\n<Clock xmlns:dt="urn:schemas-microsoft-com:datatypes"><Description dt:dt="string">E-Prime Primary Realtime Clock</Description><StartTime><Timestamp dt:dt="int">0</Timestamp><DateUtc dt:dt="string">2015-08-20T21:05:04Z</DateUtc></StartTime><FrequencyChanges><FrequencyChange><Frequency dt:dt="r8">3507675</Frequency><Timestamp dt:dt="r8">37648342496</Timestamp><Current dt:dt="r8">0</Current><DateUtc dt:dt="string">2015-08-20T21:05:04Z</DateUtc></FrequencyChange></FrequencyChanges></Clock>\n	Hungry_Donkey_bar_English_2-128-1	60.017	-143	1.0.0.18	1	-1005648185	Standard	2.0.10.353	2.0.10.353	08-20-2015	8/20/2015 9:05:04 PM	17:05:04	2.0.10.248	71	Bar50-50.bmp	49	2	?	10r_4g.bmp	0r_4g.bmp	2r_2g.bmp	0r_2g.bmp		0r_4g.bmp			TrialProc	TrialList	0	cvbn	-999999	16	252220	0	v	2495	254715	216	-227	-11	-18	-18	19	6	4	8	71	-10	0	-2	0	4	4	2	2	0	4
Hungry_Donkey_bar_English_2	128	1	<?xml version="1.0"?>\n<Clock xmlns:dt="urn:schemas-microsoft-com:datatypes"><Description dt:dt="string">E-Prime Primary Realtime Clock</Description><StartTime><Timestamp dt:dt="int">0</Timestamp><DateUtc dt:dt="string">2015-08-20T21:05:04Z</DateUtc></StartTime><FrequencyChanges><FrequencyChange><Frequency dt:dt="r8">3507675</Frequency><Timestamp dt:dt="r8">37648342496</Timestamp><Current dt:dt="r8">0</Current><DateUtc dt:dt="string">2015-08-20T21:05:04Z</DateUtc></FrequencyChange></FrequencyChanges></Clock>\n	Hungry_Donkey_bar_English_2-128-1	60.017	-143	1.0.0.18	1	-1005648185	Standard	2.0.10.353	2.0.10.353	08-20-2015	8/20/2015 9:05:04 PM	17:05:04	2.0.10.248	72	Bar50-50.bmp	49	2	?	0r_4g.bmp	0r_4g.bmp	0r_2g.bmp	0r_2g.bmp		0r_4g.bmp			TrialProc	TrialList	0	cvbn	-999999	16	256752	0	v	315	257067	220	-227	-7	-18	-14	19	6	8	8	72	0	0	0	0	4	4	2	2	0	4
Hungry_Donkey_bar_English_2	128	1	<?xml version="1.0"?>\n<Clock xmlns:dt="urn:schemas-microsoft-com:datatypes"><Description dt:dt="string">E-Prime Primary Realtime Clock</Description><StartTime><Timestamp dt:dt="int">0</Timestamp><DateUtc dt:dt="string">2015-08-20T21:05:04Z</DateUtc></StartTime><FrequencyChanges><FrequencyChange><Frequency dt:dt="r8">3507675</Frequency><Timestamp dt:dt="r8">37648342496</Timestamp><Current dt:dt="r8">0</Current><DateUtc dt:dt="string">2015-08-20T21:05:04Z</DateUtc></FrequencyChange></FrequencyChanges></Clock>\n	Hungry_Donkey_bar_English_2-128-1	60.017	-143	1.0.0.18	1	-1005648185	Standard	2.0.10.353	2.0.10.353	08-20-2015	8/20/2015 9:05:04 PM	17:05:04	2.0.10.248	73	Bar50-50.bmp	50	2	?	0r_4g.bmp	0r_4g.bmp	0r_2g.bmp	0r_2g.bmp		0r_4g.bmp			TrialProc	TrialList	0	cvbn	-999999	17	259102	0	v	365	259467	224	-227	-3	-18	-10	19	6	6	8	73	0	0	0	0	4	4	2	2	0	4
Hungry_Donkey_bar_English_2	128	1	<?xml version="1.0"?>\n<Clock xmlns:dt="urn:schemas-microsoft-com:datatypes"><Description dt:dt="string">E-Prime Primary Realtime Clock</Description><StartTime><Timestamp dt:dt="int">0</Timestamp><DateUtc dt:dt="string">2015-08-20T21:05:04Z</DateUtc></StartTime><FrequencyChanges><FrequencyChange><Frequency dt:dt="r8">3507675</Frequency><Timestamp dt:dt="r8">37648342496</Timestamp><Current dt:dt="r8">0</Current><DateUtc dt:dt="string">2015-08-20T21:05:04Z</DateUtc></FrequencyChange></FrequencyChanges></Clock>\n	Hungry_Donkey_bar_English_2-128-1	60.017	-143	1.0.0.18	1	-1005648185	Standard	2.0.10.353	2.0.10.353	08-20-2015	8/20/2015 9:05:04 PM	17:05:04	2.0.10.248	74	Bar50-50.bmp	50	2	?	10r_4g.bmp	0r_4g.bmp	2r_2g.bmp	0r_2g.bmp		0r_4g.bmp			TrialProc	TrialList	0	cvbn	-999999	16	261501	0	v	334	261835	228	-227	1	-18	-6	19	6	3	8	74	-10	0	-2	0	4	4	2	2	0	4
Hungry_Donkey_bar_English_2	128	1	<?xml version="1.0"?>\n<Clock xmlns:dt="urn:schemas-microsoft-com:datatypes"><Description dt:dt="string">E-Prime Primary Realtime Clock</Description><StartTime><Timestamp dt:dt="int">0</Timestamp><DateUtc dt:dt="string">2015-08-20T21:05:04Z</DateUtc></StartTime><FrequencyChanges><FrequencyChange><Frequency dt:dt="r8">3507675</Frequency><Timestamp dt:dt="r8">37648342496</Timestamp><Current dt:dt="r8">0</Current><DateUtc dt:dt="string">2015-08-20T21:05:04Z</DateUtc></FrequencyChange></FrequencyChanges></Clock>\n	Hungry_Donkey_bar_English_2-128-1	60.017	-143	1.0.0.18	1	-1005648185	Standard	2.0.10.353	2.0.10.353	08-20-2015	8/20/2015 9:05:04 PM	17:05:04	2.0.10.248	75	Bar50-50.bmp	51	2	?	12r_4g.bmp	0r_4g.bmp	3r_2g.bmp	0r_2g.bmp		0r_4g.bmp			TrialProc	TrialList	0	cvbn	-999999	16	263867	0	v	416	264283	232	-227	5	-18	-2	19	6	5	8	75	-12	0	-3	0	4	4	2	2	0	4
Hungry_Donkey_bar_English_2	128	1	<?xml version="1.0"?>\n<Clock xmlns:dt="urn:schemas-microsoft-com:datatypes"><Description dt:dt="string">E-Prime Primary Realtime Clock</Description><StartTime><Timestamp dt:dt="int">0</Timestamp><DateUtc dt:dt="string">2015-08-20T21:05:04Z</DateUtc></StartTime><FrequencyChanges><FrequencyChange><Frequency dt:dt="r8">3507675</Frequency><Timestamp dt:dt="r8">37648342496</Timestamp><Current dt:dt="r8">0</Current><DateUtc dt:dt="string">2015-08-20T21:05:04Z</DateUtc></FrequencyChange></FrequencyChanges></Clock>\n	Hungry_Donkey_bar_English_2-128-1	60.017	-143	1.0.0.18	1	-1005648185	Standard	2.0.10.353	2.0.10.353	08-20-2015	8/20/2015 9:05:04 PM	17:05:04	2.0.10.248	76	Bar50-50.bmp	51	2	?	0r_4g.bmp	0r_4g.bmp	0r_2g.bmp	0r_2g.bmp		0r_4g.bmp			TrialProc	TrialList	0	cvbn	-999999	16	266316	0	v	351	266667	236	-227	9	-18	2	19	6	7	8	76	0	0	0	0	4	4	2	2	0	4
Hungry_Donkey_bar_English_2	128	1	<?xml version="1.0"?>\n<Clock xmlns:dt="urn:schemas-microsoft-com:datatypes"><Description dt:dt="string">E-Prime Primary Realtime Clock</Description><StartTime><Timestamp dt:dt="int">0</Timestamp><DateUtc dt:dt="string">2015-08-20T21:05:04Z</DateUtc></StartTime><FrequencyChanges><FrequencyChange><Frequency dt:dt="r8">3507675</Frequency><Timestamp dt:dt="r8">37648342496</Timestamp><Current dt:dt="r8">0</Current><DateUtc dt:dt="string">2015-08-20T21:05:04Z</DateUtc></FrequencyChange></FrequencyChanges></Clock>\n	Hungry_Donkey_bar_English_2-128-1	60.017	-143	1.0.0.18	1	-1005648185	Standard	2.0.10.353	2.0.10.353	08-20-2015	8/20/2015 9:05:04 PM	17:05:04	2.0.10.248	77	Bar50-50.bmp	51	2	?	0r_4g.bmp	0r_4g.bmp	0r_2g.bmp	0r_2g.bmp		0r_4g.bmp			TrialProc	TrialList	0	cvbn	-999999	16	268699	0	v	335	269034	240	-227	13	-18	6	19	6	10	8	77	0	0	0	0	4	4	2	2	0	4
Hungry_Donkey_bar_English_2	128	1	<?xml version="1.0"?>\n<Clock xmlns:dt="urn:schemas-microsoft-com:datatypes"><Description dt:dt="string">E-Prime Primary Realtime Clock</Description><StartTime><Timestamp dt:dt="int">0</Timestamp><DateUtc dt:dt="string">2015-08-20T21:05:04Z</DateUtc></StartTime><FrequencyChanges><FrequencyChange><Frequency dt:dt="r8">3507675</Frequency><Timestamp dt:dt="r8">37648342496</Timestamp><Current dt:dt="r8">0</Current><DateUtc dt:dt="string">2015-08-20T21:05:04Z</DateUtc></FrequencyChange></FrequencyChanges></Clock>\n	Hungry_Donkey_bar_English_2-128-1	60.017	-143	1.0.0.18	1	-1005648185	Standard	2.0.10.353	2.0.10.353	08-20-2015	8/20/2015 9:05:04 PM	17:05:04	2.0.10.248	78	Bar50-50.bmp	47	2	?	8r_4g.bmp	50r_4g.bmp	1r_2g.bmp	10r_2g.bmp		50r_4g.bmp			TrialProc	TrialList	0	cvbn	-999999	16	271065	0	v	385	271450	244	-277	-33	-18	-40	19	6	1	8	78	-8	-50	-1	-10	4	4	2	2	-50	4
Hungry_Donkey_bar_English_2	128	1	<?xml version="1.0"?>\n<Clock xmlns:dt="urn:schemas-microsoft-com:datatypes"><Description dt:dt="string">E-Prime Primary Realtime Clock</Description><StartTime><Timestamp dt:dt="int">0</Timestamp><DateUtc dt:dt="string">2015-08-20T21:05:04Z</DateUtc></StartTime><FrequencyChanges><FrequencyChange><Frequency dt:dt="r8">3507675</Frequency><Timestamp dt:dt="r8">37648342496</Timestamp><Current dt:dt="r8">0</Current><DateUtc dt:dt="string">2015-08-20T21:05:04Z</DateUtc></FrequencyChange></FrequencyChanges></Clock>\n	Hungry_Donkey_bar_English_2-128-1	60.017	-143	1.0.0.18	1	-1005648185	Standard	2.0.10.353	2.0.10.353	08-20-2015	8/20/2015 9:05:04 PM	17:05:04	2.0.10.248	79	Bar50-50.bmp	47	4	?	10r_4g.bmp	0r_4g.bmp	2r_2g.bmp	0r_2g.bmp				0r_2g.bmp	TrialProc	TrialList	0	cvbn	-999999	16	273481	0	n	3009	276490	246	-277	-31	-18	-40	19	8	2	8	79	-10	0	-2	0	4	4	2	2	0	2
Hungry_Donkey_bar_English_2	128	1	<?xml version="1.0"?>\n<Clock xmlns:dt="urn:schemas-microsoft-com:datatypes"><Description dt:dt="string">E-Prime Primary Realtime Clock</Description><StartTime><Timestamp dt:dt="int">0</Timestamp><DateUtc dt:dt="string">2015-08-20T21:05:04Z</DateUtc></StartTime><FrequencyChanges><FrequencyChange><Frequency dt:dt="r8">3507675</Frequency><Timestamp dt:dt="r8">37648342496</Timestamp><Current dt:dt="r8">0</Current><DateUtc dt:dt="string">2015-08-20T21:05:04Z</DateUtc></FrequencyChange></FrequencyChanges></Clock>\n	Hungry_Donkey_bar_English_2-128-1	60.017	-143	1.0.0.18	1	-1005648185	Standard	2.0.10.353	2.0.10.353	08-20-2015	8/20/2015 9:05:04 PM	17:05:04	2.0.10.248	80	Bar50-50.bmp	47	4	?	0r_4g.bmp	0r_4g.bmp	0r_2g.bmp	0r_2g.bmp				0r_2g.bmp	TrialProc	TrialList	0	cvbn	-999999	16	278529	0	n	313	278842	248	-277	-29	-18	-40	19	10	9	8	80	0	0	0	0	4	4	2	2	0	2
Hungry_Donkey_bar_English_2	128	1	<?xml version="1.0"?>\n<Clock xmlns:dt="urn:schemas-microsoft-com:datatypes"><Description dt:dt="string">E-Prime Primary Realtime Clock</Description><StartTime><Timestamp dt:dt="int">0</Timestamp><DateUtc dt:dt="string">2015-08-20T21:05:04Z</DateUtc></StartTime><FrequencyChanges><FrequencyChange><Frequency dt:dt="r8">3507675</Frequency><Timestamp dt:dt="r8">37648342496</Timestamp><Current dt:dt="r8">0</Current><DateUtc dt:dt="string">2015-08-20T21:05:04Z</DateUtc></FrequencyChange></FrequencyChanges></Clock>\n	Hungry_Donkey_bar_English_2-128-1	60.017	-143	1.0.0.18	1	-1005648185	Standard	2.0.10.353	2.0.10.353	08-20-2015	8/20/2015 9:05:04 PM	17:05:04	2.0.10.248	81	Bar50-50.bmp	48	2	?	0r_4g.bmp	0r_4g.bmp	0r_2g.bmp	0r_2g.bmp		0r_4g.bmp			TrialProc	TrialList	0	cvbn	-999999	16	280879	0	v	475	281354	252	-277	-25	-18	-36	19	10	7	9	81	0	0	0	0	4	4	2	2	0	4
Hungry_Donkey_bar_English_2	128	1	<?xml version="1.0"?>\n<Clock xmlns:dt="urn:schemas-microsoft-com:datatypes"><Description dt:dt="string">E-Prime Primary Realtime Clock</Description><StartTime><Timestamp dt:dt="int">0</Timestamp><DateUtc dt:dt="string">2015-08-20T21:05:04Z</DateUtc></StartTime><FrequencyChanges><FrequencyChange><Frequency dt:dt="r8">3507675</Frequency><Timestamp dt:dt="r8">37648342496</Timestamp><Current dt:dt="r8">0</Current><DateUtc dt:dt="string">2015-08-20T21:05:04Z</DateUtc></FrequencyChange></FrequencyChanges></Clock>\n	Hungry_Donkey_bar_English_2-128-1	60.017	-143	1.0.0.18	1	-1005648185	Standard	2.0.10.353	2.0.10.353	08-20-2015	8/20/2015 9:05:04 PM	17:05:04	2.0.10.248	82	Bar50-50.bmp	48	2	?	0r_4g.bmp	0r_4g.bmp	0r_2g.bmp	0r_2g.bmp		0r_4g.bmp			TrialProc	TrialList	0	cvbn	-999999	16	283378	0	v	328	283706	256	-277	-21	-18	-32	19	10	9	9	82	0	0	0	0	4	4	2	2	0	4
Hungry_Donkey_bar_English_2	128	1	<?xml version="1.0"?>\n<Clock xmlns:dt="urn:schemas-microsoft-com:datatypes"><Description dt:dt="string">E-Prime Primary Realtime Clock</Description><StartTime><Timestamp dt:dt="int">0</Timestamp><DateUtc dt:dt="string">2015-08-20T21:05:04Z</DateUtc></StartTime><FrequencyChanges><FrequencyChange><Frequency dt:dt="r8">3507675</Frequency><Timestamp dt:dt="r8">37648342496</Timestamp><Current dt:dt="r8">0</Current><DateUtc dt:dt="string">2015-08-20T21:05:04Z</DateUtc></FrequencyChange></FrequencyChanges></Clock>\n	Hungry_Donkey_bar_English_2-128-1	60.017	-143	1.0.0.18	1	-1005648185	Standard	2.0.10.353	2.0.10.353	08-20-2015	8/20/2015 9:05:04 PM	17:05:04	2.0.10.248	83	Bar50-50.bmp	48	2	?	10r_4g.bmp	0r_4g.bmp	2r_2g.bmp	0r_2g.bmp		0r_4g.bmp			TrialProc	TrialList	0	cvbn	-999999	16	285744	0	v	330	286074	260	-277	-17	-18	-28	19	10	3	9	83	-10	0	-2	0	4	4	2	2	0	4
Hungry_Donkey_bar_English_2	128	1	<?xml version="1.0"?>\n<Clock xmlns:dt="urn:schemas-microsoft-com:datatypes"><Description dt:dt="string">E-Prime Primary Realtime Clock</Description><StartTime><Timestamp dt:dt="int">0</Timestamp><DateUtc dt:dt="string">2015-08-20T21:05:04Z</DateUtc></StartTime><FrequencyChanges><FrequencyChange><Frequency dt:dt="r8">3507675</Frequency><Timestamp dt:dt="r8">37648342496</Timestamp><Current dt:dt="r8">0</Current><DateUtc dt:dt="string">2015-08-20T21:05:04Z</DateUtc></FrequencyChange></FrequencyChanges></Clock>\n	Hungry_Donkey_bar_English_2-128-1	60.017	-143	1.0.0.18	1	-1005648185	Standard	2.0.10.353	2.0.10.353	08-20-2015	8/20/2015 9:05:04 PM	17:05:04	2.0.10.248	84	Bar50-50.bmp	49	2	?	0r_4g.bmp	0r_4g.bmp	0r_2g.bmp	0r_2g.bmp		0r_4g.bmp			TrialProc	TrialList	0	cvbn	-999999	16	288110	0	v	363	288473	264	-277	-13	-18	-24	19	10	10	9	84	0	0	0	0	4	4	2	2	0	4
Hungry_Donkey_bar_English_2	128	1	<?xml version="1.0"?>\n<Clock xmlns:dt="urn:schemas-microsoft-com:datatypes"><Description dt:dt="string">E-Prime Primary Realtime Clock</Description><StartTime><Timestamp dt:dt="int">0</Timestamp><DateUtc dt:dt="string">2015-08-20T21:05:04Z</DateUtc></StartTime><FrequencyChanges><FrequencyChange><Frequency dt:dt="r8">3507675</Frequency><Timestamp dt:dt="r8">37648342496</Timestamp><Current dt:dt="r8">0</Current><DateUtc dt:dt="string">2015-08-20T21:05:04Z</DateUtc></FrequencyChange></FrequencyChanges></Clock>\n	Hungry_Donkey_bar_English_2-128-1	60.017	-143	1.0.0.18	1	-1005648185	Standard	2.0.10.353	2.0.10.353	08-20-2015	8/20/2015 9:05:04 PM	17:05:04	2.0.10.248	85	Bar50-50.bmp	49	2	?	12r_4g.bmp	0r_4g.bmp	3r_2g.bmp	0r_2g.bmp		0r_4g.bmp			TrialProc	TrialList	0	cvbn	-999999	16	290509	0	v	780	291289	268	-277	-9	-18	-20	19	10	5	9	85	-12	0	-3	0	4	4	2	2	0	4
Hungry_Donkey_bar_English_2	128	1	<?xml version="1.0"?>\n<Clock xmlns:dt="urn:schemas-microsoft-com:datatypes"><Description dt:dt="string">E-Prime Primary Realtime Clock</Description><StartTime><Timestamp dt:dt="int">0</Timestamp><DateUtc dt:dt="string">2015-08-20T21:05:04Z</DateUtc></StartTime><FrequencyChanges><FrequencyChange><Frequency dt:dt="r8">3507675</Frequency><Timestamp dt:dt="r8">37648342496</Timestamp><Current dt:dt="r8">0</Current><DateUtc dt:dt="string">2015-08-20T21:05:04Z</DateUtc></FrequencyChange></FrequencyChanges></Clock>\n	Hungry_Donkey_bar_English_2-128-1	60.017	-143	1.0.0.18	1	-1005648185	Standard	2.0.10.353	2.0.10.353	08-20-2015	8/20/2015 9:05:04 PM	17:05:04	2.0.10.248	86	Bar50-50.bmp	50	2	?	10r_4g.bmp	0r_4g.bmp	2r_2g.bmp	0r_2g.bmp		0r_4g.bmp			TrialProc	TrialList	0	cvbn	-999999	16	293325	0	v	428	293753	272	-277	-5	-18	-16	19	10	4	9	86	-10	0	-2	0	4	4	2	2	0	4
Hungry_Donkey_bar_English_2	128	1	<?xml version="1.0"?>\n<Clock xmlns:dt="urn:schemas-microsoft-com:datatypes"><Description dt:dt="string">E-Prime Primary Realtime Clock</Description><StartTime><Timestamp dt:dt="int">0</Timestamp><DateUtc dt:dt="string">2015-08-20T21:05:04Z</DateUtc></StartTime><FrequencyChanges><FrequencyChange><Frequency dt:dt="r8">3507675</Frequency><Timestamp dt:dt="r8">37648342496</Timestamp><Current dt:dt="r8">0</Current><DateUtc dt:dt="string">2015-08-20T21:05:04Z</DateUtc></FrequencyChange></FrequencyChanges></Clock>\n	Hungry_Donkey_bar_English_2-128-1	60.017	-143	1.0.0.18	1	-1005648185	Standard	2.0.10.353	2.0.10.353	08-20-2015	8/20/2015 9:05:04 PM	17:05:04	2.0.10.248	87	Bar50-50.bmp	50	2	?	0r_4g.bmp	0r_4g.bmp	0r_2g.bmp	0r_2g.bmp		0r_4g.bmp			TrialProc	TrialList	0	cvbn	-999999	16	295791	0	v	394	296185	276	-277	-1	-18	-12	19	10	6	9	87	0	0	0	0	4	4	2	2	0	4
Hungry_Donkey_bar_English_2	128	1	<?xml version="1.0"?>\n<Clock xmlns:dt="urn:schemas-microsoft-com:datatypes"><Description dt:dt="string">E-Prime Primary Realtime Clock</Description><StartTime><Timestamp dt:dt="int">0</Timestamp><DateUtc dt:dt="string">2015-08-20T21:05:04Z</DateUtc></StartTime><FrequencyChanges><FrequencyChange><Frequency dt:dt="r8">3507675</Frequency><Timestamp dt:dt="r8">37648342496</Timestamp><Current dt:dt="r8">0</Current><DateUtc dt:dt="string">2015-08-20T21:05:04Z</DateUtc></FrequencyChange></FrequencyChanges></Clock>\n	Hungry_Donkey_bar_English_2-128-1	60.017	-143	1.0.0.18	1	-1005648185	Standard	2.0.10.353	2.0.10.353	08-20-2015	8/20/2015 9:05:04 PM	17:05:04	2.0.10.248	88	Bar50-50.bmp	46	2	?	8r_4g.bmp	50r_4g.bmp	1r_2g.bmp	10r_2g.bmp		50r_4g.bmp			TrialProc	TrialList	0	cvbn	-999999	16	298224	0	v	377	298601	280	-327	-47	-18	-58	19	10	1	9	88	-8	-50	-1	-10	4	4	2	2	-50	4
Hungry_Donkey_bar_English_2	128	1	<?xml version="1.0"?>\n<Clock xmlns:dt="urn:schemas-microsoft-com:datatypes"><Description dt:dt="string">E-Prime Primary Realtime Clock</Description><StartTime><Timestamp dt:dt="int">0</Timestamp><DateUtc dt:dt="string">2015-08-20T21:05:04Z</DateUtc></StartTime><FrequencyChanges><FrequencyChange><Frequency dt:dt="r8">3507675</Frequency><Timestamp dt:dt="r8">37648342496</Timestamp><Current dt:dt="r8">0</Current><DateUtc dt:dt="string">2015-08-20T21:05:04Z</DateUtc></FrequencyChange></FrequencyChanges></Clock>\n	Hungry_Donkey_bar_English_2-128-1	60.017	-143	1.0.0.18	1	-1005648185	Standard	2.0.10.353	2.0.10.353	08-20-2015	8/20/2015 9:05:04 PM	17:05:04	2.0.10.248	89	Bar50-50.bmp	46	4	?	10r_4g.bmp	0r_4g.bmp	2r_2g.bmp	0r_2g.bmp				0r_2g.bmp	TrialProc	TrialList	0	cvbn	-999999	16	300640	0	n	3177	303817	282	-327	-45	-18	-58	19	12	2	9	89	-10	0	-2	0	4	4	2	2	0	2
Hungry_Donkey_bar_English_2	128	1	<?xml version="1.0"?>\n<Clock xmlns:dt="urn:schemas-microsoft-com:datatypes"><Description dt:dt="string">E-Prime Primary Realtime Clock</Description><StartTime><Timestamp dt:dt="int">0</Timestamp><DateUtc dt:dt="string">2015-08-20T21:05:04Z</DateUtc></StartTime><FrequencyChanges><FrequencyChange><Frequency dt:dt="r8">3507675</Frequency><Timestamp dt:dt="r8">37648342496</Timestamp><Current dt:dt="r8">0</Current><DateUtc dt:dt="string">2015-08-20T21:05:04Z</DateUtc></FrequencyChange></FrequencyChanges></Clock>\n	Hungry_Donkey_bar_English_2-128-1	60.017	-143	1.0.0.18	1	-1005648185	Standard	2.0.10.353	2.0.10.353	08-20-2015	8/20/2015 9:05:04 PM	17:05:04	2.0.10.248	90	Bar50-50.bmp	46	4	?	0r_4g.bmp	0r_4g.bmp	0r_2g.bmp	0r_2g.bmp				0r_2g.bmp	TrialProc	TrialList	0	cvbn	-999999	16	305855	0	n	394	306249	284	-327	-43	-18	-58	19	14	8	9	90	0	0	0	0	4	4	2	2	0	2
Hungry_Donkey_bar_English_2	128	1	<?xml version="1.0"?>\n<Clock xmlns:dt="urn:schemas-microsoft-com:datatypes"><Description dt:dt="string">E-Prime Primary Realtime Clock</Description><StartTime><Timestamp dt:dt="int">0</Timestamp><DateUtc dt:dt="string">2015-08-20T21:05:04Z</DateUtc></StartTime><FrequencyChanges><FrequencyChange><Frequency dt:dt="r8">3507675</Frequency><Timestamp dt:dt="r8">37648342496</Timestamp><Current dt:dt="r8">0</Current><DateUtc dt:dt="string">2015-08-20T21:05:04Z</DateUtc></FrequencyChange></FrequencyChanges></Clock>\n	Hungry_Donkey_bar_English_2-128-1	60.017	-143	1.0.0.18	1	-1005648185	Standard	2.0.10.353	2.0.10.353	08-20-2015	8/20/2015 9:05:04 PM	17:05:04	2.0.10.248	91	Bar50-50.bmp	47	4	?	10r_4g.bmp	0r_4g.bmp	2r_2g.bmp	0r_2g.bmp				0r_2g.bmp	TrialProc	TrialList	0	cvbn	-999999	16	308287	0	n	362	308649	286	-327	-41	-18	-58	19	16	2	10	91	-10	0	-2	0	4	4	2	2	0	2
Hungry_Donkey_bar_English_2	128	1	<?xml version="1.0"?>\n<Clock xmlns:dt="urn:schemas-microsoft-com:datatypes"><Description dt:dt="string">E-Prime Primary Realtime Clock</Description><StartTime><Timestamp dt:dt="int">0</Timestamp><DateUtc dt:dt="string">2015-08-20T21:05:04Z</DateUtc></StartTime><FrequencyChanges><FrequencyChange><Frequency dt:dt="r8">3507675</Frequency><Timestamp dt:dt="r8">37648342496</Timestamp><Current dt:dt="r8">0</Current><DateUtc dt:dt="string">2015-08-20T21:05:04Z</DateUtc></FrequencyChange></FrequencyChanges></Clock>\n	Hungry_Donkey_bar_English_2-128-1	60.017	-143	1.0.0.18	1	-1005648185	Standard	2.0.10.353	2.0.10.353	08-20-2015	8/20/2015 9:05:04 PM	17:05:04	2.0.10.248	92	Bar50-50.bmp	47	4	?	10r_4g.bmp	0r_4g.bmp	2r_2g.bmp	0r_2g.bmp				0r_2g.bmp	TrialProc	TrialList	0	cvbn	-999999	16	310687	0	n	425	311112	288	-327	-39	-18	-58	19	18	3	10	92	-10	0	-2	0	4	4	2	2	0	2
Hungry_Donkey_bar_English_2	128	1	<?xml version="1.0"?>\n<Clock xmlns:dt="urn:schemas-microsoft-com:datatypes"><Description dt:dt="string">E-Prime Primary Realtime Clock</Description><StartTime><Timestamp dt:dt="int">0</Timestamp><DateUtc dt:dt="string">2015-08-20T21:05:04Z</DateUtc></StartTime><FrequencyChanges><FrequencyChange><Frequency dt:dt="r8">3507675</Frequency><Timestamp dt:dt="r8">37648342496</Timestamp><Current dt:dt="r8">0</Current><DateUtc dt:dt="string">2015-08-20T21:05:04Z</DateUtc></FrequencyChange></FrequencyChanges></Clock>\n	Hungry_Donkey_bar_English_2-128-1	60.017	-143	1.0.0.18	1	-1005648185	Standard	2.0.10.353	2.0.10.353	08-20-2015	8/20/2015 9:05:04 PM	17:05:04	2.0.10.248	93	Bar50-50.bmp	46	4	?	8r_4g.bmp	50r_4g.bmp	1r_2g.bmp	10r_2g.bmp				10r_2g.bmp	TrialProc	TrialList	0	cvbn	-999999	15	313136	0	n	600	313736	290	-337	-47	-18	-58	19	10	1	10	93	-8	-50	-1	-10	4	4	2	2	-10	2
Hungry_Donkey_bar_English_2	128	1	<?xml version="1.0"?>\n<Clock xmlns:dt="urn:schemas-microsoft-com:datatypes"><Description dt:dt="string">E-Prime Primary Realtime Clock</Description><StartTime><Timestamp dt:dt="int">0</Timestamp><DateUtc dt:dt="string">2015-08-20T21:05:04Z</DateUtc></StartTime><FrequencyChanges><FrequencyChange><Frequency dt:dt="r8">3507675</Frequency><Timestamp dt:dt="r8">37648342496</Timestamp><Current dt:dt="r8">0</Current><DateUtc dt:dt="string">2015-08-20T21:05:04Z</DateUtc></FrequencyChange></FrequencyChanges></Clock>\n	Hungry_Donkey_bar_English_2-128-1	60.017	-143	1.0.0.18	1	-1005648185	Standard	2.0.10.353	2.0.10.353	08-20-2015	8/20/2015 9:05:04 PM	17:05:04	2.0.10.248	94	Bar50-50.bmp	47	1	?	0r_4g.bmp	0r_4g.bmp	0r_2g.bmp	0r_2g.bmp	0r_4g.bmp				TrialProc	TrialList	0	cvbn	-999999	16	315769	0	c	863	316632	294	-337	-43	-14	-58	19	10	7	10	94	0	0	0	0	4	4	2	2	0	4
Hungry_Donkey_bar_English_2	128	1	<?xml version="1.0"?>\n<Clock xmlns:dt="urn:schemas-microsoft-com:datatypes"><Description dt:dt="string">E-Prime Primary Realtime Clock</Description><StartTime><Timestamp dt:dt="int">0</Timestamp><DateUtc dt:dt="string">2015-08-20T21:05:04Z</DateUtc></StartTime><FrequencyChanges><FrequencyChange><Frequency dt:dt="r8">3507675</Frequency><Timestamp dt:dt="r8">37648342496</Timestamp><Current dt:dt="r8">0</Current><DateUtc dt:dt="string">2015-08-20T21:05:04Z</DateUtc></FrequencyChange></FrequencyChanges></Clock>\n	Hungry_Donkey_bar_English_2-128-1	60.017	-143	1.0.0.18	1	-1005648185	Standard	2.0.10.353	2.0.10.353	08-20-2015	8/20/2015 9:05:04 PM	17:05:04	2.0.10.248	95	Bar50-50.bmp	47	1	?	0r_4g.bmp	0r_4g.bmp	0r_2g.bmp	0r_2g.bmp	0r_4g.bmp				TrialProc	TrialList	0	cvbn	-999999	16	318668	0	c	492	319160	298	-337	-39	-10	-58	19	10	9	10	95	0	0	0	0	4	4	2	2	0	4
Hungry_Donkey_bar_English_2	128	1	<?xml version="1.0"?>\n<Clock xmlns:dt="urn:schemas-microsoft-com:datatypes"><Description dt:dt="string">E-Prime Primary Realtime Clock</Description><StartTime><Timestamp dt:dt="int">0</Timestamp><DateUtc dt:dt="string">2015-08-20T21:05:04Z</DateUtc></StartTime><FrequencyChanges><FrequencyChange><Frequency dt:dt="r8">3507675</Frequency><Timestamp dt:dt="r8">37648342496</Timestamp><Current dt:dt="r8">0</Current><DateUtc dt:dt="string">2015-08-20T21:05:04Z</DateUtc></FrequencyChange></FrequencyChanges></Clock>\n	Hungry_Donkey_bar_English_2-128-1	60.017	-143	1.0.0.18	1	-1005648185	Standard	2.0.10.353	2.0.10.353	08-20-2015	8/20/2015 9:05:04 PM	17:05:04	2.0.10.248	96	Bar50-50.bmp	47	1	?	0r_4g.bmp	0r_4g.bmp	0r_2g.bmp	0r_2g.bmp	0r_4g.bmp				TrialProc	TrialList	0	cvbn	-999999	16	321200	0	c	376	321576	302	-337	-35	-6	-58	19	10	6	10	96	0	0	0	0	4	4	2	2	0	4
Hungry_Donkey_bar_English_2	128	1	<?xml version="1.0"?>\n<Clock xmlns:dt="urn:schemas-microsoft-com:datatypes"><Description dt:dt="string">E-Prime Primary Realtime Clock</Description><StartTime><Timestamp dt:dt="int">0</Timestamp><DateUtc dt:dt="string">2015-08-20T21:05:04Z</DateUtc></StartTime><FrequencyChanges><FrequencyChange><Frequency dt:dt="r8">3507675</Frequency><Timestamp dt:dt="r8">37648342496</Timestamp><Current dt:dt="r8">0</Current><DateUtc dt:dt="string">2015-08-20T21:05:04Z</DateUtc></FrequencyChange></FrequencyChanges></Clock>\n	Hungry_Donkey_bar_English_2-128-1	60.017	-143	1.0.0.18	1	-1005648185	Standard	2.0.10.353	2.0.10.353	08-20-2015	8/20/2015 9:05:04 PM	17:05:04	2.0.10.248	97	Bar50-50.bmp	48	1	?	0r_4g.bmp	0r_4g.bmp	0r_2g.bmp	0r_2g.bmp	0r_4g.bmp				TrialProc	TrialList	0	cvbn	-999999	16	323616	0	c	392	324008	306	-337	-31	-2	-58	19	10	8	10	97	0	0	0	0	4	4	2	2	0	4
Hungry_Donkey_bar_English_2	128	1	<?xml version="1.0"?>\n<Clock xmlns:dt="urn:schemas-microsoft-com:datatypes"><Description dt:dt="string">E-Prime Primary Realtime Clock</Description><StartTime><Timestamp dt:dt="int">0</Timestamp><DateUtc dt:dt="string">2015-08-20T21:05:04Z</DateUtc></StartTime><FrequencyChanges><FrequencyChange><Frequency dt:dt="r8">3507675</Frequency><Timestamp dt:dt="r8">37648342496</Timestamp><Current dt:dt="r8">0</Current><DateUtc dt:dt="string">2015-08-20T21:05:04Z</DateUtc></FrequencyChange></FrequencyChanges></Clock>\n	Hungry_Donkey_bar_English_2-128-1	60.017	-143	1.0.0.18	1	-1005648185	Standard	2.0.10.353	2.0.10.353	08-20-2015	8/20/2015 9:05:04 PM	17:05:04	2.0.10.248	98	Bar50-50.bmp	47	1	?	12r_4g.bmp	0r_4g.bmp	3r_2g.bmp	0r_2g.bmp	12r_4g.bmp				TrialProc	TrialList	0	cvbn	-999999	16	326032	0	c	296	326328	310	-349	-39	-10	-58	19	10	5	10	98	-12	0	-3	0	4	4	2	2	-12	4
Hungry_Donkey_bar_English_2	128	1	<?xml version="1.0"?>\n<Clock xmlns:dt="urn:schemas-microsoft-com:datatypes"><Description dt:dt="string">E-Prime Primary Realtime Clock</Description><StartTime><Timestamp dt:dt="int">0</Timestamp><DateUtc dt:dt="string">2015-08-20T21:05:04Z</DateUtc></StartTime><FrequencyChanges><FrequencyChange><Frequency dt:dt="r8">3507675</Frequency><Timestamp dt:dt="r8">37648342496</Timestamp><Current dt:dt="r8">0</Current><DateUtc dt:dt="string">2015-08-20T21:05:04Z</DateUtc></FrequencyChange></FrequencyChanges></Clock>\n	Hungry_Donkey_bar_English_2-128-1	60.017	-143	1.0.0.18	1	-1005648185	Standard	2.0.10.353	2.0.10.353	08-20-2015	8/20/2015 9:05:04 PM	17:05:04	2.0.10.248	99	Bar50-50.bmp	47	2	?	0r_4g.bmp	0r_4g.bmp	0r_2g.bmp	0r_2g.bmp		0r_4g.bmp			TrialProc	TrialList	0	cvbn	-999999	16	328365	0	v	1466	329831	314	-349	-35	-10	-54	19	10	10	10	99	0	0	0	0	4	4	2	2	0	4
Hungry_Donkey_bar_English_2	128	1	<?xml version="1.0"?>\n<Clock xmlns:dt="urn:schemas-microsoft-com:datatypes"><Description dt:dt="string">E-Prime Primary Realtime Clock</Description><StartTime><Timestamp dt:dt="int">0</Timestamp><DateUtc dt:dt="string">2015-08-20T21:05:04Z</DateUtc></StartTime><FrequencyChanges><FrequencyChange><Frequency dt:dt="r8">3507675</Frequency><Timestamp dt:dt="r8">37648342496</Timestamp><Current dt:dt="r8">0</Current><DateUtc dt:dt="string">2015-08-20T21:05:04Z</DateUtc></FrequencyChange></FrequencyChanges></Clock>\n	Hungry_Donkey_bar_English_2-128-1	60.017	-143	1.0.0.18	1	-1005648185	Standard	2.0.10.353	2.0.10.353	08-20-2015	8/20/2015 9:05:04 PM	17:05:04	2.0.10.248	100	Bar50-50.bmp	47	1	?	10r_4g.bmp	0r_4g.bmp	2r_2g.bmp	0r_2g.bmp	10r_4g.bmp				TrialProc	TrialList	0	cvbn	-999999	16	331864	0	c	943	332807	318	-359	-41	-16	-54	19	10	4	10	100	-10	0	-2	0	4	4	2	2	-10	4
Hungry_Donkey_bar_English_2	128	1	<?xml version="1.0"?>\n<Clock xmlns:dt="urn:schemas-microsoft-com:datatypes"><Description dt:dt="string">E-Prime Primary Realtime Clock</Description><StartTime><Timestamp dt:dt="int">0</Timestamp><DateUtc dt:dt="string">2015-08-20T21:05:04Z</DateUtc></StartTime><FrequencyChanges><FrequencyChange><Frequency dt:dt="r8">3507675</Frequency><Timestamp dt:dt="r8">37648342496</Timestamp><Current dt:dt="r8">0</Current><DateUtc dt:dt="string">2015-08-20T21:05:04Z</DateUtc></FrequencyChange></FrequencyChanges></Clock>\n	Hungry_Donkey_bar_English_2-128-1	60.017	-143	1.0.0.18	1	-1005648185	Standard	2.0.10.353	2.0.10.353	08-20-2015	8/20/2015 9:05:04 PM	17:05:04	2.0.10.248	101	Bar50-50.bmp	44	2	?	8r_4g.bmp	50r_4g.bmp	1r_2g.bmp	10r_2g.bmp		50r_4g.bmp			TrialProc	TrialList	0	cvbn	-999999	17	334847	0	v	392	335239	322	-409	-87	-16	-100	19	10	1	11	101	-8	-50	-1	-10	4	4	2	2	-50	4
Hungry_Donkey_bar_English_2	128	1	<?xml version="1.0"?>\n<Clock xmlns:dt="urn:schemas-microsoft-com:datatypes"><Description dt:dt="string">E-Prime Primary Realtime Clock</Description><StartTime><Timestamp dt:dt="int">0</Timestamp><DateUtc dt:dt="string">2015-08-20T21:05:04Z</DateUtc></StartTime><FrequencyChanges><FrequencyChange><Frequency dt:dt="r8">3507675</Frequency><Timestamp dt:dt="r8">37648342496</Timestamp><Current dt:dt="r8">0</Current><DateUtc dt:dt="string">2015-08-20T21:05:04Z</DateUtc></FrequencyChange></FrequencyChanges></Clock>\n	Hungry_Donkey_bar_English_2-128-1	60.017	-143	1.0.0.18	1	-1005648185	Standard	2.0.10.353	2.0.10.353	08-20-2015	8/20/2015 9:05:04 PM	17:05:04	2.0.10.248	102	Bar50-50.bmp	44	4	?	0r_4g.bmp	0r_4g.bmp	0r_2g.bmp	0r_2g.bmp				0r_2g.bmp	TrialProc	TrialList	0	cvbn	-999999	15	337262	0	n	937	338199	324	-409	-85	-16	-100	19	12	9	11	102	0	0	0	0	4	4	2	2	0	2
Hungry_Donkey_bar_English_2	128	1	<?xml version="1.0"?>\n<Clock xmlns:dt="urn:schemas-microsoft-com:datatypes"><Description dt:dt="string">E-Prime Primary Realtime Clock</Description><StartTime><Timestamp dt:dt="int">0</Timestamp><DateUtc dt:dt="string">2015-08-20T21:05:04Z</DateUtc></StartTime><FrequencyChanges><FrequencyChange><Frequency dt:dt="r8">3507675</Frequency><Timestamp dt:dt="r8">37648342496</Timestamp><Current dt:dt="r8">0</Current><DateUtc dt:dt="string">2015-08-20T21:05:04Z</DateUtc></FrequencyChange></FrequencyChanges></Clock>\n	Hungry_Donkey_bar_English_2-128-1	60.017	-143	1.0.0.18	1	-1005648185	Standard	2.0.10.353	2.0.10.353	08-20-2015	8/20/2015 9:05:04 PM	17:05:04	2.0.10.248	103	Bar50-50.bmp	44	4	?	0r_4g.bmp	0r_4g.bmp	0r_2g.bmp	0r_2g.bmp				0r_2g.bmp	TrialProc	TrialList	0	cvbn	-999999	16	340228	0	n	531	340759	326	-409	-83	-16	-100	19	14	10	11	103	0	0	0	0	4	4	2	2	0	2
Hungry_Donkey_bar_English_2	128	1	<?xml version="1.0"?>\n<Clock xmlns:dt="urn:schemas-microsoft-com:datatypes"><Description dt:dt="string">E-Prime Primary Realtime Clock</Description><StartTime><Timestamp dt:dt="int">0</Timestamp><DateUtc dt:dt="string">2015-08-20T21:05:04Z</DateUtc></StartTime><FrequencyChanges><FrequencyChange><Frequency dt:dt="r8">3507675</Frequency><Timestamp dt:dt="r8">37648342496</Timestamp><Current dt:dt="r8">0</Current><DateUtc dt:dt="string">2015-08-20T21:05:04Z</DateUtc></FrequencyChange></FrequencyChanges></Clock>\n	Hungry_Donkey_bar_English_2-128-1	60.017	-143	1.0.0.18	1	-1005648185	Standard	2.0.10.353	2.0.10.353	08-20-2015	8/20/2015 9:05:04 PM	17:05:04	2.0.10.248	104	Bar50-50.bmp	45	4	?	10r_4g.bmp	0r_4g.bmp	2r_2g.bmp	0r_2g.bmp				0r_2g.bmp	TrialProc	TrialList	0	cvbn	-999999	16	342794	0	n	525	343319	328	-409	-81	-16	-100	19	16	3	11	104	-10	0	-2	0	4	4	2	2	0	2
Hungry_Donkey_bar_English_2	128	1	<?xml version="1.0"?>\n<Clock xmlns:dt="urn:schemas-microsoft-com:datatypes"><Description dt:dt="string">E-Prime Primary Realtime Clock</Description><StartTime><Timestamp dt:dt="int">0</Timestamp><DateUtc dt:dt="string">2015-08-20T21:05:04Z</DateUtc></StartTime><FrequencyChanges><FrequencyChange><Frequency dt:dt="r8">3507675</Frequency><Timestamp dt:dt="r8">37648342496</Timestamp><Current dt:dt="r8">0</Current><DateUtc dt:dt="string">2015-08-20T21:05:04Z</DateUtc></FrequencyChange></FrequencyChanges></Clock>\n	Hungry_Donkey_bar_English_2-128-1	60.017	-143	1.0.0.18	1	-1005648185	Standard	2.0.10.353	2.0.10.353	08-20-2015	8/20/2015 9:05:04 PM	17:05:04	2.0.10.248	105	Bar50-50.bmp	45	4	?	0r_4g.bmp	0r_4g.bmp	0r_2g.bmp	0r_2g.bmp				0r_2g.bmp	TrialProc	TrialList	0	cvbn	-999999	16	345344	0	n	1239	346583	330	-409	-79	-16	-100	19	18	7	11	105	0	0	0	0	4	4	2	2	0	2
Hungry_Donkey_bar_English_2	128	1	<?xml version="1.0"?>\n<Clock xmlns:dt="urn:schemas-microsoft-com:datatypes"><Description dt:dt="string">E-Prime Primary Realtime Clock</Description><StartTime><Timestamp dt:dt="int">0</Timestamp><DateUtc dt:dt="string">2015-08-20T21:05:04Z</DateUtc></StartTime><FrequencyChanges><FrequencyChange><Frequency dt:dt="r8">3507675</Frequency><Timestamp dt:dt="r8">37648342496</Timestamp><Current dt:dt="r8">0</Current><DateUtc dt:dt="string">2015-08-20T21:05:04Z</DateUtc></FrequencyChange></FrequencyChanges></Clock>\n	Hungry_Donkey_bar_English_2-128-1	60.017	-143	1.0.0.18	1	-1005648185	Standard	2.0.10.353	2.0.10.353	08-20-2015	8/20/2015 9:05:04 PM	17:05:04	2.0.10.248	106	Bar50-50.bmp	45	4	?	10r_4g.bmp	0r_4g.bmp	2r_2g.bmp	0r_2g.bmp				0r_2g.bmp	TrialProc	TrialList	0	cvbn	-999999	16	348609	0	n	230	348839	332	-409	-77	-16	-100	19	20	4	11	106	-10	0	-2	0	4	4	2	2	0	2
Hungry_Donkey_bar_English_2	128	1	<?xml version="1.0"?>\n<Clock xmlns:dt="urn:schemas-microsoft-com:datatypes"><Description dt:dt="string">E-Prime Primary Realtime Clock</Description><StartTime><Timestamp dt:dt="int">0</Timestamp><DateUtc dt:dt="string">2015-08-20T21:05:04Z</DateUtc></StartTime><FrequencyChanges><FrequencyChange><Frequency dt:dt="r8">3507675</Frequency><Timestamp dt:dt="r8">37648342496</Timestamp><Current dt:dt="r8">0</Current><DateUtc dt:dt="string">2015-08-20T21:05:04Z</DateUtc></FrequencyChange></FrequencyChanges></Clock>\n	Hungry_Donkey_bar_English_2-128-1	60.017	-143	1.0.0.18	1	-1005648185	Standard	2.0.10.353	2.0.10.353	08-20-2015	8/20/2015 9:05:04 PM	17:05:04	2.0.10.248	107	Bar50-50.bmp	45	4	?	10r_4g.bmp	0r_4g.bmp	2r_2g.bmp	0r_2g.bmp				0r_2g.bmp	TrialProc	TrialList	0	cvbn	-999999	16	350875	0	n	363	351238	334	-409	-75	-16	-100	19	22	2	11	107	-10	0	-2	0	4	4	2	2	0	2
Hungry_Donkey_bar_English_2	128	1	<?xml version="1.0"?>\n<Clock xmlns:dt="urn:schemas-microsoft-com:datatypes"><Description dt:dt="string">E-Prime Primary Realtime Clock</Description><StartTime><Timestamp dt:dt="int">0</Timestamp><DateUtc dt:dt="string">2015-08-20T21:05:04Z</DateUtc></StartTime><FrequencyChanges><FrequencyChange><Frequency dt:dt="r8">3507675</Frequency><Timestamp dt:dt="r8">37648342496</Timestamp><Current dt:dt="r8">0</Current><DateUtc dt:dt="string">2015-08-20T21:05:04Z</DateUtc></FrequencyChange></FrequencyChanges></Clock>\n	Hungry_Donkey_bar_English_2-128-1	60.017	-143	1.0.0.18	1	-1005648185	Standard	2.0.10.353	2.0.10.353	08-20-2015	8/20/2015 9:05:04 PM	17:05:04	2.0.10.248	108	Bar50-50.bmp	45	4	?	0r_4g.bmp	0r_4g.bmp	0r_2g.bmp	0r_2g.bmp				0r_2g.bmp	TrialProc	TrialList	0	cvbn	-999999	17	353275	0	n	363	353638	336	-409	-73	-16	-100	19	24	6	11	108	0	0	0	0	4	4	2	2	0	2
Hungry_Donkey_bar_English_2	128	1	<?xml version="1.0"?>\n<Clock xmlns:dt="urn:schemas-microsoft-com:datatypes"><Description dt:dt="string">E-Prime Primary Realtime Clock</Description><StartTime><Timestamp dt:dt="int">0</Timestamp><DateUtc dt:dt="string">2015-08-20T21:05:04Z</DateUtc></StartTime><FrequencyChanges><FrequencyChange><Frequency dt:dt="r8">3507675</Frequency><Timestamp dt:dt="r8">37648342496</Timestamp><Current dt:dt="r8">0</Current><DateUtc dt:dt="string">2015-08-20T21:05:04Z</DateUtc></FrequencyChange></FrequencyChanges></Clock>\n	Hungry_Donkey_bar_English_2-128-1	60.017	-143	1.0.0.18	1	-1005648185	Standard	2.0.10.353	2.0.10.353	08-20-2015	8/20/2015 9:05:04 PM	17:05:04	2.0.10.248	109	Bar50-50.bmp	45	4	?	12r_4g.bmp	0r_4g.bmp	3r_2g.bmp	0r_2g.bmp				0r_2g.bmp	TrialProc	TrialList	0	cvbn	-999999	16	355674	0	n	316	355990	338	-409	-71	-16	-100	19	26	5	11	109	-12	0	-3	0	4	4	2	2	0	2
Hungry_Donkey_bar_English_2	128	1	<?xml version="1.0"?>\n<Clock xmlns:dt="urn:schemas-microsoft-com:datatypes"><Description dt:dt="string">E-Prime Primary Realtime Clock</Description><StartTime><Timestamp dt:dt="int">0</Timestamp><DateUtc dt:dt="string">2015-08-20T21:05:04Z</DateUtc></StartTime><FrequencyChanges><FrequencyChange><Frequency dt:dt="r8">3507675</Frequency><Timestamp dt:dt="r8">37648342496</Timestamp><Current dt:dt="r8">0</Current><DateUtc dt:dt="string">2015-08-20T21:05:04Z</DateUtc></FrequencyChange></FrequencyChanges></Clock>\n	Hungry_Donkey_bar_English_2-128-1	60.017	-143	1.0.0.18	1	-1005648185	Standard	2.0.10.353	2.0.10.353	08-20-2015	8/20/2015 9:05:04 PM	17:05:04	2.0.10.248	110	Bar50-50.bmp	45	4	?	0r_4g.bmp	0r_4g.bmp	0r_2g.bmp	0r_2g.bmp				0r_2g.bmp	TrialProc	TrialList	0	cvbn	-999999	16	358023	0	n	447	358470	340	-409	-69	-16	-100	19	28	8	11	110	0	0	0	0	4	4	2	2	0	2
Hungry_Donkey_bar_English_2	128	1	<?xml version="1.0"?>\n<Clock xmlns:dt="urn:schemas-microsoft-com:datatypes"><Description dt:dt="string">E-Prime Primary Realtime Clock</Description><StartTime><Timestamp dt:dt="int">0</Timestamp><DateUtc dt:dt="string">2015-08-20T21:05:04Z</DateUtc></StartTime><FrequencyChanges><FrequencyChange><Frequency dt:dt="r8">3507675</Frequency><Timestamp dt:dt="r8">37648342496</Timestamp><Current dt:dt="r8">0</Current><DateUtc dt:dt="string">2015-08-20T21:05:04Z</DateUtc></FrequencyChange></FrequencyChanges></Clock>\n	Hungry_Donkey_bar_English_2-128-1	60.017	-143	1.0.0.18	1	-1005648185	Standard	2.0.10.353	2.0.10.353	08-20-2015	8/20/2015 9:05:04 PM	17:05:04	2.0.10.248	111	Bar50-50.bmp	46	4	?	10r_4g.bmp	0r_4g.bmp	2r_2g.bmp	0r_2g.bmp				0r_2g.bmp	TrialProc	TrialList	0	cvbn	-999999	16	360506	0	n	428	360934	342	-409	-67	-16	-100	19	30	4	12	111	-10	0	-2	0	4	4	2	2	0	2
