ExperimentName	Subject	Session	Clock.Information	DataFile.Basename	Display.RefreshRate	Eindtotaal[Session]	ExperimentVersion	Group	RandomSeed	RuntimeCapabilities	RuntimeVersion	RuntimeVersionExpected	SessionDate	SessionStartDateTimeUtc	SessionTime	StudioVersion	Block	BarImage	BarTotalWinst	DoorChoice	Eindtotaal[Block]	FBDoor1	FBDoor2	FBDoor3	FBDoor4	Image1	Image2	Image3	Image4	Procedure	Running	spel.ACC	spel.CRESP	spel.DurationError	spel.OnsetDelay	spel.OnsetTime	spel.OnsetToOnsetTime	spel.RESP	spel.RT	spel.RTTime	TotalGain	TotalLose	Totalsum	TotalsumD1	TotalsumD2	TotalsumD3	TotalsumD4	TrialList	TrialList.Cycle	TrialList.Sample	varV1	varV2	varV3	varV4	varW1	varW2	varW3	varW4	Verliesbedrag	Winstbedrag
Hungry_Donkey_bar_English_2	145	1	<?xml version="1.0"?>\n<Clock xmlns:dt="urn:schemas-microsoft-com:datatypes"><Description dt:dt="string">E-Prime Primary Realtime Clock</Description><StartTime><Timestamp dt:dt="int">0</Timestamp><DateUtc dt:dt="string">2016-05-09T21:58:55Z</DateUtc></StartTime><FrequencyChanges><FrequencyChange><Frequency dt:dt="r8">3507724</Frequency><Timestamp dt:dt="r8">993447990201</Timestamp><Current dt:dt="r8">0</Current><DateUtc dt:dt="string">2016-05-09T21:58:55Z</DateUtc></FrequencyChange></FrequencyChanges></Clock>\n	Hungry_Donkey_bar_English_2-145-1	60.018	105	1.0.0.18	1	1311259670	Standard	2.0.10.353	2.0.10.353	05-09-2016	5/9/2016 9:58:55 PM	17:58:55	2.0.10.248	1	Bar25-75.bmp	29	1	?	10r_4g.bmp	0r_4g.bmp	2r_2g.bmp	0r_2g.bmp	10r_4g.bmp				TrialProc	TrialList	0	cvbn	-999999	24	97115	0	c	2024	99139	4	-10	-6	-6	0	0	0	3	1	1	-10	0	-2	0	4	4	2	2	-10	4
Hungry_Donkey_bar_English_2	145	1	<?xml version="1.0"?>\n<Clock xmlns:dt="urn:schemas-microsoft-com:datatypes"><Description dt:dt="string">E-Prime Primary Realtime Clock</Description><StartTime><Timestamp dt:dt="int">0</Timestamp><DateUtc dt:dt="string">2016-05-09T21:58:55Z</DateUtc></StartTime><FrequencyChanges><FrequencyChange><Frequency dt:dt="r8">3507724</Frequency><Timestamp dt:dt="r8">993447990201</Timestamp><Current dt:dt="r8">0</Current><DateUtc dt:dt="string">2016-05-09T21:58:55Z</DateUtc></FrequencyChange></FrequencyChanges></Clock>\n	Hungry_Donkey_bar_English_2-145-1	60.018	105	1.0.0.18	1	1311259670	Standard	2.0.10.353	2.0.10.353	05-09-2016	5/9/2016 9:58:55 PM	17:58:55	2.0.10.248	2	Bar50-50.bmp	44	2	?	0r_4g.bmp	0r_4g.bmp	0r_2g.bmp	0r_2g.bmp		0r_4g.bmp			TrialProc	TrialList	0	cvbn	-999999	16	101180	0	v	2407	103587	8	-10	-2	-6	4	0	0	8	1	2	0	0	0	0	4	4	2	2	0	4
Hungry_Donkey_bar_English_2	145	1	<?xml version="1.0"?>\n<Clock xmlns:dt="urn:schemas-microsoft-com:datatypes"><Description dt:dt="string">E-Prime Primary Realtime Clock</Description><StartTime><Timestamp dt:dt="int">0</Timestamp><DateUtc dt:dt="string">2016-05-09T21:58:55Z</DateUtc></StartTime><FrequencyChanges><FrequencyChange><Frequency dt:dt="r8">3507724</Frequency><Timestamp dt:dt="r8">993447990201</Timestamp><Current dt:dt="r8">0</Current><DateUtc dt:dt="string">2016-05-09T21:58:55Z</DateUtc></FrequencyChange></FrequencyChanges></Clock>\n	Hungry_Donkey_bar_English_2-145-1	60.018	105	1.0.0.18	1	1311259670	Standard	2.0.10.353	2.0.10.353	05-09-2016	5/9/2016 9:58:55 PM	17:58:55	2.0.10.248	3	Bar50-50.bmp	50	3	?	0r_4g.bmp	0r_4g.bmp	0r_2g.bmp	0r_2g.bmp			0r_2g.bmp		TrialProc	TrialList	0	cvbn	-999999	16	105629	0	b	1382	107011	10	-10	0	-6	4	2	0	6	1	3	0	0	0	0	4	4	2	2	0	2
Hungry_Donkey_bar_English_2	145	1	<?xml version="1.0"?>\n<Clock xmlns:dt="urn:schemas-microsoft-com:datatypes"><Description dt:dt="string">E-Prime Primary Realtime Clock</Description><StartTime><Timestamp dt:dt="int">0</Timestamp><DateUtc dt:dt="string">2016-05-09T21:58:55Z</DateUtc></StartTime><FrequencyChanges><FrequencyChange><Frequency dt:dt="r8">3507724</Frequency><Timestamp dt:dt="r8">993447990201</Timestamp><Current dt:dt="r8">0</Current><DateUtc dt:dt="string">2016-05-09T21:58:55Z</DateUtc></FrequencyChange></FrequencyChanges></Clock>\n	Hungry_Donkey_bar_English_2-145-1	60.018	105	1.0.0.18	1	1311259670	Standard	2.0.10.353	2.0.10.353	05-09-2016	5/9/2016 9:58:55 PM	17:58:55	2.0.10.248	4	Bar50-50.bmp	55	4	?	0r_4g.bmp	0r_4g.bmp	0r_2g.bmp	0r_2g.bmp				0r_2g.bmp	TrialProc	TrialList	0	cvbn	-999999	17	109045	0	n	1006	110051	12	-10	2	-6	4	2	2	10	1	4	0	0	0	0	4	4	2	2	0	2
Hungry_Donkey_bar_English_2	145	1	<?xml version="1.0"?>\n<Clock xmlns:dt="urn:schemas-microsoft-com:datatypes"><Description dt:dt="string">E-Prime Primary Realtime Clock</Description><StartTime><Timestamp dt:dt="int">0</Timestamp><DateUtc dt:dt="string">2016-05-09T21:58:55Z</DateUtc></StartTime><FrequencyChanges><FrequencyChange><Frequency dt:dt="r8">3507724</Frequency><Timestamp dt:dt="r8">993447990201</Timestamp><Current dt:dt="r8">0</Current><DateUtc dt:dt="string">2016-05-09T21:58:55Z</DateUtc></FrequencyChange></FrequencyChanges></Clock>\n	Hungry_Donkey_bar_English_2-145-1	60.018	105	1.0.0.18	1	1311259670	Standard	2.0.10.353	2.0.10.353	05-09-2016	5/9/2016 9:58:55 PM	17:58:55	2.0.10.248	5	Bar50-50.bmp	47	1	?	8r_4g.bmp	50r_4g.bmp	1r_2g.bmp	10r_2g.bmp	8r_4g.bmp				TrialProc	TrialList	0	cvbn	-999999	15	112077	0	c	3477	115554	16	-18	-2	-10	4	2	2	1	1	5	-8	-50	-1	-10	4	4	2	2	-8	4
Hungry_Donkey_bar_English_2	145	1	<?xml version="1.0"?>\n<Clock xmlns:dt="urn:schemas-microsoft-com:datatypes"><Description dt:dt="string">E-Prime Primary Realtime Clock</Description><StartTime><Timestamp dt:dt="int">0</Timestamp><DateUtc dt:dt="string">2016-05-09T21:58:55Z</DateUtc></StartTime><FrequencyChanges><FrequencyChange><Frequency dt:dt="r8">3507724</Frequency><Timestamp dt:dt="r8">993447990201</Timestamp><Current dt:dt="r8">0</Current><DateUtc dt:dt="string">2016-05-09T21:58:55Z</DateUtc></FrequencyChange></FrequencyChanges></Clock>\n	Hungry_Donkey_bar_English_2-145-1	60.018	105	1.0.0.18	1	1311259670	Standard	2.0.10.353	2.0.10.353	05-09-2016	5/9/2016 9:58:55 PM	17:58:55	2.0.10.248	6	Bar50-50.bmp	53	2	?	0r_4g.bmp	0r_4g.bmp	0r_2g.bmp	0r_2g.bmp		0r_4g.bmp			TrialProc	TrialList	0	cvbn	-999999	16	117592	0	v	1194	118786	20	-18	2	-10	8	2	2	9	1	6	0	0	0	0	4	4	2	2	0	4
Hungry_Donkey_bar_English_2	145	1	<?xml version="1.0"?>\n<Clock xmlns:dt="urn:schemas-microsoft-com:datatypes"><Description dt:dt="string">E-Prime Primary Realtime Clock</Description><StartTime><Timestamp dt:dt="int">0</Timestamp><DateUtc dt:dt="string">2016-05-09T21:58:55Z</DateUtc></StartTime><FrequencyChanges><FrequencyChange><Frequency dt:dt="r8">3507724</Frequency><Timestamp dt:dt="r8">993447990201</Timestamp><Current dt:dt="r8">0</Current><DateUtc dt:dt="string">2016-05-09T21:58:55Z</DateUtc></FrequencyChange></FrequencyChanges></Clock>\n	Hungry_Donkey_bar_English_2-145-1	60.018	105	1.0.0.18	1	1311259670	Standard	2.0.10.353	2.0.10.353	05-09-2016	5/9/2016 9:58:55 PM	17:58:55	2.0.10.248	7	Bar50-50.bmp	51	3	?	12r_4g.bmp	0r_4g.bmp	3r_2g.bmp	0r_2g.bmp			3r_2g.bmp		TrialProc	TrialList	0	cvbn	-999999	16	120824	0	b	650	121474	22	-21	1	-10	8	1	2	5	1	7	-12	0	-3	0	4	4	2	2	-3	2
Hungry_Donkey_bar_English_2	145	1	<?xml version="1.0"?>\n<Clock xmlns:dt="urn:schemas-microsoft-com:datatypes"><Description dt:dt="string">E-Prime Primary Realtime Clock</Description><StartTime><Timestamp dt:dt="int">0</Timestamp><DateUtc dt:dt="string">2016-05-09T21:58:55Z</DateUtc></StartTime><FrequencyChanges><FrequencyChange><Frequency dt:dt="r8">3507724</Frequency><Timestamp dt:dt="r8">993447990201</Timestamp><Current dt:dt="r8">0</Current><DateUtc dt:dt="string">2016-05-09T21:58:55Z</DateUtc></FrequencyChange></FrequencyChanges></Clock>\n	Hungry_Donkey_bar_English_2-145-1	60.018	105	1.0.0.18	1	1311259670	Standard	2.0.10.353	2.0.10.353	05-09-2016	5/9/2016 9:58:55 PM	17:58:55	2.0.10.248	8	Bar50-50.bmp	53	4	?	0r_4g.bmp	0r_4g.bmp	0r_2g.bmp	0r_2g.bmp				0r_2g.bmp	TrialProc	TrialList	0	cvbn	-999999	16	123507	0	n	639	124146	24	-21	3	-10	8	1	4	7	1	8	0	0	0	0	4	4	2	2	0	2
Hungry_Donkey_bar_English_2	145	1	<?xml version="1.0"?>\n<Clock xmlns:dt="urn:schemas-microsoft-com:datatypes"><Description dt:dt="string">E-Prime Primary Realtime Clock</Description><StartTime><Timestamp dt:dt="int">0</Timestamp><DateUtc dt:dt="string">2016-05-09T21:58:55Z</DateUtc></StartTime><FrequencyChanges><FrequencyChange><Frequency dt:dt="r8">3507724</Frequency><Timestamp dt:dt="r8">993447990201</Timestamp><Current dt:dt="r8">0</Current><DateUtc dt:dt="string">2016-05-09T21:58:55Z</DateUtc></FrequencyChange></FrequencyChanges></Clock>\n	Hungry_Donkey_bar_English_2-145-1	60.018	105	1.0.0.18	1	1311259670	Standard	2.0.10.353	2.0.10.353	05-09-2016	5/9/2016 9:58:55 PM	17:58:55	2.0.10.248	9	Bar50-50.bmp	47	1	?	10r_4g.bmp	0r_4g.bmp	2r_2g.bmp	0r_2g.bmp	10r_4g.bmp				TrialProc	TrialList	0	cvbn	-999999	16	126173	0	c	1749	127922	28	-31	-3	-16	8	1	4	2	1	9	-10	0	-2	0	4	4	2	2	-10	4
Hungry_Donkey_bar_English_2	145	1	<?xml version="1.0"?>\n<Clock xmlns:dt="urn:schemas-microsoft-com:datatypes"><Description dt:dt="string">E-Prime Primary Realtime Clock</Description><StartTime><Timestamp dt:dt="int">0</Timestamp><DateUtc dt:dt="string">2016-05-09T21:58:55Z</DateUtc></StartTime><FrequencyChanges><FrequencyChange><Frequency dt:dt="r8">3507724</Frequency><Timestamp dt:dt="r8">993447990201</Timestamp><Current dt:dt="r8">0</Current><DateUtc dt:dt="string">2016-05-09T21:58:55Z</DateUtc></FrequencyChange></FrequencyChanges></Clock>\n	Hungry_Donkey_bar_English_2-145-1	60.018	105	1.0.0.18	1	1311259670	Standard	2.0.10.353	2.0.10.353	05-09-2016	5/9/2016 9:58:55 PM	17:58:55	2.0.10.248	10	Bar50-50.bmp	51	2	?	10r_4g.bmp	0r_4g.bmp	2r_2g.bmp	0r_2g.bmp		0r_4g.bmp			TrialProc	TrialList	0	cvbn	-999999	16	129955	0	v	238	130193	32	-31	1	-16	12	1	4	4	1	10	-10	0	-2	0	4	4	2	2	0	4
Hungry_Donkey_bar_English_2	145	1	<?xml version="1.0"?>\n<Clock xmlns:dt="urn:schemas-microsoft-com:datatypes"><Description dt:dt="string">E-Prime Primary Realtime Clock</Description><StartTime><Timestamp dt:dt="int">0</Timestamp><DateUtc dt:dt="string">2016-05-09T21:58:55Z</DateUtc></StartTime><FrequencyChanges><FrequencyChange><Frequency dt:dt="r8">3507724</Frequency><Timestamp dt:dt="r8">993447990201</Timestamp><Current dt:dt="r8">0</Current><DateUtc dt:dt="string">2016-05-09T21:58:55Z</DateUtc></FrequencyChange></FrequencyChanges></Clock>\n	Hungry_Donkey_bar_English_2-145-1	60.018	105	1.0.0.18	1	1311259670	Standard	2.0.10.353	2.0.10.353	05-09-2016	5/9/2016 9:58:55 PM	17:58:55	2.0.10.248	11	Bar50-50.bmp	51	3	?	10r_4g.bmp	0r_4g.bmp	2r_2g.bmp	0r_2g.bmp			2r_2g.bmp		TrialProc	TrialList	0	cvbn	-999999	16	132221	0	b	1460	133681	34	-33	1	-16	12	1	4	3	2	11	-10	0	-2	0	4	4	2	2	-2	2
Hungry_Donkey_bar_English_2	145	1	<?xml version="1.0"?>\n<Clock xmlns:dt="urn:schemas-microsoft-com:datatypes"><Description dt:dt="string">E-Prime Primary Realtime Clock</Description><StartTime><Timestamp dt:dt="int">0</Timestamp><DateUtc dt:dt="string">2016-05-09T21:58:55Z</DateUtc></StartTime><FrequencyChanges><FrequencyChange><Frequency dt:dt="r8">3507724</Frequency><Timestamp dt:dt="r8">993447990201</Timestamp><Current dt:dt="r8">0</Current><DateUtc dt:dt="string">2016-05-09T21:58:55Z</DateUtc></FrequencyChange></FrequencyChanges></Clock>\n	Hungry_Donkey_bar_English_2-145-1	60.018	105	1.0.0.18	1	1311259670	Standard	2.0.10.353	2.0.10.353	05-09-2016	5/9/2016 9:58:55 PM	17:58:55	2.0.10.248	12	Bar50-50.bmp	52	4	?	0r_4g.bmp	0r_4g.bmp	0r_2g.bmp	0r_2g.bmp				0r_2g.bmp	TrialProc	TrialList	0	cvbn	-999999	16	135720	0	n	393	136113	36	-33	3	-16	12	1	6	10	2	12	0	0	0	0	4	4	2	2	0	2
Hungry_Donkey_bar_English_2	145	1	<?xml version="1.0"?>\n<Clock xmlns:dt="urn:schemas-microsoft-com:datatypes"><Description dt:dt="string">E-Prime Primary Realtime Clock</Description><StartTime><Timestamp dt:dt="int">0</Timestamp><DateUtc dt:dt="string">2016-05-09T21:58:55Z</DateUtc></StartTime><FrequencyChanges><FrequencyChange><Frequency dt:dt="r8">3507724</Frequency><Timestamp dt:dt="r8">993447990201</Timestamp><Current dt:dt="r8">0</Current><DateUtc dt:dt="string">2016-05-09T21:58:55Z</DateUtc></FrequencyChange></FrequencyChanges></Clock>\n	Hungry_Donkey_bar_English_2-145-1	60.018	105	1.0.0.18	1	1311259670	Standard	2.0.10.353	2.0.10.353	05-09-2016	5/9/2016 9:58:55 PM	17:58:55	2.0.10.248	13	Bar50-50.bmp	55	1	?	0r_4g.bmp	0r_4g.bmp	0r_2g.bmp	0r_2g.bmp	0r_4g.bmp				TrialProc	TrialList	0	cvbn	-999999	16	138152	0	c	857	139009	40	-33	7	-12	12	1	6	8	2	13	0	0	0	0	4	4	2	2	0	4
Hungry_Donkey_bar_English_2	145	1	<?xml version="1.0"?>\n<Clock xmlns:dt="urn:schemas-microsoft-com:datatypes"><Description dt:dt="string">E-Prime Primary Realtime Clock</Description><StartTime><Timestamp dt:dt="int">0</Timestamp><DateUtc dt:dt="string">2016-05-09T21:58:55Z</DateUtc></StartTime><FrequencyChanges><FrequencyChange><Frequency dt:dt="r8">3507724</Frequency><Timestamp dt:dt="r8">993447990201</Timestamp><Current dt:dt="r8">0</Current><DateUtc dt:dt="string">2016-05-09T21:58:55Z</DateUtc></FrequencyChange></FrequencyChanges></Clock>\n	Hungry_Donkey_bar_English_2-145-1	60.018	105	1.0.0.18	1	1311259670	Standard	2.0.10.353	2.0.10.353	05-09-2016	5/9/2016 9:58:55 PM	17:58:55	2.0.10.248	14	Bar63-37.bmp	57	2	?	0r_4g.bmp	0r_4g.bmp	0r_2g.bmp	0r_2g.bmp		0r_4g.bmp			TrialProc	TrialList	0	cvbn	-999999	16	141035	0	v	614	141649	44	-33	11	-12	16	1	6	9	2	14	0	0	0	0	4	4	2	2	0	4
Hungry_Donkey_bar_English_2	145	1	<?xml version="1.0"?>\n<Clock xmlns:dt="urn:schemas-microsoft-com:datatypes"><Description dt:dt="string">E-Prime Primary Realtime Clock</Description><StartTime><Timestamp dt:dt="int">0</Timestamp><DateUtc dt:dt="string">2016-05-09T21:58:55Z</DateUtc></StartTime><FrequencyChanges><FrequencyChange><Frequency dt:dt="r8">3507724</Frequency><Timestamp dt:dt="r8">993447990201</Timestamp><Current dt:dt="r8">0</Current><DateUtc dt:dt="string">2016-05-09T21:58:55Z</DateUtc></FrequencyChange></FrequencyChanges></Clock>\n	Hungry_Donkey_bar_English_2-145-1	60.018	105	1.0.0.18	1	1311259670	Standard	2.0.10.353	2.0.10.353	05-09-2016	5/9/2016 9:58:55 PM	17:58:55	2.0.10.248	15	Bar50-50.bmp	56	3	?	12r_4g.bmp	0r_4g.bmp	3r_2g.bmp	0r_2g.bmp			3r_2g.bmp		TrialProc	TrialList	0	cvbn	-999999	16	143684	0	b	541	144225	46	-36	10	-12	16	0	6	5	2	15	-12	0	-3	0	4	4	2	2	-3	2
Hungry_Donkey_bar_English_2	145	1	<?xml version="1.0"?>\n<Clock xmlns:dt="urn:schemas-microsoft-com:datatypes"><Description dt:dt="string">E-Prime Primary Realtime Clock</Description><StartTime><Timestamp dt:dt="int">0</Timestamp><DateUtc dt:dt="string">2016-05-09T21:58:55Z</DateUtc></StartTime><FrequencyChanges><FrequencyChange><Frequency dt:dt="r8">3507724</Frequency><Timestamp dt:dt="r8">993447990201</Timestamp><Current dt:dt="r8">0</Current><DateUtc dt:dt="string">2016-05-09T21:58:55Z</DateUtc></FrequencyChange></FrequencyChanges></Clock>\n	Hungry_Donkey_bar_English_2-145-1	60.018	105	1.0.0.18	1	1311259670	Standard	2.0.10.353	2.0.10.353	05-09-2016	5/9/2016 9:58:55 PM	17:58:55	2.0.10.248	16	Bar63-37.bmp	57	4	?	0r_4g.bmp	0r_4g.bmp	0r_2g.bmp	0r_2g.bmp				0r_2g.bmp	TrialProc	TrialList	0	cvbn	-999999	16	146250	0	n	694	146944	48	-36	12	-12	16	0	8	6	2	16	0	0	0	0	4	4	2	2	0	2
Hungry_Donkey_bar_English_2	145	1	<?xml version="1.0"?>\n<Clock xmlns:dt="urn:schemas-microsoft-com:datatypes"><Description dt:dt="string">E-Prime Primary Realtime Clock</Description><StartTime><Timestamp dt:dt="int">0</Timestamp><DateUtc dt:dt="string">2016-05-09T21:58:55Z</DateUtc></StartTime><FrequencyChanges><FrequencyChange><Frequency dt:dt="r8">3507724</Frequency><Timestamp dt:dt="r8">993447990201</Timestamp><Current dt:dt="r8">0</Current><DateUtc dt:dt="string">2016-05-09T21:58:55Z</DateUtc></FrequencyChange></FrequencyChanges></Clock>\n	Hungry_Donkey_bar_English_2-145-1	60.018	105	1.0.0.18	1	1311259670	Standard	2.0.10.353	2.0.10.353	05-09-2016	5/9/2016 9:58:55 PM	17:58:55	2.0.10.248	17	Bar63-37.bmp	59	1	?	0r_4g.bmp	0r_4g.bmp	0r_2g.bmp	0r_2g.bmp	0r_4g.bmp				TrialProc	TrialList	0	cvbn	-999999	16	148983	0	c	1049	150032	52	-36	16	-8	16	0	8	7	2	17	0	0	0	0	4	4	2	2	0	4
Hungry_Donkey_bar_English_2	145	1	<?xml version="1.0"?>\n<Clock xmlns:dt="urn:schemas-microsoft-com:datatypes"><Description dt:dt="string">E-Prime Primary Realtime Clock</Description><StartTime><Timestamp dt:dt="int">0</Timestamp><DateUtc dt:dt="string">2016-05-09T21:58:55Z</DateUtc></StartTime><FrequencyChanges><FrequencyChange><Frequency dt:dt="r8">3507724</Frequency><Timestamp dt:dt="r8">993447990201</Timestamp><Current dt:dt="r8">0</Current><DateUtc dt:dt="string">2016-05-09T21:58:55Z</DateUtc></FrequencyChange></FrequencyChanges></Clock>\n	Hungry_Donkey_bar_English_2-145-1	60.018	105	1.0.0.18	1	1311259670	Standard	2.0.10.353	2.0.10.353	05-09-2016	5/9/2016 9:58:55 PM	17:58:55	2.0.10.248	18	Bar37-63.bmp	39	2	?	8r_4g.bmp	50r_4g.bmp	1r_2g.bmp	10r_2g.bmp		50r_4g.bmp			TrialProc	TrialList	0	cvbn	-999999	16	152065	0	v	415	152480	56	-86	-30	-8	-30	0	8	1	2	18	-8	-50	-1	-10	4	4	2	2	-50	4
Hungry_Donkey_bar_English_2	145	1	<?xml version="1.0"?>\n<Clock xmlns:dt="urn:schemas-microsoft-com:datatypes"><Description dt:dt="string">E-Prime Primary Realtime Clock</Description><StartTime><Timestamp dt:dt="int">0</Timestamp><DateUtc dt:dt="string">2016-05-09T21:58:55Z</DateUtc></StartTime><FrequencyChanges><FrequencyChange><Frequency dt:dt="r8">3507724</Frequency><Timestamp dt:dt="r8">993447990201</Timestamp><Current dt:dt="r8">0</Current><DateUtc dt:dt="string">2016-05-09T21:58:55Z</DateUtc></FrequencyChange></FrequencyChanges></Clock>\n	Hungry_Donkey_bar_English_2-145-1	60.018	105	1.0.0.18	1	1311259670	Standard	2.0.10.353	2.0.10.353	05-09-2016	5/9/2016 9:58:55 PM	17:58:55	2.0.10.248	19	Bar37-63.bmp	40	3	?	10r_4g.bmp	0r_4g.bmp	2r_2g.bmp	0r_2g.bmp			2r_2g.bmp		TrialProc	TrialList	0	cvbn	-999999	16	154514	0	b	1902	156416	58	-88	-30	-8	-30	0	8	4	2	19	-10	0	-2	0	4	4	2	2	-2	2
Hungry_Donkey_bar_English_2	145	1	<?xml version="1.0"?>\n<Clock xmlns:dt="urn:schemas-microsoft-com:datatypes"><Description dt:dt="string">E-Prime Primary Realtime Clock</Description><StartTime><Timestamp dt:dt="int">0</Timestamp><DateUtc dt:dt="string">2016-05-09T21:58:55Z</DateUtc></StartTime><FrequencyChanges><FrequencyChange><Frequency dt:dt="r8">3507724</Frequency><Timestamp dt:dt="r8">993447990201</Timestamp><Current dt:dt="r8">0</Current><DateUtc dt:dt="string">2016-05-09T21:58:55Z</DateUtc></FrequencyChange></FrequencyChanges></Clock>\n	Hungry_Donkey_bar_English_2-145-1	60.018	105	1.0.0.18	1	1311259670	Standard	2.0.10.353	2.0.10.353	05-09-2016	5/9/2016 9:58:55 PM	17:58:55	2.0.10.248	20	Bar37-63.bmp	41	4	?	10r_4g.bmp	0r_4g.bmp	2r_2g.bmp	0r_2g.bmp				0r_2g.bmp	TrialProc	TrialList	0	cvbn	-999999	16	158446	0	n	546	158992	60	-88	-28	-8	-30	0	10	2	2	20	-10	0	-2	0	4	4	2	2	0	2
Hungry_Donkey_bar_English_2	145	1	<?xml version="1.0"?>\n<Clock xmlns:dt="urn:schemas-microsoft-com:datatypes"><Description dt:dt="string">E-Prime Primary Realtime Clock</Description><StartTime><Timestamp dt:dt="int">0</Timestamp><DateUtc dt:dt="string">2016-05-09T21:58:55Z</DateUtc></StartTime><FrequencyChanges><FrequencyChange><Frequency dt:dt="r8">3507724</Frequency><Timestamp dt:dt="r8">993447990201</Timestamp><Current dt:dt="r8">0</Current><DateUtc dt:dt="string">2016-05-09T21:58:55Z</DateUtc></FrequencyChange></FrequencyChanges></Clock>\n	Hungry_Donkey_bar_English_2-145-1	60.018	105	1.0.0.18	1	1311259670	Standard	2.0.10.353	2.0.10.353	05-09-2016	5/9/2016 9:58:55 PM	17:58:55	2.0.10.248	21	Bar37-63.bmp	40	1	?	10r_4g.bmp	0r_4g.bmp	2r_2g.bmp	0r_2g.bmp	10r_4g.bmp				TrialProc	TrialList	0	cvbn	-999999	16	161029	0	c	794	161823	64	-98	-34	-14	-30	0	10	4	3	21	-10	0	-2	0	4	4	2	2	-10	4
Hungry_Donkey_bar_English_2	145	1	<?xml version="1.0"?>\n<Clock xmlns:dt="urn:schemas-microsoft-com:datatypes"><Description dt:dt="string">E-Prime Primary Realtime Clock</Description><StartTime><Timestamp dt:dt="int">0</Timestamp><DateUtc dt:dt="string">2016-05-09T21:58:55Z</DateUtc></StartTime><FrequencyChanges><FrequencyChange><Frequency dt:dt="r8">3507724</Frequency><Timestamp dt:dt="r8">993447990201</Timestamp><Current dt:dt="r8">0</Current><DateUtc dt:dt="string">2016-05-09T21:58:55Z</DateUtc></FrequencyChange></FrequencyChanges></Clock>\n	Hungry_Donkey_bar_English_2-145-1	60.018	105	1.0.0.18	1	1311259670	Standard	2.0.10.353	2.0.10.353	05-09-2016	5/9/2016 9:58:55 PM	17:58:55	2.0.10.248	22	Bar37-63.bmp	41	2	?	10r_4g.bmp	0r_4g.bmp	2r_2g.bmp	0r_2g.bmp		0r_4g.bmp			TrialProc	TrialList	0	cvbn	-999999	16	163861	0	v	794	164655	68	-98	-30	-14	-26	0	10	3	3	22	-10	0	-2	0	4	4	2	2	0	4
Hungry_Donkey_bar_English_2	145	1	<?xml version="1.0"?>\n<Clock xmlns:dt="urn:schemas-microsoft-com:datatypes"><Description dt:dt="string">E-Prime Primary Realtime Clock</Description><StartTime><Timestamp dt:dt="int">0</Timestamp><DateUtc dt:dt="string">2016-05-09T21:58:55Z</DateUtc></StartTime><FrequencyChanges><FrequencyChange><Frequency dt:dt="r8">3507724</Frequency><Timestamp dt:dt="r8">993447990201</Timestamp><Current dt:dt="r8">0</Current><DateUtc dt:dt="string">2016-05-09T21:58:55Z</DateUtc></FrequencyChange></FrequencyChanges></Clock>\n	Hungry_Donkey_bar_English_2-145-1	60.018	105	1.0.0.18	1	1311259670	Standard	2.0.10.353	2.0.10.353	05-09-2016	5/9/2016 9:58:55 PM	17:58:55	2.0.10.248	23	Bar37-63.bmp	42	3	?	0r_4g.bmp	0r_4g.bmp	0r_2g.bmp	0r_2g.bmp			0r_2g.bmp		TrialProc	TrialList	0	cvbn	-999999	16	166694	0	b	377	167071	70	-98	-28	-14	-26	2	10	6	3	23	0	0	0	0	4	4	2	2	0	2
Hungry_Donkey_bar_English_2	145	1	<?xml version="1.0"?>\n<Clock xmlns:dt="urn:schemas-microsoft-com:datatypes"><Description dt:dt="string">E-Prime Primary Realtime Clock</Description><StartTime><Timestamp dt:dt="int">0</Timestamp><DateUtc dt:dt="string">2016-05-09T21:58:55Z</DateUtc></StartTime><FrequencyChanges><FrequencyChange><Frequency dt:dt="r8">3507724</Frequency><Timestamp dt:dt="r8">993447990201</Timestamp><Current dt:dt="r8">0</Current><DateUtc dt:dt="string">2016-05-09T21:58:55Z</DateUtc></FrequencyChange></FrequencyChanges></Clock>\n	Hungry_Donkey_bar_English_2-145-1	60.018	105	1.0.0.18	1	1311259670	Standard	2.0.10.353	2.0.10.353	05-09-2016	5/9/2016 9:58:55 PM	17:58:55	2.0.10.248	24	Bar37-63.bmp	42	4	?	0r_4g.bmp	0r_4g.bmp	0r_2g.bmp	0r_2g.bmp				0r_2g.bmp	TrialProc	TrialList	0	cvbn	-999999	16	169110	0	n	585	169695	72	-98	-26	-14	-26	2	12	9	3	24	0	0	0	0	4	4	2	2	0	2
Hungry_Donkey_bar_English_2	145	1	<?xml version="1.0"?>\n<Clock xmlns:dt="urn:schemas-microsoft-com:datatypes"><Description dt:dt="string">E-Prime Primary Realtime Clock</Description><StartTime><Timestamp dt:dt="int">0</Timestamp><DateUtc dt:dt="string">2016-05-09T21:58:55Z</DateUtc></StartTime><FrequencyChanges><FrequencyChange><Frequency dt:dt="r8">3507724</Frequency><Timestamp dt:dt="r8">993447990201</Timestamp><Current dt:dt="r8">0</Current><DateUtc dt:dt="string">2016-05-09T21:58:55Z</DateUtc></FrequencyChange></FrequencyChanges></Clock>\n	Hungry_Donkey_bar_English_2-145-1	60.018	105	1.0.0.18	1	1311259670	Standard	2.0.10.353	2.0.10.353	05-09-2016	5/9/2016 9:58:55 PM	17:58:55	2.0.10.248	25	Bar37-63.bmp	41	1	?	12r_4g.bmp	0r_4g.bmp	3r_2g.bmp	0r_2g.bmp	12r_4g.bmp				TrialProc	TrialList	0	cvbn	-999999	16	171726	0	c	1617	173343	76	-110	-34	-22	-26	2	12	5	3	25	-12	0	-3	0	4	4	2	2	-12	4
Hungry_Donkey_bar_English_2	145	1	<?xml version="1.0"?>\n<Clock xmlns:dt="urn:schemas-microsoft-com:datatypes"><Description dt:dt="string">E-Prime Primary Realtime Clock</Description><StartTime><Timestamp dt:dt="int">0</Timestamp><DateUtc dt:dt="string">2016-05-09T21:58:55Z</DateUtc></StartTime><FrequencyChanges><FrequencyChange><Frequency dt:dt="r8">3507724</Frequency><Timestamp dt:dt="r8">993447990201</Timestamp><Current dt:dt="r8">0</Current><DateUtc dt:dt="string">2016-05-09T21:58:55Z</DateUtc></FrequencyChange></FrequencyChanges></Clock>\n	Hungry_Donkey_bar_English_2-145-1	60.018	105	1.0.0.18	1	1311259670	Standard	2.0.10.353	2.0.10.353	05-09-2016	5/9/2016 9:58:55 PM	17:58:55	2.0.10.248	26	Bar37-63.bmp	42	2	?	0r_4g.bmp	0r_4g.bmp	0r_2g.bmp	0r_2g.bmp		0r_4g.bmp			TrialProc	TrialList	0	cvbn	-999999	16	175375	0	v	1647	177022	80	-110	-30	-22	-22	2	12	10	3	26	0	0	0	0	4	4	2	2	0	4
Hungry_Donkey_bar_English_2	145	1	<?xml version="1.0"?>\n<Clock xmlns:dt="urn:schemas-microsoft-com:datatypes"><Description dt:dt="string">E-Prime Primary Realtime Clock</Description><StartTime><Timestamp dt:dt="int">0</Timestamp><DateUtc dt:dt="string">2016-05-09T21:58:55Z</DateUtc></StartTime><FrequencyChanges><FrequencyChange><Frequency dt:dt="r8">3507724</Frequency><Timestamp dt:dt="r8">993447990201</Timestamp><Current dt:dt="r8">0</Current><DateUtc dt:dt="string">2016-05-09T21:58:55Z</DateUtc></FrequencyChange></FrequencyChanges></Clock>\n	Hungry_Donkey_bar_English_2-145-1	60.018	105	1.0.0.18	1	1311259670	Standard	2.0.10.353	2.0.10.353	05-09-2016	5/9/2016 9:58:55 PM	17:58:55	2.0.10.248	27	Bar37-63.bmp	43	3	?	0r_4g.bmp	0r_4g.bmp	0r_2g.bmp	0r_2g.bmp			0r_2g.bmp		TrialProc	TrialList	0	cvbn	-999999	16	179057	0	b	2061	181118	82	-110	-28	-22	-22	4	12	8	3	27	0	0	0	0	4	4	2	2	0	2
Hungry_Donkey_bar_English_2	145	1	<?xml version="1.0"?>\n<Clock xmlns:dt="urn:schemas-microsoft-com:datatypes"><Description dt:dt="string">E-Prime Primary Realtime Clock</Description><StartTime><Timestamp dt:dt="int">0</Timestamp><DateUtc dt:dt="string">2016-05-09T21:58:55Z</DateUtc></StartTime><FrequencyChanges><FrequencyChange><Frequency dt:dt="r8">3507724</Frequency><Timestamp dt:dt="r8">993447990201</Timestamp><Current dt:dt="r8">0</Current><DateUtc dt:dt="string">2016-05-09T21:58:55Z</DateUtc></FrequencyChange></FrequencyChanges></Clock>\n	Hungry_Donkey_bar_English_2-145-1	60.018	105	1.0.0.18	1	1311259670	Standard	2.0.10.353	2.0.10.353	05-09-2016	5/9/2016 9:58:55 PM	17:58:55	2.0.10.248	28	Bar37-63.bmp	41	4	?	8r_4g.bmp	50r_4g.bmp	1r_2g.bmp	10r_2g.bmp				10r_2g.bmp	TrialProc	TrialList	0	cvbn	-999999	16	183156	0	n	538	183694	84	-120	-36	-22	-22	4	4	1	3	28	-8	-50	-1	-10	4	4	2	2	-10	2
Hungry_Donkey_bar_English_2	145	1	<?xml version="1.0"?>\n<Clock xmlns:dt="urn:schemas-microsoft-com:datatypes"><Description dt:dt="string">E-Prime Primary Realtime Clock</Description><StartTime><Timestamp dt:dt="int">0</Timestamp><DateUtc dt:dt="string">2016-05-09T21:58:55Z</DateUtc></StartTime><FrequencyChanges><FrequencyChange><Frequency dt:dt="r8">3507724</Frequency><Timestamp dt:dt="r8">993447990201</Timestamp><Current dt:dt="r8">0</Current><DateUtc dt:dt="string">2016-05-09T21:58:55Z</DateUtc></FrequencyChange></FrequencyChanges></Clock>\n	Hungry_Donkey_bar_English_2-145-1	60.018	105	1.0.0.18	1	1311259670	Standard	2.0.10.353	2.0.10.353	05-09-2016	5/9/2016 9:58:55 PM	17:58:55	2.0.10.248	29	Bar37-63.bmp	40	1	?	10r_4g.bmp	0r_4g.bmp	2r_2g.bmp	0r_2g.bmp	10r_4g.bmp				TrialProc	TrialList	0	cvbn	-999999	16	185738	0	c	4532	190270	88	-130	-42	-28	-22	4	4	2	3	29	-10	0	-2	0	4	4	2	2	-10	4
Hungry_Donkey_bar_English_2	145	1	<?xml version="1.0"?>\n<Clock xmlns:dt="urn:schemas-microsoft-com:datatypes"><Description dt:dt="string">E-Prime Primary Realtime Clock</Description><StartTime><Timestamp dt:dt="int">0</Timestamp><DateUtc dt:dt="string">2016-05-09T21:58:55Z</DateUtc></StartTime><FrequencyChanges><FrequencyChange><Frequency dt:dt="r8">3507724</Frequency><Timestamp dt:dt="r8">993447990201</Timestamp><Current dt:dt="r8">0</Current><DateUtc dt:dt="string">2016-05-09T21:58:55Z</DateUtc></FrequencyChange></FrequencyChanges></Clock>\n	Hungry_Donkey_bar_English_2-145-1	60.018	105	1.0.0.18	1	1311259670	Standard	2.0.10.353	2.0.10.353	05-09-2016	5/9/2016 9:58:55 PM	17:58:55	2.0.10.248	30	Bar37-63.bmp	41	1	?	0r_4g.bmp	0r_4g.bmp	0r_2g.bmp	0r_2g.bmp	0r_4g.bmp				TrialProc	TrialList	0	cvbn	-999999	16	192303	0	c	1550	193853	92	-130	-38	-24	-22	4	4	7	3	30	0	0	0	0	4	4	2	2	0	4
Hungry_Donkey_bar_English_2	145	1	<?xml version="1.0"?>\n<Clock xmlns:dt="urn:schemas-microsoft-com:datatypes"><Description dt:dt="string">E-Prime Primary Realtime Clock</Description><StartTime><Timestamp dt:dt="int">0</Timestamp><DateUtc dt:dt="string">2016-05-09T21:58:55Z</DateUtc></StartTime><FrequencyChanges><FrequencyChange><Frequency dt:dt="r8">3507724</Frequency><Timestamp dt:dt="r8">993447990201</Timestamp><Current dt:dt="r8">0</Current><DateUtc dt:dt="string">2016-05-09T21:58:55Z</DateUtc></FrequencyChange></FrequencyChanges></Clock>\n	Hungry_Donkey_bar_English_2-145-1	60.018	105	1.0.0.18	1	1311259670	Standard	2.0.10.353	2.0.10.353	05-09-2016	5/9/2016 9:58:55 PM	17:58:55	2.0.10.248	31	Bar37-63.bmp	42	2	?	10r_4g.bmp	0r_4g.bmp	2r_2g.bmp	0r_2g.bmp		0r_4g.bmp			TrialProc	TrialList	0	cvbn	-999999	16	195885	0	v	1296	197181	96	-130	-34	-24	-18	4	4	4	4	31	-10	0	-2	0	4	4	2	2	0	4
Hungry_Donkey_bar_English_2	145	1	<?xml version="1.0"?>\n<Clock xmlns:dt="urn:schemas-microsoft-com:datatypes"><Description dt:dt="string">E-Prime Primary Realtime Clock</Description><StartTime><Timestamp dt:dt="int">0</Timestamp><DateUtc dt:dt="string">2016-05-09T21:58:55Z</DateUtc></StartTime><FrequencyChanges><FrequencyChange><Frequency dt:dt="r8">3507724</Frequency><Timestamp dt:dt="r8">993447990201</Timestamp><Current dt:dt="r8">0</Current><DateUtc dt:dt="string">2016-05-09T21:58:55Z</DateUtc></FrequencyChange></FrequencyChanges></Clock>\n	Hungry_Donkey_bar_English_2-145-1	60.018	105	1.0.0.18	1	1311259670	Standard	2.0.10.353	2.0.10.353	05-09-2016	5/9/2016 9:58:55 PM	17:58:55	2.0.10.248	32	Bar37-63.bmp	43	4	?	0r_4g.bmp	0r_4g.bmp	0r_2g.bmp	0r_2g.bmp				0r_2g.bmp	TrialProc	TrialList	0	cvbn	-999999	16	199217	0	n	3436	202653	98	-130	-32	-24	-18	4	6	10	4	32	0	0	0	0	4	4	2	2	0	2
Hungry_Donkey_bar_English_2	145	1	<?xml version="1.0"?>\n<Clock xmlns:dt="urn:schemas-microsoft-com:datatypes"><Description dt:dt="string">E-Prime Primary Realtime Clock</Description><StartTime><Timestamp dt:dt="int">0</Timestamp><DateUtc dt:dt="string">2016-05-09T21:58:55Z</DateUtc></StartTime><FrequencyChanges><FrequencyChange><Frequency dt:dt="r8">3507724</Frequency><Timestamp dt:dt="r8">993447990201</Timestamp><Current dt:dt="r8">0</Current><DateUtc dt:dt="string">2016-05-09T21:58:55Z</DateUtc></FrequencyChange></FrequencyChanges></Clock>\n	Hungry_Donkey_bar_English_2-145-1	60.018	105	1.0.0.18	1	1311259670	Standard	2.0.10.353	2.0.10.353	05-09-2016	5/9/2016 9:58:55 PM	17:58:55	2.0.10.248	33	Bar50-50.bmp	44	1	?	0r_4g.bmp	0r_4g.bmp	0r_2g.bmp	0r_2g.bmp	0r_4g.bmp				TrialProc	TrialList	0	cvbn	-999999	17	204683	0	c	1266	205949	102	-130	-28	-20	-18	4	6	9	4	33	0	0	0	0	4	4	2	2	0	4
Hungry_Donkey_bar_English_2	145	1	<?xml version="1.0"?>\n<Clock xmlns:dt="urn:schemas-microsoft-com:datatypes"><Description dt:dt="string">E-Prime Primary Realtime Clock</Description><StartTime><Timestamp dt:dt="int">0</Timestamp><DateUtc dt:dt="string">2016-05-09T21:58:55Z</DateUtc></StartTime><FrequencyChanges><FrequencyChange><Frequency dt:dt="r8">3507724</Frequency><Timestamp dt:dt="r8">993447990201</Timestamp><Current dt:dt="r8">0</Current><DateUtc dt:dt="string">2016-05-09T21:58:55Z</DateUtc></FrequencyChange></FrequencyChanges></Clock>\n	Hungry_Donkey_bar_English_2-145-1	60.018	105	1.0.0.18	1	1311259670	Standard	2.0.10.353	2.0.10.353	05-09-2016	5/9/2016 9:58:55 PM	17:58:55	2.0.10.248	34	Bar50-50.bmp	45	2	?	0r_4g.bmp	0r_4g.bmp	0r_2g.bmp	0r_2g.bmp		0r_4g.bmp			TrialProc	TrialList	0	cvbn	-999999	17	207982	0	v	2334	210316	106	-130	-24	-20	-14	4	6	8	4	34	0	0	0	0	4	4	2	2	0	4
Hungry_Donkey_bar_English_2	145	1	<?xml version="1.0"?>\n<Clock xmlns:dt="urn:schemas-microsoft-com:datatypes"><Description dt:dt="string">E-Prime Primary Realtime Clock</Description><StartTime><Timestamp dt:dt="int">0</Timestamp><DateUtc dt:dt="string">2016-05-09T21:58:55Z</DateUtc></StartTime><FrequencyChanges><FrequencyChange><Frequency dt:dt="r8">3507724</Frequency><Timestamp dt:dt="r8">993447990201</Timestamp><Current dt:dt="r8">0</Current><DateUtc dt:dt="string">2016-05-09T21:58:55Z</DateUtc></FrequencyChange></FrequencyChanges></Clock>\n	Hungry_Donkey_bar_English_2-145-1	60.018	105	1.0.0.18	1	1311259670	Standard	2.0.10.353	2.0.10.353	05-09-2016	5/9/2016 9:58:55 PM	17:58:55	2.0.10.248	35	Bar50-50.bmp	45	3	?	0r_4g.bmp	0r_4g.bmp	0r_2g.bmp	0r_2g.bmp			0r_2g.bmp		TrialProc	TrialList	0	cvbn	-999999	16	212347	0	b	881	213228	108	-130	-22	-20	-14	6	6	7	4	35	0	0	0	0	4	4	2	2	0	2
Hungry_Donkey_bar_English_2	145	1	<?xml version="1.0"?>\n<Clock xmlns:dt="urn:schemas-microsoft-com:datatypes"><Description dt:dt="string">E-Prime Primary Realtime Clock</Description><StartTime><Timestamp dt:dt="int">0</Timestamp><DateUtc dt:dt="string">2016-05-09T21:58:55Z</DateUtc></StartTime><FrequencyChanges><FrequencyChange><Frequency dt:dt="r8">3507724</Frequency><Timestamp dt:dt="r8">993447990201</Timestamp><Current dt:dt="r8">0</Current><DateUtc dt:dt="string">2016-05-09T21:58:55Z</DateUtc></FrequencyChange></FrequencyChanges></Clock>\n	Hungry_Donkey_bar_English_2-145-1	60.018	105	1.0.0.18	1	1311259670	Standard	2.0.10.353	2.0.10.353	05-09-2016	5/9/2016 9:58:55 PM	17:58:55	2.0.10.248	36	Bar50-50.bmp	46	4	?	10r_4g.bmp	0r_4g.bmp	2r_2g.bmp	0r_2g.bmp				0r_2g.bmp	TrialProc	TrialList	0	cvbn	-999999	16	215263	0	n	3261	218524	110	-130	-20	-20	-14	6	8	2	4	36	-10	0	-2	0	4	4	2	2	0	2
Hungry_Donkey_bar_English_2	145	1	<?xml version="1.0"?>\n<Clock xmlns:dt="urn:schemas-microsoft-com:datatypes"><Description dt:dt="string">E-Prime Primary Realtime Clock</Description><StartTime><Timestamp dt:dt="int">0</Timestamp><DateUtc dt:dt="string">2016-05-09T21:58:55Z</DateUtc></StartTime><FrequencyChanges><FrequencyChange><Frequency dt:dt="r8">3507724</Frequency><Timestamp dt:dt="r8">993447990201</Timestamp><Current dt:dt="r8">0</Current><DateUtc dt:dt="string">2016-05-09T21:58:55Z</DateUtc></FrequencyChange></FrequencyChanges></Clock>\n	Hungry_Donkey_bar_English_2-145-1	60.018	105	1.0.0.18	1	1311259670	Standard	2.0.10.353	2.0.10.353	05-09-2016	5/9/2016 9:58:55 PM	17:58:55	2.0.10.248	37	Bar50-50.bmp	45	1	?	12r_4g.bmp	0r_4g.bmp	3r_2g.bmp	0r_2g.bmp	12r_4g.bmp				TrialProc	TrialList	0	cvbn	-999999	16	220561	0	c	5770	226331	114	-142	-28	-28	-14	6	8	5	4	37	-12	0	-3	0	4	4	2	2	-12	4
Hungry_Donkey_bar_English_2	145	1	<?xml version="1.0"?>\n<Clock xmlns:dt="urn:schemas-microsoft-com:datatypes"><Description dt:dt="string">E-Prime Primary Realtime Clock</Description><StartTime><Timestamp dt:dt="int">0</Timestamp><DateUtc dt:dt="string">2016-05-09T21:58:55Z</DateUtc></StartTime><FrequencyChanges><FrequencyChange><Frequency dt:dt="r8">3507724</Frequency><Timestamp dt:dt="r8">993447990201</Timestamp><Current dt:dt="r8">0</Current><DateUtc dt:dt="string">2016-05-09T21:58:55Z</DateUtc></FrequencyChange></FrequencyChanges></Clock>\n	Hungry_Donkey_bar_English_2-145-1	60.018	105	1.0.0.18	1	1311259670	Standard	2.0.10.353	2.0.10.353	05-09-2016	5/9/2016 9:58:55 PM	17:58:55	2.0.10.248	38	Bar50-50.bmp	45	2	?	10r_4g.bmp	0r_4g.bmp	2r_2g.bmp	0r_2g.bmp		0r_4g.bmp			TrialProc	TrialList	0	cvbn	-999999	16	228359	0	v	2452	230811	118	-142	-24	-28	-10	6	8	3	4	38	-10	0	-2	0	4	4	2	2	0	4
Hungry_Donkey_bar_English_2	145	1	<?xml version="1.0"?>\n<Clock xmlns:dt="urn:schemas-microsoft-com:datatypes"><Description dt:dt="string">E-Prime Primary Realtime Clock</Description><StartTime><Timestamp dt:dt="int">0</Timestamp><DateUtc dt:dt="string">2016-05-09T21:58:55Z</DateUtc></StartTime><FrequencyChanges><FrequencyChange><Frequency dt:dt="r8">3507724</Frequency><Timestamp dt:dt="r8">993447990201</Timestamp><Current dt:dt="r8">0</Current><DateUtc dt:dt="string">2016-05-09T21:58:55Z</DateUtc></FrequencyChange></FrequencyChanges></Clock>\n	Hungry_Donkey_bar_English_2-145-1	60.018	105	1.0.0.18	1	1311259670	Standard	2.0.10.353	2.0.10.353	05-09-2016	5/9/2016 9:58:55 PM	17:58:55	2.0.10.248	39	Bar50-50.bmp	46	4	?	0r_4g.bmp	0r_4g.bmp	0r_2g.bmp	0r_2g.bmp				0r_2g.bmp	TrialProc	TrialList	0	cvbn	-999999	16	232841	0	n	1330	234171	120	-142	-22	-28	-10	6	10	6	4	39	0	0	0	0	4	4	2	2	0	2
Hungry_Donkey_bar_English_2	145	1	<?xml version="1.0"?>\n<Clock xmlns:dt="urn:schemas-microsoft-com:datatypes"><Description dt:dt="string">E-Prime Primary Realtime Clock</Description><StartTime><Timestamp dt:dt="int">0</Timestamp><DateUtc dt:dt="string">2016-05-09T21:58:55Z</DateUtc></StartTime><FrequencyChanges><FrequencyChange><Frequency dt:dt="r8">3507724</Frequency><Timestamp dt:dt="r8">993447990201</Timestamp><Current dt:dt="r8">0</Current><DateUtc dt:dt="string">2016-05-09T21:58:55Z</DateUtc></FrequencyChange></FrequencyChanges></Clock>\n	Hungry_Donkey_bar_English_2-145-1	60.018	105	1.0.0.18	1	1311259670	Standard	2.0.10.353	2.0.10.353	05-09-2016	5/9/2016 9:58:55 PM	17:58:55	2.0.10.248	40	Bar50-50.bmp	46	3	?	8r_4g.bmp	50r_4g.bmp	1r_2g.bmp	10r_2g.bmp			1r_2g.bmp		TrialProc	TrialList	0	cvbn	-999999	16	236206	0	b	13	236219	122	-143	-21	-28	-10	7	10	1	4	40	-8	-50	-1	-10	4	4	2	2	-1	2
Hungry_Donkey_bar_English_2	145	1	<?xml version="1.0"?>\n<Clock xmlns:dt="urn:schemas-microsoft-com:datatypes"><Description dt:dt="string">E-Prime Primary Realtime Clock</Description><StartTime><Timestamp dt:dt="int">0</Timestamp><DateUtc dt:dt="string">2016-05-09T21:58:55Z</DateUtc></StartTime><FrequencyChanges><FrequencyChange><Frequency dt:dt="r8">3507724</Frequency><Timestamp dt:dt="r8">993447990201</Timestamp><Current dt:dt="r8">0</Current><DateUtc dt:dt="string">2016-05-09T21:58:55Z</DateUtc></FrequencyChange></FrequencyChanges></Clock>\n	Hungry_Donkey_bar_English_2-145-1	60.018	105	1.0.0.18	1	1311259670	Standard	2.0.10.353	2.0.10.353	05-09-2016	5/9/2016 9:58:55 PM	17:58:55	2.0.10.248	41	Bar50-50.bmp	45	1	?	10r_4g.bmp	0r_4g.bmp	2r_2g.bmp	0r_2g.bmp	10r_4g.bmp				TrialProc	TrialList	0	cvbn	-999999	16	238256	0	c	1403	239659	126	-153	-27	-34	-10	7	10	2	5	41	-10	0	-2	0	4	4	2	2	-10	4
Hungry_Donkey_bar_English_2	145	1	<?xml version="1.0"?>\n<Clock xmlns:dt="urn:schemas-microsoft-com:datatypes"><Description dt:dt="string">E-Prime Primary Realtime Clock</Description><StartTime><Timestamp dt:dt="int">0</Timestamp><DateUtc dt:dt="string">2016-05-09T21:58:55Z</DateUtc></StartTime><FrequencyChanges><FrequencyChange><Frequency dt:dt="r8">3507724</Frequency><Timestamp dt:dt="r8">993447990201</Timestamp><Current dt:dt="r8">0</Current><DateUtc dt:dt="string">2016-05-09T21:58:55Z</DateUtc></FrequencyChange></FrequencyChanges></Clock>\n	Hungry_Donkey_bar_English_2-145-1	60.018	105	1.0.0.18	1	1311259670	Standard	2.0.10.353	2.0.10.353	05-09-2016	5/9/2016 9:58:55 PM	17:58:55	2.0.10.248	42	Bar50-50.bmp	46	2	?	0r_4g.bmp	0r_4g.bmp	0r_2g.bmp	0r_2g.bmp		0r_4g.bmp			TrialProc	TrialList	0	cvbn	-999999	16	241688	0	v	466	242154	130	-153	-23	-34	-6	7	10	10	5	42	0	0	0	0	4	4	2	2	0	4
Hungry_Donkey_bar_English_2	145	1	<?xml version="1.0"?>\n<Clock xmlns:dt="urn:schemas-microsoft-com:datatypes"><Description dt:dt="string">E-Prime Primary Realtime Clock</Description><StartTime><Timestamp dt:dt="int">0</Timestamp><DateUtc dt:dt="string">2016-05-09T21:58:55Z</DateUtc></StartTime><FrequencyChanges><FrequencyChange><Frequency dt:dt="r8">3507724</Frequency><Timestamp dt:dt="r8">993447990201</Timestamp><Current dt:dt="r8">0</Current><DateUtc dt:dt="string">2016-05-09T21:58:55Z</DateUtc></FrequencyChange></FrequencyChanges></Clock>\n	Hungry_Donkey_bar_English_2-145-1	60.018	105	1.0.0.18	1	1311259670	Standard	2.0.10.353	2.0.10.353	05-09-2016	5/9/2016 9:58:55 PM	17:58:55	2.0.10.248	43	Bar50-50.bmp	46	3	?	0r_4g.bmp	0r_4g.bmp	0r_2g.bmp	0r_2g.bmp			0r_2g.bmp		TrialProc	TrialList	0	cvbn	-999999	16	244187	0	b	367	244554	132	-153	-21	-34	-6	9	10	8	5	43	0	0	0	0	4	4	2	2	0	2
Hungry_Donkey_bar_English_2	145	1	<?xml version="1.0"?>\n<Clock xmlns:dt="urn:schemas-microsoft-com:datatypes"><Description dt:dt="string">E-Prime Primary Realtime Clock</Description><StartTime><Timestamp dt:dt="int">0</Timestamp><DateUtc dt:dt="string">2016-05-09T21:58:55Z</DateUtc></StartTime><FrequencyChanges><FrequencyChange><Frequency dt:dt="r8">3507724</Frequency><Timestamp dt:dt="r8">993447990201</Timestamp><Current dt:dt="r8">0</Current><DateUtc dt:dt="string">2016-05-09T21:58:55Z</DateUtc></FrequencyChange></FrequencyChanges></Clock>\n	Hungry_Donkey_bar_English_2-145-1	60.018	105	1.0.0.18	1	1311259670	Standard	2.0.10.353	2.0.10.353	05-09-2016	5/9/2016 9:58:55 PM	17:58:55	2.0.10.248	44	Bar50-50.bmp	47	4	?	10r_4g.bmp	0r_4g.bmp	2r_2g.bmp	0r_2g.bmp				0r_2g.bmp	TrialProc	TrialList	0	cvbn	-999999	16	246587	0	n	415	247002	134	-153	-19	-34	-6	9	12	4	5	44	-10	0	-2	0	4	4	2	2	0	2
Hungry_Donkey_bar_English_2	145	1	<?xml version="1.0"?>\n<Clock xmlns:dt="urn:schemas-microsoft-com:datatypes"><Description dt:dt="string">E-Prime Primary Realtime Clock</Description><StartTime><Timestamp dt:dt="int">0</Timestamp><DateUtc dt:dt="string">2016-05-09T21:58:55Z</DateUtc></StartTime><FrequencyChanges><FrequencyChange><Frequency dt:dt="r8">3507724</Frequency><Timestamp dt:dt="r8">993447990201</Timestamp><Current dt:dt="r8">0</Current><DateUtc dt:dt="string">2016-05-09T21:58:55Z</DateUtc></FrequencyChange></FrequencyChanges></Clock>\n	Hungry_Donkey_bar_English_2-145-1	60.018	105	1.0.0.18	1	1311259670	Standard	2.0.10.353	2.0.10.353	05-09-2016	5/9/2016 9:58:55 PM	17:58:55	2.0.10.248	45	Bar50-50.bmp	47	1	?	0r_4g.bmp	0r_4g.bmp	0r_2g.bmp	0r_2g.bmp	0r_4g.bmp				TrialProc	TrialList	0	cvbn	-999999	16	249036	0	c	1742	250778	138	-153	-15	-30	-6	9	12	6	5	45	0	0	0	0	4	4	2	2	0	4
Hungry_Donkey_bar_English_2	145	1	<?xml version="1.0"?>\n<Clock xmlns:dt="urn:schemas-microsoft-com:datatypes"><Description dt:dt="string">E-Prime Primary Realtime Clock</Description><StartTime><Timestamp dt:dt="int">0</Timestamp><DateUtc dt:dt="string">2016-05-09T21:58:55Z</DateUtc></StartTime><FrequencyChanges><FrequencyChange><Frequency dt:dt="r8">3507724</Frequency><Timestamp dt:dt="r8">993447990201</Timestamp><Current dt:dt="r8">0</Current><DateUtc dt:dt="string">2016-05-09T21:58:55Z</DateUtc></FrequencyChange></FrequencyChanges></Clock>\n	Hungry_Donkey_bar_English_2-145-1	60.018	105	1.0.0.18	1	1311259670	Standard	2.0.10.353	2.0.10.353	05-09-2016	5/9/2016 9:58:55 PM	17:58:55	2.0.10.248	46	Bar50-50.bmp	48	2	?	0r_4g.bmp	0r_4g.bmp	0r_2g.bmp	0r_2g.bmp		0r_4g.bmp			TrialProc	TrialList	0	cvbn	-999999	15	252801	0	v	1865	254666	142	-153	-11	-30	-2	9	12	7	5	46	0	0	0	0	4	4	2	2	0	4
Hungry_Donkey_bar_English_2	145	1	<?xml version="1.0"?>\n<Clock xmlns:dt="urn:schemas-microsoft-com:datatypes"><Description dt:dt="string">E-Prime Primary Realtime Clock</Description><StartTime><Timestamp dt:dt="int">0</Timestamp><DateUtc dt:dt="string">2016-05-09T21:58:55Z</DateUtc></StartTime><FrequencyChanges><FrequencyChange><Frequency dt:dt="r8">3507724</Frequency><Timestamp dt:dt="r8">993447990201</Timestamp><Current dt:dt="r8">0</Current><DateUtc dt:dt="string">2016-05-09T21:58:55Z</DateUtc></FrequencyChange></FrequencyChanges></Clock>\n	Hungry_Donkey_bar_English_2-145-1	60.018	105	1.0.0.18	1	1311259670	Standard	2.0.10.353	2.0.10.353	05-09-2016	5/9/2016 9:58:55 PM	17:58:55	2.0.10.248	47	Bar50-50.bmp	48	3	?	8r_4g.bmp	50r_4g.bmp	1r_2g.bmp	10r_2g.bmp			1r_2g.bmp		TrialProc	TrialList	0	cvbn	-999999	16	256700	0	b	589	257289	144	-154	-10	-30	-2	10	12	1	5	47	-8	-50	-1	-10	4	4	2	2	-1	2
Hungry_Donkey_bar_English_2	145	1	<?xml version="1.0"?>\n<Clock xmlns:dt="urn:schemas-microsoft-com:datatypes"><Description dt:dt="string">E-Prime Primary Realtime Clock</Description><StartTime><Timestamp dt:dt="int">0</Timestamp><DateUtc dt:dt="string">2016-05-09T21:58:55Z</DateUtc></StartTime><FrequencyChanges><FrequencyChange><Frequency dt:dt="r8">3507724</Frequency><Timestamp dt:dt="r8">993447990201</Timestamp><Current dt:dt="r8">0</Current><DateUtc dt:dt="string">2016-05-09T21:58:55Z</DateUtc></FrequencyChange></FrequencyChanges></Clock>\n	Hungry_Donkey_bar_English_2-145-1	60.018	105	1.0.0.18	1	1311259670	Standard	2.0.10.353	2.0.10.353	05-09-2016	5/9/2016 9:58:55 PM	17:58:55	2.0.10.248	48	Bar50-50.bmp	49	4	?	0r_4g.bmp	0r_4g.bmp	0r_2g.bmp	0r_2g.bmp				0r_2g.bmp	TrialProc	TrialList	0	cvbn	-999999	16	259316	0	n	1173	260489	146	-154	-8	-30	-2	10	14	9	5	48	0	0	0	0	4	4	2	2	0	2
Hungry_Donkey_bar_English_2	145	1	<?xml version="1.0"?>\n<Clock xmlns:dt="urn:schemas-microsoft-com:datatypes"><Description dt:dt="string">E-Prime Primary Realtime Clock</Description><StartTime><Timestamp dt:dt="int">0</Timestamp><DateUtc dt:dt="string">2016-05-09T21:58:55Z</DateUtc></StartTime><FrequencyChanges><FrequencyChange><Frequency dt:dt="r8">3507724</Frequency><Timestamp dt:dt="r8">993447990201</Timestamp><Current dt:dt="r8">0</Current><DateUtc dt:dt="string">2016-05-09T21:58:55Z</DateUtc></FrequencyChange></FrequencyChanges></Clock>\n	Hungry_Donkey_bar_English_2-145-1	60.018	105	1.0.0.18	1	1311259670	Standard	2.0.10.353	2.0.10.353	05-09-2016	5/9/2016 9:58:55 PM	17:58:55	2.0.10.248	49	Bar50-50.bmp	48	1	?	10r_4g.bmp	0r_4g.bmp	2r_2g.bmp	0r_2g.bmp	10r_4g.bmp				TrialProc	TrialList	0	cvbn	-999999	16	262515	0	c	5510	268025	150	-164	-14	-36	-2	10	14	3	5	49	-10	0	-2	0	4	4	2	2	-10	4
Hungry_Donkey_bar_English_2	145	1	<?xml version="1.0"?>\n<Clock xmlns:dt="urn:schemas-microsoft-com:datatypes"><Description dt:dt="string">E-Prime Primary Realtime Clock</Description><StartTime><Timestamp dt:dt="int">0</Timestamp><DateUtc dt:dt="string">2016-05-09T21:58:55Z</DateUtc></StartTime><FrequencyChanges><FrequencyChange><Frequency dt:dt="r8">3507724</Frequency><Timestamp dt:dt="r8">993447990201</Timestamp><Current dt:dt="r8">0</Current><DateUtc dt:dt="string">2016-05-09T21:58:55Z</DateUtc></FrequencyChange></FrequencyChanges></Clock>\n	Hungry_Donkey_bar_English_2-145-1	60.018	105	1.0.0.18	1	1311259670	Standard	2.0.10.353	2.0.10.353	05-09-2016	5/9/2016 9:58:55 PM	17:58:55	2.0.10.248	50	Bar50-50.bmp	48	2	?	12r_4g.bmp	0r_4g.bmp	3r_2g.bmp	0r_2g.bmp		0r_4g.bmp			TrialProc	TrialList	0	cvbn	-999999	16	270063	0	v	1402	271465	154	-164	-10	-36	2	10	14	5	5	50	-12	0	-3	0	4	4	2	2	0	4
Hungry_Donkey_bar_English_2	145	1	<?xml version="1.0"?>\n<Clock xmlns:dt="urn:schemas-microsoft-com:datatypes"><Description dt:dt="string">E-Prime Primary Realtime Clock</Description><StartTime><Timestamp dt:dt="int">0</Timestamp><DateUtc dt:dt="string">2016-05-09T21:58:55Z</DateUtc></StartTime><FrequencyChanges><FrequencyChange><Frequency dt:dt="r8">3507724</Frequency><Timestamp dt:dt="r8">993447990201</Timestamp><Current dt:dt="r8">0</Current><DateUtc dt:dt="string">2016-05-09T21:58:55Z</DateUtc></FrequencyChange></FrequencyChanges></Clock>\n	Hungry_Donkey_bar_English_2-145-1	60.018	105	1.0.0.18	1	1311259670	Standard	2.0.10.353	2.0.10.353	05-09-2016	5/9/2016 9:58:55 PM	17:58:55	2.0.10.248	51	Bar50-50.bmp	48	3	?	10r_4g.bmp	0r_4g.bmp	2r_2g.bmp	0r_2g.bmp			2r_2g.bmp		TrialProc	TrialList	0	cvbn	-999999	16	273495	0	b	401	273896	156	-166	-10	-36	2	10	14	4	6	51	-10	0	-2	0	4	4	2	2	-2	2
Hungry_Donkey_bar_English_2	145	1	<?xml version="1.0"?>\n<Clock xmlns:dt="urn:schemas-microsoft-com:datatypes"><Description dt:dt="string">E-Prime Primary Realtime Clock</Description><StartTime><Timestamp dt:dt="int">0</Timestamp><DateUtc dt:dt="string">2016-05-09T21:58:55Z</DateUtc></StartTime><FrequencyChanges><FrequencyChange><Frequency dt:dt="r8">3507724</Frequency><Timestamp dt:dt="r8">993447990201</Timestamp><Current dt:dt="r8">0</Current><DateUtc dt:dt="string">2016-05-09T21:58:55Z</DateUtc></FrequencyChange></FrequencyChanges></Clock>\n	Hungry_Donkey_bar_English_2-145-1	60.018	105	1.0.0.18	1	1311259670	Standard	2.0.10.353	2.0.10.353	05-09-2016	5/9/2016 9:58:55 PM	17:58:55	2.0.10.248	52	Bar50-50.bmp	49	4	?	10r_4g.bmp	0r_4g.bmp	2r_2g.bmp	0r_2g.bmp				0r_2g.bmp	TrialProc	TrialList	0	cvbn	-999999	16	275928	0	n	304	276232	158	-166	-8	-36	2	10	16	2	6	52	-10	0	-2	0	4	4	2	2	0	2
Hungry_Donkey_bar_English_2	145	1	<?xml version="1.0"?>\n<Clock xmlns:dt="urn:schemas-microsoft-com:datatypes"><Description dt:dt="string">E-Prime Primary Realtime Clock</Description><StartTime><Timestamp dt:dt="int">0</Timestamp><DateUtc dt:dt="string">2016-05-09T21:58:55Z</DateUtc></StartTime><FrequencyChanges><FrequencyChange><Frequency dt:dt="r8">3507724</Frequency><Timestamp dt:dt="r8">993447990201</Timestamp><Current dt:dt="r8">0</Current><DateUtc dt:dt="string">2016-05-09T21:58:55Z</DateUtc></FrequencyChange></FrequencyChanges></Clock>\n	Hungry_Donkey_bar_English_2-145-1	60.018	105	1.0.0.18	1	1311259670	Standard	2.0.10.353	2.0.10.353	05-09-2016	5/9/2016 9:58:55 PM	17:58:55	2.0.10.248	53	Bar50-50.bmp	49	4	?	0r_4g.bmp	0r_4g.bmp	0r_2g.bmp	0r_2g.bmp				0r_2g.bmp	TrialProc	TrialList	0	cvbn	-999999	16	278260	0	n	4612	282872	160	-166	-6	-36	2	10	18	6	6	53	0	0	0	0	4	4	2	2	0	2
Hungry_Donkey_bar_English_2	145	1	<?xml version="1.0"?>\n<Clock xmlns:dt="urn:schemas-microsoft-com:datatypes"><Description dt:dt="string">E-Prime Primary Realtime Clock</Description><StartTime><Timestamp dt:dt="int">0</Timestamp><DateUtc dt:dt="string">2016-05-09T21:58:55Z</DateUtc></StartTime><FrequencyChanges><FrequencyChange><Frequency dt:dt="r8">3507724</Frequency><Timestamp dt:dt="r8">993447990201</Timestamp><Current dt:dt="r8">0</Current><DateUtc dt:dt="string">2016-05-09T21:58:55Z</DateUtc></FrequencyChange></FrequencyChanges></Clock>\n	Hungry_Donkey_bar_English_2-145-1	60.018	105	1.0.0.18	1	1311259670	Standard	2.0.10.353	2.0.10.353	05-09-2016	5/9/2016 9:58:55 PM	17:58:55	2.0.10.248	54	Bar50-50.bmp	50	1	?	0r_4g.bmp	0r_4g.bmp	0r_2g.bmp	0r_2g.bmp	0r_4g.bmp				TrialProc	TrialList	0	cvbn	-999999	16	284908	0	c	556	285464	164	-166	-2	-32	2	10	18	10	6	54	0	0	0	0	4	4	2	2	0	4
Hungry_Donkey_bar_English_2	145	1	<?xml version="1.0"?>\n<Clock xmlns:dt="urn:schemas-microsoft-com:datatypes"><Description dt:dt="string">E-Prime Primary Realtime Clock</Description><StartTime><Timestamp dt:dt="int">0</Timestamp><DateUtc dt:dt="string">2016-05-09T21:58:55Z</DateUtc></StartTime><FrequencyChanges><FrequencyChange><Frequency dt:dt="r8">3507724</Frequency><Timestamp dt:dt="r8">993447990201</Timestamp><Current dt:dt="r8">0</Current><DateUtc dt:dt="string">2016-05-09T21:58:55Z</DateUtc></FrequencyChange></FrequencyChanges></Clock>\n	Hungry_Donkey_bar_English_2-145-1	60.018	105	1.0.0.18	1	1311259670	Standard	2.0.10.353	2.0.10.353	05-09-2016	5/9/2016 9:58:55 PM	17:58:55	2.0.10.248	55	Bar50-50.bmp	50	2	?	12r_4g.bmp	0r_4g.bmp	3r_2g.bmp	0r_2g.bmp		0r_4g.bmp			TrialProc	TrialList	0	cvbn	-999999	16	287491	0	v	485	287976	168	-166	2	-32	6	10	18	5	6	55	-12	0	-3	0	4	4	2	2	0	4
Hungry_Donkey_bar_English_2	145	1	<?xml version="1.0"?>\n<Clock xmlns:dt="urn:schemas-microsoft-com:datatypes"><Description dt:dt="string">E-Prime Primary Realtime Clock</Description><StartTime><Timestamp dt:dt="int">0</Timestamp><DateUtc dt:dt="string">2016-05-09T21:58:55Z</DateUtc></StartTime><FrequencyChanges><FrequencyChange><Frequency dt:dt="r8">3507724</Frequency><Timestamp dt:dt="r8">993447990201</Timestamp><Current dt:dt="r8">0</Current><DateUtc dt:dt="string">2016-05-09T21:58:55Z</DateUtc></FrequencyChange></FrequencyChanges></Clock>\n	Hungry_Donkey_bar_English_2-145-1	60.018	105	1.0.0.18	1	1311259670	Standard	2.0.10.353	2.0.10.353	05-09-2016	5/9/2016 9:58:55 PM	17:58:55	2.0.10.248	56	Bar50-50.bmp	51	3	?	0r_4g.bmp	0r_4g.bmp	0r_2g.bmp	0r_2g.bmp			0r_2g.bmp		TrialProc	TrialList	0	cvbn	-999999	16	290007	0	b	2272	292279	170	-166	4	-32	6	12	18	7	6	56	0	0	0	0	4	4	2	2	0	2
Hungry_Donkey_bar_English_2	145	1	<?xml version="1.0"?>\n<Clock xmlns:dt="urn:schemas-microsoft-com:datatypes"><Description dt:dt="string">E-Prime Primary Realtime Clock</Description><StartTime><Timestamp dt:dt="int">0</Timestamp><DateUtc dt:dt="string">2016-05-09T21:58:55Z</DateUtc></StartTime><FrequencyChanges><FrequencyChange><Frequency dt:dt="r8">3507724</Frequency><Timestamp dt:dt="r8">993447990201</Timestamp><Current dt:dt="r8">0</Current><DateUtc dt:dt="string">2016-05-09T21:58:55Z</DateUtc></FrequencyChange></FrequencyChanges></Clock>\n	Hungry_Donkey_bar_English_2-145-1	60.018	105	1.0.0.18	1	1311259670	Standard	2.0.10.353	2.0.10.353	05-09-2016	5/9/2016 9:58:55 PM	17:58:55	2.0.10.248	57	Bar50-50.bmp	51	4	?	10r_4g.bmp	0r_4g.bmp	2r_2g.bmp	0r_2g.bmp				0r_2g.bmp	TrialProc	TrialList	0	cvbn	-999999	16	294322	0	n	5125	299447	172	-166	6	-32	6	12	20	3	6	57	-10	0	-2	0	4	4	2	2	0	2
Hungry_Donkey_bar_English_2	145	1	<?xml version="1.0"?>\n<Clock xmlns:dt="urn:schemas-microsoft-com:datatypes"><Description dt:dt="string">E-Prime Primary Realtime Clock</Description><StartTime><Timestamp dt:dt="int">0</Timestamp><DateUtc dt:dt="string">2016-05-09T21:58:55Z</DateUtc></StartTime><FrequencyChanges><FrequencyChange><Frequency dt:dt="r8">3507724</Frequency><Timestamp dt:dt="r8">993447990201</Timestamp><Current dt:dt="r8">0</Current><DateUtc dt:dt="string">2016-05-09T21:58:55Z</DateUtc></FrequencyChange></FrequencyChanges></Clock>\n	Hungry_Donkey_bar_English_2-145-1	60.018	105	1.0.0.18	1	1311259670	Standard	2.0.10.353	2.0.10.353	05-09-2016	5/9/2016 9:58:55 PM	17:58:55	2.0.10.248	58	Bar50-50.bmp	51	1	?	0r_4g.bmp	0r_4g.bmp	0r_2g.bmp	0r_2g.bmp	0r_4g.bmp				TrialProc	TrialList	0	cvbn	-999999	16	301487	0	c	3016	304503	176	-166	10	-28	6	12	20	8	6	58	0	0	0	0	4	4	2	2	0	4
Hungry_Donkey_bar_English_2	145	1	<?xml version="1.0"?>\n<Clock xmlns:dt="urn:schemas-microsoft-com:datatypes"><Description dt:dt="string">E-Prime Primary Realtime Clock</Description><StartTime><Timestamp dt:dt="int">0</Timestamp><DateUtc dt:dt="string">2016-05-09T21:58:55Z</DateUtc></StartTime><FrequencyChanges><FrequencyChange><Frequency dt:dt="r8">3507724</Frequency><Timestamp dt:dt="r8">993447990201</Timestamp><Current dt:dt="r8">0</Current><DateUtc dt:dt="string">2016-05-09T21:58:55Z</DateUtc></FrequencyChange></FrequencyChanges></Clock>\n	Hungry_Donkey_bar_English_2-145-1	60.018	105	1.0.0.18	1	1311259670	Standard	2.0.10.353	2.0.10.353	05-09-2016	5/9/2016 9:58:55 PM	17:58:55	2.0.10.248	59	Bar50-50.bmp	52	2	?	0r_4g.bmp	0r_4g.bmp	0r_2g.bmp	0r_2g.bmp		0r_4g.bmp			TrialProc	TrialList	0	cvbn	-999999	16	306535	0	v	2239	308774	180	-166	14	-28	10	12	20	9	6	59	0	0	0	0	4	4	2	2	0	4
Hungry_Donkey_bar_English_2	145	1	<?xml version="1.0"?>\n<Clock xmlns:dt="urn:schemas-microsoft-com:datatypes"><Description dt:dt="string">E-Prime Primary Realtime Clock</Description><StartTime><Timestamp dt:dt="int">0</Timestamp><DateUtc dt:dt="string">2016-05-09T21:58:55Z</DateUtc></StartTime><FrequencyChanges><FrequencyChange><Frequency dt:dt="r8">3507724</Frequency><Timestamp dt:dt="r8">993447990201</Timestamp><Current dt:dt="r8">0</Current><DateUtc dt:dt="string">2016-05-09T21:58:55Z</DateUtc></FrequencyChange></FrequencyChanges></Clock>\n	Hungry_Donkey_bar_English_2-145-1	60.018	105	1.0.0.18	1	1311259670	Standard	2.0.10.353	2.0.10.353	05-09-2016	5/9/2016 9:58:55 PM	17:58:55	2.0.10.248	60	Bar50-50.bmp	52	3	?	8r_4g.bmp	50r_4g.bmp	1r_2g.bmp	10r_2g.bmp			1r_2g.bmp		TrialProc	TrialList	0	cvbn	-999999	16	310817	0	b	805	311622	182	-167	15	-28	10	13	20	1	6	60	-8	-50	-1	-10	4	4	2	2	-1	2
Hungry_Donkey_bar_English_2	145	1	<?xml version="1.0"?>\n<Clock xmlns:dt="urn:schemas-microsoft-com:datatypes"><Description dt:dt="string">E-Prime Primary Realtime Clock</Description><StartTime><Timestamp dt:dt="int">0</Timestamp><DateUtc dt:dt="string">2016-05-09T21:58:55Z</DateUtc></StartTime><FrequencyChanges><FrequencyChange><Frequency dt:dt="r8">3507724</Frequency><Timestamp dt:dt="r8">993447990201</Timestamp><Current dt:dt="r8">0</Current><DateUtc dt:dt="string">2016-05-09T21:58:55Z</DateUtc></FrequencyChange></FrequencyChanges></Clock>\n	Hungry_Donkey_bar_English_2-145-1	60.018	105	1.0.0.18	1	1311259670	Standard	2.0.10.353	2.0.10.353	05-09-2016	5/9/2016 9:58:55 PM	17:58:55	2.0.10.248	61	Bar50-50.bmp	52	4	?	0r_4g.bmp	0r_4g.bmp	0r_2g.bmp	0r_2g.bmp				0r_2g.bmp	TrialProc	TrialList	0	cvbn	-999999	16	313650	0	n	676	314326	184	-167	17	-28	10	13	22	9	7	61	0	0	0	0	4	4	2	2	0	2
Hungry_Donkey_bar_English_2	145	1	<?xml version="1.0"?>\n<Clock xmlns:dt="urn:schemas-microsoft-com:datatypes"><Description dt:dt="string">E-Prime Primary Realtime Clock</Description><StartTime><Timestamp dt:dt="int">0</Timestamp><DateUtc dt:dt="string">2016-05-09T21:58:55Z</DateUtc></StartTime><FrequencyChanges><FrequencyChange><Frequency dt:dt="r8">3507724</Frequency><Timestamp dt:dt="r8">993447990201</Timestamp><Current dt:dt="r8">0</Current><DateUtc dt:dt="string">2016-05-09T21:58:55Z</DateUtc></FrequencyChange></FrequencyChanges></Clock>\n	Hungry_Donkey_bar_English_2-145-1	60.018	105	1.0.0.18	1	1311259670	Standard	2.0.10.353	2.0.10.353	05-09-2016	5/9/2016 9:58:55 PM	17:58:55	2.0.10.248	62	Bar50-50.bmp	52	1	?	10r_4g.bmp	0r_4g.bmp	2r_2g.bmp	0r_2g.bmp	10r_4g.bmp				TrialProc	TrialList	0	cvbn	-999999	16	316366	0	c	1128	317494	188	-177	11	-34	10	13	22	2	7	62	-10	0	-2	0	4	4	2	2	-10	4
Hungry_Donkey_bar_English_2	145	1	<?xml version="1.0"?>\n<Clock xmlns:dt="urn:schemas-microsoft-com:datatypes"><Description dt:dt="string">E-Prime Primary Realtime Clock</Description><StartTime><Timestamp dt:dt="int">0</Timestamp><DateUtc dt:dt="string">2016-05-09T21:58:55Z</DateUtc></StartTime><FrequencyChanges><FrequencyChange><Frequency dt:dt="r8">3507724</Frequency><Timestamp dt:dt="r8">993447990201</Timestamp><Current dt:dt="r8">0</Current><DateUtc dt:dt="string">2016-05-09T21:58:55Z</DateUtc></FrequencyChange></FrequencyChanges></Clock>\n	Hungry_Donkey_bar_English_2-145-1	60.018	105	1.0.0.18	1	1311259670	Standard	2.0.10.353	2.0.10.353	05-09-2016	5/9/2016 9:58:55 PM	17:58:55	2.0.10.248	63	Bar50-50.bmp	52	2	?	0r_4g.bmp	0r_4g.bmp	0r_2g.bmp	0r_2g.bmp		0r_4g.bmp			TrialProc	TrialList	0	cvbn	-999999	16	319531	0	v	427	319958	192	-177	15	-34	14	13	22	6	7	63	0	0	0	0	4	4	2	2	0	4
Hungry_Donkey_bar_English_2	145	1	<?xml version="1.0"?>\n<Clock xmlns:dt="urn:schemas-microsoft-com:datatypes"><Description dt:dt="string">E-Prime Primary Realtime Clock</Description><StartTime><Timestamp dt:dt="int">0</Timestamp><DateUtc dt:dt="string">2016-05-09T21:58:55Z</DateUtc></StartTime><FrequencyChanges><FrequencyChange><Frequency dt:dt="r8">3507724</Frequency><Timestamp dt:dt="r8">993447990201</Timestamp><Current dt:dt="r8">0</Current><DateUtc dt:dt="string">2016-05-09T21:58:55Z</DateUtc></FrequencyChange></FrequencyChanges></Clock>\n	Hungry_Donkey_bar_English_2-145-1	60.018	105	1.0.0.18	1	1311259670	Standard	2.0.10.353	2.0.10.353	05-09-2016	5/9/2016 9:58:55 PM	17:58:55	2.0.10.248	64	Bar50-50.bmp	52	3	?	10r_4g.bmp	0r_4g.bmp	2r_2g.bmp	0r_2g.bmp			2r_2g.bmp		TrialProc	TrialList	0	cvbn	-999999	16	321981	0	b	488	322469	194	-179	15	-34	14	13	22	4	7	64	-10	0	-2	0	4	4	2	2	-2	2
Hungry_Donkey_bar_English_2	145	1	<?xml version="1.0"?>\n<Clock xmlns:dt="urn:schemas-microsoft-com:datatypes"><Description dt:dt="string">E-Prime Primary Realtime Clock</Description><StartTime><Timestamp dt:dt="int">0</Timestamp><DateUtc dt:dt="string">2016-05-09T21:58:55Z</DateUtc></StartTime><FrequencyChanges><FrequencyChange><Frequency dt:dt="r8">3507724</Frequency><Timestamp dt:dt="r8">993447990201</Timestamp><Current dt:dt="r8">0</Current><DateUtc dt:dt="string">2016-05-09T21:58:55Z</DateUtc></FrequencyChange></FrequencyChanges></Clock>\n	Hungry_Donkey_bar_English_2-145-1	60.018	105	1.0.0.18	1	1311259670	Standard	2.0.10.353	2.0.10.353	05-09-2016	5/9/2016 9:58:55 PM	17:58:55	2.0.10.248	65	Bar50-50.bmp	52	4	?	0r_4g.bmp	0r_4g.bmp	0r_2g.bmp	0r_2g.bmp				0r_2g.bmp	TrialProc	TrialList	0	cvbn	-999999	16	324497	0	n	436	324933	196	-179	17	-34	14	13	24	8	7	65	0	0	0	0	4	4	2	2	0	2
Hungry_Donkey_bar_English_2	145	1	<?xml version="1.0"?>\n<Clock xmlns:dt="urn:schemas-microsoft-com:datatypes"><Description dt:dt="string">E-Prime Primary Realtime Clock</Description><StartTime><Timestamp dt:dt="int">0</Timestamp><DateUtc dt:dt="string">2016-05-09T21:58:55Z</DateUtc></StartTime><FrequencyChanges><FrequencyChange><Frequency dt:dt="r8">3507724</Frequency><Timestamp dt:dt="r8">993447990201</Timestamp><Current dt:dt="r8">0</Current><DateUtc dt:dt="string">2016-05-09T21:58:55Z</DateUtc></FrequencyChange></FrequencyChanges></Clock>\n	Hungry_Donkey_bar_English_2-145-1	60.018	105	1.0.0.18	1	1311259670	Standard	2.0.10.353	2.0.10.353	05-09-2016	5/9/2016 9:58:55 PM	17:58:55	2.0.10.248	66	Bar50-50.bmp	53	1	?	0r_4g.bmp	0r_4g.bmp	0r_2g.bmp	0r_2g.bmp	0r_4g.bmp				TrialProc	TrialList	0	cvbn	-999999	17	326963	0	c	1938	328901	200	-179	21	-30	14	13	24	7	7	66	0	0	0	0	4	4	2	2	0	4
Hungry_Donkey_bar_English_2	145	1	<?xml version="1.0"?>\n<Clock xmlns:dt="urn:schemas-microsoft-com:datatypes"><Description dt:dt="string">E-Prime Primary Realtime Clock</Description><StartTime><Timestamp dt:dt="int">0</Timestamp><DateUtc dt:dt="string">2016-05-09T21:58:55Z</DateUtc></StartTime><FrequencyChanges><FrequencyChange><Frequency dt:dt="r8">3507724</Frequency><Timestamp dt:dt="r8">993447990201</Timestamp><Current dt:dt="r8">0</Current><DateUtc dt:dt="string">2016-05-09T21:58:55Z</DateUtc></FrequencyChange></FrequencyChanges></Clock>\n	Hungry_Donkey_bar_English_2-145-1	60.018	105	1.0.0.18	1	1311259670	Standard	2.0.10.353	2.0.10.353	05-09-2016	5/9/2016 9:58:55 PM	17:58:55	2.0.10.248	67	Bar50-50.bmp	53	2	?	0r_4g.bmp	0r_4g.bmp	0r_2g.bmp	0r_2g.bmp		0r_4g.bmp			TrialProc	TrialList	0	cvbn	-999999	16	330928	0	v	917	331845	204	-179	25	-30	18	13	24	10	7	67	0	0	0	0	4	4	2	2	0	4
Hungry_Donkey_bar_English_2	145	1	<?xml version="1.0"?>\n<Clock xmlns:dt="urn:schemas-microsoft-com:datatypes"><Description dt:dt="string">E-Prime Primary Realtime Clock</Description><StartTime><Timestamp dt:dt="int">0</Timestamp><DateUtc dt:dt="string">2016-05-09T21:58:55Z</DateUtc></StartTime><FrequencyChanges><FrequencyChange><Frequency dt:dt="r8">3507724</Frequency><Timestamp dt:dt="r8">993447990201</Timestamp><Current dt:dt="r8">0</Current><DateUtc dt:dt="string">2016-05-09T21:58:55Z</DateUtc></FrequencyChange></FrequencyChanges></Clock>\n	Hungry_Donkey_bar_English_2-145-1	60.018	105	1.0.0.18	1	1311259670	Standard	2.0.10.353	2.0.10.353	05-09-2016	5/9/2016 9:58:55 PM	17:58:55	2.0.10.248	68	Bar50-50.bmp	53	3	?	10r_4g.bmp	0r_4g.bmp	2r_2g.bmp	0r_2g.bmp			2r_2g.bmp		TrialProc	TrialList	0	cvbn	-999999	16	333877	0	b	768	334645	206	-181	25	-30	18	13	24	3	7	68	-10	0	-2	0	4	4	2	2	-2	2
Hungry_Donkey_bar_English_2	145	1	<?xml version="1.0"?>\n<Clock xmlns:dt="urn:schemas-microsoft-com:datatypes"><Description dt:dt="string">E-Prime Primary Realtime Clock</Description><StartTime><Timestamp dt:dt="int">0</Timestamp><DateUtc dt:dt="string">2016-05-09T21:58:55Z</DateUtc></StartTime><FrequencyChanges><FrequencyChange><Frequency dt:dt="r8">3507724</Frequency><Timestamp dt:dt="r8">993447990201</Timestamp><Current dt:dt="r8">0</Current><DateUtc dt:dt="string">2016-05-09T21:58:55Z</DateUtc></FrequencyChange></FrequencyChanges></Clock>\n	Hungry_Donkey_bar_English_2-145-1	60.018	105	1.0.0.18	1	1311259670	Standard	2.0.10.353	2.0.10.353	05-09-2016	5/9/2016 9:58:55 PM	17:58:55	2.0.10.248	69	Bar50-50.bmp	52	4	?	8r_4g.bmp	50r_4g.bmp	1r_2g.bmp	10r_2g.bmp				10r_2g.bmp	TrialProc	TrialList	0	cvbn	-999999	16	336676	0	n	2128	338804	208	-191	17	-30	18	13	16	1	7	69	-8	-50	-1	-10	4	4	2	2	-10	2
Hungry_Donkey_bar_English_2	145	1	<?xml version="1.0"?>\n<Clock xmlns:dt="urn:schemas-microsoft-com:datatypes"><Description dt:dt="string">E-Prime Primary Realtime Clock</Description><StartTime><Timestamp dt:dt="int">0</Timestamp><DateUtc dt:dt="string">2016-05-09T21:58:55Z</DateUtc></StartTime><FrequencyChanges><FrequencyChange><Frequency dt:dt="r8">3507724</Frequency><Timestamp dt:dt="r8">993447990201</Timestamp><Current dt:dt="r8">0</Current><DateUtc dt:dt="string">2016-05-09T21:58:55Z</DateUtc></FrequencyChange></FrequencyChanges></Clock>\n	Hungry_Donkey_bar_English_2-145-1	60.018	105	1.0.0.18	1	1311259670	Standard	2.0.10.353	2.0.10.353	05-09-2016	5/9/2016 9:58:55 PM	17:58:55	2.0.10.248	70	Bar50-50.bmp	51	1	?	12r_4g.bmp	0r_4g.bmp	3r_2g.bmp	0r_2g.bmp	12r_4g.bmp				TrialProc	TrialList	0	cvbn	-999999	16	340842	0	c	1146	341988	212	-203	9	-38	18	13	16	5	7	70	-12	0	-3	0	4	4	2	2	-12	4
Hungry_Donkey_bar_English_2	145	1	<?xml version="1.0"?>\n<Clock xmlns:dt="urn:schemas-microsoft-com:datatypes"><Description dt:dt="string">E-Prime Primary Realtime Clock</Description><StartTime><Timestamp dt:dt="int">0</Timestamp><DateUtc dt:dt="string">2016-05-09T21:58:55Z</DateUtc></StartTime><FrequencyChanges><FrequencyChange><Frequency dt:dt="r8">3507724</Frequency><Timestamp dt:dt="r8">993447990201</Timestamp><Current dt:dt="r8">0</Current><DateUtc dt:dt="string">2016-05-09T21:58:55Z</DateUtc></FrequencyChange></FrequencyChanges></Clock>\n	Hungry_Donkey_bar_English_2-145-1	60.018	105	1.0.0.18	1	1311259670	Standard	2.0.10.353	2.0.10.353	05-09-2016	5/9/2016 9:58:55 PM	17:58:55	2.0.10.248	71	Bar50-50.bmp	52	2	?	10r_4g.bmp	0r_4g.bmp	2r_2g.bmp	0r_2g.bmp		0r_4g.bmp			TrialProc	TrialList	0	cvbn	-999999	16	344024	0	v	620	344644	216	-203	13	-38	22	13	16	2	8	71	-10	0	-2	0	4	4	2	2	0	4
Hungry_Donkey_bar_English_2	145	1	<?xml version="1.0"?>\n<Clock xmlns:dt="urn:schemas-microsoft-com:datatypes"><Description dt:dt="string">E-Prime Primary Realtime Clock</Description><StartTime><Timestamp dt:dt="int">0</Timestamp><DateUtc dt:dt="string">2016-05-09T21:58:55Z</DateUtc></StartTime><FrequencyChanges><FrequencyChange><Frequency dt:dt="r8">3507724</Frequency><Timestamp dt:dt="r8">993447990201</Timestamp><Current dt:dt="r8">0</Current><DateUtc dt:dt="string">2016-05-09T21:58:55Z</DateUtc></FrequencyChange></FrequencyChanges></Clock>\n	Hungry_Donkey_bar_English_2-145-1	60.018	105	1.0.0.18	1	1311259670	Standard	2.0.10.353	2.0.10.353	05-09-2016	5/9/2016 9:58:55 PM	17:58:55	2.0.10.248	72	Bar50-50.bmp	52	3	?	0r_4g.bmp	0r_4g.bmp	0r_2g.bmp	0r_2g.bmp			0r_2g.bmp		TrialProc	TrialList	0	cvbn	-999999	16	346673	0	b	659	347332	218	-203	15	-38	22	15	16	10	8	72	0	0	0	0	4	4	2	2	0	2
Hungry_Donkey_bar_English_2	145	1	<?xml version="1.0"?>\n<Clock xmlns:dt="urn:schemas-microsoft-com:datatypes"><Description dt:dt="string">E-Prime Primary Realtime Clock</Description><StartTime><Timestamp dt:dt="int">0</Timestamp><DateUtc dt:dt="string">2016-05-09T21:58:55Z</DateUtc></StartTime><FrequencyChanges><FrequencyChange><Frequency dt:dt="r8">3507724</Frequency><Timestamp dt:dt="r8">993447990201</Timestamp><Current dt:dt="r8">0</Current><DateUtc dt:dt="string">2016-05-09T21:58:55Z</DateUtc></FrequencyChange></FrequencyChanges></Clock>\n	Hungry_Donkey_bar_English_2-145-1	60.018	105	1.0.0.18	1	1311259670	Standard	2.0.10.353	2.0.10.353	05-09-2016	5/9/2016 9:58:55 PM	17:58:55	2.0.10.248	73	Bar50-50.bmp	52	4	?	12r_4g.bmp	0r_4g.bmp	3r_2g.bmp	0r_2g.bmp				0r_2g.bmp	TrialProc	TrialList	0	cvbn	-999999	16	349372	0	n	584	349956	220	-203	17	-38	22	15	18	5	8	73	-12	0	-3	0	4	4	2	2	0	2
Hungry_Donkey_bar_English_2	145	1	<?xml version="1.0"?>\n<Clock xmlns:dt="urn:schemas-microsoft-com:datatypes"><Description dt:dt="string">E-Prime Primary Realtime Clock</Description><StartTime><Timestamp dt:dt="int">0</Timestamp><DateUtc dt:dt="string">2016-05-09T21:58:55Z</DateUtc></StartTime><FrequencyChanges><FrequencyChange><Frequency dt:dt="r8">3507724</Frequency><Timestamp dt:dt="r8">993447990201</Timestamp><Current dt:dt="r8">0</Current><DateUtc dt:dt="string">2016-05-09T21:58:55Z</DateUtc></FrequencyChange></FrequencyChanges></Clock>\n	Hungry_Donkey_bar_English_2-145-1	60.018	105	1.0.0.18	1	1311259670	Standard	2.0.10.353	2.0.10.353	05-09-2016	5/9/2016 9:58:55 PM	17:58:55	2.0.10.248	74	Bar50-50.bmp	52	1	?	0r_4g.bmp	0r_4g.bmp	0r_2g.bmp	0r_2g.bmp	0r_4g.bmp				TrialProc	TrialList	0	cvbn	-999999	16	351988	0	c	6623	358611	224	-203	21	-34	22	15	18	8	8	74	0	0	0	0	4	4	2	2	0	4
Hungry_Donkey_bar_English_2	145	1	<?xml version="1.0"?>\n<Clock xmlns:dt="urn:schemas-microsoft-com:datatypes"><Description dt:dt="string">E-Prime Primary Realtime Clock</Description><StartTime><Timestamp dt:dt="int">0</Timestamp><DateUtc dt:dt="string">2016-05-09T21:58:55Z</DateUtc></StartTime><FrequencyChanges><FrequencyChange><Frequency dt:dt="r8">3507724</Frequency><Timestamp dt:dt="r8">993447990201</Timestamp><Current dt:dt="r8">0</Current><DateUtc dt:dt="string">2016-05-09T21:58:55Z</DateUtc></FrequencyChange></FrequencyChanges></Clock>\n	Hungry_Donkey_bar_English_2-145-1	60.018	105	1.0.0.18	1	1311259670	Standard	2.0.10.353	2.0.10.353	05-09-2016	5/9/2016 9:58:55 PM	17:58:55	2.0.10.248	75	Bar50-50.bmp	53	2	?	10r_4g.bmp	0r_4g.bmp	2r_2g.bmp	0r_2g.bmp		0r_4g.bmp			TrialProc	TrialList	0	cvbn	-999999	16	360636	0	v	599	361235	228	-203	25	-34	26	15	18	3	8	75	-10	0	-2	0	4	4	2	2	0	4
Hungry_Donkey_bar_English_2	145	1	<?xml version="1.0"?>\n<Clock xmlns:dt="urn:schemas-microsoft-com:datatypes"><Description dt:dt="string">E-Prime Primary Realtime Clock</Description><StartTime><Timestamp dt:dt="int">0</Timestamp><DateUtc dt:dt="string">2016-05-09T21:58:55Z</DateUtc></StartTime><FrequencyChanges><FrequencyChange><Frequency dt:dt="r8">3507724</Frequency><Timestamp dt:dt="r8">993447990201</Timestamp><Current dt:dt="r8">0</Current><DateUtc dt:dt="string">2016-05-09T21:58:55Z</DateUtc></FrequencyChange></FrequencyChanges></Clock>\n	Hungry_Donkey_bar_English_2-145-1	60.018	105	1.0.0.18	1	1311259670	Standard	2.0.10.353	2.0.10.353	05-09-2016	5/9/2016 9:58:55 PM	17:58:55	2.0.10.248	76	Bar50-50.bmp	53	3	?	0r_4g.bmp	0r_4g.bmp	0r_2g.bmp	0r_2g.bmp			0r_2g.bmp		TrialProc	TrialList	0	cvbn	-999999	16	363268	0	b	495	363763	230	-203	27	-34	26	17	18	6	8	76	0	0	0	0	4	4	2	2	0	2
Hungry_Donkey_bar_English_2	145	1	<?xml version="1.0"?>\n<Clock xmlns:dt="urn:schemas-microsoft-com:datatypes"><Description dt:dt="string">E-Prime Primary Realtime Clock</Description><StartTime><Timestamp dt:dt="int">0</Timestamp><DateUtc dt:dt="string">2016-05-09T21:58:55Z</DateUtc></StartTime><FrequencyChanges><FrequencyChange><Frequency dt:dt="r8">3507724</Frequency><Timestamp dt:dt="r8">993447990201</Timestamp><Current dt:dt="r8">0</Current><DateUtc dt:dt="string">2016-05-09T21:58:55Z</DateUtc></FrequencyChange></FrequencyChanges></Clock>\n	Hungry_Donkey_bar_English_2-145-1	60.018	105	1.0.0.18	1	1311259670	Standard	2.0.10.353	2.0.10.353	05-09-2016	5/9/2016 9:58:55 PM	17:58:55	2.0.10.248	77	Bar50-50.bmp	53	4	?	0r_4g.bmp	0r_4g.bmp	0r_2g.bmp	0r_2g.bmp				0r_2g.bmp	TrialProc	TrialList	0	cvbn	-999999	16	365801	0	n	394	366195	232	-203	29	-34	26	17	20	7	8	77	0	0	0	0	4	4	2	2	0	2
Hungry_Donkey_bar_English_2	145	1	<?xml version="1.0"?>\n<Clock xmlns:dt="urn:schemas-microsoft-com:datatypes"><Description dt:dt="string">E-Prime Primary Realtime Clock</Description><StartTime><Timestamp dt:dt="int">0</Timestamp><DateUtc dt:dt="string">2016-05-09T21:58:55Z</DateUtc></StartTime><FrequencyChanges><FrequencyChange><Frequency dt:dt="r8">3507724</Frequency><Timestamp dt:dt="r8">993447990201</Timestamp><Current dt:dt="r8">0</Current><DateUtc dt:dt="string">2016-05-09T21:58:55Z</DateUtc></FrequencyChange></FrequencyChanges></Clock>\n	Hungry_Donkey_bar_English_2-145-1	60.018	105	1.0.0.18	1	1311259670	Standard	2.0.10.353	2.0.10.353	05-09-2016	5/9/2016 9:58:55 PM	17:58:55	2.0.10.248	78	Bar50-50.bmp	53	1	?	8r_4g.bmp	50r_4g.bmp	1r_2g.bmp	10r_2g.bmp	8r_4g.bmp				TrialProc	TrialList	0	cvbn	-999999	16	368233	0	c	601	368834	236	-211	25	-38	26	17	20	1	8	78	-8	-50	-1	-10	4	4	2	2	-8	4
Hungry_Donkey_bar_English_2	145	1	<?xml version="1.0"?>\n<Clock xmlns:dt="urn:schemas-microsoft-com:datatypes"><Description dt:dt="string">E-Prime Primary Realtime Clock</Description><StartTime><Timestamp dt:dt="int">0</Timestamp><DateUtc dt:dt="string">2016-05-09T21:58:55Z</DateUtc></StartTime><FrequencyChanges><FrequencyChange><Frequency dt:dt="r8">3507724</Frequency><Timestamp dt:dt="r8">993447990201</Timestamp><Current dt:dt="r8">0</Current><DateUtc dt:dt="string">2016-05-09T21:58:55Z</DateUtc></FrequencyChange></FrequencyChanges></Clock>\n	Hungry_Donkey_bar_English_2-145-1	60.018	105	1.0.0.18	1	1311259670	Standard	2.0.10.353	2.0.10.353	05-09-2016	5/9/2016 9:58:55 PM	17:58:55	2.0.10.248	79	Bar50-50.bmp	53	2	?	0r_4g.bmp	0r_4g.bmp	0r_2g.bmp	0r_2g.bmp		0r_4g.bmp			TrialProc	TrialList	0	cvbn	-999999	16	370866	0	v	2240	373106	240	-211	29	-38	30	17	20	9	8	79	0	0	0	0	4	4	2	2	0	4
Hungry_Donkey_bar_English_2	145	1	<?xml version="1.0"?>\n<Clock xmlns:dt="urn:schemas-microsoft-com:datatypes"><Description dt:dt="string">E-Prime Primary Realtime Clock</Description><StartTime><Timestamp dt:dt="int">0</Timestamp><DateUtc dt:dt="string">2016-05-09T21:58:55Z</DateUtc></StartTime><FrequencyChanges><FrequencyChange><Frequency dt:dt="r8">3507724</Frequency><Timestamp dt:dt="r8">993447990201</Timestamp><Current dt:dt="r8">0</Current><DateUtc dt:dt="string">2016-05-09T21:58:55Z</DateUtc></FrequencyChange></FrequencyChanges></Clock>\n	Hungry_Donkey_bar_English_2-145-1	60.018	105	1.0.0.18	1	1311259670	Standard	2.0.10.353	2.0.10.353	05-09-2016	5/9/2016 9:58:55 PM	17:58:55	2.0.10.248	80	Bar50-50.bmp	53	3	?	10r_4g.bmp	0r_4g.bmp	2r_2g.bmp	0r_2g.bmp			2r_2g.bmp		TrialProc	TrialList	0	cvbn	-999999	16	375148	0	b	1542	376690	242	-213	29	-38	30	17	20	4	8	80	-10	0	-2	0	4	4	2	2	-2	2
Hungry_Donkey_bar_English_2	145	1	<?xml version="1.0"?>\n<Clock xmlns:dt="urn:schemas-microsoft-com:datatypes"><Description dt:dt="string">E-Prime Primary Realtime Clock</Description><StartTime><Timestamp dt:dt="int">0</Timestamp><DateUtc dt:dt="string">2016-05-09T21:58:55Z</DateUtc></StartTime><FrequencyChanges><FrequencyChange><Frequency dt:dt="r8">3507724</Frequency><Timestamp dt:dt="r8">993447990201</Timestamp><Current dt:dt="r8">0</Current><DateUtc dt:dt="string">2016-05-09T21:58:55Z</DateUtc></FrequencyChange></FrequencyChanges></Clock>\n	Hungry_Donkey_bar_English_2-145-1	60.018	105	1.0.0.18	1	1311259670	Standard	2.0.10.353	2.0.10.353	05-09-2016	5/9/2016 9:58:55 PM	17:58:55	2.0.10.248	81	Bar50-50.bmp	53	4	?	10r_4g.bmp	0r_4g.bmp	2r_2g.bmp	0r_2g.bmp				0r_2g.bmp	TrialProc	TrialList	0	cvbn	-999999	16	378730	0	n	1128	379858	244	-213	31	-38	30	17	22	4	9	81	-10	0	-2	0	4	4	2	2	0	2
Hungry_Donkey_bar_English_2	145	1	<?xml version="1.0"?>\n<Clock xmlns:dt="urn:schemas-microsoft-com:datatypes"><Description dt:dt="string">E-Prime Primary Realtime Clock</Description><StartTime><Timestamp dt:dt="int">0</Timestamp><DateUtc dt:dt="string">2016-05-09T21:58:55Z</DateUtc></StartTime><FrequencyChanges><FrequencyChange><Frequency dt:dt="r8">3507724</Frequency><Timestamp dt:dt="r8">993447990201</Timestamp><Current dt:dt="r8">0</Current><DateUtc dt:dt="string">2016-05-09T21:58:55Z</DateUtc></FrequencyChange></FrequencyChanges></Clock>\n	Hungry_Donkey_bar_English_2-145-1	60.018	105	1.0.0.18	1	1311259670	Standard	2.0.10.353	2.0.10.353	05-09-2016	5/9/2016 9:58:55 PM	17:58:55	2.0.10.248	82	Bar50-50.bmp	53	1	?	8r_4g.bmp	50r_4g.bmp	1r_2g.bmp	10r_2g.bmp	8r_4g.bmp				TrialProc	TrialList	0	cvbn	-999999	16	381896	0	c	1946	383842	248	-221	27	-42	30	17	22	1	9	82	-8	-50	-1	-10	4	4	2	2	-8	4
Hungry_Donkey_bar_English_2	145	1	<?xml version="1.0"?>\n<Clock xmlns:dt="urn:schemas-microsoft-com:datatypes"><Description dt:dt="string">E-Prime Primary Realtime Clock</Description><StartTime><Timestamp dt:dt="int">0</Timestamp><DateUtc dt:dt="string">2016-05-09T21:58:55Z</DateUtc></StartTime><FrequencyChanges><FrequencyChange><Frequency dt:dt="r8">3507724</Frequency><Timestamp dt:dt="r8">993447990201</Timestamp><Current dt:dt="r8">0</Current><DateUtc dt:dt="string">2016-05-09T21:58:55Z</DateUtc></FrequencyChange></FrequencyChanges></Clock>\n	Hungry_Donkey_bar_English_2-145-1	60.018	105	1.0.0.18	1	1311259670	Standard	2.0.10.353	2.0.10.353	05-09-2016	5/9/2016 9:58:55 PM	17:58:55	2.0.10.248	83	Bar50-50.bmp	53	2	?	0r_4g.bmp	0r_4g.bmp	0r_2g.bmp	0r_2g.bmp		0r_4g.bmp			TrialProc	TrialList	0	cvbn	-999999	16	385878	0	v	1403	387281	252	-221	31	-42	34	17	22	7	9	83	0	0	0	0	4	4	2	2	0	4
Hungry_Donkey_bar_English_2	145	1	<?xml version="1.0"?>\n<Clock xmlns:dt="urn:schemas-microsoft-com:datatypes"><Description dt:dt="string">E-Prime Primary Realtime Clock</Description><StartTime><Timestamp dt:dt="int">0</Timestamp><DateUtc dt:dt="string">2016-05-09T21:58:55Z</DateUtc></StartTime><FrequencyChanges><FrequencyChange><Frequency dt:dt="r8">3507724</Frequency><Timestamp dt:dt="r8">993447990201</Timestamp><Current dt:dt="r8">0</Current><DateUtc dt:dt="string">2016-05-09T21:58:55Z</DateUtc></FrequencyChange></FrequencyChanges></Clock>\n	Hungry_Donkey_bar_English_2-145-1	60.018	105	1.0.0.18	1	1311259670	Standard	2.0.10.353	2.0.10.353	05-09-2016	5/9/2016 9:58:55 PM	17:58:55	2.0.10.248	84	Bar50-50.bmp	53	3	?	10r_4g.bmp	0r_4g.bmp	2r_2g.bmp	0r_2g.bmp			2r_2g.bmp		TrialProc	TrialList	0	cvbn	-999999	16	389310	0	b	499	389809	254	-223	31	-42	34	17	22	2	9	84	-10	0	-2	0	4	4	2	2	-2	2
Hungry_Donkey_bar_English_2	145	1	<?xml version="1.0"?>\n<Clock xmlns:dt="urn:schemas-microsoft-com:datatypes"><Description dt:dt="string">E-Prime Primary Realtime Clock</Description><StartTime><Timestamp dt:dt="int">0</Timestamp><DateUtc dt:dt="string">2016-05-09T21:58:55Z</DateUtc></StartTime><FrequencyChanges><FrequencyChange><Frequency dt:dt="r8">3507724</Frequency><Timestamp dt:dt="r8">993447990201</Timestamp><Current dt:dt="r8">0</Current><DateUtc dt:dt="string">2016-05-09T21:58:55Z</DateUtc></FrequencyChange></FrequencyChanges></Clock>\n	Hungry_Donkey_bar_English_2-145-1	60.018	105	1.0.0.18	1	1311259670	Standard	2.0.10.353	2.0.10.353	05-09-2016	5/9/2016 9:58:55 PM	17:58:55	2.0.10.248	85	Bar50-50.bmp	53	4	?	0r_4g.bmp	0r_4g.bmp	0r_2g.bmp	0r_2g.bmp				0r_2g.bmp	TrialProc	TrialList	0	cvbn	-999999	16	391843	0	n	1022	392865	256	-223	33	-42	34	17	24	8	9	85	0	0	0	0	4	4	2	2	0	2
Hungry_Donkey_bar_English_2	145	1	<?xml version="1.0"?>\n<Clock xmlns:dt="urn:schemas-microsoft-com:datatypes"><Description dt:dt="string">E-Prime Primary Realtime Clock</Description><StartTime><Timestamp dt:dt="int">0</Timestamp><DateUtc dt:dt="string">2016-05-09T21:58:55Z</DateUtc></StartTime><FrequencyChanges><FrequencyChange><Frequency dt:dt="r8">3507724</Frequency><Timestamp dt:dt="r8">993447990201</Timestamp><Current dt:dt="r8">0</Current><DateUtc dt:dt="string">2016-05-09T21:58:55Z</DateUtc></FrequencyChange></FrequencyChanges></Clock>\n	Hungry_Donkey_bar_English_2-145-1	60.018	105	1.0.0.18	1	1311259670	Standard	2.0.10.353	2.0.10.353	05-09-2016	5/9/2016 9:58:55 PM	17:58:55	2.0.10.248	86	Bar50-50.bmp	54	4	?	12r_4g.bmp	0r_4g.bmp	3r_2g.bmp	0r_2g.bmp				0r_2g.bmp	TrialProc	TrialList	0	cvbn	-999999	16	394892	0	n	565	395457	258	-223	35	-42	34	17	26	5	9	86	-12	0	-3	0	4	4	2	2	0	2
Hungry_Donkey_bar_English_2	145	1	<?xml version="1.0"?>\n<Clock xmlns:dt="urn:schemas-microsoft-com:datatypes"><Description dt:dt="string">E-Prime Primary Realtime Clock</Description><StartTime><Timestamp dt:dt="int">0</Timestamp><DateUtc dt:dt="string">2016-05-09T21:58:55Z</DateUtc></StartTime><FrequencyChanges><FrequencyChange><Frequency dt:dt="r8">3507724</Frequency><Timestamp dt:dt="r8">993447990201</Timestamp><Current dt:dt="r8">0</Current><DateUtc dt:dt="string">2016-05-09T21:58:55Z</DateUtc></FrequencyChange></FrequencyChanges></Clock>\n	Hungry_Donkey_bar_English_2-145-1	60.018	105	1.0.0.18	1	1311259670	Standard	2.0.10.353	2.0.10.353	05-09-2016	5/9/2016 9:58:55 PM	17:58:55	2.0.10.248	87	Bar50-50.bmp	54	1	?	0r_4g.bmp	0r_4g.bmp	0r_2g.bmp	0r_2g.bmp	0r_4g.bmp				TrialProc	TrialList	0	cvbn	-999999	16	397491	0	c	1838	399329	262	-223	39	-38	34	17	26	10	9	87	0	0	0	0	4	4	2	2	0	4
Hungry_Donkey_bar_English_2	145	1	<?xml version="1.0"?>\n<Clock xmlns:dt="urn:schemas-microsoft-com:datatypes"><Description dt:dt="string">E-Prime Primary Realtime Clock</Description><StartTime><Timestamp dt:dt="int">0</Timestamp><DateUtc dt:dt="string">2016-05-09T21:58:55Z</DateUtc></StartTime><FrequencyChanges><FrequencyChange><Frequency dt:dt="r8">3507724</Frequency><Timestamp dt:dt="r8">993447990201</Timestamp><Current dt:dt="r8">0</Current><DateUtc dt:dt="string">2016-05-09T21:58:55Z</DateUtc></FrequencyChange></FrequencyChanges></Clock>\n	Hungry_Donkey_bar_English_2-145-1	60.018	105	1.0.0.18	1	1311259670	Standard	2.0.10.353	2.0.10.353	05-09-2016	5/9/2016 9:58:55 PM	17:58:55	2.0.10.248	88	Bar50-50.bmp	54	2	?	0r_4g.bmp	0r_4g.bmp	0r_2g.bmp	0r_2g.bmp		0r_4g.bmp			TrialProc	TrialList	0	cvbn	-999999	16	401357	0	v	595	401952	266	-223	43	-38	38	17	26	6	9	88	0	0	0	0	4	4	2	2	0	4
Hungry_Donkey_bar_English_2	145	1	<?xml version="1.0"?>\n<Clock xmlns:dt="urn:schemas-microsoft-com:datatypes"><Description dt:dt="string">E-Prime Primary Realtime Clock</Description><StartTime><Timestamp dt:dt="int">0</Timestamp><DateUtc dt:dt="string">2016-05-09T21:58:55Z</DateUtc></StartTime><FrequencyChanges><FrequencyChange><Frequency dt:dt="r8">3507724</Frequency><Timestamp dt:dt="r8">993447990201</Timestamp><Current dt:dt="r8">0</Current><DateUtc dt:dt="string">2016-05-09T21:58:55Z</DateUtc></FrequencyChange></FrequencyChanges></Clock>\n	Hungry_Donkey_bar_English_2-145-1	60.018	105	1.0.0.18	1	1311259670	Standard	2.0.10.353	2.0.10.353	05-09-2016	5/9/2016 9:58:55 PM	17:58:55	2.0.10.248	89	Bar50-50.bmp	54	3	?	10r_4g.bmp	0r_4g.bmp	2r_2g.bmp	0r_2g.bmp			2r_2g.bmp		TrialProc	TrialList	0	cvbn	-999999	16	403989	0	b	603	404592	268	-225	43	-38	38	17	26	3	9	89	-10	0	-2	0	4	4	2	2	-2	2
Hungry_Donkey_bar_English_2	145	1	<?xml version="1.0"?>\n<Clock xmlns:dt="urn:schemas-microsoft-com:datatypes"><Description dt:dt="string">E-Prime Primary Realtime Clock</Description><StartTime><Timestamp dt:dt="int">0</Timestamp><DateUtc dt:dt="string">2016-05-09T21:58:55Z</DateUtc></StartTime><FrequencyChanges><FrequencyChange><Frequency dt:dt="r8">3507724</Frequency><Timestamp dt:dt="r8">993447990201</Timestamp><Current dt:dt="r8">0</Current><DateUtc dt:dt="string">2016-05-09T21:58:55Z</DateUtc></FrequencyChange></FrequencyChanges></Clock>\n	Hungry_Donkey_bar_English_2-145-1	60.018	105	1.0.0.18	1	1311259670	Standard	2.0.10.353	2.0.10.353	05-09-2016	5/9/2016 9:58:55 PM	17:58:55	2.0.10.248	90	Bar50-50.bmp	55	4	?	0r_4g.bmp	0r_4g.bmp	0r_2g.bmp	0r_2g.bmp				0r_2g.bmp	TrialProc	TrialList	0	cvbn	-999999	16	406622	0	n	946	407568	270	-225	45	-38	38	17	28	9	9	90	0	0	0	0	4	4	2	2	0	2
Hungry_Donkey_bar_English_2	145	1	<?xml version="1.0"?>\n<Clock xmlns:dt="urn:schemas-microsoft-com:datatypes"><Description dt:dt="string">E-Prime Primary Realtime Clock</Description><StartTime><Timestamp dt:dt="int">0</Timestamp><DateUtc dt:dt="string">2016-05-09T21:58:55Z</DateUtc></StartTime><FrequencyChanges><FrequencyChange><Frequency dt:dt="r8">3507724</Frequency><Timestamp dt:dt="r8">993447990201</Timestamp><Current dt:dt="r8">0</Current><DateUtc dt:dt="string">2016-05-09T21:58:55Z</DateUtc></FrequencyChange></FrequencyChanges></Clock>\n	Hungry_Donkey_bar_English_2-145-1	60.018	105	1.0.0.18	1	1311259670	Standard	2.0.10.353	2.0.10.353	05-09-2016	5/9/2016 9:58:55 PM	17:58:55	2.0.10.248	91	Bar50-50.bmp	54	1	?	12r_4g.bmp	0r_4g.bmp	3r_2g.bmp	0r_2g.bmp	12r_4g.bmp				TrialProc	TrialList	0	cvbn	-999999	16	409604	0	c	2380	411984	274	-237	37	-46	38	17	28	5	10	91	-12	0	-3	0	4	4	2	2	-12	4
Hungry_Donkey_bar_English_2	145	1	<?xml version="1.0"?>\n<Clock xmlns:dt="urn:schemas-microsoft-com:datatypes"><Description dt:dt="string">E-Prime Primary Realtime Clock</Description><StartTime><Timestamp dt:dt="int">0</Timestamp><DateUtc dt:dt="string">2016-05-09T21:58:55Z</DateUtc></StartTime><FrequencyChanges><FrequencyChange><Frequency dt:dt="r8">3507724</Frequency><Timestamp dt:dt="r8">993447990201</Timestamp><Current dt:dt="r8">0</Current><DateUtc dt:dt="string">2016-05-09T21:58:55Z</DateUtc></FrequencyChange></FrequencyChanges></Clock>\n	Hungry_Donkey_bar_English_2-145-1	60.018	105	1.0.0.18	1	1311259670	Standard	2.0.10.353	2.0.10.353	05-09-2016	5/9/2016 9:58:55 PM	17:58:55	2.0.10.248	92	Bar50-50.bmp	54	2	?	10r_4g.bmp	0r_4g.bmp	2r_2g.bmp	0r_2g.bmp		0r_4g.bmp			TrialProc	TrialList	0	cvbn	-999999	16	414020	0	v	620	414640	278	-237	41	-46	42	17	28	4	10	92	-10	0	-2	0	4	4	2	2	0	4
Hungry_Donkey_bar_English_2	145	1	<?xml version="1.0"?>\n<Clock xmlns:dt="urn:schemas-microsoft-com:datatypes"><Description dt:dt="string">E-Prime Primary Realtime Clock</Description><StartTime><Timestamp dt:dt="int">0</Timestamp><DateUtc dt:dt="string">2016-05-09T21:58:55Z</DateUtc></StartTime><FrequencyChanges><FrequencyChange><Frequency dt:dt="r8">3507724</Frequency><Timestamp dt:dt="r8">993447990201</Timestamp><Current dt:dt="r8">0</Current><DateUtc dt:dt="string">2016-05-09T21:58:55Z</DateUtc></FrequencyChange></FrequencyChanges></Clock>\n	Hungry_Donkey_bar_English_2-145-1	60.018	105	1.0.0.18	1	1311259670	Standard	2.0.10.353	2.0.10.353	05-09-2016	5/9/2016 9:58:55 PM	17:58:55	2.0.10.248	93	Bar50-50.bmp	54	3	?	10r_4g.bmp	0r_4g.bmp	2r_2g.bmp	0r_2g.bmp			2r_2g.bmp		TrialProc	TrialList	0	cvbn	-999999	16	416669	0	b	595	417264	280	-239	41	-46	42	17	28	3	10	93	-10	0	-2	0	4	4	2	2	-2	2
Hungry_Donkey_bar_English_2	145	1	<?xml version="1.0"?>\n<Clock xmlns:dt="urn:schemas-microsoft-com:datatypes"><Description dt:dt="string">E-Prime Primary Realtime Clock</Description><StartTime><Timestamp dt:dt="int">0</Timestamp><DateUtc dt:dt="string">2016-05-09T21:58:55Z</DateUtc></StartTime><FrequencyChanges><FrequencyChange><Frequency dt:dt="r8">3507724</Frequency><Timestamp dt:dt="r8">993447990201</Timestamp><Current dt:dt="r8">0</Current><DateUtc dt:dt="string">2016-05-09T21:58:55Z</DateUtc></FrequencyChange></FrequencyChanges></Clock>\n	Hungry_Donkey_bar_English_2-145-1	60.018	105	1.0.0.18	1	1311259670	Standard	2.0.10.353	2.0.10.353	05-09-2016	5/9/2016 9:58:55 PM	17:58:55	2.0.10.248	94	Bar50-50.bmp	54	4	?	0r_4g.bmp	0r_4g.bmp	0r_2g.bmp	0r_2g.bmp				0r_2g.bmp	TrialProc	TrialList	0	cvbn	-999999	16	419301	0	n	682	419983	282	-239	43	-46	42	17	30	7	10	94	0	0	0	0	4	4	2	2	0	2
Hungry_Donkey_bar_English_2	145	1	<?xml version="1.0"?>\n<Clock xmlns:dt="urn:schemas-microsoft-com:datatypes"><Description dt:dt="string">E-Prime Primary Realtime Clock</Description><StartTime><Timestamp dt:dt="int">0</Timestamp><DateUtc dt:dt="string">2016-05-09T21:58:55Z</DateUtc></StartTime><FrequencyChanges><FrequencyChange><Frequency dt:dt="r8">3507724</Frequency><Timestamp dt:dt="r8">993447990201</Timestamp><Current dt:dt="r8">0</Current><DateUtc dt:dt="string">2016-05-09T21:58:55Z</DateUtc></FrequencyChange></FrequencyChanges></Clock>\n	Hungry_Donkey_bar_English_2-145-1	60.018	105	1.0.0.18	1	1311259670	Standard	2.0.10.353	2.0.10.353	05-09-2016	5/9/2016 9:58:55 PM	17:58:55	2.0.10.248	95	Bar50-50.bmp	54	1	?	0r_4g.bmp	0r_4g.bmp	0r_2g.bmp	0r_2g.bmp	0r_4g.bmp				TrialProc	TrialList	0	cvbn	-999999	16	422017	0	c	1838	423855	286	-239	47	-42	42	17	30	8	10	95	0	0	0	0	4	4	2	2	0	4
Hungry_Donkey_bar_English_2	145	1	<?xml version="1.0"?>\n<Clock xmlns:dt="urn:schemas-microsoft-com:datatypes"><Description dt:dt="string">E-Prime Primary Realtime Clock</Description><StartTime><Timestamp dt:dt="int">0</Timestamp><DateUtc dt:dt="string">2016-05-09T21:58:55Z</DateUtc></StartTime><FrequencyChanges><FrequencyChange><Frequency dt:dt="r8">3507724</Frequency><Timestamp dt:dt="r8">993447990201</Timestamp><Current dt:dt="r8">0</Current><DateUtc dt:dt="string">2016-05-09T21:58:55Z</DateUtc></FrequencyChange></FrequencyChanges></Clock>\n	Hungry_Donkey_bar_English_2-145-1	60.018	105	1.0.0.18	1	1311259670	Standard	2.0.10.353	2.0.10.353	05-09-2016	5/9/2016 9:58:55 PM	17:58:55	2.0.10.248	96	Bar50-50.bmp	55	2	?	0r_4g.bmp	0r_4g.bmp	0r_2g.bmp	0r_2g.bmp		0r_4g.bmp			TrialProc	TrialList	0	cvbn	-999999	16	425883	0	v	1396	427279	290	-239	51	-42	46	17	30	9	10	96	0	0	0	0	4	4	2	2	0	4
Hungry_Donkey_bar_English_2	145	1	<?xml version="1.0"?>\n<Clock xmlns:dt="urn:schemas-microsoft-com:datatypes"><Description dt:dt="string">E-Prime Primary Realtime Clock</Description><StartTime><Timestamp dt:dt="int">0</Timestamp><DateUtc dt:dt="string">2016-05-09T21:58:55Z</DateUtc></StartTime><FrequencyChanges><FrequencyChange><Frequency dt:dt="r8">3507724</Frequency><Timestamp dt:dt="r8">993447990201</Timestamp><Current dt:dt="r8">0</Current><DateUtc dt:dt="string">2016-05-09T21:58:55Z</DateUtc></FrequencyChange></FrequencyChanges></Clock>\n	Hungry_Donkey_bar_English_2-145-1	60.018	105	1.0.0.18	1	1311259670	Standard	2.0.10.353	2.0.10.353	05-09-2016	5/9/2016 9:58:55 PM	17:58:55	2.0.10.248	97	Bar50-50.bmp	55	3	?	8r_4g.bmp	50r_4g.bmp	1r_2g.bmp	10r_2g.bmp			1r_2g.bmp		TrialProc	TrialList	0	cvbn	-999999	16	429315	0	b	428	429743	292	-240	52	-42	46	18	30	1	10	97	-8	-50	-1	-10	4	4	2	2	-1	2
Hungry_Donkey_bar_English_2	145	1	<?xml version="1.0"?>\n<Clock xmlns:dt="urn:schemas-microsoft-com:datatypes"><Description dt:dt="string">E-Prime Primary Realtime Clock</Description><StartTime><Timestamp dt:dt="int">0</Timestamp><DateUtc dt:dt="string">2016-05-09T21:58:55Z</DateUtc></StartTime><FrequencyChanges><FrequencyChange><Frequency dt:dt="r8">3507724</Frequency><Timestamp dt:dt="r8">993447990201</Timestamp><Current dt:dt="r8">0</Current><DateUtc dt:dt="string">2016-05-09T21:58:55Z</DateUtc></FrequencyChange></FrequencyChanges></Clock>\n	Hungry_Donkey_bar_English_2-145-1	60.018	105	1.0.0.18	1	1311259670	Standard	2.0.10.353	2.0.10.353	05-09-2016	5/9/2016 9:58:55 PM	17:58:55	2.0.10.248	98	Bar50-50.bmp	55	4	?	0r_4g.bmp	0r_4g.bmp	0r_2g.bmp	0r_2g.bmp				0r_2g.bmp	TrialProc	TrialList	0	cvbn	-999999	16	431781	0	n	442	432223	294	-240	54	-42	46	18	32	10	10	98	0	0	0	0	4	4	2	2	0	2
Hungry_Donkey_bar_English_2	145	1	<?xml version="1.0"?>\n<Clock xmlns:dt="urn:schemas-microsoft-com:datatypes"><Description dt:dt="string">E-Prime Primary Realtime Clock</Description><StartTime><Timestamp dt:dt="int">0</Timestamp><DateUtc dt:dt="string">2016-05-09T21:58:55Z</DateUtc></StartTime><FrequencyChanges><FrequencyChange><Frequency dt:dt="r8">3507724</Frequency><Timestamp dt:dt="r8">993447990201</Timestamp><Current dt:dt="r8">0</Current><DateUtc dt:dt="string">2016-05-09T21:58:55Z</DateUtc></FrequencyChange></FrequencyChanges></Clock>\n	Hungry_Donkey_bar_English_2-145-1	60.018	105	1.0.0.18	1	1311259670	Standard	2.0.10.353	2.0.10.353	05-09-2016	5/9/2016 9:58:55 PM	17:58:55	2.0.10.248	99	Bar50-50.bmp	54	1	?	10r_4g.bmp	0r_4g.bmp	2r_2g.bmp	0r_2g.bmp	10r_4g.bmp				TrialProc	TrialList	0	cvbn	-999999	16	434247	0	c	71	434318	298	-250	48	-48	46	18	32	2	10	99	-10	0	-2	0	4	4	2	2	-10	4
Hungry_Donkey_bar_English_2	145	1	<?xml version="1.0"?>\n<Clock xmlns:dt="urn:schemas-microsoft-com:datatypes"><Description dt:dt="string">E-Prime Primary Realtime Clock</Description><StartTime><Timestamp dt:dt="int">0</Timestamp><DateUtc dt:dt="string">2016-05-09T21:58:55Z</DateUtc></StartTime><FrequencyChanges><FrequencyChange><Frequency dt:dt="r8">3507724</Frequency><Timestamp dt:dt="r8">993447990201</Timestamp><Current dt:dt="r8">0</Current><DateUtc dt:dt="string">2016-05-09T21:58:55Z</DateUtc></FrequencyChange></FrequencyChanges></Clock>\n	Hungry_Donkey_bar_English_2-145-1	60.018	105	1.0.0.18	1	1311259670	Standard	2.0.10.353	2.0.10.353	05-09-2016	5/9/2016 9:58:55 PM	17:58:55	2.0.10.248	100	Bar50-50.bmp	55	2	?	0r_4g.bmp	0r_4g.bmp	0r_2g.bmp	0r_2g.bmp		0r_4g.bmp			TrialProc	TrialList	0	cvbn	-999999	16	436346	0	v	1380	437726	302	-250	52	-48	50	18	32	6	10	100	0	0	0	0	4	4	2	2	0	4
Hungry_Donkey_bar_English_2	145	1	<?xml version="1.0"?>\n<Clock xmlns:dt="urn:schemas-microsoft-com:datatypes"><Description dt:dt="string">E-Prime Primary Realtime Clock</Description><StartTime><Timestamp dt:dt="int">0</Timestamp><DateUtc dt:dt="string">2016-05-09T21:58:55Z</DateUtc></StartTime><FrequencyChanges><FrequencyChange><Frequency dt:dt="r8">3507724</Frequency><Timestamp dt:dt="r8">993447990201</Timestamp><Current dt:dt="r8">0</Current><DateUtc dt:dt="string">2016-05-09T21:58:55Z</DateUtc></FrequencyChange></FrequencyChanges></Clock>\n	Hungry_Donkey_bar_English_2-145-1	60.018	105	1.0.0.18	1	1311259670	Standard	2.0.10.353	2.0.10.353	05-09-2016	5/9/2016 9:58:55 PM	17:58:55	2.0.10.248	101	Bar50-50.bmp	55	3	?	0r_4g.bmp	0r_4g.bmp	0r_2g.bmp	0r_2g.bmp			0r_2g.bmp		TrialProc	TrialList	0	cvbn	-999999	16	439762	0	b	764	440526	304	-250	54	-48	50	20	32	6	11	101	0	0	0	0	4	4	2	2	0	2
Hungry_Donkey_bar_English_2	145	1	<?xml version="1.0"?>\n<Clock xmlns:dt="urn:schemas-microsoft-com:datatypes"><Description dt:dt="string">E-Prime Primary Realtime Clock</Description><StartTime><Timestamp dt:dt="int">0</Timestamp><DateUtc dt:dt="string">2016-05-09T21:58:55Z</DateUtc></StartTime><FrequencyChanges><FrequencyChange><Frequency dt:dt="r8">3507724</Frequency><Timestamp dt:dt="r8">993447990201</Timestamp><Current dt:dt="r8">0</Current><DateUtc dt:dt="string">2016-05-09T21:58:55Z</DateUtc></FrequencyChange></FrequencyChanges></Clock>\n	Hungry_Donkey_bar_English_2-145-1	60.018	105	1.0.0.18	1	1311259670	Standard	2.0.10.353	2.0.10.353	05-09-2016	5/9/2016 9:58:55 PM	17:58:55	2.0.10.248	102	Bar50-50.bmp	54	4	?	8r_4g.bmp	50r_4g.bmp	1r_2g.bmp	10r_2g.bmp				10r_2g.bmp	TrialProc	TrialList	0	cvbn	-999999	16	442561	0	n	989	443550	306	-260	46	-48	50	20	24	1	11	102	-8	-50	-1	-10	4	4	2	2	-10	2
Hungry_Donkey_bar_English_2	145	1	<?xml version="1.0"?>\n<Clock xmlns:dt="urn:schemas-microsoft-com:datatypes"><Description dt:dt="string">E-Prime Primary Realtime Clock</Description><StartTime><Timestamp dt:dt="int">0</Timestamp><DateUtc dt:dt="string">2016-05-09T21:58:55Z</DateUtc></StartTime><FrequencyChanges><FrequencyChange><Frequency dt:dt="r8">3507724</Frequency><Timestamp dt:dt="r8">993447990201</Timestamp><Current dt:dt="r8">0</Current><DateUtc dt:dt="string">2016-05-09T21:58:55Z</DateUtc></FrequencyChange></FrequencyChanges></Clock>\n	Hungry_Donkey_bar_English_2-145-1	60.018	105	1.0.0.18	1	1311259670	Standard	2.0.10.353	2.0.10.353	05-09-2016	5/9/2016 9:58:55 PM	17:58:55	2.0.10.248	103	Bar50-50.bmp	53	1	?	12r_4g.bmp	0r_4g.bmp	3r_2g.bmp	0r_2g.bmp	12r_4g.bmp				TrialProc	TrialList	0	cvbn	-999999	16	445577	0	c	869	446446	310	-272	38	-56	50	20	24	5	11	103	-12	0	-3	0	4	4	2	2	-12	4
Hungry_Donkey_bar_English_2	145	1	<?xml version="1.0"?>\n<Clock xmlns:dt="urn:schemas-microsoft-com:datatypes"><Description dt:dt="string">E-Prime Primary Realtime Clock</Description><StartTime><Timestamp dt:dt="int">0</Timestamp><DateUtc dt:dt="string">2016-05-09T21:58:55Z</DateUtc></StartTime><FrequencyChanges><FrequencyChange><Frequency dt:dt="r8">3507724</Frequency><Timestamp dt:dt="r8">993447990201</Timestamp><Current dt:dt="r8">0</Current><DateUtc dt:dt="string">2016-05-09T21:58:55Z</DateUtc></FrequencyChange></FrequencyChanges></Clock>\n	Hungry_Donkey_bar_English_2-145-1	60.018	105	1.0.0.18	1	1311259670	Standard	2.0.10.353	2.0.10.353	05-09-2016	5/9/2016 9:58:55 PM	17:58:55	2.0.10.248	104	Bar50-50.bmp	54	2	?	0r_4g.bmp	0r_4g.bmp	0r_2g.bmp	0r_2g.bmp		0r_4g.bmp			TrialProc	TrialList	0	cvbn	-999999	16	448493	0	v	1169	449662	314	-272	42	-56	54	20	24	7	11	104	0	0	0	0	4	4	2	2	0	4
Hungry_Donkey_bar_English_2	145	1	<?xml version="1.0"?>\n<Clock xmlns:dt="urn:schemas-microsoft-com:datatypes"><Description dt:dt="string">E-Prime Primary Realtime Clock</Description><StartTime><Timestamp dt:dt="int">0</Timestamp><DateUtc dt:dt="string">2016-05-09T21:58:55Z</DateUtc></StartTime><FrequencyChanges><FrequencyChange><Frequency dt:dt="r8">3507724</Frequency><Timestamp dt:dt="r8">993447990201</Timestamp><Current dt:dt="r8">0</Current><DateUtc dt:dt="string">2016-05-09T21:58:55Z</DateUtc></FrequencyChange></FrequencyChanges></Clock>\n	Hungry_Donkey_bar_English_2-145-1	60.018	105	1.0.0.18	1	1311259670	Standard	2.0.10.353	2.0.10.353	05-09-2016	5/9/2016 9:58:55 PM	17:58:55	2.0.10.248	105	Bar50-50.bmp	54	3	?	10r_4g.bmp	0r_4g.bmp	2r_2g.bmp	0r_2g.bmp			2r_2g.bmp		TrialProc	TrialList	0	cvbn	-999999	16	451692	0	b	1025	452717	316	-274	42	-56	54	20	24	3	11	105	-10	0	-2	0	4	4	2	2	-2	2
Hungry_Donkey_bar_English_2	145	1	<?xml version="1.0"?>\n<Clock xmlns:dt="urn:schemas-microsoft-com:datatypes"><Description dt:dt="string">E-Prime Primary Realtime Clock</Description><StartTime><Timestamp dt:dt="int">0</Timestamp><DateUtc dt:dt="string">2016-05-09T21:58:55Z</DateUtc></StartTime><FrequencyChanges><FrequencyChange><Frequency dt:dt="r8">3507724</Frequency><Timestamp dt:dt="r8">993447990201</Timestamp><Current dt:dt="r8">0</Current><DateUtc dt:dt="string">2016-05-09T21:58:55Z</DateUtc></FrequencyChange></FrequencyChanges></Clock>\n	Hungry_Donkey_bar_English_2-145-1	60.018	105	1.0.0.18	1	1311259670	Standard	2.0.10.353	2.0.10.353	05-09-2016	5/9/2016 9:58:55 PM	17:58:55	2.0.10.248	106	Bar50-50.bmp	54	4	?	0r_4g.bmp	0r_4g.bmp	0r_2g.bmp	0r_2g.bmp				0r_2g.bmp	TrialProc	TrialList	0	cvbn	-999999	16	454741	0	n	520	455261	318	-274	44	-56	54	20	26	9	11	106	0	0	0	0	4	4	2	2	0	2
Hungry_Donkey_bar_English_2	145	1	<?xml version="1.0"?>\n<Clock xmlns:dt="urn:schemas-microsoft-com:datatypes"><Description dt:dt="string">E-Prime Primary Realtime Clock</Description><StartTime><Timestamp dt:dt="int">0</Timestamp><DateUtc dt:dt="string">2016-05-09T21:58:55Z</DateUtc></StartTime><FrequencyChanges><FrequencyChange><Frequency dt:dt="r8">3507724</Frequency><Timestamp dt:dt="r8">993447990201</Timestamp><Current dt:dt="r8">0</Current><DateUtc dt:dt="string">2016-05-09T21:58:55Z</DateUtc></FrequencyChange></FrequencyChanges></Clock>\n	Hungry_Donkey_bar_English_2-145-1	60.018	105	1.0.0.18	1	1311259670	Standard	2.0.10.353	2.0.10.353	05-09-2016	5/9/2016 9:58:55 PM	17:58:55	2.0.10.248	107	Bar50-50.bmp	54	1	?	0r_4g.bmp	0r_4g.bmp	0r_2g.bmp	0r_2g.bmp	0r_4g.bmp				TrialProc	TrialList	0	cvbn	-999999	16	457290	0	c	627	457917	322	-274	48	-52	54	20	26	10	11	107	0	0	0	0	4	4	2	2	0	4
Hungry_Donkey_bar_English_2	145	1	<?xml version="1.0"?>\n<Clock xmlns:dt="urn:schemas-microsoft-com:datatypes"><Description dt:dt="string">E-Prime Primary Realtime Clock</Description><StartTime><Timestamp dt:dt="int">0</Timestamp><DateUtc dt:dt="string">2016-05-09T21:58:55Z</DateUtc></StartTime><FrequencyChanges><FrequencyChange><Frequency dt:dt="r8">3507724</Frequency><Timestamp dt:dt="r8">993447990201</Timestamp><Current dt:dt="r8">0</Current><DateUtc dt:dt="string">2016-05-09T21:58:55Z</DateUtc></FrequencyChange></FrequencyChanges></Clock>\n	Hungry_Donkey_bar_English_2-145-1	60.018	105	1.0.0.18	1	1311259670	Standard	2.0.10.353	2.0.10.353	05-09-2016	5/9/2016 9:58:55 PM	17:58:55	2.0.10.248	108	Bar50-50.bmp	54	2	?	10r_4g.bmp	0r_4g.bmp	2r_2g.bmp	0r_2g.bmp		0r_4g.bmp			TrialProc	TrialList	0	cvbn	-999999	15	459939	0	v	1242	461181	326	-274	52	-52	58	20	26	4	11	108	-10	0	-2	0	4	4	2	2	0	4
Hungry_Donkey_bar_English_2	145	1	<?xml version="1.0"?>\n<Clock xmlns:dt="urn:schemas-microsoft-com:datatypes"><Description dt:dt="string">E-Prime Primary Realtime Clock</Description><StartTime><Timestamp dt:dt="int">0</Timestamp><DateUtc dt:dt="string">2016-05-09T21:58:55Z</DateUtc></StartTime><FrequencyChanges><FrequencyChange><Frequency dt:dt="r8">3507724</Frequency><Timestamp dt:dt="r8">993447990201</Timestamp><Current dt:dt="r8">0</Current><DateUtc dt:dt="string">2016-05-09T21:58:55Z</DateUtc></FrequencyChange></FrequencyChanges></Clock>\n	Hungry_Donkey_bar_English_2-145-1	60.018	105	1.0.0.18	1	1311259670	Standard	2.0.10.353	2.0.10.353	05-09-2016	5/9/2016 9:58:55 PM	17:58:55	2.0.10.248	109	Bar50-50.bmp	54	3	?	0r_4g.bmp	0r_4g.bmp	0r_2g.bmp	0r_2g.bmp			0r_2g.bmp		TrialProc	TrialList	0	cvbn	-999999	16	463205	0	b	792	463997	328	-274	54	-52	58	22	26	8	11	109	0	0	0	0	4	4	2	2	0	2
Hungry_Donkey_bar_English_2	145	1	<?xml version="1.0"?>\n<Clock xmlns:dt="urn:schemas-microsoft-com:datatypes"><Description dt:dt="string">E-Prime Primary Realtime Clock</Description><StartTime><Timestamp dt:dt="int">0</Timestamp><DateUtc dt:dt="string">2016-05-09T21:58:55Z</DateUtc></StartTime><FrequencyChanges><FrequencyChange><Frequency dt:dt="r8">3507724</Frequency><Timestamp dt:dt="r8">993447990201</Timestamp><Current dt:dt="r8">0</Current><DateUtc dt:dt="string">2016-05-09T21:58:55Z</DateUtc></FrequencyChange></FrequencyChanges></Clock>\n	Hungry_Donkey_bar_English_2-145-1	60.018	105	1.0.0.18	1	1311259670	Standard	2.0.10.353	2.0.10.353	05-09-2016	5/9/2016 9:58:55 PM	17:58:55	2.0.10.248	110	Bar50-50.bmp	55	4	?	10r_4g.bmp	0r_4g.bmp	2r_2g.bmp	0r_2g.bmp				0r_2g.bmp	TrialProc	TrialList	0	cvbn	-999999	16	466021	0	n	1191	467212	330	-274	56	-52	58	22	28	2	11	110	-10	0	-2	0	4	4	2	2	0	2
Hungry_Donkey_bar_English_2	145	1	<?xml version="1.0"?>\n<Clock xmlns:dt="urn:schemas-microsoft-com:datatypes"><Description dt:dt="string">E-Prime Primary Realtime Clock</Description><StartTime><Timestamp dt:dt="int">0</Timestamp><DateUtc dt:dt="string">2016-05-09T21:58:55Z</DateUtc></StartTime><FrequencyChanges><FrequencyChange><Frequency dt:dt="r8">3507724</Frequency><Timestamp dt:dt="r8">993447990201</Timestamp><Current dt:dt="r8">0</Current><DateUtc dt:dt="string">2016-05-09T21:58:55Z</DateUtc></FrequencyChange></FrequencyChanges></Clock>\n	Hungry_Donkey_bar_English_2-145-1	60.018	105	1.0.0.18	1	1311259670	Standard	2.0.10.353	2.0.10.353	05-09-2016	5/9/2016 9:58:55 PM	17:58:55	2.0.10.248	111	Bar50-50.bmp	55	1	?	0r_4g.bmp	0r_4g.bmp	0r_2g.bmp	0r_2g.bmp	0r_4g.bmp				TrialProc	TrialList	0	cvbn	-999999	16	469237	0	c	903	470140	334	-274	60	-48	58	22	28	9	12	111	0	0	0	0	4	4	2	2	0	4
