ExperimentName	Subject	Session	Clock.Information	DataFile.Basename	Display.RefreshRate	Eindtotaal[Session]	ExperimentVersion	Group	RandomSeed	RuntimeCapabilities	RuntimeVersion	RuntimeVersionExpected	SessionDate	SessionStartDateTimeUtc	SessionTime	StudioVersion	Block	BarImage	BarTotalWinst	DoorChoice	Eindtotaal[Block]	FBDoor1	FBDoor2	FBDoor3	FBDoor4	Image1	Image2	Image3	Image4	Procedure	Running	spel.ACC	spel.CRESP	spel.DurationError	spel.OnsetDelay	spel.OnsetTime	spel.OnsetToOnsetTime	spel.RESP	spel.RT	spel.RTTime	TotalGain	TotalLose	Totalsum	TotalsumD1	TotalsumD2	TotalsumD3	TotalsumD4	TrialList	TrialList.Cycle	TrialList.Sample	varV1	varV2	varV3	varV4	varW1	varW2	varW3	varW4	Verliesbedrag	Winstbedrag
Hungry_Donkey_bar_English_2	159	1	<?xml version="1.0"?>\n<Clock xmlns:dt="urn:schemas-microsoft-com:datatypes"><Description dt:dt="string">E-Prime Primary Realtime Clock</Description><StartTime><Timestamp dt:dt="int">0</Timestamp><DateUtc dt:dt="string">2016-06-29T21:07:01Z</DateUtc></StartTime><FrequencyChanges><FrequencyChange><Frequency dt:dt="r8">3507666</Frequency><Timestamp dt:dt="r8">77018354250</Timestamp><Current dt:dt="r8">0</Current><DateUtc dt:dt="string">2016-06-29T21:07:01Z</DateUtc></FrequencyChange></FrequencyChanges></Clock>\n	Hungry_Donkey_bar_English_2-159-1	60.017	-23	1.0.0.18	1	-290393151	Standard	2.0.10.353	2.0.10.353	06-29-2016	6/29/2016 9:07:02 PM	17:07:02	2.0.10.248	1	Bar100-0.bmp	100	3	?	0r_4g.bmp	0r_4g.bmp	0r_2g.bmp	0r_2g.bmp			0r_2g.bmp		TrialProc	TrialList	0	cvbn	-999999	35	50933	0	b	5004	55937	2	0	2	0	0	2	0	8	1	1	0	0	0	0	4	4	2	2	0	2
Hungry_Donkey_bar_English_2	159	1	<?xml version="1.0"?>\n<Clock xmlns:dt="urn:schemas-microsoft-com:datatypes"><Description dt:dt="string">E-Prime Primary Realtime Clock</Description><StartTime><Timestamp dt:dt="int">0</Timestamp><DateUtc dt:dt="string">2016-06-29T21:07:01Z</DateUtc></StartTime><FrequencyChanges><FrequencyChange><Frequency dt:dt="r8">3507666</Frequency><Timestamp dt:dt="r8">77018354250</Timestamp><Current dt:dt="r8">0</Current><DateUtc dt:dt="string">2016-06-29T21:07:01Z</DateUtc></FrequencyChange></FrequencyChanges></Clock>\n	Hungry_Donkey_bar_English_2-159-1	60.017	-23	1.0.0.18	1	-290393151	Standard	2.0.10.353	2.0.10.353	06-29-2016	6/29/2016 9:07:02 PM	17:07:02	2.0.10.248	2	Bar37-63.bmp	33	1	?	12r_4g.bmp	0r_4g.bmp	3r_2g.bmp	0r_2g.bmp	12r_4g.bmp				TrialProc	TrialList	0	cvbn	-999999	16	57981	0	c	3348	61329	6	-12	-6	-8	0	2	0	5	1	2	-12	0	-3	0	4	4	2	2	-12	4
Hungry_Donkey_bar_English_2	159	1	<?xml version="1.0"?>\n<Clock xmlns:dt="urn:schemas-microsoft-com:datatypes"><Description dt:dt="string">E-Prime Primary Realtime Clock</Description><StartTime><Timestamp dt:dt="int">0</Timestamp><DateUtc dt:dt="string">2016-06-29T21:07:01Z</DateUtc></StartTime><FrequencyChanges><FrequencyChange><Frequency dt:dt="r8">3507666</Frequency><Timestamp dt:dt="r8">77018354250</Timestamp><Current dt:dt="r8">0</Current><DateUtc dt:dt="string">2016-06-29T21:07:01Z</DateUtc></FrequencyChange></FrequencyChanges></Clock>\n	Hungry_Donkey_bar_English_2-159-1	60.017	-23	1.0.0.18	1	-290393151	Standard	2.0.10.353	2.0.10.353	06-29-2016	6/29/2016 9:07:02 PM	17:07:02	2.0.10.248	3	Bar37-63.bmp	40	4	?	0r_4g.bmp	0r_4g.bmp	0r_2g.bmp	0r_2g.bmp				0r_2g.bmp	TrialProc	TrialList	0	cvbn	-999999	16	63363	0	n	1822	65185	8	-12	-4	-8	0	2	2	7	1	3	0	0	0	0	4	4	2	2	0	2
Hungry_Donkey_bar_English_2	159	1	<?xml version="1.0"?>\n<Clock xmlns:dt="urn:schemas-microsoft-com:datatypes"><Description dt:dt="string">E-Prime Primary Realtime Clock</Description><StartTime><Timestamp dt:dt="int">0</Timestamp><DateUtc dt:dt="string">2016-06-29T21:07:01Z</DateUtc></StartTime><FrequencyChanges><FrequencyChange><Frequency dt:dt="r8">3507666</Frequency><Timestamp dt:dt="r8">77018354250</Timestamp><Current dt:dt="r8">0</Current><DateUtc dt:dt="string">2016-06-29T21:07:01Z</DateUtc></FrequencyChange></FrequencyChanges></Clock>\n	Hungry_Donkey_bar_English_2-159-1	60.017	-23	1.0.0.18	1	-290393151	Standard	2.0.10.353	2.0.10.353	06-29-2016	6/29/2016 9:07:02 PM	17:07:02	2.0.10.248	4	Bar37-63.bmp	35	1	?	10r_4g.bmp	0r_4g.bmp	2r_2g.bmp	0r_2g.bmp	10r_4g.bmp				TrialProc	TrialList	0	cvbn	-999999	16	67212	0	c	1477	68689	12	-22	-10	-14	0	2	2	3	1	4	-10	0	-2	0	4	4	2	2	-10	4
Hungry_Donkey_bar_English_2	159	1	<?xml version="1.0"?>\n<Clock xmlns:dt="urn:schemas-microsoft-com:datatypes"><Description dt:dt="string">E-Prime Primary Realtime Clock</Description><StartTime><Timestamp dt:dt="int">0</Timestamp><DateUtc dt:dt="string">2016-06-29T21:07:01Z</DateUtc></StartTime><FrequencyChanges><FrequencyChange><Frequency dt:dt="r8">3507666</Frequency><Timestamp dt:dt="r8">77018354250</Timestamp><Current dt:dt="r8">0</Current><DateUtc dt:dt="string">2016-06-29T21:07:01Z</DateUtc></FrequencyChange></FrequencyChanges></Clock>\n	Hungry_Donkey_bar_English_2-159-1	60.017	-23	1.0.0.18	1	-290393151	Standard	2.0.10.353	2.0.10.353	06-29-2016	6/29/2016 9:07:02 PM	17:07:02	2.0.10.248	5	Bar37-63.bmp	42	2	?	0r_4g.bmp	0r_4g.bmp	0r_2g.bmp	0r_2g.bmp		0r_4g.bmp			TrialProc	TrialList	0	cvbn	-999999	16	70728	0	v	1097	71825	16	-22	-6	-14	4	2	2	6	1	5	0	0	0	0	4	4	2	2	0	4
Hungry_Donkey_bar_English_2	159	1	<?xml version="1.0"?>\n<Clock xmlns:dt="urn:schemas-microsoft-com:datatypes"><Description dt:dt="string">E-Prime Primary Realtime Clock</Description><StartTime><Timestamp dt:dt="int">0</Timestamp><DateUtc dt:dt="string">2016-06-29T21:07:01Z</DateUtc></StartTime><FrequencyChanges><FrequencyChange><Frequency dt:dt="r8">3507666</Frequency><Timestamp dt:dt="r8">77018354250</Timestamp><Current dt:dt="r8">0</Current><DateUtc dt:dt="string">2016-06-29T21:07:01Z</DateUtc></FrequencyChange></FrequencyChanges></Clock>\n	Hungry_Donkey_bar_English_2-159-1	60.017	-23	1.0.0.18	1	-290393151	Standard	2.0.10.353	2.0.10.353	06-29-2016	6/29/2016 9:07:02 PM	17:07:02	2.0.10.248	6	Bar50-50.bmp	45	4	?	0r_4g.bmp	0r_4g.bmp	0r_2g.bmp	0r_2g.bmp				0r_2g.bmp	TrialProc	TrialList	0	cvbn	-999999	16	73860	0	n	2028	75888	18	-22	-4	-14	4	2	4	10	1	6	0	0	0	0	4	4	2	2	0	2
Hungry_Donkey_bar_English_2	159	1	<?xml version="1.0"?>\n<Clock xmlns:dt="urn:schemas-microsoft-com:datatypes"><Description dt:dt="string">E-Prime Primary Realtime Clock</Description><StartTime><Timestamp dt:dt="int">0</Timestamp><DateUtc dt:dt="string">2016-06-29T21:07:01Z</DateUtc></StartTime><FrequencyChanges><FrequencyChange><Frequency dt:dt="r8">3507666</Frequency><Timestamp dt:dt="r8">77018354250</Timestamp><Current dt:dt="r8">0</Current><DateUtc dt:dt="string">2016-06-29T21:07:01Z</DateUtc></FrequencyChange></FrequencyChanges></Clock>\n	Hungry_Donkey_bar_English_2-159-1	60.017	-23	1.0.0.18	1	-290393151	Standard	2.0.10.353	2.0.10.353	06-29-2016	6/29/2016 9:07:02 PM	17:07:02	2.0.10.248	7	Bar50-50.bmp	50	1	?	0r_4g.bmp	0r_4g.bmp	0r_2g.bmp	0r_2g.bmp	0r_4g.bmp				TrialProc	TrialList	0	cvbn	-999999	16	77926	0	c	1098	79024	22	-22	0	-10	4	2	4	9	1	7	0	0	0	0	4	4	2	2	0	4
Hungry_Donkey_bar_English_2	159	1	<?xml version="1.0"?>\n<Clock xmlns:dt="urn:schemas-microsoft-com:datatypes"><Description dt:dt="string">E-Prime Primary Realtime Clock</Description><StartTime><Timestamp dt:dt="int">0</Timestamp><DateUtc dt:dt="string">2016-06-29T21:07:01Z</DateUtc></StartTime><FrequencyChanges><FrequencyChange><Frequency dt:dt="r8">3507666</Frequency><Timestamp dt:dt="r8">77018354250</Timestamp><Current dt:dt="r8">0</Current><DateUtc dt:dt="string">2016-06-29T21:07:01Z</DateUtc></FrequencyChange></FrequencyChanges></Clock>\n	Hungry_Donkey_bar_English_2-159-1	60.017	-23	1.0.0.18	1	-290393151	Standard	2.0.10.353	2.0.10.353	06-29-2016	6/29/2016 9:07:02 PM	17:07:02	2.0.10.248	8	Bar50-50.bmp	50	3	?	10r_4g.bmp	0r_4g.bmp	2r_2g.bmp	0r_2g.bmp			2r_2g.bmp		TrialProc	TrialList	0	cvbn	-999999	16	81058	0	b	942	82000	24	-24	0	-10	4	2	4	2	1	8	-10	0	-2	0	4	4	2	2	-2	2
Hungry_Donkey_bar_English_2	159	1	<?xml version="1.0"?>\n<Clock xmlns:dt="urn:schemas-microsoft-com:datatypes"><Description dt:dt="string">E-Prime Primary Realtime Clock</Description><StartTime><Timestamp dt:dt="int">0</Timestamp><DateUtc dt:dt="string">2016-06-29T21:07:01Z</DateUtc></StartTime><FrequencyChanges><FrequencyChange><Frequency dt:dt="r8">3507666</Frequency><Timestamp dt:dt="r8">77018354250</Timestamp><Current dt:dt="r8">0</Current><DateUtc dt:dt="string">2016-06-29T21:07:01Z</DateUtc></FrequencyChange></FrequencyChanges></Clock>\n	Hungry_Donkey_bar_English_2-159-1	60.017	-23	1.0.0.18	1	-290393151	Standard	2.0.10.353	2.0.10.353	06-29-2016	6/29/2016 9:07:02 PM	17:07:02	2.0.10.248	9	Bar50-50.bmp	54	2	?	10r_4g.bmp	0r_4g.bmp	2r_2g.bmp	0r_2g.bmp		0r_4g.bmp			TrialProc	TrialList	0	cvbn	-999999	16	84041	0	v	119	84160	28	-24	4	-10	8	2	4	4	1	9	-10	0	-2	0	4	4	2	2	0	4
Hungry_Donkey_bar_English_2	159	1	<?xml version="1.0"?>\n<Clock xmlns:dt="urn:schemas-microsoft-com:datatypes"><Description dt:dt="string">E-Prime Primary Realtime Clock</Description><StartTime><Timestamp dt:dt="int">0</Timestamp><DateUtc dt:dt="string">2016-06-29T21:07:01Z</DateUtc></StartTime><FrequencyChanges><FrequencyChange><Frequency dt:dt="r8">3507666</Frequency><Timestamp dt:dt="r8">77018354250</Timestamp><Current dt:dt="r8">0</Current><DateUtc dt:dt="string">2016-06-29T21:07:01Z</DateUtc></FrequencyChange></FrequencyChanges></Clock>\n	Hungry_Donkey_bar_English_2-159-1	60.017	-23	1.0.0.18	1	-290393151	Standard	2.0.10.353	2.0.10.353	06-29-2016	6/29/2016 9:07:02 PM	17:07:02	2.0.10.248	10	Bar25-75.bmp	30	2	?	8r_4g.bmp	50r_4g.bmp	1r_2g.bmp	10r_2g.bmp		50r_4g.bmp			TrialProc	TrialList	0	cvbn	-999999	16	86190	0	v	1506	87696	32	-74	-42	-10	-38	2	4	1	1	10	-8	-50	-1	-10	4	4	2	2	-50	4
Hungry_Donkey_bar_English_2	159	1	<?xml version="1.0"?>\n<Clock xmlns:dt="urn:schemas-microsoft-com:datatypes"><Description dt:dt="string">E-Prime Primary Realtime Clock</Description><StartTime><Timestamp dt:dt="int">0</Timestamp><DateUtc dt:dt="string">2016-06-29T21:07:01Z</DateUtc></StartTime><FrequencyChanges><FrequencyChange><Frequency dt:dt="r8">3507666</Frequency><Timestamp dt:dt="r8">77018354250</Timestamp><Current dt:dt="r8">0</Current><DateUtc dt:dt="string">2016-06-29T21:07:01Z</DateUtc></FrequencyChange></FrequencyChanges></Clock>\n	Hungry_Donkey_bar_English_2-159-1	60.017	-23	1.0.0.18	1	-290393151	Standard	2.0.10.353	2.0.10.353	06-29-2016	6/29/2016 9:07:02 PM	17:07:02	2.0.10.248	11	Bar25-75.bmp	31	4	?	10r_4g.bmp	0r_4g.bmp	2r_2g.bmp	0r_2g.bmp				0r_2g.bmp	TrialProc	TrialList	0	cvbn	-999999	16	89739	0	n	517	90256	34	-74	-40	-10	-38	2	6	4	2	11	-10	0	-2	0	4	4	2	2	0	2
Hungry_Donkey_bar_English_2	159	1	<?xml version="1.0"?>\n<Clock xmlns:dt="urn:schemas-microsoft-com:datatypes"><Description dt:dt="string">E-Prime Primary Realtime Clock</Description><StartTime><Timestamp dt:dt="int">0</Timestamp><DateUtc dt:dt="string">2016-06-29T21:07:01Z</DateUtc></StartTime><FrequencyChanges><FrequencyChange><Frequency dt:dt="r8">3507666</Frequency><Timestamp dt:dt="r8">77018354250</Timestamp><Current dt:dt="r8">0</Current><DateUtc dt:dt="string">2016-06-29T21:07:01Z</DateUtc></FrequencyChange></FrequencyChanges></Clock>\n	Hungry_Donkey_bar_English_2-159-1	60.017	-23	1.0.0.18	1	-290393151	Standard	2.0.10.353	2.0.10.353	06-29-2016	6/29/2016 9:07:02 PM	17:07:02	2.0.10.248	12	Bar25-75.bmp	31	1	?	12r_4g.bmp	0r_4g.bmp	3r_2g.bmp	0r_2g.bmp	12r_4g.bmp				TrialProc	TrialList	0	cvbn	-999999	16	92288	0	c	2671	94959	38	-86	-48	-18	-38	2	6	5	2	12	-12	0	-3	0	4	4	2	2	-12	4
Hungry_Donkey_bar_English_2	159	1	<?xml version="1.0"?>\n<Clock xmlns:dt="urn:schemas-microsoft-com:datatypes"><Description dt:dt="string">E-Prime Primary Realtime Clock</Description><StartTime><Timestamp dt:dt="int">0</Timestamp><DateUtc dt:dt="string">2016-06-29T21:07:01Z</DateUtc></StartTime><FrequencyChanges><FrequencyChange><Frequency dt:dt="r8">3507666</Frequency><Timestamp dt:dt="r8">77018354250</Timestamp><Current dt:dt="r8">0</Current><DateUtc dt:dt="string">2016-06-29T21:07:01Z</DateUtc></FrequencyChange></FrequencyChanges></Clock>\n	Hungry_Donkey_bar_English_2-159-1	60.017	-23	1.0.0.18	1	-290393151	Standard	2.0.10.353	2.0.10.353	06-29-2016	6/29/2016 9:07:02 PM	17:07:02	2.0.10.248	13	Bar37-63.bmp	32	3	?	0r_4g.bmp	0r_4g.bmp	0r_2g.bmp	0r_2g.bmp			0r_2g.bmp		TrialProc	TrialList	0	cvbn	-999999	16	96987	0	b	3508	100495	40	-86	-46	-18	-38	4	6	7	2	13	0	0	0	0	4	4	2	2	0	2
Hungry_Donkey_bar_English_2	159	1	<?xml version="1.0"?>\n<Clock xmlns:dt="urn:schemas-microsoft-com:datatypes"><Description dt:dt="string">E-Prime Primary Realtime Clock</Description><StartTime><Timestamp dt:dt="int">0</Timestamp><DateUtc dt:dt="string">2016-06-29T21:07:01Z</DateUtc></StartTime><FrequencyChanges><FrequencyChange><Frequency dt:dt="r8">3507666</Frequency><Timestamp dt:dt="r8">77018354250</Timestamp><Current dt:dt="r8">0</Current><DateUtc dt:dt="string">2016-06-29T21:07:01Z</DateUtc></FrequencyChange></FrequencyChanges></Clock>\n	Hungry_Donkey_bar_English_2-159-1	60.017	-23	1.0.0.18	1	-290393151	Standard	2.0.10.353	2.0.10.353	06-29-2016	6/29/2016 9:07:02 PM	17:07:02	2.0.10.248	14	Bar37-63.bmp	33	4	?	0r_4g.bmp	0r_4g.bmp	0r_2g.bmp	0r_2g.bmp				0r_2g.bmp	TrialProc	TrialList	0	cvbn	-999999	16	102535	0	n	1480	104015	42	-86	-44	-18	-38	4	8	9	2	14	0	0	0	0	4	4	2	2	0	2
Hungry_Donkey_bar_English_2	159	1	<?xml version="1.0"?>\n<Clock xmlns:dt="urn:schemas-microsoft-com:datatypes"><Description dt:dt="string">E-Prime Primary Realtime Clock</Description><StartTime><Timestamp dt:dt="int">0</Timestamp><DateUtc dt:dt="string">2016-06-29T21:07:01Z</DateUtc></StartTime><FrequencyChanges><FrequencyChange><Frequency dt:dt="r8">3507666</Frequency><Timestamp dt:dt="r8">77018354250</Timestamp><Current dt:dt="r8">0</Current><DateUtc dt:dt="string">2016-06-29T21:07:01Z</DateUtc></FrequencyChange></FrequencyChanges></Clock>\n	Hungry_Donkey_bar_English_2-159-1	60.017	-23	1.0.0.18	1	-290393151	Standard	2.0.10.353	2.0.10.353	06-29-2016	6/29/2016 9:07:02 PM	17:07:02	2.0.10.248	15	Bar37-63.bmp	35	1	?	0r_4g.bmp	0r_4g.bmp	0r_2g.bmp	0r_2g.bmp	0r_4g.bmp				TrialProc	TrialList	0	cvbn	-999999	16	106051	0	c	652	106703	46	-86	-40	-14	-38	4	8	8	2	15	0	0	0	0	4	4	2	2	0	4
Hungry_Donkey_bar_English_2	159	1	<?xml version="1.0"?>\n<Clock xmlns:dt="urn:schemas-microsoft-com:datatypes"><Description dt:dt="string">E-Prime Primary Realtime Clock</Description><StartTime><Timestamp dt:dt="int">0</Timestamp><DateUtc dt:dt="string">2016-06-29T21:07:01Z</DateUtc></StartTime><FrequencyChanges><FrequencyChange><Frequency dt:dt="r8">3507666</Frequency><Timestamp dt:dt="r8">77018354250</Timestamp><Current dt:dt="r8">0</Current><DateUtc dt:dt="string">2016-06-29T21:07:01Z</DateUtc></FrequencyChange></FrequencyChanges></Clock>\n	Hungry_Donkey_bar_English_2-159-1	60.017	-23	1.0.0.18	1	-290393151	Standard	2.0.10.353	2.0.10.353	06-29-2016	6/29/2016 9:07:02 PM	17:07:02	2.0.10.248	16	Bar37-63.bmp	37	2	?	0r_4g.bmp	0r_4g.bmp	0r_2g.bmp	0r_2g.bmp		0r_4g.bmp			TrialProc	TrialList	0	cvbn	-999999	16	108734	0	v	1761	110495	50	-86	-36	-14	-34	4	8	6	2	16	0	0	0	0	4	4	2	2	0	4
Hungry_Donkey_bar_English_2	159	1	<?xml version="1.0"?>\n<Clock xmlns:dt="urn:schemas-microsoft-com:datatypes"><Description dt:dt="string">E-Prime Primary Realtime Clock</Description><StartTime><Timestamp dt:dt="int">0</Timestamp><DateUtc dt:dt="string">2016-06-29T21:07:01Z</DateUtc></StartTime><FrequencyChanges><FrequencyChange><Frequency dt:dt="r8">3507666</Frequency><Timestamp dt:dt="r8">77018354250</Timestamp><Current dt:dt="r8">0</Current><DateUtc dt:dt="string">2016-06-29T21:07:01Z</DateUtc></FrequencyChange></FrequencyChanges></Clock>\n	Hungry_Donkey_bar_English_2-159-1	60.017	-23	1.0.0.18	1	-290393151	Standard	2.0.10.353	2.0.10.353	06-29-2016	6/29/2016 9:07:02 PM	17:07:02	2.0.10.248	17	Bar25-75.bmp	28	2	?	8r_4g.bmp	50r_4g.bmp	1r_2g.bmp	10r_2g.bmp		50r_4g.bmp			TrialProc	TrialList	0	cvbn	-999999	17	112533	0	v	1210	113743	54	-136	-82	-14	-80	4	8	1	2	17	-8	-50	-1	-10	4	4	2	2	-50	4
Hungry_Donkey_bar_English_2	159	1	<?xml version="1.0"?>\n<Clock xmlns:dt="urn:schemas-microsoft-com:datatypes"><Description dt:dt="string">E-Prime Primary Realtime Clock</Description><StartTime><Timestamp dt:dt="int">0</Timestamp><DateUtc dt:dt="string">2016-06-29T21:07:01Z</DateUtc></StartTime><FrequencyChanges><FrequencyChange><Frequency dt:dt="r8">3507666</Frequency><Timestamp dt:dt="r8">77018354250</Timestamp><Current dt:dt="r8">0</Current><DateUtc dt:dt="string">2016-06-29T21:07:01Z</DateUtc></FrequencyChange></FrequencyChanges></Clock>\n	Hungry_Donkey_bar_English_2-159-1	60.017	-23	1.0.0.18	1	-290393151	Standard	2.0.10.353	2.0.10.353	06-29-2016	6/29/2016 9:07:02 PM	17:07:02	2.0.10.248	18	Bar25-75.bmp	30	1	?	0r_4g.bmp	0r_4g.bmp	0r_2g.bmp	0r_2g.bmp	0r_4g.bmp				TrialProc	TrialList	0	cvbn	-999999	16	115782	0	c	504	116286	58	-136	-78	-10	-80	4	8	10	2	18	0	0	0	0	4	4	2	2	0	4
Hungry_Donkey_bar_English_2	159	1	<?xml version="1.0"?>\n<Clock xmlns:dt="urn:schemas-microsoft-com:datatypes"><Description dt:dt="string">E-Prime Primary Realtime Clock</Description><StartTime><Timestamp dt:dt="int">0</Timestamp><DateUtc dt:dt="string">2016-06-29T21:07:01Z</DateUtc></StartTime><FrequencyChanges><FrequencyChange><Frequency dt:dt="r8">3507666</Frequency><Timestamp dt:dt="r8">77018354250</Timestamp><Current dt:dt="r8">0</Current><DateUtc dt:dt="string">2016-06-29T21:07:01Z</DateUtc></FrequencyChange></FrequencyChanges></Clock>\n	Hungry_Donkey_bar_English_2-159-1	60.017	-23	1.0.0.18	1	-290393151	Standard	2.0.10.353	2.0.10.353	06-29-2016	6/29/2016 9:07:02 PM	17:07:02	2.0.10.248	19	Bar25-75.bmp	31	4	?	10r_4g.bmp	0r_4g.bmp	2r_2g.bmp	0r_2g.bmp				0r_2g.bmp	TrialProc	TrialList	0	cvbn	-999999	16	118314	0	n	532	118846	60	-136	-76	-10	-80	4	10	3	2	19	-10	0	-2	0	4	4	2	2	0	2
Hungry_Donkey_bar_English_2	159	1	<?xml version="1.0"?>\n<Clock xmlns:dt="urn:schemas-microsoft-com:datatypes"><Description dt:dt="string">E-Prime Primary Realtime Clock</Description><StartTime><Timestamp dt:dt="int">0</Timestamp><DateUtc dt:dt="string">2016-06-29T21:07:01Z</DateUtc></StartTime><FrequencyChanges><FrequencyChange><Frequency dt:dt="r8">3507666</Frequency><Timestamp dt:dt="r8">77018354250</Timestamp><Current dt:dt="r8">0</Current><DateUtc dt:dt="string">2016-06-29T21:07:01Z</DateUtc></FrequencyChange></FrequencyChanges></Clock>\n	Hungry_Donkey_bar_English_2-159-1	60.017	-23	1.0.0.18	1	-290393151	Standard	2.0.10.353	2.0.10.353	06-29-2016	6/29/2016 9:07:02 PM	17:07:02	2.0.10.248	20	Bar37-63.bmp	32	2	?	10r_4g.bmp	0r_4g.bmp	2r_2g.bmp	0r_2g.bmp		0r_4g.bmp			TrialProc	TrialList	0	cvbn	-999999	16	120880	0	v	2366	123246	64	-136	-72	-10	-76	4	10	2	2	20	-10	0	-2	0	4	4	2	2	0	4
Hungry_Donkey_bar_English_2	159	1	<?xml version="1.0"?>\n<Clock xmlns:dt="urn:schemas-microsoft-com:datatypes"><Description dt:dt="string">E-Prime Primary Realtime Clock</Description><StartTime><Timestamp dt:dt="int">0</Timestamp><DateUtc dt:dt="string">2016-06-29T21:07:01Z</DateUtc></StartTime><FrequencyChanges><FrequencyChange><Frequency dt:dt="r8">3507666</Frequency><Timestamp dt:dt="r8">77018354250</Timestamp><Current dt:dt="r8">0</Current><DateUtc dt:dt="string">2016-06-29T21:07:01Z</DateUtc></FrequencyChange></FrequencyChanges></Clock>\n	Hungry_Donkey_bar_English_2-159-1	60.017	-23	1.0.0.18	1	-290393151	Standard	2.0.10.353	2.0.10.353	06-29-2016	6/29/2016 9:07:02 PM	17:07:02	2.0.10.248	21	Bar37-63.bmp	33	4	?	0r_4g.bmp	0r_4g.bmp	0r_2g.bmp	0r_2g.bmp				0r_2g.bmp	TrialProc	TrialList	0	cvbn	-999999	16	125279	0	n	1279	126558	66	-136	-70	-10	-76	4	12	9	3	21	0	0	0	0	4	4	2	2	0	2
Hungry_Donkey_bar_English_2	159	1	<?xml version="1.0"?>\n<Clock xmlns:dt="urn:schemas-microsoft-com:datatypes"><Description dt:dt="string">E-Prime Primary Realtime Clock</Description><StartTime><Timestamp dt:dt="int">0</Timestamp><DateUtc dt:dt="string">2016-06-29T21:07:01Z</DateUtc></StartTime><FrequencyChanges><FrequencyChange><Frequency dt:dt="r8">3507666</Frequency><Timestamp dt:dt="r8">77018354250</Timestamp><Current dt:dt="r8">0</Current><DateUtc dt:dt="string">2016-06-29T21:07:01Z</DateUtc></FrequencyChange></FrequencyChanges></Clock>\n	Hungry_Donkey_bar_English_2-159-1	60.017	-23	1.0.0.18	1	-290393151	Standard	2.0.10.353	2.0.10.353	06-29-2016	6/29/2016 9:07:02 PM	17:07:02	2.0.10.248	22	Bar37-63.bmp	33	3	?	0r_4g.bmp	0r_4g.bmp	0r_2g.bmp	0r_2g.bmp			0r_2g.bmp		TrialProc	TrialList	0	cvbn	-999999	16	128595	0	b	699	129294	68	-136	-68	-10	-76	6	12	6	3	22	0	0	0	0	4	4	2	2	0	2
Hungry_Donkey_bar_English_2	159	1	<?xml version="1.0"?>\n<Clock xmlns:dt="urn:schemas-microsoft-com:datatypes"><Description dt:dt="string">E-Prime Primary Realtime Clock</Description><StartTime><Timestamp dt:dt="int">0</Timestamp><DateUtc dt:dt="string">2016-06-29T21:07:01Z</DateUtc></StartTime><FrequencyChanges><FrequencyChange><Frequency dt:dt="r8">3507666</Frequency><Timestamp dt:dt="r8">77018354250</Timestamp><Current dt:dt="r8">0</Current><DateUtc dt:dt="string">2016-06-29T21:07:01Z</DateUtc></FrequencyChange></FrequencyChanges></Clock>\n	Hungry_Donkey_bar_English_2-159-1	60.017	-23	1.0.0.18	1	-290393151	Standard	2.0.10.353	2.0.10.353	06-29-2016	6/29/2016 9:07:02 PM	17:07:02	2.0.10.248	23	Bar37-63.bmp	35	1	?	0r_4g.bmp	0r_4g.bmp	0r_2g.bmp	0r_2g.bmp	0r_4g.bmp				TrialProc	TrialList	0	cvbn	-999999	16	131327	0	c	479	131806	72	-136	-64	-6	-76	6	12	7	3	23	0	0	0	0	4	4	2	2	0	4
Hungry_Donkey_bar_English_2	159	1	<?xml version="1.0"?>\n<Clock xmlns:dt="urn:schemas-microsoft-com:datatypes"><Description dt:dt="string">E-Prime Primary Realtime Clock</Description><StartTime><Timestamp dt:dt="int">0</Timestamp><DateUtc dt:dt="string">2016-06-29T21:07:01Z</DateUtc></StartTime><FrequencyChanges><FrequencyChange><Frequency dt:dt="r8">3507666</Frequency><Timestamp dt:dt="r8">77018354250</Timestamp><Current dt:dt="r8">0</Current><DateUtc dt:dt="string">2016-06-29T21:07:01Z</DateUtc></FrequencyChange></FrequencyChanges></Clock>\n	Hungry_Donkey_bar_English_2-159-1	60.017	-23	1.0.0.18	1	-290393151	Standard	2.0.10.353	2.0.10.353	06-29-2016	6/29/2016 9:07:02 PM	17:07:02	2.0.10.248	24	Bar37-63.bmp	35	3	?	12r_4g.bmp	0r_4g.bmp	3r_2g.bmp	0r_2g.bmp			3r_2g.bmp		TrialProc	TrialList	0	cvbn	-999999	16	133843	0	b	587	134430	74	-139	-65	-6	-76	5	12	5	3	24	-12	0	-3	0	4	4	2	2	-3	2
Hungry_Donkey_bar_English_2	159	1	<?xml version="1.0"?>\n<Clock xmlns:dt="urn:schemas-microsoft-com:datatypes"><Description dt:dt="string">E-Prime Primary Realtime Clock</Description><StartTime><Timestamp dt:dt="int">0</Timestamp><DateUtc dt:dt="string">2016-06-29T21:07:01Z</DateUtc></StartTime><FrequencyChanges><FrequencyChange><Frequency dt:dt="r8">3507666</Frequency><Timestamp dt:dt="r8">77018354250</Timestamp><Current dt:dt="r8">0</Current><DateUtc dt:dt="string">2016-06-29T21:07:01Z</DateUtc></FrequencyChange></FrequencyChanges></Clock>\n	Hungry_Donkey_bar_English_2-159-1	60.017	-23	1.0.0.18	1	-290393151	Standard	2.0.10.353	2.0.10.353	06-29-2016	6/29/2016 9:07:02 PM	17:07:02	2.0.10.248	25	Bar37-63.bmp	35	4	?	10r_4g.bmp	0r_4g.bmp	2r_2g.bmp	0r_2g.bmp				0r_2g.bmp	TrialProc	TrialList	0	cvbn	-999999	16	136476	0	n	1505	137981	76	-139	-63	-6	-76	5	14	2	3	25	-10	0	-2	0	4	4	2	2	0	2
Hungry_Donkey_bar_English_2	159	1	<?xml version="1.0"?>\n<Clock xmlns:dt="urn:schemas-microsoft-com:datatypes"><Description dt:dt="string">E-Prime Primary Realtime Clock</Description><StartTime><Timestamp dt:dt="int">0</Timestamp><DateUtc dt:dt="string">2016-06-29T21:07:01Z</DateUtc></StartTime><FrequencyChanges><FrequencyChange><Frequency dt:dt="r8">3507666</Frequency><Timestamp dt:dt="r8">77018354250</Timestamp><Current dt:dt="r8">0</Current><DateUtc dt:dt="string">2016-06-29T21:07:01Z</DateUtc></FrequencyChange></FrequencyChanges></Clock>\n	Hungry_Donkey_bar_English_2-159-1	60.017	-23	1.0.0.18	1	-290393151	Standard	2.0.10.353	2.0.10.353	06-29-2016	6/29/2016 9:07:02 PM	17:07:02	2.0.10.248	26	Bar37-63.bmp	36	3	?	8r_4g.bmp	50r_4g.bmp	1r_2g.bmp	10r_2g.bmp			1r_2g.bmp		TrialProc	TrialList	0	cvbn	-999999	16	140008	0	b	1461	141469	78	-140	-62	-6	-76	6	14	1	3	26	-8	-50	-1	-10	4	4	2	2	-1	2
Hungry_Donkey_bar_English_2	159	1	<?xml version="1.0"?>\n<Clock xmlns:dt="urn:schemas-microsoft-com:datatypes"><Description dt:dt="string">E-Prime Primary Realtime Clock</Description><StartTime><Timestamp dt:dt="int">0</Timestamp><DateUtc dt:dt="string">2016-06-29T21:07:01Z</DateUtc></StartTime><FrequencyChanges><FrequencyChange><Frequency dt:dt="r8">3507666</Frequency><Timestamp dt:dt="r8">77018354250</Timestamp><Current dt:dt="r8">0</Current><DateUtc dt:dt="string">2016-06-29T21:07:01Z</DateUtc></FrequencyChange></FrequencyChanges></Clock>\n	Hungry_Donkey_bar_English_2-159-1	60.017	-23	1.0.0.18	1	-290393151	Standard	2.0.10.353	2.0.10.353	06-29-2016	6/29/2016 9:07:02 PM	17:07:02	2.0.10.248	27	Bar37-63.bmp	35	1	?	10r_4g.bmp	0r_4g.bmp	2r_2g.bmp	0r_2g.bmp	10r_4g.bmp				TrialProc	TrialList	0	cvbn	-999999	16	143507	0	c	1354	144861	82	-150	-68	-12	-76	6	14	4	3	27	-10	0	-2	0	4	4	2	2	-10	4
Hungry_Donkey_bar_English_2	159	1	<?xml version="1.0"?>\n<Clock xmlns:dt="urn:schemas-microsoft-com:datatypes"><Description dt:dt="string">E-Prime Primary Realtime Clock</Description><StartTime><Timestamp dt:dt="int">0</Timestamp><DateUtc dt:dt="string">2016-06-29T21:07:01Z</DateUtc></StartTime><FrequencyChanges><FrequencyChange><Frequency dt:dt="r8">3507666</Frequency><Timestamp dt:dt="r8">77018354250</Timestamp><Current dt:dt="r8">0</Current><DateUtc dt:dt="string">2016-06-29T21:07:01Z</DateUtc></FrequencyChange></FrequencyChanges></Clock>\n	Hungry_Donkey_bar_English_2-159-1	60.017	-23	1.0.0.18	1	-290393151	Standard	2.0.10.353	2.0.10.353	06-29-2016	6/29/2016 9:07:02 PM	17:07:02	2.0.10.248	28	Bar37-63.bmp	36	2	?	10r_4g.bmp	0r_4g.bmp	2r_2g.bmp	0r_2g.bmp		0r_4g.bmp			TrialProc	TrialList	0	cvbn	-999999	16	146889	0	v	3188	150077	86	-150	-64	-12	-72	6	14	3	3	28	-10	0	-2	0	4	4	2	2	0	4
Hungry_Donkey_bar_English_2	159	1	<?xml version="1.0"?>\n<Clock xmlns:dt="urn:schemas-microsoft-com:datatypes"><Description dt:dt="string">E-Prime Primary Realtime Clock</Description><StartTime><Timestamp dt:dt="int">0</Timestamp><DateUtc dt:dt="string">2016-06-29T21:07:01Z</DateUtc></StartTime><FrequencyChanges><FrequencyChange><Frequency dt:dt="r8">3507666</Frequency><Timestamp dt:dt="r8">77018354250</Timestamp><Current dt:dt="r8">0</Current><DateUtc dt:dt="string">2016-06-29T21:07:01Z</DateUtc></FrequencyChange></FrequencyChanges></Clock>\n	Hungry_Donkey_bar_English_2-159-1	60.017	-23	1.0.0.18	1	-290393151	Standard	2.0.10.353	2.0.10.353	06-29-2016	6/29/2016 9:07:02 PM	17:07:02	2.0.10.248	29	Bar37-63.bmp	37	4	?	0r_4g.bmp	0r_4g.bmp	0r_2g.bmp	0r_2g.bmp				0r_2g.bmp	TrialProc	TrialList	0	cvbn	-999999	16	152105	0	n	1044	153149	88	-150	-62	-12	-72	6	16	8	3	29	0	0	0	0	4	4	2	2	0	2
Hungry_Donkey_bar_English_2	159	1	<?xml version="1.0"?>\n<Clock xmlns:dt="urn:schemas-microsoft-com:datatypes"><Description dt:dt="string">E-Prime Primary Realtime Clock</Description><StartTime><Timestamp dt:dt="int">0</Timestamp><DateUtc dt:dt="string">2016-06-29T21:07:01Z</DateUtc></StartTime><FrequencyChanges><FrequencyChange><Frequency dt:dt="r8">3507666</Frequency><Timestamp dt:dt="r8">77018354250</Timestamp><Current dt:dt="r8">0</Current><DateUtc dt:dt="string">2016-06-29T21:07:01Z</DateUtc></FrequencyChange></FrequencyChanges></Clock>\n	Hungry_Donkey_bar_English_2-159-1	60.017	-23	1.0.0.18	1	-290393151	Standard	2.0.10.353	2.0.10.353	06-29-2016	6/29/2016 9:07:02 PM	17:07:02	2.0.10.248	30	Bar37-63.bmp	38	1	?	0r_4g.bmp	0r_4g.bmp	0r_2g.bmp	0r_2g.bmp	0r_4g.bmp				TrialProc	TrialList	0	cvbn	-999999	16	155187	0	c	1754	156941	92	-150	-58	-8	-72	6	16	10	3	30	0	0	0	0	4	4	2	2	0	4
Hungry_Donkey_bar_English_2	159	1	<?xml version="1.0"?>\n<Clock xmlns:dt="urn:schemas-microsoft-com:datatypes"><Description dt:dt="string">E-Prime Primary Realtime Clock</Description><StartTime><Timestamp dt:dt="int">0</Timestamp><DateUtc dt:dt="string">2016-06-29T21:07:01Z</DateUtc></StartTime><FrequencyChanges><FrequencyChange><Frequency dt:dt="r8">3507666</Frequency><Timestamp dt:dt="r8">77018354250</Timestamp><Current dt:dt="r8">0</Current><DateUtc dt:dt="string">2016-06-29T21:07:01Z</DateUtc></FrequencyChange></FrequencyChanges></Clock>\n	Hungry_Donkey_bar_English_2-159-1	60.017	-23	1.0.0.18	1	-290393151	Standard	2.0.10.353	2.0.10.353	06-29-2016	6/29/2016 9:07:02 PM	17:07:02	2.0.10.248	31	Bar37-63.bmp	38	3	?	10r_4g.bmp	0r_4g.bmp	2r_2g.bmp	0r_2g.bmp			2r_2g.bmp		TrialProc	TrialList	0	cvbn	-999999	16	158969	0	b	931	159900	94	-152	-58	-8	-72	6	16	3	4	31	-10	0	-2	0	4	4	2	2	-2	2
Hungry_Donkey_bar_English_2	159	1	<?xml version="1.0"?>\n<Clock xmlns:dt="urn:schemas-microsoft-com:datatypes"><Description dt:dt="string">E-Prime Primary Realtime Clock</Description><StartTime><Timestamp dt:dt="int">0</Timestamp><DateUtc dt:dt="string">2016-06-29T21:07:01Z</DateUtc></StartTime><FrequencyChanges><FrequencyChange><Frequency dt:dt="r8">3507666</Frequency><Timestamp dt:dt="r8">77018354250</Timestamp><Current dt:dt="r8">0</Current><DateUtc dt:dt="string">2016-06-29T21:07:01Z</DateUtc></FrequencyChange></FrequencyChanges></Clock>\n	Hungry_Donkey_bar_English_2-159-1	60.017	-23	1.0.0.18	1	-290393151	Standard	2.0.10.353	2.0.10.353	06-29-2016	6/29/2016 9:07:02 PM	17:07:02	2.0.10.248	32	Bar37-63.bmp	39	2	?	0r_4g.bmp	0r_4g.bmp	0r_2g.bmp	0r_2g.bmp		0r_4g.bmp			TrialProc	TrialList	0	cvbn	-999999	16	161935	0	v	509	162444	98	-152	-54	-8	-68	6	16	7	4	32	0	0	0	0	4	4	2	2	0	4
Hungry_Donkey_bar_English_2	159	1	<?xml version="1.0"?>\n<Clock xmlns:dt="urn:schemas-microsoft-com:datatypes"><Description dt:dt="string">E-Prime Primary Realtime Clock</Description><StartTime><Timestamp dt:dt="int">0</Timestamp><DateUtc dt:dt="string">2016-06-29T21:07:01Z</DateUtc></StartTime><FrequencyChanges><FrequencyChange><Frequency dt:dt="r8">3507666</Frequency><Timestamp dt:dt="r8">77018354250</Timestamp><Current dt:dt="r8">0</Current><DateUtc dt:dt="string">2016-06-29T21:07:01Z</DateUtc></FrequencyChange></FrequencyChanges></Clock>\n	Hungry_Donkey_bar_English_2-159-1	60.017	-23	1.0.0.18	1	-290393151	Standard	2.0.10.353	2.0.10.353	06-29-2016	6/29/2016 9:07:02 PM	17:07:02	2.0.10.248	33	Bar37-63.bmp	40	4	?	0r_4g.bmp	0r_4g.bmp	0r_2g.bmp	0r_2g.bmp				0r_2g.bmp	TrialProc	TrialList	0	cvbn	-999999	16	164468	0	n	1080	165548	100	-152	-52	-8	-68	6	18	10	4	33	0	0	0	0	4	4	2	2	0	2
Hungry_Donkey_bar_English_2	159	1	<?xml version="1.0"?>\n<Clock xmlns:dt="urn:schemas-microsoft-com:datatypes"><Description dt:dt="string">E-Prime Primary Realtime Clock</Description><StartTime><Timestamp dt:dt="int">0</Timestamp><DateUtc dt:dt="string">2016-06-29T21:07:01Z</DateUtc></StartTime><FrequencyChanges><FrequencyChange><Frequency dt:dt="r8">3507666</Frequency><Timestamp dt:dt="r8">77018354250</Timestamp><Current dt:dt="r8">0</Current><DateUtc dt:dt="string">2016-06-29T21:07:01Z</DateUtc></FrequencyChange></FrequencyChanges></Clock>\n	Hungry_Donkey_bar_English_2-159-1	60.017	-23	1.0.0.18	1	-290393151	Standard	2.0.10.353	2.0.10.353	06-29-2016	6/29/2016 9:07:02 PM	17:07:02	2.0.10.248	34	Bar37-63.bmp	41	1	?	0r_4g.bmp	0r_4g.bmp	0r_2g.bmp	0r_2g.bmp	0r_4g.bmp				TrialProc	TrialList	0	cvbn	-999999	16	167584	0	c	140	167724	104	-152	-48	-4	-68	6	18	8	4	34	0	0	0	0	4	4	2	2	0	4
Hungry_Donkey_bar_English_2	159	1	<?xml version="1.0"?>\n<Clock xmlns:dt="urn:schemas-microsoft-com:datatypes"><Description dt:dt="string">E-Prime Primary Realtime Clock</Description><StartTime><Timestamp dt:dt="int">0</Timestamp><DateUtc dt:dt="string">2016-06-29T21:07:01Z</DateUtc></StartTime><FrequencyChanges><FrequencyChange><Frequency dt:dt="r8">3507666</Frequency><Timestamp dt:dt="r8">77018354250</Timestamp><Current dt:dt="r8">0</Current><DateUtc dt:dt="string">2016-06-29T21:07:01Z</DateUtc></FrequencyChange></FrequencyChanges></Clock>\n	Hungry_Donkey_bar_English_2-159-1	60.017	-23	1.0.0.18	1	-290393151	Standard	2.0.10.353	2.0.10.353	06-29-2016	6/29/2016 9:07:02 PM	17:07:02	2.0.10.248	35	Bar37-63.bmp	41	3	?	8r_4g.bmp	50r_4g.bmp	1r_2g.bmp	10r_2g.bmp			1r_2g.bmp		TrialProc	TrialList	0	cvbn	-999999	16	169750	0	b	710	170460	106	-153	-47	-4	-68	7	18	1	4	35	-8	-50	-1	-10	4	4	2	2	-1	2
Hungry_Donkey_bar_English_2	159	1	<?xml version="1.0"?>\n<Clock xmlns:dt="urn:schemas-microsoft-com:datatypes"><Description dt:dt="string">E-Prime Primary Realtime Clock</Description><StartTime><Timestamp dt:dt="int">0</Timestamp><DateUtc dt:dt="string">2016-06-29T21:07:01Z</DateUtc></StartTime><FrequencyChanges><FrequencyChange><Frequency dt:dt="r8">3507666</Frequency><Timestamp dt:dt="r8">77018354250</Timestamp><Current dt:dt="r8">0</Current><DateUtc dt:dt="string">2016-06-29T21:07:01Z</DateUtc></FrequencyChange></FrequencyChanges></Clock>\n	Hungry_Donkey_bar_English_2-159-1	60.017	-23	1.0.0.18	1	-290393151	Standard	2.0.10.353	2.0.10.353	06-29-2016	6/29/2016 9:07:02 PM	17:07:02	2.0.10.248	36	Bar37-63.bmp	42	2	?	12r_4g.bmp	0r_4g.bmp	3r_2g.bmp	0r_2g.bmp		0r_4g.bmp			TrialProc	TrialList	0	cvbn	-999999	16	172499	0	v	185	172684	110	-153	-43	-4	-64	7	18	5	4	36	-12	0	-3	0	4	4	2	2	0	4
Hungry_Donkey_bar_English_2	159	1	<?xml version="1.0"?>\n<Clock xmlns:dt="urn:schemas-microsoft-com:datatypes"><Description dt:dt="string">E-Prime Primary Realtime Clock</Description><StartTime><Timestamp dt:dt="int">0</Timestamp><DateUtc dt:dt="string">2016-06-29T21:07:01Z</DateUtc></StartTime><FrequencyChanges><FrequencyChange><Frequency dt:dt="r8">3507666</Frequency><Timestamp dt:dt="r8">77018354250</Timestamp><Current dt:dt="r8">0</Current><DateUtc dt:dt="string">2016-06-29T21:07:01Z</DateUtc></FrequencyChange></FrequencyChanges></Clock>\n	Hungry_Donkey_bar_English_2-159-1	60.017	-23	1.0.0.18	1	-290393151	Standard	2.0.10.353	2.0.10.353	06-29-2016	6/29/2016 9:07:02 PM	17:07:02	2.0.10.248	37	Bar37-63.bmp	43	1	?	0r_4g.bmp	0r_4g.bmp	0r_2g.bmp	0r_2g.bmp	0r_4g.bmp				TrialProc	TrialList	0	cvbn	-999999	16	174715	0	c	529	175244	114	-153	-39	0	-64	7	18	9	4	37	0	0	0	0	4	4	2	2	0	4
Hungry_Donkey_bar_English_2	159	1	<?xml version="1.0"?>\n<Clock xmlns:dt="urn:schemas-microsoft-com:datatypes"><Description dt:dt="string">E-Prime Primary Realtime Clock</Description><StartTime><Timestamp dt:dt="int">0</Timestamp><DateUtc dt:dt="string">2016-06-29T21:07:01Z</DateUtc></StartTime><FrequencyChanges><FrequencyChange><Frequency dt:dt="r8">3507666</Frequency><Timestamp dt:dt="r8">77018354250</Timestamp><Current dt:dt="r8">0</Current><DateUtc dt:dt="string">2016-06-29T21:07:01Z</DateUtc></FrequencyChange></FrequencyChanges></Clock>\n	Hungry_Donkey_bar_English_2-159-1	60.017	-23	1.0.0.18	1	-290393151	Standard	2.0.10.353	2.0.10.353	06-29-2016	6/29/2016 9:07:02 PM	17:07:02	2.0.10.248	38	Bar37-63.bmp	43	4	?	10r_4g.bmp	0r_4g.bmp	2r_2g.bmp	0r_2g.bmp				0r_2g.bmp	TrialProc	TrialList	0	cvbn	-999999	16	177281	0	n	187	177468	116	-153	-37	0	-64	7	20	2	4	38	-10	0	-2	0	4	4	2	2	0	2
Hungry_Donkey_bar_English_2	159	1	<?xml version="1.0"?>\n<Clock xmlns:dt="urn:schemas-microsoft-com:datatypes"><Description dt:dt="string">E-Prime Primary Realtime Clock</Description><StartTime><Timestamp dt:dt="int">0</Timestamp><DateUtc dt:dt="string">2016-06-29T21:07:01Z</DateUtc></StartTime><FrequencyChanges><FrequencyChange><Frequency dt:dt="r8">3507666</Frequency><Timestamp dt:dt="r8">77018354250</Timestamp><Current dt:dt="r8">0</Current><DateUtc dt:dt="string">2016-06-29T21:07:01Z</DateUtc></FrequencyChange></FrequencyChanges></Clock>\n	Hungry_Donkey_bar_English_2-159-1	60.017	-23	1.0.0.18	1	-290393151	Standard	2.0.10.353	2.0.10.353	06-29-2016	6/29/2016 9:07:02 PM	17:07:02	2.0.10.248	39	Bar50-50.bmp	44	2	?	10r_4g.bmp	0r_4g.bmp	2r_2g.bmp	0r_2g.bmp		0r_4g.bmp			TrialProc	TrialList	0	cvbn	-999999	16	179497	0	v	899	180396	120	-153	-33	0	-60	7	20	4	4	39	-10	0	-2	0	4	4	2	2	0	4
Hungry_Donkey_bar_English_2	159	1	<?xml version="1.0"?>\n<Clock xmlns:dt="urn:schemas-microsoft-com:datatypes"><Description dt:dt="string">E-Prime Primary Realtime Clock</Description><StartTime><Timestamp dt:dt="int">0</Timestamp><DateUtc dt:dt="string">2016-06-29T21:07:01Z</DateUtc></StartTime><FrequencyChanges><FrequencyChange><Frequency dt:dt="r8">3507666</Frequency><Timestamp dt:dt="r8">77018354250</Timestamp><Current dt:dt="r8">0</Current><DateUtc dt:dt="string">2016-06-29T21:07:01Z</DateUtc></FrequencyChange></FrequencyChanges></Clock>\n	Hungry_Donkey_bar_English_2-159-1	60.017	-23	1.0.0.18	1	-290393151	Standard	2.0.10.353	2.0.10.353	06-29-2016	6/29/2016 9:07:02 PM	17:07:02	2.0.10.248	40	Bar50-50.bmp	44	3	?	0r_4g.bmp	0r_4g.bmp	0r_2g.bmp	0r_2g.bmp			0r_2g.bmp		TrialProc	TrialList	0	cvbn	-999999	16	182429	0	b	366	182795	122	-153	-31	0	-60	9	20	6	4	40	0	0	0	0	4	4	2	2	0	2
Hungry_Donkey_bar_English_2	159	1	<?xml version="1.0"?>\n<Clock xmlns:dt="urn:schemas-microsoft-com:datatypes"><Description dt:dt="string">E-Prime Primary Realtime Clock</Description><StartTime><Timestamp dt:dt="int">0</Timestamp><DateUtc dt:dt="string">2016-06-29T21:07:01Z</DateUtc></StartTime><FrequencyChanges><FrequencyChange><Frequency dt:dt="r8">3507666</Frequency><Timestamp dt:dt="r8">77018354250</Timestamp><Current dt:dt="r8">0</Current><DateUtc dt:dt="string">2016-06-29T21:07:01Z</DateUtc></FrequencyChange></FrequencyChanges></Clock>\n	Hungry_Donkey_bar_English_2-159-1	60.017	-23	1.0.0.18	1	-290393151	Standard	2.0.10.353	2.0.10.353	06-29-2016	6/29/2016 9:07:02 PM	17:07:02	2.0.10.248	41	Bar50-50.bmp	44	1	?	10r_4g.bmp	0r_4g.bmp	2r_2g.bmp	0r_2g.bmp	10r_4g.bmp				TrialProc	TrialList	0	cvbn	-999999	16	184829	0	c	254	185083	126	-163	-37	-6	-60	9	20	3	5	41	-10	0	-2	0	4	4	2	2	-10	4
Hungry_Donkey_bar_English_2	159	1	<?xml version="1.0"?>\n<Clock xmlns:dt="urn:schemas-microsoft-com:datatypes"><Description dt:dt="string">E-Prime Primary Realtime Clock</Description><StartTime><Timestamp dt:dt="int">0</Timestamp><DateUtc dt:dt="string">2016-06-29T21:07:01Z</DateUtc></StartTime><FrequencyChanges><FrequencyChange><Frequency dt:dt="r8">3507666</Frequency><Timestamp dt:dt="r8">77018354250</Timestamp><Current dt:dt="r8">0</Current><DateUtc dt:dt="string">2016-06-29T21:07:01Z</DateUtc></FrequencyChange></FrequencyChanges></Clock>\n	Hungry_Donkey_bar_English_2-159-1	60.017	-23	1.0.0.18	1	-290393151	Standard	2.0.10.353	2.0.10.353	06-29-2016	6/29/2016 9:07:02 PM	17:07:02	2.0.10.248	42	Bar37-63.bmp	43	4	?	8r_4g.bmp	50r_4g.bmp	1r_2g.bmp	10r_2g.bmp				10r_2g.bmp	TrialProc	TrialList	0	cvbn	-999999	16	187111	0	n	244	187355	128	-173	-45	-6	-60	9	12	1	5	42	-8	-50	-1	-10	4	4	2	2	-10	2
Hungry_Donkey_bar_English_2	159	1	<?xml version="1.0"?>\n<Clock xmlns:dt="urn:schemas-microsoft-com:datatypes"><Description dt:dt="string">E-Prime Primary Realtime Clock</Description><StartTime><Timestamp dt:dt="int">0</Timestamp><DateUtc dt:dt="string">2016-06-29T21:07:01Z</DateUtc></StartTime><FrequencyChanges><FrequencyChange><Frequency dt:dt="r8">3507666</Frequency><Timestamp dt:dt="r8">77018354250</Timestamp><Current dt:dt="r8">0</Current><DateUtc dt:dt="string">2016-06-29T21:07:01Z</DateUtc></FrequencyChange></FrequencyChanges></Clock>\n	Hungry_Donkey_bar_English_2-159-1	60.017	-23	1.0.0.18	1	-290393151	Standard	2.0.10.353	2.0.10.353	06-29-2016	6/29/2016 9:07:02 PM	17:07:02	2.0.10.248	43	Bar37-63.bmp	43	2	?	0r_4g.bmp	0r_4g.bmp	0r_2g.bmp	0r_2g.bmp		0r_4g.bmp			TrialProc	TrialList	0	cvbn	-999999	16	189394	0	v	393	189787	132	-173	-41	-6	-56	9	12	9	5	43	0	0	0	0	4	4	2	2	0	4
Hungry_Donkey_bar_English_2	159	1	<?xml version="1.0"?>\n<Clock xmlns:dt="urn:schemas-microsoft-com:datatypes"><Description dt:dt="string">E-Prime Primary Realtime Clock</Description><StartTime><Timestamp dt:dt="int">0</Timestamp><DateUtc dt:dt="string">2016-06-29T21:07:01Z</DateUtc></StartTime><FrequencyChanges><FrequencyChange><Frequency dt:dt="r8">3507666</Frequency><Timestamp dt:dt="r8">77018354250</Timestamp><Current dt:dt="r8">0</Current><DateUtc dt:dt="string">2016-06-29T21:07:01Z</DateUtc></FrequencyChange></FrequencyChanges></Clock>\n	Hungry_Donkey_bar_English_2-159-1	60.017	-23	1.0.0.18	1	-290393151	Standard	2.0.10.353	2.0.10.353	06-29-2016	6/29/2016 9:07:02 PM	17:07:02	2.0.10.248	44	Bar50-50.bmp	44	4	?	0r_4g.bmp	0r_4g.bmp	0r_2g.bmp	0r_2g.bmp				0r_2g.bmp	TrialProc	TrialList	0	cvbn	-999999	15	191810	0	n	345	192155	134	-173	-39	-6	-56	9	14	10	5	44	0	0	0	0	4	4	2	2	0	2
Hungry_Donkey_bar_English_2	159	1	<?xml version="1.0"?>\n<Clock xmlns:dt="urn:schemas-microsoft-com:datatypes"><Description dt:dt="string">E-Prime Primary Realtime Clock</Description><StartTime><Timestamp dt:dt="int">0</Timestamp><DateUtc dt:dt="string">2016-06-29T21:07:01Z</DateUtc></StartTime><FrequencyChanges><FrequencyChange><Frequency dt:dt="r8">3507666</Frequency><Timestamp dt:dt="r8">77018354250</Timestamp><Current dt:dt="r8">0</Current><DateUtc dt:dt="string">2016-06-29T21:07:01Z</DateUtc></FrequencyChange></FrequencyChanges></Clock>\n	Hungry_Donkey_bar_English_2-159-1	60.017	-23	1.0.0.18	1	-290393151	Standard	2.0.10.353	2.0.10.353	06-29-2016	6/29/2016 9:07:02 PM	17:07:02	2.0.10.248	45	Bar37-63.bmp	43	1	?	10r_4g.bmp	0r_4g.bmp	2r_2g.bmp	0r_2g.bmp	10r_4g.bmp				TrialProc	TrialList	0	cvbn	-999999	16	194193	0	c	1050	195243	138	-183	-45	-12	-56	9	14	4	5	45	-10	0	-2	0	4	4	2	2	-10	4
Hungry_Donkey_bar_English_2	159	1	<?xml version="1.0"?>\n<Clock xmlns:dt="urn:schemas-microsoft-com:datatypes"><Description dt:dt="string">E-Prime Primary Realtime Clock</Description><StartTime><Timestamp dt:dt="int">0</Timestamp><DateUtc dt:dt="string">2016-06-29T21:07:01Z</DateUtc></StartTime><FrequencyChanges><FrequencyChange><Frequency dt:dt="r8">3507666</Frequency><Timestamp dt:dt="r8">77018354250</Timestamp><Current dt:dt="r8">0</Current><DateUtc dt:dt="string">2016-06-29T21:07:01Z</DateUtc></FrequencyChange></FrequencyChanges></Clock>\n	Hungry_Donkey_bar_English_2-159-1	60.017	-23	1.0.0.18	1	-290393151	Standard	2.0.10.353	2.0.10.353	06-29-2016	6/29/2016 9:07:02 PM	17:07:02	2.0.10.248	46	Bar37-63.bmp	43	4	?	10r_4g.bmp	0r_4g.bmp	2r_2g.bmp	0r_2g.bmp				0r_2g.bmp	TrialProc	TrialList	0	cvbn	-999999	16	197275	0	n	1152	198427	140	-183	-43	-12	-56	9	16	2	5	46	-10	0	-2	0	4	4	2	2	0	2
Hungry_Donkey_bar_English_2	159	1	<?xml version="1.0"?>\n<Clock xmlns:dt="urn:schemas-microsoft-com:datatypes"><Description dt:dt="string">E-Prime Primary Realtime Clock</Description><StartTime><Timestamp dt:dt="int">0</Timestamp><DateUtc dt:dt="string">2016-06-29T21:07:01Z</DateUtc></StartTime><FrequencyChanges><FrequencyChange><Frequency dt:dt="r8">3507666</Frequency><Timestamp dt:dt="r8">77018354250</Timestamp><Current dt:dt="r8">0</Current><DateUtc dt:dt="string">2016-06-29T21:07:01Z</DateUtc></FrequencyChange></FrequencyChanges></Clock>\n	Hungry_Donkey_bar_English_2-159-1	60.017	-23	1.0.0.18	1	-290393151	Standard	2.0.10.353	2.0.10.353	06-29-2016	6/29/2016 9:07:02 PM	17:07:02	2.0.10.248	47	Bar50-50.bmp	44	2	?	0r_4g.bmp	0r_4g.bmp	0r_2g.bmp	0r_2g.bmp		0r_4g.bmp			TrialProc	TrialList	0	cvbn	-999999	16	200458	0	v	913	201371	144	-183	-39	-12	-52	9	16	7	5	47	0	0	0	0	4	4	2	2	0	4
Hungry_Donkey_bar_English_2	159	1	<?xml version="1.0"?>\n<Clock xmlns:dt="urn:schemas-microsoft-com:datatypes"><Description dt:dt="string">E-Prime Primary Realtime Clock</Description><StartTime><Timestamp dt:dt="int">0</Timestamp><DateUtc dt:dt="string">2016-06-29T21:07:01Z</DateUtc></StartTime><FrequencyChanges><FrequencyChange><Frequency dt:dt="r8">3507666</Frequency><Timestamp dt:dt="r8">77018354250</Timestamp><Current dt:dt="r8">0</Current><DateUtc dt:dt="string">2016-06-29T21:07:01Z</DateUtc></FrequencyChange></FrequencyChanges></Clock>\n	Hungry_Donkey_bar_English_2-159-1	60.017	-23	1.0.0.18	1	-290393151	Standard	2.0.10.353	2.0.10.353	06-29-2016	6/29/2016 9:07:02 PM	17:07:02	2.0.10.248	48	Bar37-63.bmp	43	1	?	12r_4g.bmp	0r_4g.bmp	3r_2g.bmp	0r_2g.bmp	12r_4g.bmp				TrialProc	TrialList	0	cvbn	-999999	16	203407	0	c	667	204074	148	-195	-47	-20	-52	9	16	5	5	48	-12	0	-3	0	4	4	2	2	-12	4
Hungry_Donkey_bar_English_2	159	1	<?xml version="1.0"?>\n<Clock xmlns:dt="urn:schemas-microsoft-com:datatypes"><Description dt:dt="string">E-Prime Primary Realtime Clock</Description><StartTime><Timestamp dt:dt="int">0</Timestamp><DateUtc dt:dt="string">2016-06-29T21:07:01Z</DateUtc></StartTime><FrequencyChanges><FrequencyChange><Frequency dt:dt="r8">3507666</Frequency><Timestamp dt:dt="r8">77018354250</Timestamp><Current dt:dt="r8">0</Current><DateUtc dt:dt="string">2016-06-29T21:07:01Z</DateUtc></FrequencyChange></FrequencyChanges></Clock>\n	Hungry_Donkey_bar_English_2-159-1	60.017	-23	1.0.0.18	1	-290393151	Standard	2.0.10.353	2.0.10.353	06-29-2016	6/29/2016 9:07:02 PM	17:07:02	2.0.10.248	49	Bar37-63.bmp	43	3	?	0r_4g.bmp	0r_4g.bmp	0r_2g.bmp	0r_2g.bmp			0r_2g.bmp		TrialProc	TrialList	0	cvbn	-999999	16	206106	0	b	112	206218	150	-195	-45	-20	-52	11	16	6	5	49	0	0	0	0	4	4	2	2	0	2
Hungry_Donkey_bar_English_2	159	1	<?xml version="1.0"?>\n<Clock xmlns:dt="urn:schemas-microsoft-com:datatypes"><Description dt:dt="string">E-Prime Primary Realtime Clock</Description><StartTime><Timestamp dt:dt="int">0</Timestamp><DateUtc dt:dt="string">2016-06-29T21:07:01Z</DateUtc></StartTime><FrequencyChanges><FrequencyChange><Frequency dt:dt="r8">3507666</Frequency><Timestamp dt:dt="r8">77018354250</Timestamp><Current dt:dt="r8">0</Current><DateUtc dt:dt="string">2016-06-29T21:07:01Z</DateUtc></FrequencyChange></FrequencyChanges></Clock>\n	Hungry_Donkey_bar_English_2-159-1	60.017	-23	1.0.0.18	1	-290393151	Standard	2.0.10.353	2.0.10.353	06-29-2016	6/29/2016 9:07:02 PM	17:07:02	2.0.10.248	50	Bar50-50.bmp	44	2	?	0r_4g.bmp	0r_4g.bmp	0r_2g.bmp	0r_2g.bmp		0r_4g.bmp			TrialProc	TrialList	0	cvbn	-999999	16	208255	0	v	203	208458	154	-195	-41	-20	-48	11	16	8	5	50	0	0	0	0	4	4	2	2	0	4
Hungry_Donkey_bar_English_2	159	1	<?xml version="1.0"?>\n<Clock xmlns:dt="urn:schemas-microsoft-com:datatypes"><Description dt:dt="string">E-Prime Primary Realtime Clock</Description><StartTime><Timestamp dt:dt="int">0</Timestamp><DateUtc dt:dt="string">2016-06-29T21:07:01Z</DateUtc></StartTime><FrequencyChanges><FrequencyChange><Frequency dt:dt="r8">3507666</Frequency><Timestamp dt:dt="r8">77018354250</Timestamp><Current dt:dt="r8">0</Current><DateUtc dt:dt="string">2016-06-29T21:07:01Z</DateUtc></FrequencyChange></FrequencyChanges></Clock>\n	Hungry_Donkey_bar_English_2-159-1	60.017	-23	1.0.0.18	1	-290393151	Standard	2.0.10.353	2.0.10.353	06-29-2016	6/29/2016 9:07:02 PM	17:07:02	2.0.10.248	51	Bar50-50.bmp	44	4	?	10r_4g.bmp	0r_4g.bmp	2r_2g.bmp	0r_2g.bmp				0r_2g.bmp	TrialProc	TrialList	0	cvbn	-999999	16	210488	0	n	546	211034	156	-195	-39	-20	-48	11	18	2	6	51	-10	0	-2	0	4	4	2	2	0	2
Hungry_Donkey_bar_English_2	159	1	<?xml version="1.0"?>\n<Clock xmlns:dt="urn:schemas-microsoft-com:datatypes"><Description dt:dt="string">E-Prime Primary Realtime Clock</Description><StartTime><Timestamp dt:dt="int">0</Timestamp><DateUtc dt:dt="string">2016-06-29T21:07:01Z</DateUtc></StartTime><FrequencyChanges><FrequencyChange><Frequency dt:dt="r8">3507666</Frequency><Timestamp dt:dt="r8">77018354250</Timestamp><Current dt:dt="r8">0</Current><DateUtc dt:dt="string">2016-06-29T21:07:01Z</DateUtc></FrequencyChange></FrequencyChanges></Clock>\n	Hungry_Donkey_bar_English_2-159-1	60.017	-23	1.0.0.18	1	-290393151	Standard	2.0.10.353	2.0.10.353	06-29-2016	6/29/2016 9:07:02 PM	17:07:02	2.0.10.248	52	Bar37-63.bmp	40	2	?	8r_4g.bmp	50r_4g.bmp	1r_2g.bmp	10r_2g.bmp		50r_4g.bmp			TrialProc	TrialList	0	cvbn	-999999	16	213071	0	v	507	213578	160	-245	-85	-20	-94	11	18	1	6	52	-8	-50	-1	-10	4	4	2	2	-50	4
Hungry_Donkey_bar_English_2	159	1	<?xml version="1.0"?>\n<Clock xmlns:dt="urn:schemas-microsoft-com:datatypes"><Description dt:dt="string">E-Prime Primary Realtime Clock</Description><StartTime><Timestamp dt:dt="int">0</Timestamp><DateUtc dt:dt="string">2016-06-29T21:07:01Z</DateUtc></StartTime><FrequencyChanges><FrequencyChange><Frequency dt:dt="r8">3507666</Frequency><Timestamp dt:dt="r8">77018354250</Timestamp><Current dt:dt="r8">0</Current><DateUtc dt:dt="string">2016-06-29T21:07:01Z</DateUtc></FrequencyChange></FrequencyChanges></Clock>\n	Hungry_Donkey_bar_English_2-159-1	60.017	-23	1.0.0.18	1	-290393151	Standard	2.0.10.353	2.0.10.353	06-29-2016	6/29/2016 9:07:02 PM	17:07:02	2.0.10.248	53	Bar37-63.bmp	40	4	?	0r_4g.bmp	0r_4g.bmp	0r_2g.bmp	0r_2g.bmp				0r_2g.bmp	TrialProc	TrialList	0	cvbn	-999999	16	215603	0	n	2551	218154	162	-245	-83	-20	-94	11	20	10	6	53	0	0	0	0	4	4	2	2	0	2
Hungry_Donkey_bar_English_2	159	1	<?xml version="1.0"?>\n<Clock xmlns:dt="urn:schemas-microsoft-com:datatypes"><Description dt:dt="string">E-Prime Primary Realtime Clock</Description><StartTime><Timestamp dt:dt="int">0</Timestamp><DateUtc dt:dt="string">2016-06-29T21:07:01Z</DateUtc></StartTime><FrequencyChanges><FrequencyChange><Frequency dt:dt="r8">3507666</Frequency><Timestamp dt:dt="r8">77018354250</Timestamp><Current dt:dt="r8">0</Current><DateUtc dt:dt="string">2016-06-29T21:07:01Z</DateUtc></FrequencyChange></FrequencyChanges></Clock>\n	Hungry_Donkey_bar_English_2-159-1	60.017	-23	1.0.0.18	1	-290393151	Standard	2.0.10.353	2.0.10.353	06-29-2016	6/29/2016 9:07:02 PM	17:07:02	2.0.10.248	54	Bar37-63.bmp	39	1	?	10r_4g.bmp	0r_4g.bmp	2r_2g.bmp	0r_2g.bmp	10r_4g.bmp				TrialProc	TrialList	0	cvbn	-999999	16	220185	0	c	161	220346	166	-255	-89	-26	-94	11	20	4	6	54	-10	0	-2	0	4	4	2	2	-10	4
Hungry_Donkey_bar_English_2	159	1	<?xml version="1.0"?>\n<Clock xmlns:dt="urn:schemas-microsoft-com:datatypes"><Description dt:dt="string">E-Prime Primary Realtime Clock</Description><StartTime><Timestamp dt:dt="int">0</Timestamp><DateUtc dt:dt="string">2016-06-29T21:07:01Z</DateUtc></StartTime><FrequencyChanges><FrequencyChange><Frequency dt:dt="r8">3507666</Frequency><Timestamp dt:dt="r8">77018354250</Timestamp><Current dt:dt="r8">0</Current><DateUtc dt:dt="string">2016-06-29T21:07:01Z</DateUtc></FrequencyChange></FrequencyChanges></Clock>\n	Hungry_Donkey_bar_English_2-159-1	60.017	-23	1.0.0.18	1	-290393151	Standard	2.0.10.353	2.0.10.353	06-29-2016	6/29/2016 9:07:02 PM	17:07:02	2.0.10.248	55	Bar37-63.bmp	40	3	?	0r_4g.bmp	0r_4g.bmp	0r_2g.bmp	0r_2g.bmp			0r_2g.bmp		TrialProc	TrialList	0	cvbn	-999999	16	222385	0	b	825	223210	168	-255	-87	-26	-94	13	20	6	6	55	0	0	0	0	4	4	2	2	0	2
Hungry_Donkey_bar_English_2	159	1	<?xml version="1.0"?>\n<Clock xmlns:dt="urn:schemas-microsoft-com:datatypes"><Description dt:dt="string">E-Prime Primary Realtime Clock</Description><StartTime><Timestamp dt:dt="int">0</Timestamp><DateUtc dt:dt="string">2016-06-29T21:07:01Z</DateUtc></StartTime><FrequencyChanges><FrequencyChange><Frequency dt:dt="r8">3507666</Frequency><Timestamp dt:dt="r8">77018354250</Timestamp><Current dt:dt="r8">0</Current><DateUtc dt:dt="string">2016-06-29T21:07:01Z</DateUtc></FrequencyChange></FrequencyChanges></Clock>\n	Hungry_Donkey_bar_English_2-159-1	60.017	-23	1.0.0.18	1	-290393151	Standard	2.0.10.353	2.0.10.353	06-29-2016	6/29/2016 9:07:02 PM	17:07:02	2.0.10.248	56	Bar37-63.bmp	40	4	?	10r_4g.bmp	0r_4g.bmp	2r_2g.bmp	0r_2g.bmp				0r_2g.bmp	TrialProc	TrialList	0	cvbn	-999999	16	225251	0	n	4214	229465	170	-255	-85	-26	-94	13	22	3	6	56	-10	0	-2	0	4	4	2	2	0	2
Hungry_Donkey_bar_English_2	159	1	<?xml version="1.0"?>\n<Clock xmlns:dt="urn:schemas-microsoft-com:datatypes"><Description dt:dt="string">E-Prime Primary Realtime Clock</Description><StartTime><Timestamp dt:dt="int">0</Timestamp><DateUtc dt:dt="string">2016-06-29T21:07:01Z</DateUtc></StartTime><FrequencyChanges><FrequencyChange><Frequency dt:dt="r8">3507666</Frequency><Timestamp dt:dt="r8">77018354250</Timestamp><Current dt:dt="r8">0</Current><DateUtc dt:dt="string">2016-06-29T21:07:01Z</DateUtc></FrequencyChange></FrequencyChanges></Clock>\n	Hungry_Donkey_bar_English_2-159-1	60.017	-23	1.0.0.18	1	-290393151	Standard	2.0.10.353	2.0.10.353	06-29-2016	6/29/2016 9:07:02 PM	17:07:02	2.0.10.248	57	Bar37-63.bmp	41	2	?	12r_4g.bmp	0r_4g.bmp	3r_2g.bmp	0r_2g.bmp		0r_4g.bmp			TrialProc	TrialList	0	cvbn	-999999	16	231499	0	v	174	231673	174	-255	-81	-26	-90	13	22	5	6	57	-12	0	-3	0	4	4	2	2	0	4
Hungry_Donkey_bar_English_2	159	1	<?xml version="1.0"?>\n<Clock xmlns:dt="urn:schemas-microsoft-com:datatypes"><Description dt:dt="string">E-Prime Primary Realtime Clock</Description><StartTime><Timestamp dt:dt="int">0</Timestamp><DateUtc dt:dt="string">2016-06-29T21:07:01Z</DateUtc></StartTime><FrequencyChanges><FrequencyChange><Frequency dt:dt="r8">3507666</Frequency><Timestamp dt:dt="r8">77018354250</Timestamp><Current dt:dt="r8">0</Current><DateUtc dt:dt="string">2016-06-29T21:07:01Z</DateUtc></FrequencyChange></FrequencyChanges></Clock>\n	Hungry_Donkey_bar_English_2-159-1	60.017	-23	1.0.0.18	1	-290393151	Standard	2.0.10.353	2.0.10.353	06-29-2016	6/29/2016 9:07:02 PM	17:07:02	2.0.10.248	58	Bar37-63.bmp	41	1	?	0r_4g.bmp	0r_4g.bmp	0r_2g.bmp	0r_2g.bmp	0r_4g.bmp				TrialProc	TrialList	0	cvbn	-999999	16	233715	0	c	646	234361	178	-255	-77	-22	-90	13	22	9	6	58	0	0	0	0	4	4	2	2	0	4
Hungry_Donkey_bar_English_2	159	1	<?xml version="1.0"?>\n<Clock xmlns:dt="urn:schemas-microsoft-com:datatypes"><Description dt:dt="string">E-Prime Primary Realtime Clock</Description><StartTime><Timestamp dt:dt="int">0</Timestamp><DateUtc dt:dt="string">2016-06-29T21:07:01Z</DateUtc></StartTime><FrequencyChanges><FrequencyChange><Frequency dt:dt="r8">3507666</Frequency><Timestamp dt:dt="r8">77018354250</Timestamp><Current dt:dt="r8">0</Current><DateUtc dt:dt="string">2016-06-29T21:07:01Z</DateUtc></FrequencyChange></FrequencyChanges></Clock>\n	Hungry_Donkey_bar_English_2-159-1	60.017	-23	1.0.0.18	1	-290393151	Standard	2.0.10.353	2.0.10.353	06-29-2016	6/29/2016 9:07:02 PM	17:07:02	2.0.10.248	59	Bar37-63.bmp	41	3	?	0r_4g.bmp	0r_4g.bmp	0r_2g.bmp	0r_2g.bmp			0r_2g.bmp		TrialProc	TrialList	0	cvbn	-999999	16	236397	0	b	460	236857	180	-255	-75	-22	-90	15	22	8	6	59	0	0	0	0	4	4	2	2	0	2
Hungry_Donkey_bar_English_2	159	1	<?xml version="1.0"?>\n<Clock xmlns:dt="urn:schemas-microsoft-com:datatypes"><Description dt:dt="string">E-Prime Primary Realtime Clock</Description><StartTime><Timestamp dt:dt="int">0</Timestamp><DateUtc dt:dt="string">2016-06-29T21:07:01Z</DateUtc></StartTime><FrequencyChanges><FrequencyChange><Frequency dt:dt="r8">3507666</Frequency><Timestamp dt:dt="r8">77018354250</Timestamp><Current dt:dt="r8">0</Current><DateUtc dt:dt="string">2016-06-29T21:07:01Z</DateUtc></FrequencyChange></FrequencyChanges></Clock>\n	Hungry_Donkey_bar_English_2-159-1	60.017	-23	1.0.0.18	1	-290393151	Standard	2.0.10.353	2.0.10.353	06-29-2016	6/29/2016 9:07:02 PM	17:07:02	2.0.10.248	60	Bar37-63.bmp	42	2	?	0r_4g.bmp	0r_4g.bmp	0r_2g.bmp	0r_2g.bmp		0r_4g.bmp			TrialProc	TrialList	0	cvbn	-999999	16	238897	0	v	184	239081	184	-255	-71	-22	-86	15	22	7	6	60	0	0	0	0	4	4	2	2	0	4
Hungry_Donkey_bar_English_2	159	1	<?xml version="1.0"?>\n<Clock xmlns:dt="urn:schemas-microsoft-com:datatypes"><Description dt:dt="string">E-Prime Primary Realtime Clock</Description><StartTime><Timestamp dt:dt="int">0</Timestamp><DateUtc dt:dt="string">2016-06-29T21:07:01Z</DateUtc></StartTime><FrequencyChanges><FrequencyChange><Frequency dt:dt="r8">3507666</Frequency><Timestamp dt:dt="r8">77018354250</Timestamp><Current dt:dt="r8">0</Current><DateUtc dt:dt="string">2016-06-29T21:07:01Z</DateUtc></FrequencyChange></FrequencyChanges></Clock>\n	Hungry_Donkey_bar_English_2-159-1	60.017	-23	1.0.0.18	1	-290393151	Standard	2.0.10.353	2.0.10.353	06-29-2016	6/29/2016 9:07:02 PM	17:07:02	2.0.10.248	61	Bar37-63.bmp	42	4	?	0r_4g.bmp	0r_4g.bmp	0r_2g.bmp	0r_2g.bmp				0r_2g.bmp	TrialProc	TrialList	0	cvbn	-999999	16	241113	0	n	272	241385	186	-255	-69	-22	-86	15	24	10	7	61	0	0	0	0	4	4	2	2	0	2
Hungry_Donkey_bar_English_2	159	1	<?xml version="1.0"?>\n<Clock xmlns:dt="urn:schemas-microsoft-com:datatypes"><Description dt:dt="string">E-Prime Primary Realtime Clock</Description><StartTime><Timestamp dt:dt="int">0</Timestamp><DateUtc dt:dt="string">2016-06-29T21:07:01Z</DateUtc></StartTime><FrequencyChanges><FrequencyChange><Frequency dt:dt="r8">3507666</Frequency><Timestamp dt:dt="r8">77018354250</Timestamp><Current dt:dt="r8">0</Current><DateUtc dt:dt="string">2016-06-29T21:07:01Z</DateUtc></FrequencyChange></FrequencyChanges></Clock>\n	Hungry_Donkey_bar_English_2-159-1	60.017	-23	1.0.0.18	1	-290393151	Standard	2.0.10.353	2.0.10.353	06-29-2016	6/29/2016 9:07:02 PM	17:07:02	2.0.10.248	62	Bar37-63.bmp	42	1	?	10r_4g.bmp	0r_4g.bmp	2r_2g.bmp	0r_2g.bmp	10r_4g.bmp				TrialProc	TrialList	0	cvbn	-999999	16	243412	0	c	85	243497	190	-265	-75	-28	-86	15	24	3	7	62	-10	0	-2	0	4	4	2	2	-10	4
Hungry_Donkey_bar_English_2	159	1	<?xml version="1.0"?>\n<Clock xmlns:dt="urn:schemas-microsoft-com:datatypes"><Description dt:dt="string">E-Prime Primary Realtime Clock</Description><StartTime><Timestamp dt:dt="int">0</Timestamp><DateUtc dt:dt="string">2016-06-29T21:07:01Z</DateUtc></StartTime><FrequencyChanges><FrequencyChange><Frequency dt:dt="r8">3507666</Frequency><Timestamp dt:dt="r8">77018354250</Timestamp><Current dt:dt="r8">0</Current><DateUtc dt:dt="string">2016-06-29T21:07:01Z</DateUtc></FrequencyChange></FrequencyChanges></Clock>\n	Hungry_Donkey_bar_English_2-159-1	60.017	-23	1.0.0.18	1	-290393151	Standard	2.0.10.353	2.0.10.353	06-29-2016	6/29/2016 9:07:02 PM	17:07:02	2.0.10.248	63	Bar37-63.bmp	42	3	?	12r_4g.bmp	0r_4g.bmp	3r_2g.bmp	0r_2g.bmp			3r_2g.bmp		TrialProc	TrialList	0	cvbn	-999999	16	245528	0	b	145	245673	192	-268	-76	-28	-86	14	24	5	7	63	-12	0	-3	0	4	4	2	2	-3	2
Hungry_Donkey_bar_English_2	159	1	<?xml version="1.0"?>\n<Clock xmlns:dt="urn:schemas-microsoft-com:datatypes"><Description dt:dt="string">E-Prime Primary Realtime Clock</Description><StartTime><Timestamp dt:dt="int">0</Timestamp><DateUtc dt:dt="string">2016-06-29T21:07:01Z</DateUtc></StartTime><FrequencyChanges><FrequencyChange><Frequency dt:dt="r8">3507666</Frequency><Timestamp dt:dt="r8">77018354250</Timestamp><Current dt:dt="r8">0</Current><DateUtc dt:dt="string">2016-06-29T21:07:01Z</DateUtc></FrequencyChange></FrequencyChanges></Clock>\n	Hungry_Donkey_bar_English_2-159-1	60.017	-23	1.0.0.18	1	-290393151	Standard	2.0.10.353	2.0.10.353	06-29-2016	6/29/2016 9:07:02 PM	17:07:02	2.0.10.248	64	Bar37-63.bmp	38	2	?	8r_4g.bmp	50r_4g.bmp	1r_2g.bmp	10r_2g.bmp		50r_4g.bmp			TrialProc	TrialList	0	cvbn	-999999	16	247711	0	v	1945	249656	196	-318	-122	-28	-132	14	24	1	7	64	-8	-50	-1	-10	4	4	2	2	-50	4
Hungry_Donkey_bar_English_2	159	1	<?xml version="1.0"?>\n<Clock xmlns:dt="urn:schemas-microsoft-com:datatypes"><Description dt:dt="string">E-Prime Primary Realtime Clock</Description><StartTime><Timestamp dt:dt="int">0</Timestamp><DateUtc dt:dt="string">2016-06-29T21:07:01Z</DateUtc></StartTime><FrequencyChanges><FrequencyChange><Frequency dt:dt="r8">3507666</Frequency><Timestamp dt:dt="r8">77018354250</Timestamp><Current dt:dt="r8">0</Current><DateUtc dt:dt="string">2016-06-29T21:07:01Z</DateUtc></FrequencyChange></FrequencyChanges></Clock>\n	Hungry_Donkey_bar_English_2-159-1	60.017	-23	1.0.0.18	1	-290393151	Standard	2.0.10.353	2.0.10.353	06-29-2016	6/29/2016 9:07:02 PM	17:07:02	2.0.10.248	65	Bar37-63.bmp	38	4	?	0r_4g.bmp	0r_4g.bmp	0r_2g.bmp	0r_2g.bmp				0r_2g.bmp	TrialProc	TrialList	0	cvbn	-999999	16	251693	0	n	2075	253768	198	-318	-120	-28	-132	14	26	8	7	65	0	0	0	0	4	4	2	2	0	2
Hungry_Donkey_bar_English_2	159	1	<?xml version="1.0"?>\n<Clock xmlns:dt="urn:schemas-microsoft-com:datatypes"><Description dt:dt="string">E-Prime Primary Realtime Clock</Description><StartTime><Timestamp dt:dt="int">0</Timestamp><DateUtc dt:dt="string">2016-06-29T21:07:01Z</DateUtc></StartTime><FrequencyChanges><FrequencyChange><Frequency dt:dt="r8">3507666</Frequency><Timestamp dt:dt="r8">77018354250</Timestamp><Current dt:dt="r8">0</Current><DateUtc dt:dt="string">2016-06-29T21:07:01Z</DateUtc></FrequencyChange></FrequencyChanges></Clock>\n	Hungry_Donkey_bar_English_2-159-1	60.017	-23	1.0.0.18	1	-290393151	Standard	2.0.10.353	2.0.10.353	06-29-2016	6/29/2016 9:07:02 PM	17:07:02	2.0.10.248	66	Bar37-63.bmp	39	3	?	0r_4g.bmp	0r_4g.bmp	0r_2g.bmp	0r_2g.bmp			0r_2g.bmp		TrialProc	TrialList	0	cvbn	-999999	15	255792	0	b	2584	258376	200	-318	-118	-28	-132	16	26	6	7	66	0	0	0	0	4	4	2	2	0	2
Hungry_Donkey_bar_English_2	159	1	<?xml version="1.0"?>\n<Clock xmlns:dt="urn:schemas-microsoft-com:datatypes"><Description dt:dt="string">E-Prime Primary Realtime Clock</Description><StartTime><Timestamp dt:dt="int">0</Timestamp><DateUtc dt:dt="string">2016-06-29T21:07:01Z</DateUtc></StartTime><FrequencyChanges><FrequencyChange><Frequency dt:dt="r8">3507666</Frequency><Timestamp dt:dt="r8">77018354250</Timestamp><Current dt:dt="r8">0</Current><DateUtc dt:dt="string">2016-06-29T21:07:01Z</DateUtc></FrequencyChange></FrequencyChanges></Clock>\n	Hungry_Donkey_bar_English_2-159-1	60.017	-23	1.0.0.18	1	-290393151	Standard	2.0.10.353	2.0.10.353	06-29-2016	6/29/2016 9:07:02 PM	17:07:02	2.0.10.248	67	Bar37-63.bmp	39	1	?	0r_4g.bmp	0r_4g.bmp	0r_2g.bmp	0r_2g.bmp	0r_4g.bmp				TrialProc	TrialList	0	cvbn	-999999	16	260407	0	c	1361	261768	204	-318	-114	-24	-132	16	26	9	7	67	0	0	0	0	4	4	2	2	0	4
Hungry_Donkey_bar_English_2	159	1	<?xml version="1.0"?>\n<Clock xmlns:dt="urn:schemas-microsoft-com:datatypes"><Description dt:dt="string">E-Prime Primary Realtime Clock</Description><StartTime><Timestamp dt:dt="int">0</Timestamp><DateUtc dt:dt="string">2016-06-29T21:07:01Z</DateUtc></StartTime><FrequencyChanges><FrequencyChange><Frequency dt:dt="r8">3507666</Frequency><Timestamp dt:dt="r8">77018354250</Timestamp><Current dt:dt="r8">0</Current><DateUtc dt:dt="string">2016-06-29T21:07:01Z</DateUtc></FrequencyChange></FrequencyChanges></Clock>\n	Hungry_Donkey_bar_English_2-159-1	60.017	-23	1.0.0.18	1	-290393151	Standard	2.0.10.353	2.0.10.353	06-29-2016	6/29/2016 9:07:02 PM	17:07:02	2.0.10.248	68	Bar37-63.bmp	39	3	?	10r_4g.bmp	0r_4g.bmp	2r_2g.bmp	0r_2g.bmp			2r_2g.bmp		TrialProc	TrialList	0	cvbn	-999999	16	263806	0	b	1930	265736	206	-320	-114	-24	-132	16	26	4	7	68	-10	0	-2	0	4	4	2	2	-2	2
Hungry_Donkey_bar_English_2	159	1	<?xml version="1.0"?>\n<Clock xmlns:dt="urn:schemas-microsoft-com:datatypes"><Description dt:dt="string">E-Prime Primary Realtime Clock</Description><StartTime><Timestamp dt:dt="int">0</Timestamp><DateUtc dt:dt="string">2016-06-29T21:07:01Z</DateUtc></StartTime><FrequencyChanges><FrequencyChange><Frequency dt:dt="r8">3507666</Frequency><Timestamp dt:dt="r8">77018354250</Timestamp><Current dt:dt="r8">0</Current><DateUtc dt:dt="string">2016-06-29T21:07:01Z</DateUtc></FrequencyChange></FrequencyChanges></Clock>\n	Hungry_Donkey_bar_English_2-159-1	60.017	-23	1.0.0.18	1	-290393151	Standard	2.0.10.353	2.0.10.353	06-29-2016	6/29/2016 9:07:02 PM	17:07:02	2.0.10.248	69	Bar37-63.bmp	39	4	?	10r_4g.bmp	0r_4g.bmp	2r_2g.bmp	0r_2g.bmp				0r_2g.bmp	TrialProc	TrialList	0	cvbn	-999999	16	267772	0	n	156	267928	208	-320	-112	-24	-132	16	28	2	7	69	-10	0	-2	0	4	4	2	2	0	2
Hungry_Donkey_bar_English_2	159	1	<?xml version="1.0"?>\n<Clock xmlns:dt="urn:schemas-microsoft-com:datatypes"><Description dt:dt="string">E-Prime Primary Realtime Clock</Description><StartTime><Timestamp dt:dt="int">0</Timestamp><DateUtc dt:dt="string">2016-06-29T21:07:01Z</DateUtc></StartTime><FrequencyChanges><FrequencyChange><Frequency dt:dt="r8">3507666</Frequency><Timestamp dt:dt="r8">77018354250</Timestamp><Current dt:dt="r8">0</Current><DateUtc dt:dt="string">2016-06-29T21:07:01Z</DateUtc></FrequencyChange></FrequencyChanges></Clock>\n	Hungry_Donkey_bar_English_2-159-1	60.017	-23	1.0.0.18	1	-290393151	Standard	2.0.10.353	2.0.10.353	06-29-2016	6/29/2016 9:07:02 PM	17:07:02	2.0.10.248	70	Bar37-63.bmp	40	3	?	0r_4g.bmp	0r_4g.bmp	0r_2g.bmp	0r_2g.bmp			0r_2g.bmp		TrialProc	TrialList	0	cvbn	-999999	16	269955	0	b	1220	271175	210	-320	-110	-24	-132	18	28	7	7	70	0	0	0	0	4	4	2	2	0	2
Hungry_Donkey_bar_English_2	159	1	<?xml version="1.0"?>\n<Clock xmlns:dt="urn:schemas-microsoft-com:datatypes"><Description dt:dt="string">E-Prime Primary Realtime Clock</Description><StartTime><Timestamp dt:dt="int">0</Timestamp><DateUtc dt:dt="string">2016-06-29T21:07:01Z</DateUtc></StartTime><FrequencyChanges><FrequencyChange><Frequency dt:dt="r8">3507666</Frequency><Timestamp dt:dt="r8">77018354250</Timestamp><Current dt:dt="r8">0</Current><DateUtc dt:dt="string">2016-06-29T21:07:01Z</DateUtc></FrequencyChange></FrequencyChanges></Clock>\n	Hungry_Donkey_bar_English_2-159-1	60.017	-23	1.0.0.18	1	-290393151	Standard	2.0.10.353	2.0.10.353	06-29-2016	6/29/2016 9:07:02 PM	17:07:02	2.0.10.248	71	Bar37-63.bmp	40	3	?	0r_4g.bmp	0r_4g.bmp	0r_2g.bmp	0r_2g.bmp			0r_2g.bmp		TrialProc	TrialList	0	cvbn	-999999	16	273204	0	b	67	273271	212	-320	-108	-24	-132	20	28	10	8	71	0	0	0	0	4	4	2	2	0	2
Hungry_Donkey_bar_English_2	159	1	<?xml version="1.0"?>\n<Clock xmlns:dt="urn:schemas-microsoft-com:datatypes"><Description dt:dt="string">E-Prime Primary Realtime Clock</Description><StartTime><Timestamp dt:dt="int">0</Timestamp><DateUtc dt:dt="string">2016-06-29T21:07:01Z</DateUtc></StartTime><FrequencyChanges><FrequencyChange><Frequency dt:dt="r8">3507666</Frequency><Timestamp dt:dt="r8">77018354250</Timestamp><Current dt:dt="r8">0</Current><DateUtc dt:dt="string">2016-06-29T21:07:01Z</DateUtc></FrequencyChange></FrequencyChanges></Clock>\n	Hungry_Donkey_bar_English_2-159-1	60.017	-23	1.0.0.18	1	-290393151	Standard	2.0.10.353	2.0.10.353	06-29-2016	6/29/2016 9:07:02 PM	17:07:02	2.0.10.248	72	Bar37-63.bmp	40	2	?	0r_4g.bmp	0r_4g.bmp	0r_2g.bmp	0r_2g.bmp		0r_4g.bmp			TrialProc	TrialList	0	cvbn	-999999	16	275303	0	v	2416	277719	216	-320	-104	-24	-128	20	28	8	8	72	0	0	0	0	4	4	2	2	0	4
Hungry_Donkey_bar_English_2	159	1	<?xml version="1.0"?>\n<Clock xmlns:dt="urn:schemas-microsoft-com:datatypes"><Description dt:dt="string">E-Prime Primary Realtime Clock</Description><StartTime><Timestamp dt:dt="int">0</Timestamp><DateUtc dt:dt="string">2016-06-29T21:07:01Z</DateUtc></StartTime><FrequencyChanges><FrequencyChange><Frequency dt:dt="r8">3507666</Frequency><Timestamp dt:dt="r8">77018354250</Timestamp><Current dt:dt="r8">0</Current><DateUtc dt:dt="string">2016-06-29T21:07:01Z</DateUtc></FrequencyChange></FrequencyChanges></Clock>\n	Hungry_Donkey_bar_English_2-159-1	60.017	-23	1.0.0.18	1	-290393151	Standard	2.0.10.353	2.0.10.353	06-29-2016	6/29/2016 9:07:02 PM	17:07:02	2.0.10.248	73	Bar37-63.bmp	40	1	?	10r_4g.bmp	0r_4g.bmp	2r_2g.bmp	0r_2g.bmp	10r_4g.bmp				TrialProc	TrialList	0	cvbn	-999999	16	279752	0	c	2319	282071	220	-330	-110	-30	-128	20	28	2	8	73	-10	0	-2	0	4	4	2	2	-10	4
Hungry_Donkey_bar_English_2	159	1	<?xml version="1.0"?>\n<Clock xmlns:dt="urn:schemas-microsoft-com:datatypes"><Description dt:dt="string">E-Prime Primary Realtime Clock</Description><StartTime><Timestamp dt:dt="int">0</Timestamp><DateUtc dt:dt="string">2016-06-29T21:07:01Z</DateUtc></StartTime><FrequencyChanges><FrequencyChange><Frequency dt:dt="r8">3507666</Frequency><Timestamp dt:dt="r8">77018354250</Timestamp><Current dt:dt="r8">0</Current><DateUtc dt:dt="string">2016-06-29T21:07:01Z</DateUtc></FrequencyChange></FrequencyChanges></Clock>\n	Hungry_Donkey_bar_English_2-159-1	60.017	-23	1.0.0.18	1	-290393151	Standard	2.0.10.353	2.0.10.353	06-29-2016	6/29/2016 9:07:02 PM	17:07:02	2.0.10.248	74	Bar37-63.bmp	40	3	?	8r_4g.bmp	50r_4g.bmp	1r_2g.bmp	10r_2g.bmp			1r_2g.bmp		TrialProc	TrialList	0	cvbn	-999999	17	284101	0	b	2594	286695	222	-331	-109	-30	-128	21	28	1	8	74	-8	-50	-1	-10	4	4	2	2	-1	2
Hungry_Donkey_bar_English_2	159	1	<?xml version="1.0"?>\n<Clock xmlns:dt="urn:schemas-microsoft-com:datatypes"><Description dt:dt="string">E-Prime Primary Realtime Clock</Description><StartTime><Timestamp dt:dt="int">0</Timestamp><DateUtc dt:dt="string">2016-06-29T21:07:01Z</DateUtc></StartTime><FrequencyChanges><FrequencyChange><Frequency dt:dt="r8">3507666</Frequency><Timestamp dt:dt="r8">77018354250</Timestamp><Current dt:dt="r8">0</Current><DateUtc dt:dt="string">2016-06-29T21:07:01Z</DateUtc></FrequencyChange></FrequencyChanges></Clock>\n	Hungry_Donkey_bar_English_2-159-1	60.017	-23	1.0.0.18	1	-290393151	Standard	2.0.10.353	2.0.10.353	06-29-2016	6/29/2016 9:07:02 PM	17:07:02	2.0.10.248	75	Bar37-63.bmp	40	4	?	10r_4g.bmp	0r_4g.bmp	2r_2g.bmp	0r_2g.bmp				0r_2g.bmp	TrialProc	TrialList	0	cvbn	-999999	16	288733	0	n	298	289031	224	-331	-107	-30	-128	21	30	3	8	75	-10	0	-2	0	4	4	2	2	0	2
Hungry_Donkey_bar_English_2	159	1	<?xml version="1.0"?>\n<Clock xmlns:dt="urn:schemas-microsoft-com:datatypes"><Description dt:dt="string">E-Prime Primary Realtime Clock</Description><StartTime><Timestamp dt:dt="int">0</Timestamp><DateUtc dt:dt="string">2016-06-29T21:07:01Z</DateUtc></StartTime><FrequencyChanges><FrequencyChange><Frequency dt:dt="r8">3507666</Frequency><Timestamp dt:dt="r8">77018354250</Timestamp><Current dt:dt="r8">0</Current><DateUtc dt:dt="string">2016-06-29T21:07:01Z</DateUtc></FrequencyChange></FrequencyChanges></Clock>\n	Hungry_Donkey_bar_English_2-159-1	60.017	-23	1.0.0.18	1	-290393151	Standard	2.0.10.353	2.0.10.353	06-29-2016	6/29/2016 9:07:02 PM	17:07:02	2.0.10.248	76	Bar37-63.bmp	40	1	?	12r_4g.bmp	0r_4g.bmp	3r_2g.bmp	0r_2g.bmp	12r_4g.bmp				TrialProc	TrialList	0	cvbn	-999999	16	291065	0	c	2813	293878	228	-343	-115	-38	-128	21	30	5	8	76	-12	0	-3	0	4	4	2	2	-12	4
Hungry_Donkey_bar_English_2	159	1	<?xml version="1.0"?>\n<Clock xmlns:dt="urn:schemas-microsoft-com:datatypes"><Description dt:dt="string">E-Prime Primary Realtime Clock</Description><StartTime><Timestamp dt:dt="int">0</Timestamp><DateUtc dt:dt="string">2016-06-29T21:07:01Z</DateUtc></StartTime><FrequencyChanges><FrequencyChange><Frequency dt:dt="r8">3507666</Frequency><Timestamp dt:dt="r8">77018354250</Timestamp><Current dt:dt="r8">0</Current><DateUtc dt:dt="string">2016-06-29T21:07:01Z</DateUtc></FrequencyChange></FrequencyChanges></Clock>\n	Hungry_Donkey_bar_English_2-159-1	60.017	-23	1.0.0.18	1	-290393151	Standard	2.0.10.353	2.0.10.353	06-29-2016	6/29/2016 9:07:02 PM	17:07:02	2.0.10.248	77	Bar37-63.bmp	40	2	?	0r_4g.bmp	0r_4g.bmp	0r_2g.bmp	0r_2g.bmp		0r_4g.bmp			TrialProc	TrialList	0	cvbn	-999999	16	295914	0	v	1116	297030	232	-343	-111	-38	-124	21	30	9	8	77	0	0	0	0	4	4	2	2	0	4
Hungry_Donkey_bar_English_2	159	1	<?xml version="1.0"?>\n<Clock xmlns:dt="urn:schemas-microsoft-com:datatypes"><Description dt:dt="string">E-Prime Primary Realtime Clock</Description><StartTime><Timestamp dt:dt="int">0</Timestamp><DateUtc dt:dt="string">2016-06-29T21:07:01Z</DateUtc></StartTime><FrequencyChanges><FrequencyChange><Frequency dt:dt="r8">3507666</Frequency><Timestamp dt:dt="r8">77018354250</Timestamp><Current dt:dt="r8">0</Current><DateUtc dt:dt="string">2016-06-29T21:07:01Z</DateUtc></FrequencyChange></FrequencyChanges></Clock>\n	Hungry_Donkey_bar_English_2-159-1	60.017	-23	1.0.0.18	1	-290393151	Standard	2.0.10.353	2.0.10.353	06-29-2016	6/29/2016 9:07:02 PM	17:07:02	2.0.10.248	78	Bar37-63.bmp	41	4	?	10r_4g.bmp	0r_4g.bmp	2r_2g.bmp	0r_2g.bmp				0r_2g.bmp	TrialProc	TrialList	0	cvbn	-999999	16	299063	0	n	63	299126	234	-343	-109	-38	-124	21	32	4	8	78	-10	0	-2	0	4	4	2	2	0	2
Hungry_Donkey_bar_English_2	159	1	<?xml version="1.0"?>\n<Clock xmlns:dt="urn:schemas-microsoft-com:datatypes"><Description dt:dt="string">E-Prime Primary Realtime Clock</Description><StartTime><Timestamp dt:dt="int">0</Timestamp><DateUtc dt:dt="string">2016-06-29T21:07:01Z</DateUtc></StartTime><FrequencyChanges><FrequencyChange><Frequency dt:dt="r8">3507666</Frequency><Timestamp dt:dt="r8">77018354250</Timestamp><Current dt:dt="r8">0</Current><DateUtc dt:dt="string">2016-06-29T21:07:01Z</DateUtc></FrequencyChange></FrequencyChanges></Clock>\n	Hungry_Donkey_bar_English_2-159-1	60.017	-23	1.0.0.18	1	-290393151	Standard	2.0.10.353	2.0.10.353	06-29-2016	6/29/2016 9:07:02 PM	17:07:02	2.0.10.248	79	Bar37-63.bmp	41	3	?	0r_4g.bmp	0r_4g.bmp	0r_2g.bmp	0r_2g.bmp			0r_2g.bmp		TrialProc	TrialList	0	cvbn	-999999	16	301162	0	b	28	301190	236	-343	-107	-38	-124	23	32	6	8	79	0	0	0	0	4	4	2	2	0	2
Hungry_Donkey_bar_English_2	159	1	<?xml version="1.0"?>\n<Clock xmlns:dt="urn:schemas-microsoft-com:datatypes"><Description dt:dt="string">E-Prime Primary Realtime Clock</Description><StartTime><Timestamp dt:dt="int">0</Timestamp><DateUtc dt:dt="string">2016-06-29T21:07:01Z</DateUtc></StartTime><FrequencyChanges><FrequencyChange><Frequency dt:dt="r8">3507666</Frequency><Timestamp dt:dt="r8">77018354250</Timestamp><Current dt:dt="r8">0</Current><DateUtc dt:dt="string">2016-06-29T21:07:01Z</DateUtc></FrequencyChange></FrequencyChanges></Clock>\n	Hungry_Donkey_bar_English_2-159-1	60.017	-23	1.0.0.18	1	-290393151	Standard	2.0.10.353	2.0.10.353	06-29-2016	6/29/2016 9:07:02 PM	17:07:02	2.0.10.248	80	Bar37-63.bmp	41	2	?	0r_4g.bmp	0r_4g.bmp	0r_2g.bmp	0r_2g.bmp		0r_4g.bmp			TrialProc	TrialList	0	cvbn	-999999	17	303229	0	v	601	303830	240	-343	-103	-38	-120	23	32	7	8	80	0	0	0	0	4	4	2	2	0	4
Hungry_Donkey_bar_English_2	159	1	<?xml version="1.0"?>\n<Clock xmlns:dt="urn:schemas-microsoft-com:datatypes"><Description dt:dt="string">E-Prime Primary Realtime Clock</Description><StartTime><Timestamp dt:dt="int">0</Timestamp><DateUtc dt:dt="string">2016-06-29T21:07:01Z</DateUtc></StartTime><FrequencyChanges><FrequencyChange><Frequency dt:dt="r8">3507666</Frequency><Timestamp dt:dt="r8">77018354250</Timestamp><Current dt:dt="r8">0</Current><DateUtc dt:dt="string">2016-06-29T21:07:01Z</DateUtc></FrequencyChange></FrequencyChanges></Clock>\n	Hungry_Donkey_bar_English_2-159-1	60.017	-23	1.0.0.18	1	-290393151	Standard	2.0.10.353	2.0.10.353	06-29-2016	6/29/2016 9:07:02 PM	17:07:02	2.0.10.248	81	Bar37-63.bmp	41	1	?	12r_4g.bmp	0r_4g.bmp	3r_2g.bmp	0r_2g.bmp	12r_4g.bmp				TrialProc	TrialList	0	cvbn	-999999	16	305861	0	c	177	306038	244	-355	-111	-46	-120	23	32	5	9	81	-12	0	-3	0	4	4	2	2	-12	4
Hungry_Donkey_bar_English_2	159	1	<?xml version="1.0"?>\n<Clock xmlns:dt="urn:schemas-microsoft-com:datatypes"><Description dt:dt="string">E-Prime Primary Realtime Clock</Description><StartTime><Timestamp dt:dt="int">0</Timestamp><DateUtc dt:dt="string">2016-06-29T21:07:01Z</DateUtc></StartTime><FrequencyChanges><FrequencyChange><Frequency dt:dt="r8">3507666</Frequency><Timestamp dt:dt="r8">77018354250</Timestamp><Current dt:dt="r8">0</Current><DateUtc dt:dt="string">2016-06-29T21:07:01Z</DateUtc></FrequencyChange></FrequencyChanges></Clock>\n	Hungry_Donkey_bar_English_2-159-1	60.017	-23	1.0.0.18	1	-290393151	Standard	2.0.10.353	2.0.10.353	06-29-2016	6/29/2016 9:07:02 PM	17:07:02	2.0.10.248	82	Bar37-63.bmp	41	4	?	0r_4g.bmp	0r_4g.bmp	0r_2g.bmp	0r_2g.bmp				0r_2g.bmp	TrialProc	TrialList	0	cvbn	-999999	16	308077	0	n	1049	309126	246	-355	-109	-46	-120	23	34	10	9	82	0	0	0	0	4	4	2	2	0	2
Hungry_Donkey_bar_English_2	159	1	<?xml version="1.0"?>\n<Clock xmlns:dt="urn:schemas-microsoft-com:datatypes"><Description dt:dt="string">E-Prime Primary Realtime Clock</Description><StartTime><Timestamp dt:dt="int">0</Timestamp><DateUtc dt:dt="string">2016-06-29T21:07:01Z</DateUtc></StartTime><FrequencyChanges><FrequencyChange><Frequency dt:dt="r8">3507666</Frequency><Timestamp dt:dt="r8">77018354250</Timestamp><Current dt:dt="r8">0</Current><DateUtc dt:dt="string">2016-06-29T21:07:01Z</DateUtc></FrequencyChange></FrequencyChanges></Clock>\n	Hungry_Donkey_bar_English_2-159-1	60.017	-23	1.0.0.18	1	-290393151	Standard	2.0.10.353	2.0.10.353	06-29-2016	6/29/2016 9:07:02 PM	17:07:02	2.0.10.248	83	Bar37-63.bmp	41	1	?	10r_4g.bmp	0r_4g.bmp	2r_2g.bmp	0r_2g.bmp	10r_4g.bmp				TrialProc	TrialList	0	cvbn	-999999	17	311160	0	c	574	311734	250	-365	-115	-52	-120	23	34	2	9	83	-10	0	-2	0	4	4	2	2	-10	4
Hungry_Donkey_bar_English_2	159	1	<?xml version="1.0"?>\n<Clock xmlns:dt="urn:schemas-microsoft-com:datatypes"><Description dt:dt="string">E-Prime Primary Realtime Clock</Description><StartTime><Timestamp dt:dt="int">0</Timestamp><DateUtc dt:dt="string">2016-06-29T21:07:01Z</DateUtc></StartTime><FrequencyChanges><FrequencyChange><Frequency dt:dt="r8">3507666</Frequency><Timestamp dt:dt="r8">77018354250</Timestamp><Current dt:dt="r8">0</Current><DateUtc dt:dt="string">2016-06-29T21:07:01Z</DateUtc></FrequencyChange></FrequencyChanges></Clock>\n	Hungry_Donkey_bar_English_2-159-1	60.017	-23	1.0.0.18	1	-290393151	Standard	2.0.10.353	2.0.10.353	06-29-2016	6/29/2016 9:07:02 PM	17:07:02	2.0.10.248	84	Bar37-63.bmp	41	3	?	10r_4g.bmp	0r_4g.bmp	2r_2g.bmp	0r_2g.bmp			2r_2g.bmp		TrialProc	TrialList	0	cvbn	-999999	16	313759	0	b	70	313829	252	-367	-115	-52	-120	23	34	4	9	84	-10	0	-2	0	4	4	2	2	-2	2
Hungry_Donkey_bar_English_2	159	1	<?xml version="1.0"?>\n<Clock xmlns:dt="urn:schemas-microsoft-com:datatypes"><Description dt:dt="string">E-Prime Primary Realtime Clock</Description><StartTime><Timestamp dt:dt="int">0</Timestamp><DateUtc dt:dt="string">2016-06-29T21:07:01Z</DateUtc></StartTime><FrequencyChanges><FrequencyChange><Frequency dt:dt="r8">3507666</Frequency><Timestamp dt:dt="r8">77018354250</Timestamp><Current dt:dt="r8">0</Current><DateUtc dt:dt="string">2016-06-29T21:07:01Z</DateUtc></FrequencyChange></FrequencyChanges></Clock>\n	Hungry_Donkey_bar_English_2-159-1	60.017	-23	1.0.0.18	1	-290393151	Standard	2.0.10.353	2.0.10.353	06-29-2016	6/29/2016 9:07:02 PM	17:07:02	2.0.10.248	85	Bar37-63.bmp	41	4	?	10r_4g.bmp	0r_4g.bmp	2r_2g.bmp	0r_2g.bmp				0r_2g.bmp	TrialProc	TrialList	0	cvbn	-999999	16	315858	0	n	883	316741	254	-367	-113	-52	-120	23	36	3	9	85	-10	0	-2	0	4	4	2	2	0	2
Hungry_Donkey_bar_English_2	159	1	<?xml version="1.0"?>\n<Clock xmlns:dt="urn:schemas-microsoft-com:datatypes"><Description dt:dt="string">E-Prime Primary Realtime Clock</Description><StartTime><Timestamp dt:dt="int">0</Timestamp><DateUtc dt:dt="string">2016-06-29T21:07:01Z</DateUtc></StartTime><FrequencyChanges><FrequencyChange><Frequency dt:dt="r8">3507666</Frequency><Timestamp dt:dt="r8">77018354250</Timestamp><Current dt:dt="r8">0</Current><DateUtc dt:dt="string">2016-06-29T21:07:01Z</DateUtc></FrequencyChange></FrequencyChanges></Clock>\n	Hungry_Donkey_bar_English_2-159-1	60.017	-23	1.0.0.18	1	-290393151	Standard	2.0.10.353	2.0.10.353	06-29-2016	6/29/2016 9:07:02 PM	17:07:02	2.0.10.248	86	Bar37-63.bmp	41	2	?	0r_4g.bmp	0r_4g.bmp	0r_2g.bmp	0r_2g.bmp		0r_4g.bmp			TrialProc	TrialList	0	cvbn	-999999	16	318774	0	v	175	318949	258	-367	-109	-52	-116	23	36	7	9	86	0	0	0	0	4	4	2	2	0	4
Hungry_Donkey_bar_English_2	159	1	<?xml version="1.0"?>\n<Clock xmlns:dt="urn:schemas-microsoft-com:datatypes"><Description dt:dt="string">E-Prime Primary Realtime Clock</Description><StartTime><Timestamp dt:dt="int">0</Timestamp><DateUtc dt:dt="string">2016-06-29T21:07:01Z</DateUtc></StartTime><FrequencyChanges><FrequencyChange><Frequency dt:dt="r8">3507666</Frequency><Timestamp dt:dt="r8">77018354250</Timestamp><Current dt:dt="r8">0</Current><DateUtc dt:dt="string">2016-06-29T21:07:01Z</DateUtc></FrequencyChange></FrequencyChanges></Clock>\n	Hungry_Donkey_bar_English_2-159-1	60.017	-23	1.0.0.18	1	-290393151	Standard	2.0.10.353	2.0.10.353	06-29-2016	6/29/2016 9:07:02 PM	17:07:02	2.0.10.248	87	Bar37-63.bmp	42	1	?	0r_4g.bmp	0r_4g.bmp	0r_2g.bmp	0r_2g.bmp	0r_4g.bmp				TrialProc	TrialList	0	cvbn	-999999	16	320973	0	c	1640	322613	262	-367	-105	-48	-116	23	36	9	9	87	0	0	0	0	4	4	2	2	0	4
Hungry_Donkey_bar_English_2	159	1	<?xml version="1.0"?>\n<Clock xmlns:dt="urn:schemas-microsoft-com:datatypes"><Description dt:dt="string">E-Prime Primary Realtime Clock</Description><StartTime><Timestamp dt:dt="int">0</Timestamp><DateUtc dt:dt="string">2016-06-29T21:07:01Z</DateUtc></StartTime><FrequencyChanges><FrequencyChange><Frequency dt:dt="r8">3507666</Frequency><Timestamp dt:dt="r8">77018354250</Timestamp><Current dt:dt="r8">0</Current><DateUtc dt:dt="string">2016-06-29T21:07:01Z</DateUtc></FrequencyChange></FrequencyChanges></Clock>\n	Hungry_Donkey_bar_English_2-159-1	60.017	-23	1.0.0.18	1	-290393151	Standard	2.0.10.353	2.0.10.353	06-29-2016	6/29/2016 9:07:02 PM	17:07:02	2.0.10.248	88	Bar37-63.bmp	41	4	?	8r_4g.bmp	50r_4g.bmp	1r_2g.bmp	10r_2g.bmp				10r_2g.bmp	TrialProc	TrialList	0	cvbn	-999999	16	324639	0	n	438	325077	264	-377	-113	-48	-116	23	28	1	9	88	-8	-50	-1	-10	4	4	2	2	-10	2
Hungry_Donkey_bar_English_2	159	1	<?xml version="1.0"?>\n<Clock xmlns:dt="urn:schemas-microsoft-com:datatypes"><Description dt:dt="string">E-Prime Primary Realtime Clock</Description><StartTime><Timestamp dt:dt="int">0</Timestamp><DateUtc dt:dt="string">2016-06-29T21:07:01Z</DateUtc></StartTime><FrequencyChanges><FrequencyChange><Frequency dt:dt="r8">3507666</Frequency><Timestamp dt:dt="r8">77018354250</Timestamp><Current dt:dt="r8">0</Current><DateUtc dt:dt="string">2016-06-29T21:07:01Z</DateUtc></FrequencyChange></FrequencyChanges></Clock>\n	Hungry_Donkey_bar_English_2-159-1	60.017	-23	1.0.0.18	1	-290393151	Standard	2.0.10.353	2.0.10.353	06-29-2016	6/29/2016 9:07:02 PM	17:07:02	2.0.10.248	89	Bar37-63.bmp	42	2	?	0r_4g.bmp	0r_4g.bmp	0r_2g.bmp	0r_2g.bmp		0r_4g.bmp			TrialProc	TrialList	0	cvbn	-999999	16	327105	0	v	692	327797	268	-377	-109	-48	-112	23	28	6	9	89	0	0	0	0	4	4	2	2	0	4
Hungry_Donkey_bar_English_2	159	1	<?xml version="1.0"?>\n<Clock xmlns:dt="urn:schemas-microsoft-com:datatypes"><Description dt:dt="string">E-Prime Primary Realtime Clock</Description><StartTime><Timestamp dt:dt="int">0</Timestamp><DateUtc dt:dt="string">2016-06-29T21:07:01Z</DateUtc></StartTime><FrequencyChanges><FrequencyChange><Frequency dt:dt="r8">3507666</Frequency><Timestamp dt:dt="r8">77018354250</Timestamp><Current dt:dt="r8">0</Current><DateUtc dt:dt="string">2016-06-29T21:07:01Z</DateUtc></FrequencyChange></FrequencyChanges></Clock>\n	Hungry_Donkey_bar_English_2-159-1	60.017	-23	1.0.0.18	1	-290393151	Standard	2.0.10.353	2.0.10.353	06-29-2016	6/29/2016 9:07:02 PM	17:07:02	2.0.10.248	90	Bar37-63.bmp	42	3	?	0r_4g.bmp	0r_4g.bmp	0r_2g.bmp	0r_2g.bmp			0r_2g.bmp		TrialProc	TrialList	0	cvbn	-999999	16	329821	0	b	280	330101	270	-377	-107	-48	-112	25	28	8	9	90	0	0	0	0	4	4	2	2	0	2
Hungry_Donkey_bar_English_2	159	1	<?xml version="1.0"?>\n<Clock xmlns:dt="urn:schemas-microsoft-com:datatypes"><Description dt:dt="string">E-Prime Primary Realtime Clock</Description><StartTime><Timestamp dt:dt="int">0</Timestamp><DateUtc dt:dt="string">2016-06-29T21:07:01Z</DateUtc></StartTime><FrequencyChanges><FrequencyChange><Frequency dt:dt="r8">3507666</Frequency><Timestamp dt:dt="r8">77018354250</Timestamp><Current dt:dt="r8">0</Current><DateUtc dt:dt="string">2016-06-29T21:07:01Z</DateUtc></FrequencyChange></FrequencyChanges></Clock>\n	Hungry_Donkey_bar_English_2-159-1	60.017	-23	1.0.0.18	1	-290393151	Standard	2.0.10.353	2.0.10.353	06-29-2016	6/29/2016 9:07:02 PM	17:07:02	2.0.10.248	91	Bar37-63.bmp	42	1	?	0r_4g.bmp	0r_4g.bmp	0r_2g.bmp	0r_2g.bmp	0r_4g.bmp				TrialProc	TrialList	0	cvbn	-999999	16	332137	0	c	188	332325	274	-377	-103	-44	-112	25	28	7	10	91	0	0	0	0	4	4	2	2	0	4
Hungry_Donkey_bar_English_2	159	1	<?xml version="1.0"?>\n<Clock xmlns:dt="urn:schemas-microsoft-com:datatypes"><Description dt:dt="string">E-Prime Primary Realtime Clock</Description><StartTime><Timestamp dt:dt="int">0</Timestamp><DateUtc dt:dt="string">2016-06-29T21:07:01Z</DateUtc></StartTime><FrequencyChanges><FrequencyChange><Frequency dt:dt="r8">3507666</Frequency><Timestamp dt:dt="r8">77018354250</Timestamp><Current dt:dt="r8">0</Current><DateUtc dt:dt="string">2016-06-29T21:07:01Z</DateUtc></FrequencyChange></FrequencyChanges></Clock>\n	Hungry_Donkey_bar_English_2-159-1	60.017	-23	1.0.0.18	1	-290393151	Standard	2.0.10.353	2.0.10.353	06-29-2016	6/29/2016 9:07:02 PM	17:07:02	2.0.10.248	92	Bar37-63.bmp	42	4	?	10r_4g.bmp	0r_4g.bmp	2r_2g.bmp	0r_2g.bmp				0r_2g.bmp	TrialProc	TrialList	0	cvbn	-999999	16	334353	0	n	947	335300	276	-377	-101	-44	-112	25	30	3	10	92	-10	0	-2	0	4	4	2	2	0	2
Hungry_Donkey_bar_English_2	159	1	<?xml version="1.0"?>\n<Clock xmlns:dt="urn:schemas-microsoft-com:datatypes"><Description dt:dt="string">E-Prime Primary Realtime Clock</Description><StartTime><Timestamp dt:dt="int">0</Timestamp><DateUtc dt:dt="string">2016-06-29T21:07:01Z</DateUtc></StartTime><FrequencyChanges><FrequencyChange><Frequency dt:dt="r8">3507666</Frequency><Timestamp dt:dt="r8">77018354250</Timestamp><Current dt:dt="r8">0</Current><DateUtc dt:dt="string">2016-06-29T21:07:01Z</DateUtc></FrequencyChange></FrequencyChanges></Clock>\n	Hungry_Donkey_bar_English_2-159-1	60.017	-23	1.0.0.18	1	-290393151	Standard	2.0.10.353	2.0.10.353	06-29-2016	6/29/2016 9:07:02 PM	17:07:02	2.0.10.248	93	Bar37-63.bmp	43	2	?	0r_4g.bmp	0r_4g.bmp	0r_2g.bmp	0r_2g.bmp		0r_4g.bmp			TrialProc	TrialList	0	cvbn	-999999	17	337336	0	v	364	337700	280	-377	-97	-44	-108	25	30	10	10	93	0	0	0	0	4	4	2	2	0	4
Hungry_Donkey_bar_English_2	159	1	<?xml version="1.0"?>\n<Clock xmlns:dt="urn:schemas-microsoft-com:datatypes"><Description dt:dt="string">E-Prime Primary Realtime Clock</Description><StartTime><Timestamp dt:dt="int">0</Timestamp><DateUtc dt:dt="string">2016-06-29T21:07:01Z</DateUtc></StartTime><FrequencyChanges><FrequencyChange><Frequency dt:dt="r8">3507666</Frequency><Timestamp dt:dt="r8">77018354250</Timestamp><Current dt:dt="r8">0</Current><DateUtc dt:dt="string">2016-06-29T21:07:01Z</DateUtc></FrequencyChange></FrequencyChanges></Clock>\n	Hungry_Donkey_bar_English_2-159-1	60.017	-23	1.0.0.18	1	-290393151	Standard	2.0.10.353	2.0.10.353	06-29-2016	6/29/2016 9:07:02 PM	17:07:02	2.0.10.248	94	Bar37-63.bmp	43	1	?	0r_4g.bmp	0r_4g.bmp	0r_2g.bmp	0r_2g.bmp	0r_4g.bmp				TrialProc	TrialList	0	cvbn	-999999	16	339735	0	c	717	340452	284	-377	-93	-40	-108	25	30	9	10	94	0	0	0	0	4	4	2	2	0	4
Hungry_Donkey_bar_English_2	159	1	<?xml version="1.0"?>\n<Clock xmlns:dt="urn:schemas-microsoft-com:datatypes"><Description dt:dt="string">E-Prime Primary Realtime Clock</Description><StartTime><Timestamp dt:dt="int">0</Timestamp><DateUtc dt:dt="string">2016-06-29T21:07:01Z</DateUtc></StartTime><FrequencyChanges><FrequencyChange><Frequency dt:dt="r8">3507666</Frequency><Timestamp dt:dt="r8">77018354250</Timestamp><Current dt:dt="r8">0</Current><DateUtc dt:dt="string">2016-06-29T21:07:01Z</DateUtc></FrequencyChange></FrequencyChanges></Clock>\n	Hungry_Donkey_bar_English_2-159-1	60.017	-23	1.0.0.18	1	-290393151	Standard	2.0.10.353	2.0.10.353	06-29-2016	6/29/2016 9:07:02 PM	17:07:02	2.0.10.248	95	Bar37-63.bmp	43	4	?	0r_4g.bmp	0r_4g.bmp	0r_2g.bmp	0r_2g.bmp				0r_2g.bmp	TrialProc	TrialList	0	cvbn	-999999	16	342484	0	n	80	342564	286	-377	-91	-40	-108	25	32	8	10	95	0	0	0	0	4	4	2	2	0	2
Hungry_Donkey_bar_English_2	159	1	<?xml version="1.0"?>\n<Clock xmlns:dt="urn:schemas-microsoft-com:datatypes"><Description dt:dt="string">E-Prime Primary Realtime Clock</Description><StartTime><Timestamp dt:dt="int">0</Timestamp><DateUtc dt:dt="string">2016-06-29T21:07:01Z</DateUtc></StartTime><FrequencyChanges><FrequencyChange><Frequency dt:dt="r8">3507666</Frequency><Timestamp dt:dt="r8">77018354250</Timestamp><Current dt:dt="r8">0</Current><DateUtc dt:dt="string">2016-06-29T21:07:01Z</DateUtc></FrequencyChange></FrequencyChanges></Clock>\n	Hungry_Donkey_bar_English_2-159-1	60.017	-23	1.0.0.18	1	-290393151	Standard	2.0.10.353	2.0.10.353	06-29-2016	6/29/2016 9:07:02 PM	17:07:02	2.0.10.248	96	Bar37-63.bmp	43	3	?	12r_4g.bmp	0r_4g.bmp	3r_2g.bmp	0r_2g.bmp			3r_2g.bmp		TrialProc	TrialList	0	cvbn	-999999	16	344600	0	b	1212	345812	288	-380	-92	-40	-108	24	32	5	10	96	-12	0	-3	0	4	4	2	2	-3	2
Hungry_Donkey_bar_English_2	159	1	<?xml version="1.0"?>\n<Clock xmlns:dt="urn:schemas-microsoft-com:datatypes"><Description dt:dt="string">E-Prime Primary Realtime Clock</Description><StartTime><Timestamp dt:dt="int">0</Timestamp><DateUtc dt:dt="string">2016-06-29T21:07:01Z</DateUtc></StartTime><FrequencyChanges><FrequencyChange><Frequency dt:dt="r8">3507666</Frequency><Timestamp dt:dt="r8">77018354250</Timestamp><Current dt:dt="r8">0</Current><DateUtc dt:dt="string">2016-06-29T21:07:01Z</DateUtc></FrequencyChange></FrequencyChanges></Clock>\n	Hungry_Donkey_bar_English_2-159-1	60.017	-23	1.0.0.18	1	-290393151	Standard	2.0.10.353	2.0.10.353	06-29-2016	6/29/2016 9:07:02 PM	17:07:02	2.0.10.248	97	Bar37-63.bmp	43	3	?	10r_4g.bmp	0r_4g.bmp	2r_2g.bmp	0r_2g.bmp			2r_2g.bmp		TrialProc	TrialList	0	cvbn	-999999	16	347849	0	b	43	347892	290	-382	-92	-40	-108	24	32	4	10	97	-10	0	-2	0	4	4	2	2	-2	2
Hungry_Donkey_bar_English_2	159	1	<?xml version="1.0"?>\n<Clock xmlns:dt="urn:schemas-microsoft-com:datatypes"><Description dt:dt="string">E-Prime Primary Realtime Clock</Description><StartTime><Timestamp dt:dt="int">0</Timestamp><DateUtc dt:dt="string">2016-06-29T21:07:01Z</DateUtc></StartTime><FrequencyChanges><FrequencyChange><Frequency dt:dt="r8">3507666</Frequency><Timestamp dt:dt="r8">77018354250</Timestamp><Current dt:dt="r8">0</Current><DateUtc dt:dt="string">2016-06-29T21:07:01Z</DateUtc></FrequencyChange></FrequencyChanges></Clock>\n	Hungry_Donkey_bar_English_2-159-1	60.017	-23	1.0.0.18	1	-290393151	Standard	2.0.10.353	2.0.10.353	06-29-2016	6/29/2016 9:07:02 PM	17:07:02	2.0.10.248	98	Bar37-63.bmp	43	2	?	0r_4g.bmp	0r_4g.bmp	0r_2g.bmp	0r_2g.bmp		0r_4g.bmp			TrialProc	TrialList	0	cvbn	-999999	15	349915	0	v	1737	351652	294	-382	-88	-40	-104	24	32	6	10	98	0	0	0	0	4	4	2	2	0	4
Hungry_Donkey_bar_English_2	159	1	<?xml version="1.0"?>\n<Clock xmlns:dt="urn:schemas-microsoft-com:datatypes"><Description dt:dt="string">E-Prime Primary Realtime Clock</Description><StartTime><Timestamp dt:dt="int">0</Timestamp><DateUtc dt:dt="string">2016-06-29T21:07:01Z</DateUtc></StartTime><FrequencyChanges><FrequencyChange><Frequency dt:dt="r8">3507666</Frequency><Timestamp dt:dt="r8">77018354250</Timestamp><Current dt:dt="r8">0</Current><DateUtc dt:dt="string">2016-06-29T21:07:01Z</DateUtc></FrequencyChange></FrequencyChanges></Clock>\n	Hungry_Donkey_bar_English_2-159-1	60.017	-23	1.0.0.18	1	-290393151	Standard	2.0.10.353	2.0.10.353	06-29-2016	6/29/2016 9:07:02 PM	17:07:02	2.0.10.248	99	Bar37-63.bmp	43	1	?	10r_4g.bmp	0r_4g.bmp	2r_2g.bmp	0r_2g.bmp	10r_4g.bmp				TrialProc	TrialList	0	cvbn	-999999	16	353681	0	c	595	354276	298	-392	-94	-46	-104	24	32	2	10	99	-10	0	-2	0	4	4	2	2	-10	4
Hungry_Donkey_bar_English_2	159	1	<?xml version="1.0"?>\n<Clock xmlns:dt="urn:schemas-microsoft-com:datatypes"><Description dt:dt="string">E-Prime Primary Realtime Clock</Description><StartTime><Timestamp dt:dt="int">0</Timestamp><DateUtc dt:dt="string">2016-06-29T21:07:01Z</DateUtc></StartTime><FrequencyChanges><FrequencyChange><Frequency dt:dt="r8">3507666</Frequency><Timestamp dt:dt="r8">77018354250</Timestamp><Current dt:dt="r8">0</Current><DateUtc dt:dt="string">2016-06-29T21:07:01Z</DateUtc></FrequencyChange></FrequencyChanges></Clock>\n	Hungry_Donkey_bar_English_2-159-1	60.017	-23	1.0.0.18	1	-290393151	Standard	2.0.10.353	2.0.10.353	06-29-2016	6/29/2016 9:07:02 PM	17:07:02	2.0.10.248	100	Bar37-63.bmp	43	4	?	8r_4g.bmp	50r_4g.bmp	1r_2g.bmp	10r_2g.bmp				10r_2g.bmp	TrialProc	TrialList	0	cvbn	-999999	16	356313	0	n	1082	357395	300	-402	-102	-46	-104	24	24	1	10	100	-8	-50	-1	-10	4	4	2	2	-10	2
Hungry_Donkey_bar_English_2	159	1	<?xml version="1.0"?>\n<Clock xmlns:dt="urn:schemas-microsoft-com:datatypes"><Description dt:dt="string">E-Prime Primary Realtime Clock</Description><StartTime><Timestamp dt:dt="int">0</Timestamp><DateUtc dt:dt="string">2016-06-29T21:07:01Z</DateUtc></StartTime><FrequencyChanges><FrequencyChange><Frequency dt:dt="r8">3507666</Frequency><Timestamp dt:dt="r8">77018354250</Timestamp><Current dt:dt="r8">0</Current><DateUtc dt:dt="string">2016-06-29T21:07:01Z</DateUtc></FrequencyChange></FrequencyChanges></Clock>\n	Hungry_Donkey_bar_English_2-159-1	60.017	-23	1.0.0.18	1	-290393151	Standard	2.0.10.353	2.0.10.353	06-29-2016	6/29/2016 9:07:02 PM	17:07:02	2.0.10.248	101	Bar37-63.bmp	43	3	?	0r_4g.bmp	0r_4g.bmp	0r_2g.bmp	0r_2g.bmp			0r_2g.bmp		TrialProc	TrialList	0	cvbn	-999999	16	359429	0	b	286	359715	302	-402	-100	-46	-104	26	24	10	11	101	0	0	0	0	4	4	2	2	0	2
Hungry_Donkey_bar_English_2	159	1	<?xml version="1.0"?>\n<Clock xmlns:dt="urn:schemas-microsoft-com:datatypes"><Description dt:dt="string">E-Prime Primary Realtime Clock</Description><StartTime><Timestamp dt:dt="int">0</Timestamp><DateUtc dt:dt="string">2016-06-29T21:07:01Z</DateUtc></StartTime><FrequencyChanges><FrequencyChange><Frequency dt:dt="r8">3507666</Frequency><Timestamp dt:dt="r8">77018354250</Timestamp><Current dt:dt="r8">0</Current><DateUtc dt:dt="string">2016-06-29T21:07:01Z</DateUtc></FrequencyChange></FrequencyChanges></Clock>\n	Hungry_Donkey_bar_English_2-159-1	60.017	-23	1.0.0.18	1	-290393151	Standard	2.0.10.353	2.0.10.353	06-29-2016	6/29/2016 9:07:02 PM	17:07:02	2.0.10.248	102	Bar37-63.bmp	43	2	?	10r_4g.bmp	0r_4g.bmp	2r_2g.bmp	0r_2g.bmp		0r_4g.bmp			TrialProc	TrialList	0	cvbn	-999999	16	361745	0	v	738	362483	306	-402	-96	-46	-100	26	24	3	11	102	-10	0	-2	0	4	4	2	2	0	4
Hungry_Donkey_bar_English_2	159	1	<?xml version="1.0"?>\n<Clock xmlns:dt="urn:schemas-microsoft-com:datatypes"><Description dt:dt="string">E-Prime Primary Realtime Clock</Description><StartTime><Timestamp dt:dt="int">0</Timestamp><DateUtc dt:dt="string">2016-06-29T21:07:01Z</DateUtc></StartTime><FrequencyChanges><FrequencyChange><Frequency dt:dt="r8">3507666</Frequency><Timestamp dt:dt="r8">77018354250</Timestamp><Current dt:dt="r8">0</Current><DateUtc dt:dt="string">2016-06-29T21:07:01Z</DateUtc></FrequencyChange></FrequencyChanges></Clock>\n	Hungry_Donkey_bar_English_2-159-1	60.017	-23	1.0.0.18	1	-290393151	Standard	2.0.10.353	2.0.10.353	06-29-2016	6/29/2016 9:07:02 PM	17:07:02	2.0.10.248	103	Bar37-63.bmp	43	1	?	10r_4g.bmp	0r_4g.bmp	2r_2g.bmp	0r_2g.bmp	10r_4g.bmp				TrialProc	TrialList	0	cvbn	-999999	16	364511	0	c	340	364851	310	-412	-102	-52	-100	26	24	2	11	103	-10	0	-2	0	4	4	2	2	-10	4
Hungry_Donkey_bar_English_2	159	1	<?xml version="1.0"?>\n<Clock xmlns:dt="urn:schemas-microsoft-com:datatypes"><Description dt:dt="string">E-Prime Primary Realtime Clock</Description><StartTime><Timestamp dt:dt="int">0</Timestamp><DateUtc dt:dt="string">2016-06-29T21:07:01Z</DateUtc></StartTime><FrequencyChanges><FrequencyChange><Frequency dt:dt="r8">3507666</Frequency><Timestamp dt:dt="r8">77018354250</Timestamp><Current dt:dt="r8">0</Current><DateUtc dt:dt="string">2016-06-29T21:07:01Z</DateUtc></FrequencyChange></FrequencyChanges></Clock>\n	Hungry_Donkey_bar_English_2-159-1	60.017	-23	1.0.0.18	1	-290393151	Standard	2.0.10.353	2.0.10.353	06-29-2016	6/29/2016 9:07:02 PM	17:07:02	2.0.10.248	104	Bar37-63.bmp	43	2	?	0r_4g.bmp	0r_4g.bmp	0r_2g.bmp	0r_2g.bmp		0r_4g.bmp			TrialProc	TrialList	0	cvbn	-999999	16	366894	0	v	1541	368435	314	-412	-98	-52	-96	26	24	9	11	104	0	0	0	0	4	4	2	2	0	4
Hungry_Donkey_bar_English_2	159	1	<?xml version="1.0"?>\n<Clock xmlns:dt="urn:schemas-microsoft-com:datatypes"><Description dt:dt="string">E-Prime Primary Realtime Clock</Description><StartTime><Timestamp dt:dt="int">0</Timestamp><DateUtc dt:dt="string">2016-06-29T21:07:01Z</DateUtc></StartTime><FrequencyChanges><FrequencyChange><Frequency dt:dt="r8">3507666</Frequency><Timestamp dt:dt="r8">77018354250</Timestamp><Current dt:dt="r8">0</Current><DateUtc dt:dt="string">2016-06-29T21:07:01Z</DateUtc></FrequencyChange></FrequencyChanges></Clock>\n	Hungry_Donkey_bar_English_2-159-1	60.017	-23	1.0.0.18	1	-290393151	Standard	2.0.10.353	2.0.10.353	06-29-2016	6/29/2016 9:07:02 PM	17:07:02	2.0.10.248	105	Bar37-63.bmp	43	3	?	12r_4g.bmp	0r_4g.bmp	3r_2g.bmp	0r_2g.bmp			3r_2g.bmp		TrialProc	TrialList	0	cvbn	-999999	16	370459	0	b	616	371075	316	-415	-99	-52	-96	25	24	5	11	105	-12	0	-3	0	4	4	2	2	-3	2
Hungry_Donkey_bar_English_2	159	1	<?xml version="1.0"?>\n<Clock xmlns:dt="urn:schemas-microsoft-com:datatypes"><Description dt:dt="string">E-Prime Primary Realtime Clock</Description><StartTime><Timestamp dt:dt="int">0</Timestamp><DateUtc dt:dt="string">2016-06-29T21:07:01Z</DateUtc></StartTime><FrequencyChanges><FrequencyChange><Frequency dt:dt="r8">3507666</Frequency><Timestamp dt:dt="r8">77018354250</Timestamp><Current dt:dt="r8">0</Current><DateUtc dt:dt="string">2016-06-29T21:07:01Z</DateUtc></FrequencyChange></FrequencyChanges></Clock>\n	Hungry_Donkey_bar_English_2-159-1	60.017	-23	1.0.0.18	1	-290393151	Standard	2.0.10.353	2.0.10.353	06-29-2016	6/29/2016 9:07:02 PM	17:07:02	2.0.10.248	106	Bar50-50.bmp	44	2	?	10r_4g.bmp	0r_4g.bmp	2r_2g.bmp	0r_2g.bmp		0r_4g.bmp			TrialProc	TrialList	0	cvbn	-999999	16	373109	0	v	2206	375315	320	-415	-95	-52	-92	25	24	4	11	106	-10	0	-2	0	4	4	2	2	0	4
Hungry_Donkey_bar_English_2	159	1	<?xml version="1.0"?>\n<Clock xmlns:dt="urn:schemas-microsoft-com:datatypes"><Description dt:dt="string">E-Prime Primary Realtime Clock</Description><StartTime><Timestamp dt:dt="int">0</Timestamp><DateUtc dt:dt="string">2016-06-29T21:07:01Z</DateUtc></StartTime><FrequencyChanges><FrequencyChange><Frequency dt:dt="r8">3507666</Frequency><Timestamp dt:dt="r8">77018354250</Timestamp><Current dt:dt="r8">0</Current><DateUtc dt:dt="string">2016-06-29T21:07:01Z</DateUtc></FrequencyChange></FrequencyChanges></Clock>\n	Hungry_Donkey_bar_English_2-159-1	60.017	-23	1.0.0.18	1	-290393151	Standard	2.0.10.353	2.0.10.353	06-29-2016	6/29/2016 9:07:02 PM	17:07:02	2.0.10.248	107	Bar50-50.bmp	44	4	?	0r_4g.bmp	0r_4g.bmp	0r_2g.bmp	0r_2g.bmp				0r_2g.bmp	TrialProc	TrialList	0	cvbn	-999999	16	377341	0	n	518	377859	322	-415	-93	-52	-92	25	26	6	11	107	0	0	0	0	4	4	2	2	0	2
Hungry_Donkey_bar_English_2	159	1	<?xml version="1.0"?>\n<Clock xmlns:dt="urn:schemas-microsoft-com:datatypes"><Description dt:dt="string">E-Prime Primary Realtime Clock</Description><StartTime><Timestamp dt:dt="int">0</Timestamp><DateUtc dt:dt="string">2016-06-29T21:07:01Z</DateUtc></StartTime><FrequencyChanges><FrequencyChange><Frequency dt:dt="r8">3507666</Frequency><Timestamp dt:dt="r8">77018354250</Timestamp><Current dt:dt="r8">0</Current><DateUtc dt:dt="string">2016-06-29T21:07:01Z</DateUtc></FrequencyChange></FrequencyChanges></Clock>\n	Hungry_Donkey_bar_English_2-159-1	60.017	-23	1.0.0.18	1	-290393151	Standard	2.0.10.353	2.0.10.353	06-29-2016	6/29/2016 9:07:02 PM	17:07:02	2.0.10.248	108	Bar50-50.bmp	44	1	?	8r_4g.bmp	50r_4g.bmp	1r_2g.bmp	10r_2g.bmp	8r_4g.bmp				TrialProc	TrialList	0	cvbn	-999999	16	379890	0	c	0	379890	326	-423	-97	-56	-92	25	26	1	11	108	-8	-50	-1	-10	4	4	2	2	-8	4
Hungry_Donkey_bar_English_2	159	1	<?xml version="1.0"?>\n<Clock xmlns:dt="urn:schemas-microsoft-com:datatypes"><Description dt:dt="string">E-Prime Primary Realtime Clock</Description><StartTime><Timestamp dt:dt="int">0</Timestamp><DateUtc dt:dt="string">2016-06-29T21:07:01Z</DateUtc></StartTime><FrequencyChanges><FrequencyChange><Frequency dt:dt="r8">3507666</Frequency><Timestamp dt:dt="r8">77018354250</Timestamp><Current dt:dt="r8">0</Current><DateUtc dt:dt="string">2016-06-29T21:07:01Z</DateUtc></FrequencyChange></FrequencyChanges></Clock>\n	Hungry_Donkey_bar_English_2-159-1	60.017	-23	1.0.0.18	1	-290393151	Standard	2.0.10.353	2.0.10.353	06-29-2016	6/29/2016 9:07:02 PM	17:07:02	2.0.10.248	109	Bar50-50.bmp	44	2	?	0r_4g.bmp	0r_4g.bmp	0r_2g.bmp	0r_2g.bmp		0r_4g.bmp			TrialProc	TrialList	0	cvbn	-999999	16	381923	0	v	15	381938	330	-423	-93	-56	-88	25	26	8	11	109	0	0	0	0	4	4	2	2	0	4
Hungry_Donkey_bar_English_2	159	1	<?xml version="1.0"?>\n<Clock xmlns:dt="urn:schemas-microsoft-com:datatypes"><Description dt:dt="string">E-Prime Primary Realtime Clock</Description><StartTime><Timestamp dt:dt="int">0</Timestamp><DateUtc dt:dt="string">2016-06-29T21:07:01Z</DateUtc></StartTime><FrequencyChanges><FrequencyChange><Frequency dt:dt="r8">3507666</Frequency><Timestamp dt:dt="r8">77018354250</Timestamp><Current dt:dt="r8">0</Current><DateUtc dt:dt="string">2016-06-29T21:07:01Z</DateUtc></FrequencyChange></FrequencyChanges></Clock>\n	Hungry_Donkey_bar_English_2-159-1	60.017	-23	1.0.0.18	1	-290393151	Standard	2.0.10.353	2.0.10.353	06-29-2016	6/29/2016 9:07:02 PM	17:07:02	2.0.10.248	110	Bar50-50.bmp	44	4	?	0r_4g.bmp	0r_4g.bmp	0r_2g.bmp	0r_2g.bmp				0r_2g.bmp	TrialProc	TrialList	0	cvbn	-999999	16	383972	0	n	606	384578	332	-423	-91	-56	-88	25	28	7	11	110	0	0	0	0	4	4	2	2	0	2
Hungry_Donkey_bar_English_2	159	1	<?xml version="1.0"?>\n<Clock xmlns:dt="urn:schemas-microsoft-com:datatypes"><Description dt:dt="string">E-Prime Primary Realtime Clock</Description><StartTime><Timestamp dt:dt="int">0</Timestamp><DateUtc dt:dt="string">2016-06-29T21:07:01Z</DateUtc></StartTime><FrequencyChanges><FrequencyChange><Frequency dt:dt="r8">3507666</Frequency><Timestamp dt:dt="r8">77018354250</Timestamp><Current dt:dt="r8">0</Current><DateUtc dt:dt="string">2016-06-29T21:07:01Z</DateUtc></FrequencyChange></FrequencyChanges></Clock>\n	Hungry_Donkey_bar_English_2-159-1	60.017	-23	1.0.0.18	1	-290393151	Standard	2.0.10.353	2.0.10.353	06-29-2016	6/29/2016 9:07:02 PM	17:07:02	2.0.10.248	111	Bar50-50.bmp	44	3	?	10r_4g.bmp	0r_4g.bmp	2r_2g.bmp	0r_2g.bmp			2r_2g.bmp		TrialProc	TrialList	0	cvbn	-999999	16	386605	0	b	101	386706	334	-425	-91	-56	-88	25	28	2	12	111	-10	0	-2	0	4	4	2	2	-2	2
