ExperimentName	Subject	Session	Clock.Information	DataFile.Basename	Display.RefreshRate	Eindtotaal[Session]	ExperimentVersion	Group	RandomSeed	RuntimeCapabilities	RuntimeVersion	RuntimeVersionExpected	SessionDate	SessionStartDateTimeUtc	SessionTime	StudioVersion	Block	BarImage	BarTotalWinst	DoorChoice	Eindtotaal[Block]	FBDoor1	FBDoor2	FBDoor3	FBDoor4	Image1	Image2	Image3	Image4	Procedure	Running	spel.ACC	spel.CRESP	spel.DurationError	spel.OnsetDelay	spel.OnsetTime	spel.OnsetToOnsetTime	spel.RESP	spel.RT	spel.RTTime	TotalGain	TotalLose	Totalsum	TotalsumD1	TotalsumD2	TotalsumD3	TotalsumD4	TrialList	TrialList.Cycle	TrialList.Sample	varV1	varV2	varV3	varV4	varW1	varW2	varW3	varW4	Verliesbedrag	Winstbedrag
Hungry_Donkey_bar_English_2	112	3	<?xml version="1.0"?>\n<Clock xmlns:dt="urn:schemas-microsoft-com:datatypes"><Description dt:dt="string">E-Prime Primary Realtime Clock</Description><StartTime><Timestamp dt:dt="int">0</Timestamp><DateUtc dt:dt="string">2015-06-17T20:32:03Z</DateUtc></StartTime><FrequencyChanges><FrequencyChange><Frequency dt:dt="r8">3507685</Frequency><Timestamp dt:dt="r8">49702672229</Timestamp><Current dt:dt="r8">0</Current><DateUtc dt:dt="string">2015-06-17T20:32:03Z</DateUtc></FrequencyChange></FrequencyChanges></Clock>\n	Hungry_Donkey_bar_English_2-112-3	60.017	-20	1.0.0.18	1	-1836707147	Standard	2.0.10.353	2.0.10.353	06-17-2015	6/17/2015 8:32:03 PM	16:32:03	2.0.10.248	1	Bar100-0.bmp	100	2	?	10r_4g.bmp	0r_4g.bmp	2r_2g.bmp	0r_2g.bmp		0r_4g.bmp			TrialProc	TrialList	0	cvbn	-999999	18	67234	0	v	5614	72848	4	0	4	0	4	0	0	4	1	1	-10	0	-2	0	4	4	2	2	0	4
Hungry_Donkey_bar_English_2	112	3	<?xml version="1.0"?>\n<Clock xmlns:dt="urn:schemas-microsoft-com:datatypes"><Description dt:dt="string">E-Prime Primary Realtime Clock</Description><StartTime><Timestamp dt:dt="int">0</Timestamp><DateUtc dt:dt="string">2015-06-17T20:32:03Z</DateUtc></StartTime><FrequencyChanges><FrequencyChange><Frequency dt:dt="r8">3507685</Frequency><Timestamp dt:dt="r8">49702672229</Timestamp><Current dt:dt="r8">0</Current><DateUtc dt:dt="string">2015-06-17T20:32:03Z</DateUtc></FrequencyChange></FrequencyChanges></Clock>\n	Hungry_Donkey_bar_English_2-112-3	60.017	-20	1.0.0.18	1	-1836707147	Standard	2.0.10.353	2.0.10.353	06-17-2015	6/17/2015 8:32:03 PM	16:32:03	2.0.10.248	2	Bar50-50.bmp	50	1	?	8r_4g.bmp	50r_4g.bmp	1r_2g.bmp	10r_2g.bmp	8r_4g.bmp				TrialProc	TrialList	0	cvbn	-999999	16	74882	0	c	2205	77087	8	-8	0	-4	4	0	0	1	1	2	-8	-50	-1	-10	4	4	2	2	-8	4
Hungry_Donkey_bar_English_2	112	3	<?xml version="1.0"?>\n<Clock xmlns:dt="urn:schemas-microsoft-com:datatypes"><Description dt:dt="string">E-Prime Primary Realtime Clock</Description><StartTime><Timestamp dt:dt="int">0</Timestamp><DateUtc dt:dt="string">2015-06-17T20:32:03Z</DateUtc></StartTime><FrequencyChanges><FrequencyChange><Frequency dt:dt="r8">3507685</Frequency><Timestamp dt:dt="r8">49702672229</Timestamp><Current dt:dt="r8">0</Current><DateUtc dt:dt="string">2015-06-17T20:32:03Z</DateUtc></FrequencyChange></FrequencyChanges></Clock>\n	Hungry_Donkey_bar_English_2-112-3	60.017	-20	1.0.0.18	1	-1836707147	Standard	2.0.10.353	2.0.10.353	06-17-2015	6/17/2015 8:32:03 PM	16:32:03	2.0.10.248	3	Bar50-50.bmp	56	4	?	0r_4g.bmp	0r_4g.bmp	0r_2g.bmp	0r_2g.bmp				0r_2g.bmp	TrialProc	TrialList	0	cvbn	-999999	17	79131	0	n	3156	82287	10	-8	2	-4	4	0	2	7	1	3	0	0	0	0	4	4	2	2	0	2
Hungry_Donkey_bar_English_2	112	3	<?xml version="1.0"?>\n<Clock xmlns:dt="urn:schemas-microsoft-com:datatypes"><Description dt:dt="string">E-Prime Primary Realtime Clock</Description><StartTime><Timestamp dt:dt="int">0</Timestamp><DateUtc dt:dt="string">2015-06-17T20:32:03Z</DateUtc></StartTime><FrequencyChanges><FrequencyChange><Frequency dt:dt="r8">3507685</Frequency><Timestamp dt:dt="r8">49702672229</Timestamp><Current dt:dt="r8">0</Current><DateUtc dt:dt="string">2015-06-17T20:32:03Z</DateUtc></FrequencyChange></FrequencyChanges></Clock>\n	Hungry_Donkey_bar_English_2-112-3	60.017	-20	1.0.0.18	1	-1836707147	Standard	2.0.10.353	2.0.10.353	06-17-2015	6/17/2015 8:32:03 PM	16:32:03	2.0.10.248	4	Bar63-37.bmp	64	2	?	10r_4g.bmp	0r_4g.bmp	2r_2g.bmp	0r_2g.bmp		0r_4g.bmp			TrialProc	TrialList	0	cvbn	-999999	16	84329	0	v	1990	86319	14	-8	6	-4	8	0	2	3	1	4	-10	0	-2	0	4	4	2	2	0	4
Hungry_Donkey_bar_English_2	112	3	<?xml version="1.0"?>\n<Clock xmlns:dt="urn:schemas-microsoft-com:datatypes"><Description dt:dt="string">E-Prime Primary Realtime Clock</Description><StartTime><Timestamp dt:dt="int">0</Timestamp><DateUtc dt:dt="string">2015-06-17T20:32:03Z</DateUtc></StartTime><FrequencyChanges><FrequencyChange><Frequency dt:dt="r8">3507685</Frequency><Timestamp dt:dt="r8">49702672229</Timestamp><Current dt:dt="r8">0</Current><DateUtc dt:dt="string">2015-06-17T20:32:03Z</DateUtc></FrequencyChange></FrequencyChanges></Clock>\n	Hungry_Donkey_bar_English_2-112-3	60.017	-20	1.0.0.18	1	-1836707147	Standard	2.0.10.353	2.0.10.353	06-17-2015	6/17/2015 8:32:03 PM	16:32:03	2.0.10.248	5	Bar63-37.bmp	59	3	?	12r_4g.bmp	0r_4g.bmp	3r_2g.bmp	0r_2g.bmp			3r_2g.bmp		TrialProc	TrialList	0	cvbn	-999999	16	88361	0	b	2950	91311	16	-11	5	-4	8	-1	2	5	1	5	-12	0	-3	0	4	4	2	2	-3	2
Hungry_Donkey_bar_English_2	112	3	<?xml version="1.0"?>\n<Clock xmlns:dt="urn:schemas-microsoft-com:datatypes"><Description dt:dt="string">E-Prime Primary Realtime Clock</Description><StartTime><Timestamp dt:dt="int">0</Timestamp><DateUtc dt:dt="string">2015-06-17T20:32:03Z</DateUtc></StartTime><FrequencyChanges><FrequencyChange><Frequency dt:dt="r8">3507685</Frequency><Timestamp dt:dt="r8">49702672229</Timestamp><Current dt:dt="r8">0</Current><DateUtc dt:dt="string">2015-06-17T20:32:03Z</DateUtc></FrequencyChange></FrequencyChanges></Clock>\n	Hungry_Donkey_bar_English_2-112-3	60.017	-20	1.0.0.18	1	-1836707147	Standard	2.0.10.353	2.0.10.353	06-17-2015	6/17/2015 8:32:03 PM	16:32:03	2.0.10.248	6	Bar63-37.bmp	65	2	?	0r_4g.bmp	0r_4g.bmp	0r_2g.bmp	0r_2g.bmp		0r_4g.bmp			TrialProc	TrialList	0	cvbn	-999999	16	93343	0	v	1792	95135	20	-11	9	-4	12	-1	2	8	1	6	0	0	0	0	4	4	2	2	0	4
Hungry_Donkey_bar_English_2	112	3	<?xml version="1.0"?>\n<Clock xmlns:dt="urn:schemas-microsoft-com:datatypes"><Description dt:dt="string">E-Prime Primary Realtime Clock</Description><StartTime><Timestamp dt:dt="int">0</Timestamp><DateUtc dt:dt="string">2015-06-17T20:32:03Z</DateUtc></StartTime><FrequencyChanges><FrequencyChange><Frequency dt:dt="r8">3507685</Frequency><Timestamp dt:dt="r8">49702672229</Timestamp><Current dt:dt="r8">0</Current><DateUtc dt:dt="string">2015-06-17T20:32:03Z</DateUtc></FrequencyChange></FrequencyChanges></Clock>\n	Hungry_Donkey_bar_English_2-112-3	60.017	-20	1.0.0.18	1	-1836707147	Standard	2.0.10.353	2.0.10.353	06-17-2015	6/17/2015 8:32:03 PM	16:32:03	2.0.10.248	7	Bar63-37.bmp	69	2	?	0r_4g.bmp	0r_4g.bmp	0r_2g.bmp	0r_2g.bmp		0r_4g.bmp			TrialProc	TrialList	0	cvbn	-999999	16	97159	0	v	1143	98302	24	-11	13	-4	16	-1	2	6	1	7	0	0	0	0	4	4	2	2	0	4
Hungry_Donkey_bar_English_2	112	3	<?xml version="1.0"?>\n<Clock xmlns:dt="urn:schemas-microsoft-com:datatypes"><Description dt:dt="string">E-Prime Primary Realtime Clock</Description><StartTime><Timestamp dt:dt="int">0</Timestamp><DateUtc dt:dt="string">2015-06-17T20:32:03Z</DateUtc></StartTime><FrequencyChanges><FrequencyChange><Frequency dt:dt="r8">3507685</Frequency><Timestamp dt:dt="r8">49702672229</Timestamp><Current dt:dt="r8">0</Current><DateUtc dt:dt="string">2015-06-17T20:32:03Z</DateUtc></FrequencyChange></FrequencyChanges></Clock>\n	Hungry_Donkey_bar_English_2-112-3	60.017	-20	1.0.0.18	1	-1836707147	Standard	2.0.10.353	2.0.10.353	06-17-2015	6/17/2015 8:32:03 PM	16:32:03	2.0.10.248	8	Bar75-25.bmp	72	2	?	0r_4g.bmp	0r_4g.bmp	0r_2g.bmp	0r_2g.bmp		0r_4g.bmp			TrialProc	TrialList	0	cvbn	-999999	16	100341	0	v	393	100734	28	-11	17	-4	20	-1	2	10	1	8	0	0	0	0	4	4	2	2	0	4
Hungry_Donkey_bar_English_2	112	3	<?xml version="1.0"?>\n<Clock xmlns:dt="urn:schemas-microsoft-com:datatypes"><Description dt:dt="string">E-Prime Primary Realtime Clock</Description><StartTime><Timestamp dt:dt="int">0</Timestamp><DateUtc dt:dt="string">2015-06-17T20:32:03Z</DateUtc></StartTime><FrequencyChanges><FrequencyChange><Frequency dt:dt="r8">3507685</Frequency><Timestamp dt:dt="r8">49702672229</Timestamp><Current dt:dt="r8">0</Current><DateUtc dt:dt="string">2015-06-17T20:32:03Z</DateUtc></FrequencyChange></FrequencyChanges></Clock>\n	Hungry_Donkey_bar_English_2-112-3	60.017	-20	1.0.0.18	1	-1836707147	Standard	2.0.10.353	2.0.10.353	06-17-2015	6/17/2015 8:32:03 PM	16:32:03	2.0.10.248	9	Bar75-25.bmp	74	2	?	0r_4g.bmp	0r_4g.bmp	0r_2g.bmp	0r_2g.bmp		0r_4g.bmp			TrialProc	TrialList	0	cvbn	-999999	16	102774	0	v	696	103470	32	-11	21	-4	24	-1	2	9	1	9	0	0	0	0	4	4	2	2	0	4
Hungry_Donkey_bar_English_2	112	3	<?xml version="1.0"?>\n<Clock xmlns:dt="urn:schemas-microsoft-com:datatypes"><Description dt:dt="string">E-Prime Primary Realtime Clock</Description><StartTime><Timestamp dt:dt="int">0</Timestamp><DateUtc dt:dt="string">2015-06-17T20:32:03Z</DateUtc></StartTime><FrequencyChanges><FrequencyChange><Frequency dt:dt="r8">3507685</Frequency><Timestamp dt:dt="r8">49702672229</Timestamp><Current dt:dt="r8">0</Current><DateUtc dt:dt="string">2015-06-17T20:32:03Z</DateUtc></FrequencyChange></FrequencyChanges></Clock>\n	Hungry_Donkey_bar_English_2-112-3	60.017	-20	1.0.0.18	1	-1836707147	Standard	2.0.10.353	2.0.10.353	06-17-2015	6/17/2015 8:32:03 PM	16:32:03	2.0.10.248	10	Bar63-37.bmp	63	1	?	10r_4g.bmp	0r_4g.bmp	2r_2g.bmp	0r_2g.bmp	10r_4g.bmp				TrialProc	TrialList	0	cvbn	-999999	16	105506	0	c	684	106190	36	-21	15	-10	24	-1	2	2	1	10	-10	0	-2	0	4	4	2	2	-10	4
Hungry_Donkey_bar_English_2	112	3	<?xml version="1.0"?>\n<Clock xmlns:dt="urn:schemas-microsoft-com:datatypes"><Description dt:dt="string">E-Prime Primary Realtime Clock</Description><StartTime><Timestamp dt:dt="int">0</Timestamp><DateUtc dt:dt="string">2015-06-17T20:32:03Z</DateUtc></StartTime><FrequencyChanges><FrequencyChange><Frequency dt:dt="r8">3507685</Frequency><Timestamp dt:dt="r8">49702672229</Timestamp><Current dt:dt="r8">0</Current><DateUtc dt:dt="string">2015-06-17T20:32:03Z</DateUtc></FrequencyChange></FrequencyChanges></Clock>\n	Hungry_Donkey_bar_English_2-112-3	60.017	-20	1.0.0.18	1	-1836707147	Standard	2.0.10.353	2.0.10.353	06-17-2015	6/17/2015 8:32:03 PM	16:32:03	2.0.10.248	11	Bar50-50.bmp	55	4	?	8r_4g.bmp	50r_4g.bmp	1r_2g.bmp	10r_2g.bmp				10r_2g.bmp	TrialProc	TrialList	0	cvbn	-999999	16	108222	0	n	2736	110958	38	-31	7	-10	24	-1	-6	1	2	11	-8	-50	-1	-10	4	4	2	2	-10	2
Hungry_Donkey_bar_English_2	112	3	<?xml version="1.0"?>\n<Clock xmlns:dt="urn:schemas-microsoft-com:datatypes"><Description dt:dt="string">E-Prime Primary Realtime Clock</Description><StartTime><Timestamp dt:dt="int">0</Timestamp><DateUtc dt:dt="string">2015-06-17T20:32:03Z</DateUtc></StartTime><FrequencyChanges><FrequencyChange><Frequency dt:dt="r8">3507685</Frequency><Timestamp dt:dt="r8">49702672229</Timestamp><Current dt:dt="r8">0</Current><DateUtc dt:dt="string">2015-06-17T20:32:03Z</DateUtc></FrequencyChange></FrequencyChanges></Clock>\n	Hungry_Donkey_bar_English_2-112-3	60.017	-20	1.0.0.18	1	-1836707147	Standard	2.0.10.353	2.0.10.353	06-17-2015	6/17/2015 8:32:03 PM	16:32:03	2.0.10.248	12	Bar63-37.bmp	58	2	?	0r_4g.bmp	0r_4g.bmp	0r_2g.bmp	0r_2g.bmp		0r_4g.bmp			TrialProc	TrialList	0	cvbn	-999999	16	112987	0	v	1283	114270	42	-31	11	-10	28	-1	-6	8	2	12	0	0	0	0	4	4	2	2	0	4
Hungry_Donkey_bar_English_2	112	3	<?xml version="1.0"?>\n<Clock xmlns:dt="urn:schemas-microsoft-com:datatypes"><Description dt:dt="string">E-Prime Primary Realtime Clock</Description><StartTime><Timestamp dt:dt="int">0</Timestamp><DateUtc dt:dt="string">2015-06-17T20:32:03Z</DateUtc></StartTime><FrequencyChanges><FrequencyChange><Frequency dt:dt="r8">3507685</Frequency><Timestamp dt:dt="r8">49702672229</Timestamp><Current dt:dt="r8">0</Current><DateUtc dt:dt="string">2015-06-17T20:32:03Z</DateUtc></FrequencyChange></FrequencyChanges></Clock>\n	Hungry_Donkey_bar_English_2-112-3	60.017	-20	1.0.0.18	1	-1836707147	Standard	2.0.10.353	2.0.10.353	06-17-2015	6/17/2015 8:32:03 PM	16:32:03	2.0.10.248	13	Bar63-37.bmp	59	3	?	0r_4g.bmp	0r_4g.bmp	0r_2g.bmp	0r_2g.bmp			0r_2g.bmp		TrialProc	TrialList	0	cvbn	-999999	16	116303	0	b	430	116733	44	-31	13	-10	28	1	-6	9	2	13	0	0	0	0	4	4	2	2	0	2
Hungry_Donkey_bar_English_2	112	3	<?xml version="1.0"?>\n<Clock xmlns:dt="urn:schemas-microsoft-com:datatypes"><Description dt:dt="string">E-Prime Primary Realtime Clock</Description><StartTime><Timestamp dt:dt="int">0</Timestamp><DateUtc dt:dt="string">2015-06-17T20:32:03Z</DateUtc></StartTime><FrequencyChanges><FrequencyChange><Frequency dt:dt="r8">3507685</Frequency><Timestamp dt:dt="r8">49702672229</Timestamp><Current dt:dt="r8">0</Current><DateUtc dt:dt="string">2015-06-17T20:32:03Z</DateUtc></FrequencyChange></FrequencyChanges></Clock>\n	Hungry_Donkey_bar_English_2-112-3	60.017	-20	1.0.0.18	1	-1836707147	Standard	2.0.10.353	2.0.10.353	06-17-2015	6/17/2015 8:32:03 PM	16:32:03	2.0.10.248	14	Bar63-37.bmp	61	2	?	10r_4g.bmp	0r_4g.bmp	2r_2g.bmp	0r_2g.bmp		0r_4g.bmp			TrialProc	TrialList	0	cvbn	-999999	16	118769	0	v	380	119149	48	-31	17	-10	32	1	-6	4	2	14	-10	0	-2	0	4	4	2	2	0	4
Hungry_Donkey_bar_English_2	112	3	<?xml version="1.0"?>\n<Clock xmlns:dt="urn:schemas-microsoft-com:datatypes"><Description dt:dt="string">E-Prime Primary Realtime Clock</Description><StartTime><Timestamp dt:dt="int">0</Timestamp><DateUtc dt:dt="string">2015-06-17T20:32:03Z</DateUtc></StartTime><FrequencyChanges><FrequencyChange><Frequency dt:dt="r8">3507685</Frequency><Timestamp dt:dt="r8">49702672229</Timestamp><Current dt:dt="r8">0</Current><DateUtc dt:dt="string">2015-06-17T20:32:03Z</DateUtc></FrequencyChange></FrequencyChanges></Clock>\n	Hungry_Donkey_bar_English_2-112-3	60.017	-20	1.0.0.18	1	-1836707147	Standard	2.0.10.353	2.0.10.353	06-17-2015	6/17/2015 8:32:03 PM	16:32:03	2.0.10.248	15	Bar63-37.bmp	62	3	?	0r_4g.bmp	0r_4g.bmp	0r_2g.bmp	0r_2g.bmp			0r_2g.bmp		TrialProc	TrialList	0	cvbn	-999999	16	121185	0	b	460	121645	50	-31	19	-10	32	3	-6	7	2	15	0	0	0	0	4	4	2	2	0	2
Hungry_Donkey_bar_English_2	112	3	<?xml version="1.0"?>\n<Clock xmlns:dt="urn:schemas-microsoft-com:datatypes"><Description dt:dt="string">E-Prime Primary Realtime Clock</Description><StartTime><Timestamp dt:dt="int">0</Timestamp><DateUtc dt:dt="string">2015-06-17T20:32:03Z</DateUtc></StartTime><FrequencyChanges><FrequencyChange><Frequency dt:dt="r8">3507685</Frequency><Timestamp dt:dt="r8">49702672229</Timestamp><Current dt:dt="r8">0</Current><DateUtc dt:dt="string">2015-06-17T20:32:03Z</DateUtc></FrequencyChange></FrequencyChanges></Clock>\n	Hungry_Donkey_bar_English_2-112-3	60.017	-20	1.0.0.18	1	-1836707147	Standard	2.0.10.353	2.0.10.353	06-17-2015	6/17/2015 8:32:03 PM	16:32:03	2.0.10.248	16	Bar63-37.bmp	64	2	?	0r_4g.bmp	0r_4g.bmp	0r_2g.bmp	0r_2g.bmp		0r_4g.bmp			TrialProc	TrialList	0	cvbn	-999999	16	123684	0	v	425	124109	54	-31	23	-10	36	3	-6	6	2	16	0	0	0	0	4	4	2	2	0	4
Hungry_Donkey_bar_English_2	112	3	<?xml version="1.0"?>\n<Clock xmlns:dt="urn:schemas-microsoft-com:datatypes"><Description dt:dt="string">E-Prime Primary Realtime Clock</Description><StartTime><Timestamp dt:dt="int">0</Timestamp><DateUtc dt:dt="string">2015-06-17T20:32:03Z</DateUtc></StartTime><FrequencyChanges><FrequencyChange><Frequency dt:dt="r8">3507685</Frequency><Timestamp dt:dt="r8">49702672229</Timestamp><Current dt:dt="r8">0</Current><DateUtc dt:dt="string">2015-06-17T20:32:03Z</DateUtc></FrequencyChange></FrequencyChanges></Clock>\n	Hungry_Donkey_bar_English_2-112-3	60.017	-20	1.0.0.18	1	-1836707147	Standard	2.0.10.353	2.0.10.353	06-17-2015	6/17/2015 8:32:03 PM	16:32:03	2.0.10.248	17	Bar63-37.bmp	64	3	?	0r_4g.bmp	0r_4g.bmp	0r_2g.bmp	0r_2g.bmp			0r_2g.bmp		TrialProc	TrialList	0	cvbn	-999999	16	126134	0	b	359	126493	56	-31	25	-10	36	5	-6	10	2	17	0	0	0	0	4	4	2	2	0	2
Hungry_Donkey_bar_English_2	112	3	<?xml version="1.0"?>\n<Clock xmlns:dt="urn:schemas-microsoft-com:datatypes"><Description dt:dt="string">E-Prime Primary Realtime Clock</Description><StartTime><Timestamp dt:dt="int">0</Timestamp><DateUtc dt:dt="string">2015-06-17T20:32:03Z</DateUtc></StartTime><FrequencyChanges><FrequencyChange><Frequency dt:dt="r8">3507685</Frequency><Timestamp dt:dt="r8">49702672229</Timestamp><Current dt:dt="r8">0</Current><DateUtc dt:dt="string">2015-06-17T20:32:03Z</DateUtc></FrequencyChange></FrequencyChanges></Clock>\n	Hungry_Donkey_bar_English_2-112-3	60.017	-20	1.0.0.18	1	-1836707147	Standard	2.0.10.353	2.0.10.353	06-17-2015	6/17/2015 8:32:03 PM	16:32:03	2.0.10.248	18	Bar63-37.bmp	66	2	?	12r_4g.bmp	0r_4g.bmp	3r_2g.bmp	0r_2g.bmp		0r_4g.bmp			TrialProc	TrialList	0	cvbn	-999999	16	128533	0	v	328	128861	60	-31	29	-10	40	5	-6	5	2	18	-12	0	-3	0	4	4	2	2	0	4
Hungry_Donkey_bar_English_2	112	3	<?xml version="1.0"?>\n<Clock xmlns:dt="urn:schemas-microsoft-com:datatypes"><Description dt:dt="string">E-Prime Primary Realtime Clock</Description><StartTime><Timestamp dt:dt="int">0</Timestamp><DateUtc dt:dt="string">2015-06-17T20:32:03Z</DateUtc></StartTime><FrequencyChanges><FrequencyChange><Frequency dt:dt="r8">3507685</Frequency><Timestamp dt:dt="r8">49702672229</Timestamp><Current dt:dt="r8">0</Current><DateUtc dt:dt="string">2015-06-17T20:32:03Z</DateUtc></FrequencyChange></FrequencyChanges></Clock>\n	Hungry_Donkey_bar_English_2-112-3	60.017	-20	1.0.0.18	1	-1836707147	Standard	2.0.10.353	2.0.10.353	06-17-2015	6/17/2015 8:32:03 PM	16:32:03	2.0.10.248	19	Bar63-37.bmp	65	3	?	10r_4g.bmp	0r_4g.bmp	2r_2g.bmp	0r_2g.bmp			2r_2g.bmp		TrialProc	TrialList	0	cvbn	-999999	16	130899	0	b	458	131357	62	-33	29	-10	40	5	-6	2	2	19	-10	0	-2	0	4	4	2	2	-2	2
Hungry_Donkey_bar_English_2	112	3	<?xml version="1.0"?>\n<Clock xmlns:dt="urn:schemas-microsoft-com:datatypes"><Description dt:dt="string">E-Prime Primary Realtime Clock</Description><StartTime><Timestamp dt:dt="int">0</Timestamp><DateUtc dt:dt="string">2015-06-17T20:32:03Z</DateUtc></StartTime><FrequencyChanges><FrequencyChange><Frequency dt:dt="r8">3507685</Frequency><Timestamp dt:dt="r8">49702672229</Timestamp><Current dt:dt="r8">0</Current><DateUtc dt:dt="string">2015-06-17T20:32:03Z</DateUtc></FrequencyChange></FrequencyChanges></Clock>\n	Hungry_Donkey_bar_English_2-112-3	60.017	-20	1.0.0.18	1	-1836707147	Standard	2.0.10.353	2.0.10.353	06-17-2015	6/17/2015 8:32:03 PM	16:32:03	2.0.10.248	20	Bar63-37.bmp	67	2	?	10r_4g.bmp	0r_4g.bmp	2r_2g.bmp	0r_2g.bmp		0r_4g.bmp			TrialProc	TrialList	0	cvbn	-999999	16	133398	0	v	599	133997	66	-33	33	-10	44	5	-6	3	2	20	-10	0	-2	0	4	4	2	2	0	4
Hungry_Donkey_bar_English_2	112	3	<?xml version="1.0"?>\n<Clock xmlns:dt="urn:schemas-microsoft-com:datatypes"><Description dt:dt="string">E-Prime Primary Realtime Clock</Description><StartTime><Timestamp dt:dt="int">0</Timestamp><DateUtc dt:dt="string">2015-06-17T20:32:03Z</DateUtc></StartTime><FrequencyChanges><FrequencyChange><Frequency dt:dt="r8">3507685</Frequency><Timestamp dt:dt="r8">49702672229</Timestamp><Current dt:dt="r8">0</Current><DateUtc dt:dt="string">2015-06-17T20:32:03Z</DateUtc></FrequencyChange></FrequencyChanges></Clock>\n	Hungry_Donkey_bar_English_2-112-3	60.017	-20	1.0.0.18	1	-1836707147	Standard	2.0.10.353	2.0.10.353	06-17-2015	6/17/2015 8:32:03 PM	16:32:03	2.0.10.248	21	Bar63-37.bmp	68	2	?	10r_4g.bmp	0r_4g.bmp	2r_2g.bmp	0r_2g.bmp		0r_4g.bmp			TrialProc	TrialList	0	cvbn	-999999	16	136031	0	v	797	136828	70	-33	37	-10	48	5	-6	4	3	21	-10	0	-2	0	4	4	2	2	0	4
Hungry_Donkey_bar_English_2	112	3	<?xml version="1.0"?>\n<Clock xmlns:dt="urn:schemas-microsoft-com:datatypes"><Description dt:dt="string">E-Prime Primary Realtime Clock</Description><StartTime><Timestamp dt:dt="int">0</Timestamp><DateUtc dt:dt="string">2015-06-17T20:32:03Z</DateUtc></StartTime><FrequencyChanges><FrequencyChange><Frequency dt:dt="r8">3507685</Frequency><Timestamp dt:dt="r8">49702672229</Timestamp><Current dt:dt="r8">0</Current><DateUtc dt:dt="string">2015-06-17T20:32:03Z</DateUtc></FrequencyChange></FrequencyChanges></Clock>\n	Hungry_Donkey_bar_English_2-112-3	60.017	-20	1.0.0.18	1	-1836707147	Standard	2.0.10.353	2.0.10.353	06-17-2015	6/17/2015 8:32:03 PM	16:32:03	2.0.10.248	22	Bar63-37.bmp	69	2	?	0r_4g.bmp	0r_4g.bmp	0r_2g.bmp	0r_2g.bmp		0r_4g.bmp			TrialProc	TrialList	0	cvbn	-999999	16	138863	0	v	381	139244	74	-33	41	-10	52	5	-6	9	3	22	0	0	0	0	4	4	2	2	0	4
Hungry_Donkey_bar_English_2	112	3	<?xml version="1.0"?>\n<Clock xmlns:dt="urn:schemas-microsoft-com:datatypes"><Description dt:dt="string">E-Prime Primary Realtime Clock</Description><StartTime><Timestamp dt:dt="int">0</Timestamp><DateUtc dt:dt="string">2015-06-17T20:32:03Z</DateUtc></StartTime><FrequencyChanges><FrequencyChange><Frequency dt:dt="r8">3507685</Frequency><Timestamp dt:dt="r8">49702672229</Timestamp><Current dt:dt="r8">0</Current><DateUtc dt:dt="string">2015-06-17T20:32:03Z</DateUtc></FrequencyChange></FrequencyChanges></Clock>\n	Hungry_Donkey_bar_English_2-112-3	60.017	-20	1.0.0.18	1	-1836707147	Standard	2.0.10.353	2.0.10.353	06-17-2015	6/17/2015 8:32:03 PM	16:32:03	2.0.10.248	23	Bar75-25.bmp	70	2	?	0r_4g.bmp	0r_4g.bmp	0r_2g.bmp	0r_2g.bmp		0r_4g.bmp			TrialProc	TrialList	0	cvbn	-999999	16	141279	0	v	781	142060	78	-33	45	-10	56	5	-6	6	3	23	0	0	0	0	4	4	2	2	0	4
Hungry_Donkey_bar_English_2	112	3	<?xml version="1.0"?>\n<Clock xmlns:dt="urn:schemas-microsoft-com:datatypes"><Description dt:dt="string">E-Prime Primary Realtime Clock</Description><StartTime><Timestamp dt:dt="int">0</Timestamp><DateUtc dt:dt="string">2015-06-17T20:32:03Z</DateUtc></StartTime><FrequencyChanges><FrequencyChange><Frequency dt:dt="r8">3507685</Frequency><Timestamp dt:dt="r8">49702672229</Timestamp><Current dt:dt="r8">0</Current><DateUtc dt:dt="string">2015-06-17T20:32:03Z</DateUtc></FrequencyChange></FrequencyChanges></Clock>\n	Hungry_Donkey_bar_English_2-112-3	60.017	-20	1.0.0.18	1	-1836707147	Standard	2.0.10.353	2.0.10.353	06-17-2015	6/17/2015 8:32:03 PM	16:32:03	2.0.10.248	24	Bar75-25.bmp	71	2	?	12r_4g.bmp	0r_4g.bmp	3r_2g.bmp	0r_2g.bmp		0r_4g.bmp			TrialProc	TrialList	0	cvbn	-999999	16	144095	0	v	605	144700	82	-33	49	-10	60	5	-6	5	3	24	-12	0	-3	0	4	4	2	2	0	4
Hungry_Donkey_bar_English_2	112	3	<?xml version="1.0"?>\n<Clock xmlns:dt="urn:schemas-microsoft-com:datatypes"><Description dt:dt="string">E-Prime Primary Realtime Clock</Description><StartTime><Timestamp dt:dt="int">0</Timestamp><DateUtc dt:dt="string">2015-06-17T20:32:03Z</DateUtc></StartTime><FrequencyChanges><FrequencyChange><Frequency dt:dt="r8">3507685</Frequency><Timestamp dt:dt="r8">49702672229</Timestamp><Current dt:dt="r8">0</Current><DateUtc dt:dt="string">2015-06-17T20:32:03Z</DateUtc></FrequencyChange></FrequencyChanges></Clock>\n	Hungry_Donkey_bar_English_2-112-3	60.017	-20	1.0.0.18	1	-1836707147	Standard	2.0.10.353	2.0.10.353	06-17-2015	6/17/2015 8:32:03 PM	16:32:03	2.0.10.248	25	Bar75-25.bmp	72	2	?	0r_4g.bmp	0r_4g.bmp	0r_2g.bmp	0r_2g.bmp		0r_4g.bmp			TrialProc	TrialList	0	cvbn	-999999	16	146728	0	v	548	147276	86	-33	53	-10	64	5	-6	8	3	25	0	0	0	0	4	4	2	2	0	4
Hungry_Donkey_bar_English_2	112	3	<?xml version="1.0"?>\n<Clock xmlns:dt="urn:schemas-microsoft-com:datatypes"><Description dt:dt="string">E-Prime Primary Realtime Clock</Description><StartTime><Timestamp dt:dt="int">0</Timestamp><DateUtc dt:dt="string">2015-06-17T20:32:03Z</DateUtc></StartTime><FrequencyChanges><FrequencyChange><Frequency dt:dt="r8">3507685</Frequency><Timestamp dt:dt="r8">49702672229</Timestamp><Current dt:dt="r8">0</Current><DateUtc dt:dt="string">2015-06-17T20:32:03Z</DateUtc></FrequencyChange></FrequencyChanges></Clock>\n	Hungry_Donkey_bar_English_2-112-3	60.017	-20	1.0.0.18	1	-1836707147	Standard	2.0.10.353	2.0.10.353	06-17-2015	6/17/2015 8:32:03 PM	16:32:03	2.0.10.248	26	Bar75-25.bmp	73	2	?	0r_4g.bmp	0r_4g.bmp	0r_2g.bmp	0r_2g.bmp		0r_4g.bmp			TrialProc	TrialList	0	cvbn	-999999	16	149310	0	v	334	149644	90	-33	57	-10	68	5	-6	10	3	26	0	0	0	0	4	4	2	2	0	4
Hungry_Donkey_bar_English_2	112	3	<?xml version="1.0"?>\n<Clock xmlns:dt="urn:schemas-microsoft-com:datatypes"><Description dt:dt="string">E-Prime Primary Realtime Clock</Description><StartTime><Timestamp dt:dt="int">0</Timestamp><DateUtc dt:dt="string">2015-06-17T20:32:03Z</DateUtc></StartTime><FrequencyChanges><FrequencyChange><Frequency dt:dt="r8">3507685</Frequency><Timestamp dt:dt="r8">49702672229</Timestamp><Current dt:dt="r8">0</Current><DateUtc dt:dt="string">2015-06-17T20:32:03Z</DateUtc></FrequencyChange></FrequencyChanges></Clock>\n	Hungry_Donkey_bar_English_2-112-3	60.017	-20	1.0.0.18	1	-1836707147	Standard	2.0.10.353	2.0.10.353	06-17-2015	6/17/2015 8:32:03 PM	16:32:03	2.0.10.248	27	Bar75-25.bmp	74	2	?	10r_4g.bmp	0r_4g.bmp	2r_2g.bmp	0r_2g.bmp		0r_4g.bmp			TrialProc	TrialList	0	cvbn	-999999	16	151676	0	v	288	151964	94	-33	61	-10	72	5	-6	2	3	27	-10	0	-2	0	4	4	2	2	0	4
Hungry_Donkey_bar_English_2	112	3	<?xml version="1.0"?>\n<Clock xmlns:dt="urn:schemas-microsoft-com:datatypes"><Description dt:dt="string">E-Prime Primary Realtime Clock</Description><StartTime><Timestamp dt:dt="int">0</Timestamp><DateUtc dt:dt="string">2015-06-17T20:32:03Z</DateUtc></StartTime><FrequencyChanges><FrequencyChange><Frequency dt:dt="r8">3507685</Frequency><Timestamp dt:dt="r8">49702672229</Timestamp><Current dt:dt="r8">0</Current><DateUtc dt:dt="string">2015-06-17T20:32:03Z</DateUtc></FrequencyChange></FrequencyChanges></Clock>\n	Hungry_Donkey_bar_English_2-112-3	60.017	-20	1.0.0.18	1	-1836707147	Standard	2.0.10.353	2.0.10.353	06-17-2015	6/17/2015 8:32:03 PM	16:32:03	2.0.10.248	28	Bar50-50.bmp	54	2	?	8r_4g.bmp	50r_4g.bmp	1r_2g.bmp	10r_2g.bmp		50r_4g.bmp			TrialProc	TrialList	0	cvbn	-999999	16	153992	0	v	435	154427	98	-83	15	-10	26	5	-6	1	3	28	-8	-50	-1	-10	4	4	2	2	-50	4
Hungry_Donkey_bar_English_2	112	3	<?xml version="1.0"?>\n<Clock xmlns:dt="urn:schemas-microsoft-com:datatypes"><Description dt:dt="string">E-Prime Primary Realtime Clock</Description><StartTime><Timestamp dt:dt="int">0</Timestamp><DateUtc dt:dt="string">2015-06-17T20:32:03Z</DateUtc></StartTime><FrequencyChanges><FrequencyChange><Frequency dt:dt="r8">3507685</Frequency><Timestamp dt:dt="r8">49702672229</Timestamp><Current dt:dt="r8">0</Current><DateUtc dt:dt="string">2015-06-17T20:32:03Z</DateUtc></FrequencyChange></FrequencyChanges></Clock>\n	Hungry_Donkey_bar_English_2-112-3	60.017	-20	1.0.0.18	1	-1836707147	Standard	2.0.10.353	2.0.10.353	06-17-2015	6/17/2015 8:32:03 PM	16:32:03	2.0.10.248	29	Bar50-50.bmp	55	4	?	10r_4g.bmp	0r_4g.bmp	2r_2g.bmp	0r_2g.bmp				0r_2g.bmp	TrialProc	TrialList	0	cvbn	-999999	16	156458	0	n	3985	160443	100	-83	17	-10	26	5	-4	3	3	29	-10	0	-2	0	4	4	2	2	0	2
Hungry_Donkey_bar_English_2	112	3	<?xml version="1.0"?>\n<Clock xmlns:dt="urn:schemas-microsoft-com:datatypes"><Description dt:dt="string">E-Prime Primary Realtime Clock</Description><StartTime><Timestamp dt:dt="int">0</Timestamp><DateUtc dt:dt="string">2015-06-17T20:32:03Z</DateUtc></StartTime><FrequencyChanges><FrequencyChange><Frequency dt:dt="r8">3507685</Frequency><Timestamp dt:dt="r8">49702672229</Timestamp><Current dt:dt="r8">0</Current><DateUtc dt:dt="string">2015-06-17T20:32:03Z</DateUtc></FrequencyChange></FrequencyChanges></Clock>\n	Hungry_Donkey_bar_English_2-112-3	60.017	-20	1.0.0.18	1	-1836707147	Standard	2.0.10.353	2.0.10.353	06-17-2015	6/17/2015 8:32:03 PM	16:32:03	2.0.10.248	30	Bar50-50.bmp	56	1	?	0r_4g.bmp	0r_4g.bmp	0r_2g.bmp	0r_2g.bmp	0r_4g.bmp				TrialProc	TrialList	0	cvbn	-999999	16	162473	0	c	210	162683	104	-83	21	-6	26	5	-4	7	3	30	0	0	0	0	4	4	2	2	0	4
Hungry_Donkey_bar_English_2	112	3	<?xml version="1.0"?>\n<Clock xmlns:dt="urn:schemas-microsoft-com:datatypes"><Description dt:dt="string">E-Prime Primary Realtime Clock</Description><StartTime><Timestamp dt:dt="int">0</Timestamp><DateUtc dt:dt="string">2015-06-17T20:32:03Z</DateUtc></StartTime><FrequencyChanges><FrequencyChange><Frequency dt:dt="r8">3507685</Frequency><Timestamp dt:dt="r8">49702672229</Timestamp><Current dt:dt="r8">0</Current><DateUtc dt:dt="string">2015-06-17T20:32:03Z</DateUtc></FrequencyChange></FrequencyChanges></Clock>\n	Hungry_Donkey_bar_English_2-112-3	60.017	-20	1.0.0.18	1	-1836707147	Standard	2.0.10.353	2.0.10.353	06-17-2015	6/17/2015 8:32:03 PM	16:32:03	2.0.10.248	31	Bar63-37.bmp	57	1	?	0r_4g.bmp	0r_4g.bmp	0r_2g.bmp	0r_2g.bmp	0r_4g.bmp				TrialProc	TrialList	0	cvbn	-999999	16	164706	0	c	41	164747	108	-83	25	-2	26	5	-4	6	4	31	0	0	0	0	4	4	2	2	0	4
Hungry_Donkey_bar_English_2	112	3	<?xml version="1.0"?>\n<Clock xmlns:dt="urn:schemas-microsoft-com:datatypes"><Description dt:dt="string">E-Prime Primary Realtime Clock</Description><StartTime><Timestamp dt:dt="int">0</Timestamp><DateUtc dt:dt="string">2015-06-17T20:32:03Z</DateUtc></StartTime><FrequencyChanges><FrequencyChange><Frequency dt:dt="r8">3507685</Frequency><Timestamp dt:dt="r8">49702672229</Timestamp><Current dt:dt="r8">0</Current><DateUtc dt:dt="string">2015-06-17T20:32:03Z</DateUtc></FrequencyChange></FrequencyChanges></Clock>\n	Hungry_Donkey_bar_English_2-112-3	60.017	-20	1.0.0.18	1	-1836707147	Standard	2.0.10.353	2.0.10.353	06-17-2015	6/17/2015 8:32:03 PM	16:32:03	2.0.10.248	32	Bar63-37.bmp	57	4	?	0r_4g.bmp	0r_4g.bmp	0r_2g.bmp	0r_2g.bmp				0r_2g.bmp	TrialProc	TrialList	0	cvbn	-999999	16	166772	0	n	135	166907	110	-83	27	-2	26	5	-2	7	4	32	0	0	0	0	4	4	2	2	0	2
Hungry_Donkey_bar_English_2	112	3	<?xml version="1.0"?>\n<Clock xmlns:dt="urn:schemas-microsoft-com:datatypes"><Description dt:dt="string">E-Prime Primary Realtime Clock</Description><StartTime><Timestamp dt:dt="int">0</Timestamp><DateUtc dt:dt="string">2015-06-17T20:32:03Z</DateUtc></StartTime><FrequencyChanges><FrequencyChange><Frequency dt:dt="r8">3507685</Frequency><Timestamp dt:dt="r8">49702672229</Timestamp><Current dt:dt="r8">0</Current><DateUtc dt:dt="string">2015-06-17T20:32:03Z</DateUtc></FrequencyChange></FrequencyChanges></Clock>\n	Hungry_Donkey_bar_English_2-112-3	60.017	-20	1.0.0.18	1	-1836707147	Standard	2.0.10.353	2.0.10.353	06-17-2015	6/17/2015 8:32:03 PM	16:32:03	2.0.10.248	33	Bar63-37.bmp	58	1	?	0r_4g.bmp	0r_4g.bmp	0r_2g.bmp	0r_2g.bmp	0r_4g.bmp				TrialProc	TrialList	0	cvbn	-999999	16	168938	0	c	81	169019	114	-83	31	2	26	5	-2	9	4	33	0	0	0	0	4	4	2	2	0	4
Hungry_Donkey_bar_English_2	112	3	<?xml version="1.0"?>\n<Clock xmlns:dt="urn:schemas-microsoft-com:datatypes"><Description dt:dt="string">E-Prime Primary Realtime Clock</Description><StartTime><Timestamp dt:dt="int">0</Timestamp><DateUtc dt:dt="string">2015-06-17T20:32:03Z</DateUtc></StartTime><FrequencyChanges><FrequencyChange><Frequency dt:dt="r8">3507685</Frequency><Timestamp dt:dt="r8">49702672229</Timestamp><Current dt:dt="r8">0</Current><DateUtc dt:dt="string">2015-06-17T20:32:03Z</DateUtc></FrequencyChange></FrequencyChanges></Clock>\n	Hungry_Donkey_bar_English_2-112-3	60.017	-20	1.0.0.18	1	-1836707147	Standard	2.0.10.353	2.0.10.353	06-17-2015	6/17/2015 8:32:03 PM	16:32:03	2.0.10.248	34	Bar50-50.bmp	56	1	?	8r_4g.bmp	50r_4g.bmp	1r_2g.bmp	10r_2g.bmp	8r_4g.bmp				TrialProc	TrialList	0	cvbn	-999999	16	171054	0	c	141	171195	118	-91	27	-2	26	5	-2	1	4	34	-8	-50	-1	-10	4	4	2	2	-8	4
Hungry_Donkey_bar_English_2	112	3	<?xml version="1.0"?>\n<Clock xmlns:dt="urn:schemas-microsoft-com:datatypes"><Description dt:dt="string">E-Prime Primary Realtime Clock</Description><StartTime><Timestamp dt:dt="int">0</Timestamp><DateUtc dt:dt="string">2015-06-17T20:32:03Z</DateUtc></StartTime><FrequencyChanges><FrequencyChange><Frequency dt:dt="r8">3507685</Frequency><Timestamp dt:dt="r8">49702672229</Timestamp><Current dt:dt="r8">0</Current><DateUtc dt:dt="string">2015-06-17T20:32:03Z</DateUtc></FrequencyChange></FrequencyChanges></Clock>\n	Hungry_Donkey_bar_English_2-112-3	60.017	-20	1.0.0.18	1	-1836707147	Standard	2.0.10.353	2.0.10.353	06-17-2015	6/17/2015 8:32:03 PM	16:32:03	2.0.10.248	35	Bar63-37.bmp	57	4	?	0r_4g.bmp	0r_4g.bmp	0r_2g.bmp	0r_2g.bmp				0r_2g.bmp	TrialProc	TrialList	0	cvbn	-999999	16	173220	0	n	1127	174347	120	-91	29	-2	26	5	0	10	4	35	0	0	0	0	4	4	2	2	0	2
Hungry_Donkey_bar_English_2	112	3	<?xml version="1.0"?>\n<Clock xmlns:dt="urn:schemas-microsoft-com:datatypes"><Description dt:dt="string">E-Prime Primary Realtime Clock</Description><StartTime><Timestamp dt:dt="int">0</Timestamp><DateUtc dt:dt="string">2015-06-17T20:32:03Z</DateUtc></StartTime><FrequencyChanges><FrequencyChange><Frequency dt:dt="r8">3507685</Frequency><Timestamp dt:dt="r8">49702672229</Timestamp><Current dt:dt="r8">0</Current><DateUtc dt:dt="string">2015-06-17T20:32:03Z</DateUtc></FrequencyChange></FrequencyChanges></Clock>\n	Hungry_Donkey_bar_English_2-112-3	60.017	-20	1.0.0.18	1	-1836707147	Standard	2.0.10.353	2.0.10.353	06-17-2015	6/17/2015 8:32:03 PM	16:32:03	2.0.10.248	36	Bar50-50.bmp	55	1	?	10r_4g.bmp	0r_4g.bmp	2r_2g.bmp	0r_2g.bmp	10r_4g.bmp				TrialProc	TrialList	0	cvbn	-999999	16	176386	0	c	856	177242	124	-101	23	-8	26	5	0	2	4	36	-10	0	-2	0	4	4	2	2	-10	4
Hungry_Donkey_bar_English_2	112	3	<?xml version="1.0"?>\n<Clock xmlns:dt="urn:schemas-microsoft-com:datatypes"><Description dt:dt="string">E-Prime Primary Realtime Clock</Description><StartTime><Timestamp dt:dt="int">0</Timestamp><DateUtc dt:dt="string">2015-06-17T20:32:03Z</DateUtc></StartTime><FrequencyChanges><FrequencyChange><Frequency dt:dt="r8">3507685</Frequency><Timestamp dt:dt="r8">49702672229</Timestamp><Current dt:dt="r8">0</Current><DateUtc dt:dt="string">2015-06-17T20:32:03Z</DateUtc></FrequencyChange></FrequencyChanges></Clock>\n	Hungry_Donkey_bar_English_2-112-3	60.017	-20	1.0.0.18	1	-1836707147	Standard	2.0.10.353	2.0.10.353	06-17-2015	6/17/2015 8:32:03 PM	16:32:03	2.0.10.248	37	Bar50-50.bmp	56	4	?	0r_4g.bmp	0r_4g.bmp	0r_2g.bmp	0r_2g.bmp				0r_2g.bmp	TrialProc	TrialList	0	cvbn	-999999	16	179268	0	n	774	180042	126	-101	25	-8	26	5	2	8	4	37	0	0	0	0	4	4	2	2	0	2
Hungry_Donkey_bar_English_2	112	3	<?xml version="1.0"?>\n<Clock xmlns:dt="urn:schemas-microsoft-com:datatypes"><Description dt:dt="string">E-Prime Primary Realtime Clock</Description><StartTime><Timestamp dt:dt="int">0</Timestamp><DateUtc dt:dt="string">2015-06-17T20:32:03Z</DateUtc></StartTime><FrequencyChanges><FrequencyChange><Frequency dt:dt="r8">3507685</Frequency><Timestamp dt:dt="r8">49702672229</Timestamp><Current dt:dt="r8">0</Current><DateUtc dt:dt="string">2015-06-17T20:32:03Z</DateUtc></FrequencyChange></FrequencyChanges></Clock>\n	Hungry_Donkey_bar_English_2-112-3	60.017	-20	1.0.0.18	1	-1836707147	Standard	2.0.10.353	2.0.10.353	06-17-2015	6/17/2015 8:32:03 PM	16:32:03	2.0.10.248	38	Bar50-50.bmp	56	4	?	10r_4g.bmp	0r_4g.bmp	2r_2g.bmp	0r_2g.bmp				0r_2g.bmp	TrialProc	TrialList	0	cvbn	-999999	17	182068	0	n	614	182682	128	-101	27	-8	26	5	4	3	4	38	-10	0	-2	0	4	4	2	2	0	2
Hungry_Donkey_bar_English_2	112	3	<?xml version="1.0"?>\n<Clock xmlns:dt="urn:schemas-microsoft-com:datatypes"><Description dt:dt="string">E-Prime Primary Realtime Clock</Description><StartTime><Timestamp dt:dt="int">0</Timestamp><DateUtc dt:dt="string">2015-06-17T20:32:03Z</DateUtc></StartTime><FrequencyChanges><FrequencyChange><Frequency dt:dt="r8">3507685</Frequency><Timestamp dt:dt="r8">49702672229</Timestamp><Current dt:dt="r8">0</Current><DateUtc dt:dt="string">2015-06-17T20:32:03Z</DateUtc></FrequencyChange></FrequencyChanges></Clock>\n	Hungry_Donkey_bar_English_2-112-3	60.017	-20	1.0.0.18	1	-1836707147	Standard	2.0.10.353	2.0.10.353	06-17-2015	6/17/2015 8:32:03 PM	16:32:03	2.0.10.248	39	Bar50-50.bmp	56	4	?	10r_4g.bmp	0r_4g.bmp	2r_2g.bmp	0r_2g.bmp				0r_2g.bmp	TrialProc	TrialList	0	cvbn	-999999	16	184717	0	n	669	185386	130	-101	29	-8	26	5	6	4	4	39	-10	0	-2	0	4	4	2	2	0	2
Hungry_Donkey_bar_English_2	112	3	<?xml version="1.0"?>\n<Clock xmlns:dt="urn:schemas-microsoft-com:datatypes"><Description dt:dt="string">E-Prime Primary Realtime Clock</Description><StartTime><Timestamp dt:dt="int">0</Timestamp><DateUtc dt:dt="string">2015-06-17T20:32:03Z</DateUtc></StartTime><FrequencyChanges><FrequencyChange><Frequency dt:dt="r8">3507685</Frequency><Timestamp dt:dt="r8">49702672229</Timestamp><Current dt:dt="r8">0</Current><DateUtc dt:dt="string">2015-06-17T20:32:03Z</DateUtc></FrequencyChange></FrequencyChanges></Clock>\n	Hungry_Donkey_bar_English_2-112-3	60.017	-20	1.0.0.18	1	-1836707147	Standard	2.0.10.353	2.0.10.353	06-17-2015	6/17/2015 8:32:03 PM	16:32:03	2.0.10.248	40	Bar50-50.bmp	56	3	?	12r_4g.bmp	0r_4g.bmp	3r_2g.bmp	0r_2g.bmp			3r_2g.bmp		TrialProc	TrialList	0	cvbn	-999999	16	187416	0	b	306	187722	132	-104	28	-8	26	4	6	5	4	40	-12	0	-3	0	4	4	2	2	-3	2
Hungry_Donkey_bar_English_2	112	3	<?xml version="1.0"?>\n<Clock xmlns:dt="urn:schemas-microsoft-com:datatypes"><Description dt:dt="string">E-Prime Primary Realtime Clock</Description><StartTime><Timestamp dt:dt="int">0</Timestamp><DateUtc dt:dt="string">2015-06-17T20:32:03Z</DateUtc></StartTime><FrequencyChanges><FrequencyChange><Frequency dt:dt="r8">3507685</Frequency><Timestamp dt:dt="r8">49702672229</Timestamp><Current dt:dt="r8">0</Current><DateUtc dt:dt="string">2015-06-17T20:32:03Z</DateUtc></FrequencyChange></FrequencyChanges></Clock>\n	Hungry_Donkey_bar_English_2-112-3	60.017	-20	1.0.0.18	1	-1836707147	Standard	2.0.10.353	2.0.10.353	06-17-2015	6/17/2015 8:32:03 PM	16:32:03	2.0.10.248	41	Bar50-50.bmp	56	4	?	0r_4g.bmp	0r_4g.bmp	0r_2g.bmp	0r_2g.bmp				0r_2g.bmp	TrialProc	TrialList	0	cvbn	-999999	16	189749	0	n	357	190106	134	-104	30	-8	26	4	8	8	5	41	0	0	0	0	4	4	2	2	0	2
Hungry_Donkey_bar_English_2	112	3	<?xml version="1.0"?>\n<Clock xmlns:dt="urn:schemas-microsoft-com:datatypes"><Description dt:dt="string">E-Prime Primary Realtime Clock</Description><StartTime><Timestamp dt:dt="int">0</Timestamp><DateUtc dt:dt="string">2015-06-17T20:32:03Z</DateUtc></StartTime><FrequencyChanges><FrequencyChange><Frequency dt:dt="r8">3507685</Frequency><Timestamp dt:dt="r8">49702672229</Timestamp><Current dt:dt="r8">0</Current><DateUtc dt:dt="string">2015-06-17T20:32:03Z</DateUtc></FrequencyChange></FrequencyChanges></Clock>\n	Hungry_Donkey_bar_English_2-112-3	60.017	-20	1.0.0.18	1	-1836707147	Standard	2.0.10.353	2.0.10.353	06-17-2015	6/17/2015 8:32:03 PM	16:32:03	2.0.10.248	42	Bar63-37.bmp	57	4	?	0r_4g.bmp	0r_4g.bmp	0r_2g.bmp	0r_2g.bmp				0r_2g.bmp	TrialProc	TrialList	0	cvbn	-999999	16	192131	0	n	375	192506	136	-104	32	-8	26	4	10	9	5	42	0	0	0	0	4	4	2	2	0	2
Hungry_Donkey_bar_English_2	112	3	<?xml version="1.0"?>\n<Clock xmlns:dt="urn:schemas-microsoft-com:datatypes"><Description dt:dt="string">E-Prime Primary Realtime Clock</Description><StartTime><Timestamp dt:dt="int">0</Timestamp><DateUtc dt:dt="string">2015-06-17T20:32:03Z</DateUtc></StartTime><FrequencyChanges><FrequencyChange><Frequency dt:dt="r8">3507685</Frequency><Timestamp dt:dt="r8">49702672229</Timestamp><Current dt:dt="r8">0</Current><DateUtc dt:dt="string">2015-06-17T20:32:03Z</DateUtc></FrequencyChange></FrequencyChanges></Clock>\n	Hungry_Donkey_bar_English_2-112-3	60.017	-20	1.0.0.18	1	-1836707147	Standard	2.0.10.353	2.0.10.353	06-17-2015	6/17/2015 8:32:03 PM	16:32:03	2.0.10.248	43	Bar63-37.bmp	57	2	?	12r_4g.bmp	0r_4g.bmp	3r_2g.bmp	0r_2g.bmp		0r_4g.bmp			TrialProc	TrialList	0	cvbn	-999999	16	194531	0	v	134	194665	140	-104	36	-8	30	4	10	5	5	43	-12	0	-3	0	4	4	2	2	0	4
Hungry_Donkey_bar_English_2	112	3	<?xml version="1.0"?>\n<Clock xmlns:dt="urn:schemas-microsoft-com:datatypes"><Description dt:dt="string">E-Prime Primary Realtime Clock</Description><StartTime><Timestamp dt:dt="int">0</Timestamp><DateUtc dt:dt="string">2015-06-17T20:32:03Z</DateUtc></StartTime><FrequencyChanges><FrequencyChange><Frequency dt:dt="r8">3507685</Frequency><Timestamp dt:dt="r8">49702672229</Timestamp><Current dt:dt="r8">0</Current><DateUtc dt:dt="string">2015-06-17T20:32:03Z</DateUtc></FrequencyChange></FrequencyChanges></Clock>\n	Hungry_Donkey_bar_English_2-112-3	60.017	-20	1.0.0.18	1	-1836707147	Standard	2.0.10.353	2.0.10.353	06-17-2015	6/17/2015 8:32:03 PM	16:32:03	2.0.10.248	44	Bar63-37.bmp	58	4	?	10r_4g.bmp	0r_4g.bmp	2r_2g.bmp	0r_2g.bmp				0r_2g.bmp	TrialProc	TrialList	0	cvbn	-999999	16	196697	0	n	496	197193	142	-104	38	-8	30	4	12	3	5	44	-10	0	-2	0	4	4	2	2	0	2
Hungry_Donkey_bar_English_2	112	3	<?xml version="1.0"?>\n<Clock xmlns:dt="urn:schemas-microsoft-com:datatypes"><Description dt:dt="string">E-Prime Primary Realtime Clock</Description><StartTime><Timestamp dt:dt="int">0</Timestamp><DateUtc dt:dt="string">2015-06-17T20:32:03Z</DateUtc></StartTime><FrequencyChanges><FrequencyChange><Frequency dt:dt="r8">3507685</Frequency><Timestamp dt:dt="r8">49702672229</Timestamp><Current dt:dt="r8">0</Current><DateUtc dt:dt="string">2015-06-17T20:32:03Z</DateUtc></FrequencyChange></FrequencyChanges></Clock>\n	Hungry_Donkey_bar_English_2-112-3	60.017	-20	1.0.0.18	1	-1836707147	Standard	2.0.10.353	2.0.10.353	06-17-2015	6/17/2015 8:32:03 PM	16:32:03	2.0.10.248	45	Bar50-50.bmp	49	2	?	8r_4g.bmp	50r_4g.bmp	1r_2g.bmp	10r_2g.bmp		50r_4g.bmp			TrialProc	TrialList	0	cvbn	-999999	16	199229	0	v	332	199561	146	-154	-8	-8	-16	4	12	1	5	45	-8	-50	-1	-10	4	4	2	2	-50	4
Hungry_Donkey_bar_English_2	112	3	<?xml version="1.0"?>\n<Clock xmlns:dt="urn:schemas-microsoft-com:datatypes"><Description dt:dt="string">E-Prime Primary Realtime Clock</Description><StartTime><Timestamp dt:dt="int">0</Timestamp><DateUtc dt:dt="string">2015-06-17T20:32:03Z</DateUtc></StartTime><FrequencyChanges><FrequencyChange><Frequency dt:dt="r8">3507685</Frequency><Timestamp dt:dt="r8">49702672229</Timestamp><Current dt:dt="r8">0</Current><DateUtc dt:dt="string">2015-06-17T20:32:03Z</DateUtc></FrequencyChange></FrequencyChanges></Clock>\n	Hungry_Donkey_bar_English_2-112-3	60.017	-20	1.0.0.18	1	-1836707147	Standard	2.0.10.353	2.0.10.353	06-17-2015	6/17/2015 8:32:03 PM	16:32:03	2.0.10.248	46	Bar50-50.bmp	49	4	?	0r_4g.bmp	0r_4g.bmp	0r_2g.bmp	0r_2g.bmp				0r_2g.bmp	TrialProc	TrialList	0	cvbn	-999999	16	201595	0	n	1406	203001	148	-154	-6	-8	-16	4	14	6	5	46	0	0	0	0	4	4	2	2	0	2
Hungry_Donkey_bar_English_2	112	3	<?xml version="1.0"?>\n<Clock xmlns:dt="urn:schemas-microsoft-com:datatypes"><Description dt:dt="string">E-Prime Primary Realtime Clock</Description><StartTime><Timestamp dt:dt="int">0</Timestamp><DateUtc dt:dt="string">2015-06-17T20:32:03Z</DateUtc></StartTime><FrequencyChanges><FrequencyChange><Frequency dt:dt="r8">3507685</Frequency><Timestamp dt:dt="r8">49702672229</Timestamp><Current dt:dt="r8">0</Current><DateUtc dt:dt="string">2015-06-17T20:32:03Z</DateUtc></FrequencyChange></FrequencyChanges></Clock>\n	Hungry_Donkey_bar_English_2-112-3	60.017	-20	1.0.0.18	1	-1836707147	Standard	2.0.10.353	2.0.10.353	06-17-2015	6/17/2015 8:32:03 PM	16:32:03	2.0.10.248	47	Bar50-50.bmp	48	1	?	10r_4g.bmp	0r_4g.bmp	2r_2g.bmp	0r_2g.bmp	10r_4g.bmp				TrialProc	TrialList	0	cvbn	-999999	17	205028	0	c	117	205145	152	-164	-12	-14	-16	4	14	4	5	47	-10	0	-2	0	4	4	2	2	-10	4
Hungry_Donkey_bar_English_2	112	3	<?xml version="1.0"?>\n<Clock xmlns:dt="urn:schemas-microsoft-com:datatypes"><Description dt:dt="string">E-Prime Primary Realtime Clock</Description><StartTime><Timestamp dt:dt="int">0</Timestamp><DateUtc dt:dt="string">2015-06-17T20:32:03Z</DateUtc></StartTime><FrequencyChanges><FrequencyChange><Frequency dt:dt="r8">3507685</Frequency><Timestamp dt:dt="r8">49702672229</Timestamp><Current dt:dt="r8">0</Current><DateUtc dt:dt="string">2015-06-17T20:32:03Z</DateUtc></FrequencyChange></FrequencyChanges></Clock>\n	Hungry_Donkey_bar_English_2-112-3	60.017	-20	1.0.0.18	1	-1836707147	Standard	2.0.10.353	2.0.10.353	06-17-2015	6/17/2015 8:32:03 PM	16:32:03	2.0.10.248	48	Bar50-50.bmp	48	4	?	10r_4g.bmp	0r_4g.bmp	2r_2g.bmp	0r_2g.bmp				0r_2g.bmp	TrialProc	TrialList	0	cvbn	-999999	16	207177	0	n	352	207529	154	-164	-10	-14	-16	4	16	2	5	48	-10	0	-2	0	4	4	2	2	0	2
Hungry_Donkey_bar_English_2	112	3	<?xml version="1.0"?>\n<Clock xmlns:dt="urn:schemas-microsoft-com:datatypes"><Description dt:dt="string">E-Prime Primary Realtime Clock</Description><StartTime><Timestamp dt:dt="int">0</Timestamp><DateUtc dt:dt="string">2015-06-17T20:32:03Z</DateUtc></StartTime><FrequencyChanges><FrequencyChange><Frequency dt:dt="r8">3507685</Frequency><Timestamp dt:dt="r8">49702672229</Timestamp><Current dt:dt="r8">0</Current><DateUtc dt:dt="string">2015-06-17T20:32:03Z</DateUtc></FrequencyChange></FrequencyChanges></Clock>\n	Hungry_Donkey_bar_English_2-112-3	60.017	-20	1.0.0.18	1	-1836707147	Standard	2.0.10.353	2.0.10.353	06-17-2015	6/17/2015 8:32:03 PM	16:32:03	2.0.10.248	49	Bar50-50.bmp	49	4	?	0r_4g.bmp	0r_4g.bmp	0r_2g.bmp	0r_2g.bmp				0r_2g.bmp	TrialProc	TrialList	0	cvbn	-999999	17	209560	0	n	545	210105	156	-164	-8	-14	-16	4	18	7	5	49	0	0	0	0	4	4	2	2	0	2
Hungry_Donkey_bar_English_2	112	3	<?xml version="1.0"?>\n<Clock xmlns:dt="urn:schemas-microsoft-com:datatypes"><Description dt:dt="string">E-Prime Primary Realtime Clock</Description><StartTime><Timestamp dt:dt="int">0</Timestamp><DateUtc dt:dt="string">2015-06-17T20:32:03Z</DateUtc></StartTime><FrequencyChanges><FrequencyChange><Frequency dt:dt="r8">3507685</Frequency><Timestamp dt:dt="r8">49702672229</Timestamp><Current dt:dt="r8">0</Current><DateUtc dt:dt="string">2015-06-17T20:32:03Z</DateUtc></FrequencyChange></FrequencyChanges></Clock>\n	Hungry_Donkey_bar_English_2-112-3	60.017	-20	1.0.0.18	1	-1836707147	Standard	2.0.10.353	2.0.10.353	06-17-2015	6/17/2015 8:32:03 PM	16:32:03	2.0.10.248	50	Bar50-50.bmp	49	4	?	0r_4g.bmp	0r_4g.bmp	0r_2g.bmp	0r_2g.bmp				0r_2g.bmp	TrialProc	TrialList	0	cvbn	-999999	16	212142	0	n	475	212617	158	-164	-6	-14	-16	4	20	10	5	50	0	0	0	0	4	4	2	2	0	2
Hungry_Donkey_bar_English_2	112	3	<?xml version="1.0"?>\n<Clock xmlns:dt="urn:schemas-microsoft-com:datatypes"><Description dt:dt="string">E-Prime Primary Realtime Clock</Description><StartTime><Timestamp dt:dt="int">0</Timestamp><DateUtc dt:dt="string">2015-06-17T20:32:03Z</DateUtc></StartTime><FrequencyChanges><FrequencyChange><Frequency dt:dt="r8">3507685</Frequency><Timestamp dt:dt="r8">49702672229</Timestamp><Current dt:dt="r8">0</Current><DateUtc dt:dt="string">2015-06-17T20:32:03Z</DateUtc></FrequencyChange></FrequencyChanges></Clock>\n	Hungry_Donkey_bar_English_2-112-3	60.017	-20	1.0.0.18	1	-1836707147	Standard	2.0.10.353	2.0.10.353	06-17-2015	6/17/2015 8:32:03 PM	16:32:03	2.0.10.248	51	Bar50-50.bmp	49	4	?	0r_4g.bmp	0r_4g.bmp	0r_2g.bmp	0r_2g.bmp				0r_2g.bmp	TrialProc	TrialList	0	cvbn	-999999	16	214641	0	n	551	215192	160	-164	-4	-14	-16	4	22	7	6	51	0	0	0	0	4	4	2	2	0	2
Hungry_Donkey_bar_English_2	112	3	<?xml version="1.0"?>\n<Clock xmlns:dt="urn:schemas-microsoft-com:datatypes"><Description dt:dt="string">E-Prime Primary Realtime Clock</Description><StartTime><Timestamp dt:dt="int">0</Timestamp><DateUtc dt:dt="string">2015-06-17T20:32:03Z</DateUtc></StartTime><FrequencyChanges><FrequencyChange><Frequency dt:dt="r8">3507685</Frequency><Timestamp dt:dt="r8">49702672229</Timestamp><Current dt:dt="r8">0</Current><DateUtc dt:dt="string">2015-06-17T20:32:03Z</DateUtc></FrequencyChange></FrequencyChanges></Clock>\n	Hungry_Donkey_bar_English_2-112-3	60.017	-20	1.0.0.18	1	-1836707147	Standard	2.0.10.353	2.0.10.353	06-17-2015	6/17/2015 8:32:03 PM	16:32:03	2.0.10.248	52	Bar50-50.bmp	50	4	?	10r_4g.bmp	0r_4g.bmp	2r_2g.bmp	0r_2g.bmp				0r_2g.bmp	TrialProc	TrialList	0	cvbn	-999999	16	217224	0	n	512	217736	162	-164	-2	-14	-16	4	24	2	6	52	-10	0	-2	0	4	4	2	2	0	2
Hungry_Donkey_bar_English_2	112	3	<?xml version="1.0"?>\n<Clock xmlns:dt="urn:schemas-microsoft-com:datatypes"><Description dt:dt="string">E-Prime Primary Realtime Clock</Description><StartTime><Timestamp dt:dt="int">0</Timestamp><DateUtc dt:dt="string">2015-06-17T20:32:03Z</DateUtc></StartTime><FrequencyChanges><FrequencyChange><Frequency dt:dt="r8">3507685</Frequency><Timestamp dt:dt="r8">49702672229</Timestamp><Current dt:dt="r8">0</Current><DateUtc dt:dt="string">2015-06-17T20:32:03Z</DateUtc></FrequencyChange></FrequencyChanges></Clock>\n	Hungry_Donkey_bar_English_2-112-3	60.017	-20	1.0.0.18	1	-1836707147	Standard	2.0.10.353	2.0.10.353	06-17-2015	6/17/2015 8:32:03 PM	16:32:03	2.0.10.248	53	Bar50-50.bmp	50	4	?	0r_4g.bmp	0r_4g.bmp	0r_2g.bmp	0r_2g.bmp				0r_2g.bmp	TrialProc	TrialList	0	cvbn	-999999	16	219773	0	n	363	220136	164	-164	0	-14	-16	4	26	6	6	53	0	0	0	0	4	4	2	2	0	2
Hungry_Donkey_bar_English_2	112	3	<?xml version="1.0"?>\n<Clock xmlns:dt="urn:schemas-microsoft-com:datatypes"><Description dt:dt="string">E-Prime Primary Realtime Clock</Description><StartTime><Timestamp dt:dt="int">0</Timestamp><DateUtc dt:dt="string">2015-06-17T20:32:03Z</DateUtc></StartTime><FrequencyChanges><FrequencyChange><Frequency dt:dt="r8">3507685</Frequency><Timestamp dt:dt="r8">49702672229</Timestamp><Current dt:dt="r8">0</Current><DateUtc dt:dt="string">2015-06-17T20:32:03Z</DateUtc></FrequencyChange></FrequencyChanges></Clock>\n	Hungry_Donkey_bar_English_2-112-3	60.017	-20	1.0.0.18	1	-1836707147	Standard	2.0.10.353	2.0.10.353	06-17-2015	6/17/2015 8:32:03 PM	16:32:03	2.0.10.248	54	Bar50-50.bmp	50	4	?	0r_4g.bmp	0r_4g.bmp	0r_2g.bmp	0r_2g.bmp				0r_2g.bmp	TrialProc	TrialList	0	cvbn	-999999	16	222173	0	n	363	222536	166	-164	2	-14	-16	4	28	9	6	54	0	0	0	0	4	4	2	2	0	2
Hungry_Donkey_bar_English_2	112	3	<?xml version="1.0"?>\n<Clock xmlns:dt="urn:schemas-microsoft-com:datatypes"><Description dt:dt="string">E-Prime Primary Realtime Clock</Description><StartTime><Timestamp dt:dt="int">0</Timestamp><DateUtc dt:dt="string">2015-06-17T20:32:03Z</DateUtc></StartTime><FrequencyChanges><FrequencyChange><Frequency dt:dt="r8">3507685</Frequency><Timestamp dt:dt="r8">49702672229</Timestamp><Current dt:dt="r8">0</Current><DateUtc dt:dt="string">2015-06-17T20:32:03Z</DateUtc></FrequencyChange></FrequencyChanges></Clock>\n	Hungry_Donkey_bar_English_2-112-3	60.017	-20	1.0.0.18	1	-1836707147	Standard	2.0.10.353	2.0.10.353	06-17-2015	6/17/2015 8:32:03 PM	16:32:03	2.0.10.248	55	Bar50-50.bmp	51	4	?	0r_4g.bmp	0r_4g.bmp	0r_2g.bmp	0r_2g.bmp				0r_2g.bmp	TrialProc	TrialList	0	cvbn	-999999	16	224572	0	n	492	225064	168	-164	4	-14	-16	4	30	10	6	55	0	0	0	0	4	4	2	2	0	2
Hungry_Donkey_bar_English_2	112	3	<?xml version="1.0"?>\n<Clock xmlns:dt="urn:schemas-microsoft-com:datatypes"><Description dt:dt="string">E-Prime Primary Realtime Clock</Description><StartTime><Timestamp dt:dt="int">0</Timestamp><DateUtc dt:dt="string">2015-06-17T20:32:03Z</DateUtc></StartTime><FrequencyChanges><FrequencyChange><Frequency dt:dt="r8">3507685</Frequency><Timestamp dt:dt="r8">49702672229</Timestamp><Current dt:dt="r8">0</Current><DateUtc dt:dt="string">2015-06-17T20:32:03Z</DateUtc></FrequencyChange></FrequencyChanges></Clock>\n	Hungry_Donkey_bar_English_2-112-3	60.017	-20	1.0.0.18	1	-1836707147	Standard	2.0.10.353	2.0.10.353	06-17-2015	6/17/2015 8:32:03 PM	16:32:03	2.0.10.248	56	Bar50-50.bmp	51	4	?	0r_4g.bmp	0r_4g.bmp	0r_2g.bmp	0r_2g.bmp				0r_2g.bmp	TrialProc	TrialList	0	cvbn	-999999	16	227088	0	n	488	227576	170	-164	6	-14	-16	4	32	8	6	56	0	0	0	0	4	4	2	2	0	2
Hungry_Donkey_bar_English_2	112	3	<?xml version="1.0"?>\n<Clock xmlns:dt="urn:schemas-microsoft-com:datatypes"><Description dt:dt="string">E-Prime Primary Realtime Clock</Description><StartTime><Timestamp dt:dt="int">0</Timestamp><DateUtc dt:dt="string">2015-06-17T20:32:03Z</DateUtc></StartTime><FrequencyChanges><FrequencyChange><Frequency dt:dt="r8">3507685</Frequency><Timestamp dt:dt="r8">49702672229</Timestamp><Current dt:dt="r8">0</Current><DateUtc dt:dt="string">2015-06-17T20:32:03Z</DateUtc></FrequencyChange></FrequencyChanges></Clock>\n	Hungry_Donkey_bar_English_2-112-3	60.017	-20	1.0.0.18	1	-1836707147	Standard	2.0.10.353	2.0.10.353	06-17-2015	6/17/2015 8:32:03 PM	16:32:03	2.0.10.248	57	Bar50-50.bmp	51	4	?	10r_4g.bmp	0r_4g.bmp	2r_2g.bmp	0r_2g.bmp				0r_2g.bmp	TrialProc	TrialList	0	cvbn	-999999	16	229604	0	n	356	229960	172	-164	8	-14	-16	4	34	3	6	57	-10	0	-2	0	4	4	2	2	0	2
Hungry_Donkey_bar_English_2	112	3	<?xml version="1.0"?>\n<Clock xmlns:dt="urn:schemas-microsoft-com:datatypes"><Description dt:dt="string">E-Prime Primary Realtime Clock</Description><StartTime><Timestamp dt:dt="int">0</Timestamp><DateUtc dt:dt="string">2015-06-17T20:32:03Z</DateUtc></StartTime><FrequencyChanges><FrequencyChange><Frequency dt:dt="r8">3507685</Frequency><Timestamp dt:dt="r8">49702672229</Timestamp><Current dt:dt="r8">0</Current><DateUtc dt:dt="string">2015-06-17T20:32:03Z</DateUtc></FrequencyChange></FrequencyChanges></Clock>\n	Hungry_Donkey_bar_English_2-112-3	60.017	-20	1.0.0.18	1	-1836707147	Standard	2.0.10.353	2.0.10.353	06-17-2015	6/17/2015 8:32:03 PM	16:32:03	2.0.10.248	58	Bar50-50.bmp	51	4	?	10r_4g.bmp	0r_4g.bmp	2r_2g.bmp	0r_2g.bmp				0r_2g.bmp	TrialProc	TrialList	0	cvbn	-999999	16	231986	0	n	342	232328	174	-164	10	-14	-16	4	36	4	6	58	-10	0	-2	0	4	4	2	2	0	2
Hungry_Donkey_bar_English_2	112	3	<?xml version="1.0"?>\n<Clock xmlns:dt="urn:schemas-microsoft-com:datatypes"><Description dt:dt="string">E-Prime Primary Realtime Clock</Description><StartTime><Timestamp dt:dt="int">0</Timestamp><DateUtc dt:dt="string">2015-06-17T20:32:03Z</DateUtc></StartTime><FrequencyChanges><FrequencyChange><Frequency dt:dt="r8">3507685</Frequency><Timestamp dt:dt="r8">49702672229</Timestamp><Current dt:dt="r8">0</Current><DateUtc dt:dt="string">2015-06-17T20:32:03Z</DateUtc></FrequencyChange></FrequencyChanges></Clock>\n	Hungry_Donkey_bar_English_2-112-3	60.017	-20	1.0.0.18	1	-1836707147	Standard	2.0.10.353	2.0.10.353	06-17-2015	6/17/2015 8:32:03 PM	16:32:03	2.0.10.248	59	Bar50-50.bmp	50	4	?	8r_4g.bmp	50r_4g.bmp	1r_2g.bmp	10r_2g.bmp				10r_2g.bmp	TrialProc	TrialList	0	cvbn	-999999	16	234352	0	n	583	234935	176	-174	2	-14	-16	4	28	1	6	59	-8	-50	-1	-10	4	4	2	2	-10	2
Hungry_Donkey_bar_English_2	112	3	<?xml version="1.0"?>\n<Clock xmlns:dt="urn:schemas-microsoft-com:datatypes"><Description dt:dt="string">E-Prime Primary Realtime Clock</Description><StartTime><Timestamp dt:dt="int">0</Timestamp><DateUtc dt:dt="string">2015-06-17T20:32:03Z</DateUtc></StartTime><FrequencyChanges><FrequencyChange><Frequency dt:dt="r8">3507685</Frequency><Timestamp dt:dt="r8">49702672229</Timestamp><Current dt:dt="r8">0</Current><DateUtc dt:dt="string">2015-06-17T20:32:03Z</DateUtc></FrequencyChange></FrequencyChanges></Clock>\n	Hungry_Donkey_bar_English_2-112-3	60.017	-20	1.0.0.18	1	-1836707147	Standard	2.0.10.353	2.0.10.353	06-17-2015	6/17/2015 8:32:03 PM	16:32:03	2.0.10.248	60	Bar50-50.bmp	51	2	?	12r_4g.bmp	0r_4g.bmp	3r_2g.bmp	0r_2g.bmp		0r_4g.bmp			TrialProc	TrialList	0	cvbn	-999999	16	236968	0	v	4095	241063	180	-174	6	-14	-12	4	28	5	6	60	-12	0	-3	0	4	4	2	2	0	4
Hungry_Donkey_bar_English_2	112	3	<?xml version="1.0"?>\n<Clock xmlns:dt="urn:schemas-microsoft-com:datatypes"><Description dt:dt="string">E-Prime Primary Realtime Clock</Description><StartTime><Timestamp dt:dt="int">0</Timestamp><DateUtc dt:dt="string">2015-06-17T20:32:03Z</DateUtc></StartTime><FrequencyChanges><FrequencyChange><Frequency dt:dt="r8">3507685</Frequency><Timestamp dt:dt="r8">49702672229</Timestamp><Current dt:dt="r8">0</Current><DateUtc dt:dt="string">2015-06-17T20:32:03Z</DateUtc></FrequencyChange></FrequencyChanges></Clock>\n	Hungry_Donkey_bar_English_2-112-3	60.017	-20	1.0.0.18	1	-1836707147	Standard	2.0.10.353	2.0.10.353	06-17-2015	6/17/2015 8:32:03 PM	16:32:03	2.0.10.248	61	Bar50-50.bmp	51	3	?	10r_4g.bmp	0r_4g.bmp	2r_2g.bmp	0r_2g.bmp			2r_2g.bmp		TrialProc	TrialList	0	cvbn	-999999	16	243100	0	b	1179	244279	182	-176	6	-14	-12	4	28	3	7	61	-10	0	-2	0	4	4	2	2	-2	2
Hungry_Donkey_bar_English_2	112	3	<?xml version="1.0"?>\n<Clock xmlns:dt="urn:schemas-microsoft-com:datatypes"><Description dt:dt="string">E-Prime Primary Realtime Clock</Description><StartTime><Timestamp dt:dt="int">0</Timestamp><DateUtc dt:dt="string">2015-06-17T20:32:03Z</DateUtc></StartTime><FrequencyChanges><FrequencyChange><Frequency dt:dt="r8">3507685</Frequency><Timestamp dt:dt="r8">49702672229</Timestamp><Current dt:dt="r8">0</Current><DateUtc dt:dt="string">2015-06-17T20:32:03Z</DateUtc></FrequencyChange></FrequencyChanges></Clock>\n	Hungry_Donkey_bar_English_2-112-3	60.017	-20	1.0.0.18	1	-1836707147	Standard	2.0.10.353	2.0.10.353	06-17-2015	6/17/2015 8:32:03 PM	16:32:03	2.0.10.248	62	Bar50-50.bmp	50	1	?	12r_4g.bmp	0r_4g.bmp	3r_2g.bmp	0r_2g.bmp	12r_4g.bmp				TrialProc	TrialList	0	cvbn	-999999	16	246316	0	c	2187	248503	186	-188	-2	-22	-12	4	28	5	7	62	-12	0	-3	0	4	4	2	2	-12	4
Hungry_Donkey_bar_English_2	112	3	<?xml version="1.0"?>\n<Clock xmlns:dt="urn:schemas-microsoft-com:datatypes"><Description dt:dt="string">E-Prime Primary Realtime Clock</Description><StartTime><Timestamp dt:dt="int">0</Timestamp><DateUtc dt:dt="string">2015-06-17T20:32:03Z</DateUtc></StartTime><FrequencyChanges><FrequencyChange><Frequency dt:dt="r8">3507685</Frequency><Timestamp dt:dt="r8">49702672229</Timestamp><Current dt:dt="r8">0</Current><DateUtc dt:dt="string">2015-06-17T20:32:03Z</DateUtc></FrequencyChange></FrequencyChanges></Clock>\n	Hungry_Donkey_bar_English_2-112-3	60.017	-20	1.0.0.18	1	-1836707147	Standard	2.0.10.353	2.0.10.353	06-17-2015	6/17/2015 8:32:03 PM	16:32:03	2.0.10.248	63	Bar50-50.bmp	44	2	?	8r_4g.bmp	50r_4g.bmp	1r_2g.bmp	10r_2g.bmp		50r_4g.bmp			TrialProc	TrialList	0	cvbn	-999999	16	250548	0	v	467	251015	190	-238	-48	-22	-58	4	28	1	7	63	-8	-50	-1	-10	4	4	2	2	-50	4
Hungry_Donkey_bar_English_2	112	3	<?xml version="1.0"?>\n<Clock xmlns:dt="urn:schemas-microsoft-com:datatypes"><Description dt:dt="string">E-Prime Primary Realtime Clock</Description><StartTime><Timestamp dt:dt="int">0</Timestamp><DateUtc dt:dt="string">2015-06-17T20:32:03Z</DateUtc></StartTime><FrequencyChanges><FrequencyChange><Frequency dt:dt="r8">3507685</Frequency><Timestamp dt:dt="r8">49702672229</Timestamp><Current dt:dt="r8">0</Current><DateUtc dt:dt="string">2015-06-17T20:32:03Z</DateUtc></FrequencyChange></FrequencyChanges></Clock>\n	Hungry_Donkey_bar_English_2-112-3	60.017	-20	1.0.0.18	1	-1836707147	Standard	2.0.10.353	2.0.10.353	06-17-2015	6/17/2015 8:32:03 PM	16:32:03	2.0.10.248	64	Bar50-50.bmp	44	3	?	10r_4g.bmp	0r_4g.bmp	2r_2g.bmp	0r_2g.bmp			2r_2g.bmp		TrialProc	TrialList	0	cvbn	-999999	16	253047	0	b	511	253558	192	-240	-48	-22	-58	4	28	2	7	64	-10	0	-2	0	4	4	2	2	-2	2
Hungry_Donkey_bar_English_2	112	3	<?xml version="1.0"?>\n<Clock xmlns:dt="urn:schemas-microsoft-com:datatypes"><Description dt:dt="string">E-Prime Primary Realtime Clock</Description><StartTime><Timestamp dt:dt="int">0</Timestamp><DateUtc dt:dt="string">2015-06-17T20:32:03Z</DateUtc></StartTime><FrequencyChanges><FrequencyChange><Frequency dt:dt="r8">3507685</Frequency><Timestamp dt:dt="r8">49702672229</Timestamp><Current dt:dt="r8">0</Current><DateUtc dt:dt="string">2015-06-17T20:32:03Z</DateUtc></FrequencyChange></FrequencyChanges></Clock>\n	Hungry_Donkey_bar_English_2-112-3	60.017	-20	1.0.0.18	1	-1836707147	Standard	2.0.10.353	2.0.10.353	06-17-2015	6/17/2015 8:32:03 PM	16:32:03	2.0.10.248	65	Bar50-50.bmp	45	4	?	0r_4g.bmp	0r_4g.bmp	0r_2g.bmp	0r_2g.bmp				0r_2g.bmp	TrialProc	TrialList	0	cvbn	-999999	16	255596	0	n	634	256230	194	-240	-46	-22	-58	4	30	7	7	65	0	0	0	0	4	4	2	2	0	2
Hungry_Donkey_bar_English_2	112	3	<?xml version="1.0"?>\n<Clock xmlns:dt="urn:schemas-microsoft-com:datatypes"><Description dt:dt="string">E-Prime Primary Realtime Clock</Description><StartTime><Timestamp dt:dt="int">0</Timestamp><DateUtc dt:dt="string">2015-06-17T20:32:03Z</DateUtc></StartTime><FrequencyChanges><FrequencyChange><Frequency dt:dt="r8">3507685</Frequency><Timestamp dt:dt="r8">49702672229</Timestamp><Current dt:dt="r8">0</Current><DateUtc dt:dt="string">2015-06-17T20:32:03Z</DateUtc></FrequencyChange></FrequencyChanges></Clock>\n	Hungry_Donkey_bar_English_2-112-3	60.017	-20	1.0.0.18	1	-1836707147	Standard	2.0.10.353	2.0.10.353	06-17-2015	6/17/2015 8:32:03 PM	16:32:03	2.0.10.248	66	Bar50-50.bmp	45	4	?	0r_4g.bmp	0r_4g.bmp	0r_2g.bmp	0r_2g.bmp				0r_2g.bmp	TrialProc	TrialList	0	cvbn	-999999	16	258262	0	n	464	258726	196	-240	-44	-22	-58	4	32	9	7	66	0	0	0	0	4	4	2	2	0	2
Hungry_Donkey_bar_English_2	112	3	<?xml version="1.0"?>\n<Clock xmlns:dt="urn:schemas-microsoft-com:datatypes"><Description dt:dt="string">E-Prime Primary Realtime Clock</Description><StartTime><Timestamp dt:dt="int">0</Timestamp><DateUtc dt:dt="string">2015-06-17T20:32:03Z</DateUtc></StartTime><FrequencyChanges><FrequencyChange><Frequency dt:dt="r8">3507685</Frequency><Timestamp dt:dt="r8">49702672229</Timestamp><Current dt:dt="r8">0</Current><DateUtc dt:dt="string">2015-06-17T20:32:03Z</DateUtc></FrequencyChange></FrequencyChanges></Clock>\n	Hungry_Donkey_bar_English_2-112-3	60.017	-20	1.0.0.18	1	-1836707147	Standard	2.0.10.353	2.0.10.353	06-17-2015	6/17/2015 8:32:03 PM	16:32:03	2.0.10.248	67	Bar50-50.bmp	45	4	?	0r_4g.bmp	0r_4g.bmp	0r_2g.bmp	0r_2g.bmp				0r_2g.bmp	TrialProc	TrialList	0	cvbn	-999999	16	260761	0	n	477	261238	198	-240	-42	-22	-58	4	34	6	7	67	0	0	0	0	4	4	2	2	0	2
Hungry_Donkey_bar_English_2	112	3	<?xml version="1.0"?>\n<Clock xmlns:dt="urn:schemas-microsoft-com:datatypes"><Description dt:dt="string">E-Prime Primary Realtime Clock</Description><StartTime><Timestamp dt:dt="int">0</Timestamp><DateUtc dt:dt="string">2015-06-17T20:32:03Z</DateUtc></StartTime><FrequencyChanges><FrequencyChange><Frequency dt:dt="r8">3507685</Frequency><Timestamp dt:dt="r8">49702672229</Timestamp><Current dt:dt="r8">0</Current><DateUtc dt:dt="string">2015-06-17T20:32:03Z</DateUtc></FrequencyChange></FrequencyChanges></Clock>\n	Hungry_Donkey_bar_English_2-112-3	60.017	-20	1.0.0.18	1	-1836707147	Standard	2.0.10.353	2.0.10.353	06-17-2015	6/17/2015 8:32:03 PM	16:32:03	2.0.10.248	68	Bar50-50.bmp	45	4	?	0r_4g.bmp	0r_4g.bmp	0r_2g.bmp	0r_2g.bmp				0r_2g.bmp	TrialProc	TrialList	0	cvbn	-999999	16	263261	0	n	345	263606	200	-240	-40	-22	-58	4	36	10	7	68	0	0	0	0	4	4	2	2	0	2
Hungry_Donkey_bar_English_2	112	3	<?xml version="1.0"?>\n<Clock xmlns:dt="urn:schemas-microsoft-com:datatypes"><Description dt:dt="string">E-Prime Primary Realtime Clock</Description><StartTime><Timestamp dt:dt="int">0</Timestamp><DateUtc dt:dt="string">2015-06-17T20:32:03Z</DateUtc></StartTime><FrequencyChanges><FrequencyChange><Frequency dt:dt="r8">3507685</Frequency><Timestamp dt:dt="r8">49702672229</Timestamp><Current dt:dt="r8">0</Current><DateUtc dt:dt="string">2015-06-17T20:32:03Z</DateUtc></FrequencyChange></FrequencyChanges></Clock>\n	Hungry_Donkey_bar_English_2-112-3	60.017	-20	1.0.0.18	1	-1836707147	Standard	2.0.10.353	2.0.10.353	06-17-2015	6/17/2015 8:32:03 PM	16:32:03	2.0.10.248	69	Bar50-50.bmp	46	4	?	10r_4g.bmp	0r_4g.bmp	2r_2g.bmp	0r_2g.bmp				0r_2g.bmp	TrialProc	TrialList	0	cvbn	-999999	16	265643	0	n	315	265958	202	-240	-38	-22	-58	4	38	4	7	69	-10	0	-2	0	4	4	2	2	0	2
Hungry_Donkey_bar_English_2	112	3	<?xml version="1.0"?>\n<Clock xmlns:dt="urn:schemas-microsoft-com:datatypes"><Description dt:dt="string">E-Prime Primary Realtime Clock</Description><StartTime><Timestamp dt:dt="int">0</Timestamp><DateUtc dt:dt="string">2015-06-17T20:32:03Z</DateUtc></StartTime><FrequencyChanges><FrequencyChange><Frequency dt:dt="r8">3507685</Frequency><Timestamp dt:dt="r8">49702672229</Timestamp><Current dt:dt="r8">0</Current><DateUtc dt:dt="string">2015-06-17T20:32:03Z</DateUtc></FrequencyChange></FrequencyChanges></Clock>\n	Hungry_Donkey_bar_English_2-112-3	60.017	-20	1.0.0.18	1	-1836707147	Standard	2.0.10.353	2.0.10.353	06-17-2015	6/17/2015 8:32:03 PM	16:32:03	2.0.10.248	70	Bar50-50.bmp	46	4	?	0r_4g.bmp	0r_4g.bmp	0r_2g.bmp	0r_2g.bmp				0r_2g.bmp	TrialProc	TrialList	0	cvbn	-999999	16	267993	0	n	317	268310	204	-240	-36	-22	-58	4	40	8	7	70	0	0	0	0	4	4	2	2	0	2
Hungry_Donkey_bar_English_2	112	3	<?xml version="1.0"?>\n<Clock xmlns:dt="urn:schemas-microsoft-com:datatypes"><Description dt:dt="string">E-Prime Primary Realtime Clock</Description><StartTime><Timestamp dt:dt="int">0</Timestamp><DateUtc dt:dt="string">2015-06-17T20:32:03Z</DateUtc></StartTime><FrequencyChanges><FrequencyChange><Frequency dt:dt="r8">3507685</Frequency><Timestamp dt:dt="r8">49702672229</Timestamp><Current dt:dt="r8">0</Current><DateUtc dt:dt="string">2015-06-17T20:32:03Z</DateUtc></FrequencyChange></FrequencyChanges></Clock>\n	Hungry_Donkey_bar_English_2-112-3	60.017	-20	1.0.0.18	1	-1836707147	Standard	2.0.10.353	2.0.10.353	06-17-2015	6/17/2015 8:32:03 PM	16:32:03	2.0.10.248	71	Bar50-50.bmp	46	4	?	10r_4g.bmp	0r_4g.bmp	2r_2g.bmp	0r_2g.bmp				0r_2g.bmp	TrialProc	TrialList	0	cvbn	-999999	16	270342	0	n	128	270470	206	-240	-34	-22	-58	4	42	4	8	71	-10	0	-2	0	4	4	2	2	0	2
Hungry_Donkey_bar_English_2	112	3	<?xml version="1.0"?>\n<Clock xmlns:dt="urn:schemas-microsoft-com:datatypes"><Description dt:dt="string">E-Prime Primary Realtime Clock</Description><StartTime><Timestamp dt:dt="int">0</Timestamp><DateUtc dt:dt="string">2015-06-17T20:32:03Z</DateUtc></StartTime><FrequencyChanges><FrequencyChange><Frequency dt:dt="r8">3507685</Frequency><Timestamp dt:dt="r8">49702672229</Timestamp><Current dt:dt="r8">0</Current><DateUtc dt:dt="string">2015-06-17T20:32:03Z</DateUtc></FrequencyChange></FrequencyChanges></Clock>\n	Hungry_Donkey_bar_English_2-112-3	60.017	-20	1.0.0.18	1	-1836707147	Standard	2.0.10.353	2.0.10.353	06-17-2015	6/17/2015 8:32:03 PM	16:32:03	2.0.10.248	72	Bar50-50.bmp	46	4	?	0r_4g.bmp	0r_4g.bmp	0r_2g.bmp	0r_2g.bmp				0r_2g.bmp	TrialProc	TrialList	0	cvbn	-999999	16	272508	0	n	537	273045	208	-240	-32	-22	-58	4	44	9	8	72	0	0	0	0	4	4	2	2	0	2
Hungry_Donkey_bar_English_2	112	3	<?xml version="1.0"?>\n<Clock xmlns:dt="urn:schemas-microsoft-com:datatypes"><Description dt:dt="string">E-Prime Primary Realtime Clock</Description><StartTime><Timestamp dt:dt="int">0</Timestamp><DateUtc dt:dt="string">2015-06-17T20:32:03Z</DateUtc></StartTime><FrequencyChanges><FrequencyChange><Frequency dt:dt="r8">3507685</Frequency><Timestamp dt:dt="r8">49702672229</Timestamp><Current dt:dt="r8">0</Current><DateUtc dt:dt="string">2015-06-17T20:32:03Z</DateUtc></FrequencyChange></FrequencyChanges></Clock>\n	Hungry_Donkey_bar_English_2-112-3	60.017	-20	1.0.0.18	1	-1836707147	Standard	2.0.10.353	2.0.10.353	06-17-2015	6/17/2015 8:32:03 PM	16:32:03	2.0.10.248	73	Bar50-50.bmp	47	4	?	0r_4g.bmp	0r_4g.bmp	0r_2g.bmp	0r_2g.bmp				0r_2g.bmp	TrialProc	TrialList	0	cvbn	-999999	16	275074	0	n	435	275509	210	-240	-30	-22	-58	4	46	10	8	73	0	0	0	0	4	4	2	2	0	2
Hungry_Donkey_bar_English_2	112	3	<?xml version="1.0"?>\n<Clock xmlns:dt="urn:schemas-microsoft-com:datatypes"><Description dt:dt="string">E-Prime Primary Realtime Clock</Description><StartTime><Timestamp dt:dt="int">0</Timestamp><DateUtc dt:dt="string">2015-06-17T20:32:03Z</DateUtc></StartTime><FrequencyChanges><FrequencyChange><Frequency dt:dt="r8">3507685</Frequency><Timestamp dt:dt="r8">49702672229</Timestamp><Current dt:dt="r8">0</Current><DateUtc dt:dt="string">2015-06-17T20:32:03Z</DateUtc></FrequencyChange></FrequencyChanges></Clock>\n	Hungry_Donkey_bar_English_2-112-3	60.017	-20	1.0.0.18	1	-1836707147	Standard	2.0.10.353	2.0.10.353	06-17-2015	6/17/2015 8:32:03 PM	16:32:03	2.0.10.248	74	Bar50-50.bmp	47	4	?	10r_4g.bmp	0r_4g.bmp	2r_2g.bmp	0r_2g.bmp				0r_2g.bmp	TrialProc	TrialList	0	cvbn	-999999	16	277540	0	n	241	277781	212	-240	-28	-22	-58	4	48	2	8	74	-10	0	-2	0	4	4	2	2	0	2
Hungry_Donkey_bar_English_2	112	3	<?xml version="1.0"?>\n<Clock xmlns:dt="urn:schemas-microsoft-com:datatypes"><Description dt:dt="string">E-Prime Primary Realtime Clock</Description><StartTime><Timestamp dt:dt="int">0</Timestamp><DateUtc dt:dt="string">2015-06-17T20:32:03Z</DateUtc></StartTime><FrequencyChanges><FrequencyChange><Frequency dt:dt="r8">3507685</Frequency><Timestamp dt:dt="r8">49702672229</Timestamp><Current dt:dt="r8">0</Current><DateUtc dt:dt="string">2015-06-17T20:32:03Z</DateUtc></FrequencyChange></FrequencyChanges></Clock>\n	Hungry_Donkey_bar_English_2-112-3	60.017	-20	1.0.0.18	1	-1836707147	Standard	2.0.10.353	2.0.10.353	06-17-2015	6/17/2015 8:32:03 PM	16:32:03	2.0.10.248	75	Bar50-50.bmp	47	4	?	0r_4g.bmp	0r_4g.bmp	0r_2g.bmp	0r_2g.bmp				0r_2g.bmp	TrialProc	TrialList	0	cvbn	-999999	16	279806	0	n	359	280165	214	-240	-26	-22	-58	4	50	8	8	75	0	0	0	0	4	4	2	2	0	2
Hungry_Donkey_bar_English_2	112	3	<?xml version="1.0"?>\n<Clock xmlns:dt="urn:schemas-microsoft-com:datatypes"><Description dt:dt="string">E-Prime Primary Realtime Clock</Description><StartTime><Timestamp dt:dt="int">0</Timestamp><DateUtc dt:dt="string">2015-06-17T20:32:03Z</DateUtc></StartTime><FrequencyChanges><FrequencyChange><Frequency dt:dt="r8">3507685</Frequency><Timestamp dt:dt="r8">49702672229</Timestamp><Current dt:dt="r8">0</Current><DateUtc dt:dt="string">2015-06-17T20:32:03Z</DateUtc></FrequencyChange></FrequencyChanges></Clock>\n	Hungry_Donkey_bar_English_2-112-3	60.017	-20	1.0.0.18	1	-1836707147	Standard	2.0.10.353	2.0.10.353	06-17-2015	6/17/2015 8:32:03 PM	16:32:03	2.0.10.248	76	Bar50-50.bmp	47	4	?	10r_4g.bmp	0r_4g.bmp	2r_2g.bmp	0r_2g.bmp				0r_2g.bmp	TrialProc	TrialList	0	cvbn	-999999	16	282189	0	n	472	282661	216	-240	-24	-22	-58	4	52	3	8	76	-10	0	-2	0	4	4	2	2	0	2
Hungry_Donkey_bar_English_2	112	3	<?xml version="1.0"?>\n<Clock xmlns:dt="urn:schemas-microsoft-com:datatypes"><Description dt:dt="string">E-Prime Primary Realtime Clock</Description><StartTime><Timestamp dt:dt="int">0</Timestamp><DateUtc dt:dt="string">2015-06-17T20:32:03Z</DateUtc></StartTime><FrequencyChanges><FrequencyChange><Frequency dt:dt="r8">3507685</Frequency><Timestamp dt:dt="r8">49702672229</Timestamp><Current dt:dt="r8">0</Current><DateUtc dt:dt="string">2015-06-17T20:32:03Z</DateUtc></FrequencyChange></FrequencyChanges></Clock>\n	Hungry_Donkey_bar_English_2-112-3	60.017	-20	1.0.0.18	1	-1836707147	Standard	2.0.10.353	2.0.10.353	06-17-2015	6/17/2015 8:32:03 PM	16:32:03	2.0.10.248	77	Bar50-50.bmp	48	4	?	0r_4g.bmp	0r_4g.bmp	0r_2g.bmp	0r_2g.bmp				0r_2g.bmp	TrialProc	TrialList	0	cvbn	-999999	16	284688	0	n	549	285237	218	-240	-22	-22	-58	4	54	6	8	77	0	0	0	0	4	4	2	2	0	2
Hungry_Donkey_bar_English_2	112	3	<?xml version="1.0"?>\n<Clock xmlns:dt="urn:schemas-microsoft-com:datatypes"><Description dt:dt="string">E-Prime Primary Realtime Clock</Description><StartTime><Timestamp dt:dt="int">0</Timestamp><DateUtc dt:dt="string">2015-06-17T20:32:03Z</DateUtc></StartTime><FrequencyChanges><FrequencyChange><Frequency dt:dt="r8">3507685</Frequency><Timestamp dt:dt="r8">49702672229</Timestamp><Current dt:dt="r8">0</Current><DateUtc dt:dt="string">2015-06-17T20:32:03Z</DateUtc></FrequencyChange></FrequencyChanges></Clock>\n	Hungry_Donkey_bar_English_2-112-3	60.017	-20	1.0.0.18	1	-1836707147	Standard	2.0.10.353	2.0.10.353	06-17-2015	6/17/2015 8:32:03 PM	16:32:03	2.0.10.248	78	Bar50-50.bmp	48	4	?	0r_4g.bmp	0r_4g.bmp	0r_2g.bmp	0r_2g.bmp				0r_2g.bmp	TrialProc	TrialList	0	cvbn	-999999	16	287270	0	n	255	287525	220	-240	-20	-22	-58	4	56	7	8	78	0	0	0	0	4	4	2	2	0	2
Hungry_Donkey_bar_English_2	112	3	<?xml version="1.0"?>\n<Clock xmlns:dt="urn:schemas-microsoft-com:datatypes"><Description dt:dt="string">E-Prime Primary Realtime Clock</Description><StartTime><Timestamp dt:dt="int">0</Timestamp><DateUtc dt:dt="string">2015-06-17T20:32:03Z</DateUtc></StartTime><FrequencyChanges><FrequencyChange><Frequency dt:dt="r8">3507685</Frequency><Timestamp dt:dt="r8">49702672229</Timestamp><Current dt:dt="r8">0</Current><DateUtc dt:dt="string">2015-06-17T20:32:03Z</DateUtc></FrequencyChange></FrequencyChanges></Clock>\n	Hungry_Donkey_bar_English_2-112-3	60.017	-20	1.0.0.18	1	-1836707147	Standard	2.0.10.353	2.0.10.353	06-17-2015	6/17/2015 8:32:03 PM	16:32:03	2.0.10.248	79	Bar50-50.bmp	48	4	?	12r_4g.bmp	0r_4g.bmp	3r_2g.bmp	0r_2g.bmp				0r_2g.bmp	TrialProc	TrialList	0	cvbn	-999999	16	289553	0	n	1188	290741	222	-240	-18	-22	-58	4	58	5	8	79	-12	0	-3	0	4	4	2	2	0	2
Hungry_Donkey_bar_English_2	112	3	<?xml version="1.0"?>\n<Clock xmlns:dt="urn:schemas-microsoft-com:datatypes"><Description dt:dt="string">E-Prime Primary Realtime Clock</Description><StartTime><Timestamp dt:dt="int">0</Timestamp><DateUtc dt:dt="string">2015-06-17T20:32:03Z</DateUtc></StartTime><FrequencyChanges><FrequencyChange><Frequency dt:dt="r8">3507685</Frequency><Timestamp dt:dt="r8">49702672229</Timestamp><Current dt:dt="r8">0</Current><DateUtc dt:dt="string">2015-06-17T20:32:03Z</DateUtc></FrequencyChange></FrequencyChanges></Clock>\n	Hungry_Donkey_bar_English_2-112-3	60.017	-20	1.0.0.18	1	-1836707147	Standard	2.0.10.353	2.0.10.353	06-17-2015	6/17/2015 8:32:03 PM	16:32:03	2.0.10.248	80	Bar50-50.bmp	47	4	?	8r_4g.bmp	50r_4g.bmp	1r_2g.bmp	10r_2g.bmp				10r_2g.bmp	TrialProc	TrialList	0	cvbn	-999999	16	292769	0	n	291	293060	224	-250	-26	-22	-58	4	50	1	8	80	-8	-50	-1	-10	4	4	2	2	-10	2
Hungry_Donkey_bar_English_2	112	3	<?xml version="1.0"?>\n<Clock xmlns:dt="urn:schemas-microsoft-com:datatypes"><Description dt:dt="string">E-Prime Primary Realtime Clock</Description><StartTime><Timestamp dt:dt="int">0</Timestamp><DateUtc dt:dt="string">2015-06-17T20:32:03Z</DateUtc></StartTime><FrequencyChanges><FrequencyChange><Frequency dt:dt="r8">3507685</Frequency><Timestamp dt:dt="r8">49702672229</Timestamp><Current dt:dt="r8">0</Current><DateUtc dt:dt="string">2015-06-17T20:32:03Z</DateUtc></FrequencyChange></FrequencyChanges></Clock>\n	Hungry_Donkey_bar_English_2-112-3	60.017	-20	1.0.0.18	1	-1836707147	Standard	2.0.10.353	2.0.10.353	06-17-2015	6/17/2015 8:32:03 PM	16:32:03	2.0.10.248	81	Bar50-50.bmp	48	2	?	10r_4g.bmp	0r_4g.bmp	2r_2g.bmp	0r_2g.bmp		0r_4g.bmp			TrialProc	TrialList	0	cvbn	-999999	16	295085	0	v	1623	296708	228	-250	-22	-22	-54	4	50	4	9	81	-10	0	-2	0	4	4	2	2	0	4
Hungry_Donkey_bar_English_2	112	3	<?xml version="1.0"?>\n<Clock xmlns:dt="urn:schemas-microsoft-com:datatypes"><Description dt:dt="string">E-Prime Primary Realtime Clock</Description><StartTime><Timestamp dt:dt="int">0</Timestamp><DateUtc dt:dt="string">2015-06-17T20:32:03Z</DateUtc></StartTime><FrequencyChanges><FrequencyChange><Frequency dt:dt="r8">3507685</Frequency><Timestamp dt:dt="r8">49702672229</Timestamp><Current dt:dt="r8">0</Current><DateUtc dt:dt="string">2015-06-17T20:32:03Z</DateUtc></FrequencyChange></FrequencyChanges></Clock>\n	Hungry_Donkey_bar_English_2-112-3	60.017	-20	1.0.0.18	1	-1836707147	Standard	2.0.10.353	2.0.10.353	06-17-2015	6/17/2015 8:32:03 PM	16:32:03	2.0.10.248	82	Bar50-50.bmp	48	1	?	0r_4g.bmp	0r_4g.bmp	0r_2g.bmp	0r_2g.bmp	0r_4g.bmp				TrialProc	TrialList	0	cvbn	-999999	16	298734	0	c	1302	300036	232	-250	-18	-18	-54	4	50	7	9	82	0	0	0	0	4	4	2	2	0	4
Hungry_Donkey_bar_English_2	112	3	<?xml version="1.0"?>\n<Clock xmlns:dt="urn:schemas-microsoft-com:datatypes"><Description dt:dt="string">E-Prime Primary Realtime Clock</Description><StartTime><Timestamp dt:dt="int">0</Timestamp><DateUtc dt:dt="string">2015-06-17T20:32:03Z</DateUtc></StartTime><FrequencyChanges><FrequencyChange><Frequency dt:dt="r8">3507685</Frequency><Timestamp dt:dt="r8">49702672229</Timestamp><Current dt:dt="r8">0</Current><DateUtc dt:dt="string">2015-06-17T20:32:03Z</DateUtc></FrequencyChange></FrequencyChanges></Clock>\n	Hungry_Donkey_bar_English_2-112-3	60.017	-20	1.0.0.18	1	-1836707147	Standard	2.0.10.353	2.0.10.353	06-17-2015	6/17/2015 8:32:03 PM	16:32:03	2.0.10.248	83	Bar50-50.bmp	48	3	?	0r_4g.bmp	0r_4g.bmp	0r_2g.bmp	0r_2g.bmp			0r_2g.bmp		TrialProc	TrialList	0	cvbn	-999999	16	302066	0	b	1202	303268	234	-250	-16	-18	-54	6	50	9	9	83	0	0	0	0	4	4	2	2	0	2
Hungry_Donkey_bar_English_2	112	3	<?xml version="1.0"?>\n<Clock xmlns:dt="urn:schemas-microsoft-com:datatypes"><Description dt:dt="string">E-Prime Primary Realtime Clock</Description><StartTime><Timestamp dt:dt="int">0</Timestamp><DateUtc dt:dt="string">2015-06-17T20:32:03Z</DateUtc></StartTime><FrequencyChanges><FrequencyChange><Frequency dt:dt="r8">3507685</Frequency><Timestamp dt:dt="r8">49702672229</Timestamp><Current dt:dt="r8">0</Current><DateUtc dt:dt="string">2015-06-17T20:32:03Z</DateUtc></FrequencyChange></FrequencyChanges></Clock>\n	Hungry_Donkey_bar_English_2-112-3	60.017	-20	1.0.0.18	1	-1836707147	Standard	2.0.10.353	2.0.10.353	06-17-2015	6/17/2015 8:32:03 PM	16:32:03	2.0.10.248	84	Bar50-50.bmp	49	1	?	0r_4g.bmp	0r_4g.bmp	0r_2g.bmp	0r_2g.bmp	0r_4g.bmp				TrialProc	TrialList	0	cvbn	-999999	16	305299	0	c	577	305876	238	-250	-12	-14	-54	6	50	10	9	84	0	0	0	0	4	4	2	2	0	4
Hungry_Donkey_bar_English_2	112	3	<?xml version="1.0"?>\n<Clock xmlns:dt="urn:schemas-microsoft-com:datatypes"><Description dt:dt="string">E-Prime Primary Realtime Clock</Description><StartTime><Timestamp dt:dt="int">0</Timestamp><DateUtc dt:dt="string">2015-06-17T20:32:03Z</DateUtc></StartTime><FrequencyChanges><FrequencyChange><Frequency dt:dt="r8">3507685</Frequency><Timestamp dt:dt="r8">49702672229</Timestamp><Current dt:dt="r8">0</Current><DateUtc dt:dt="string">2015-06-17T20:32:03Z</DateUtc></FrequencyChange></FrequencyChanges></Clock>\n	Hungry_Donkey_bar_English_2-112-3	60.017	-20	1.0.0.18	1	-1836707147	Standard	2.0.10.353	2.0.10.353	06-17-2015	6/17/2015 8:32:03 PM	16:32:03	2.0.10.248	85	Bar50-50.bmp	49	2	?	12r_4g.bmp	0r_4g.bmp	3r_2g.bmp	0r_2g.bmp		0r_4g.bmp			TrialProc	TrialList	0	cvbn	-999999	17	307915	0	v	1161	309076	242	-250	-8	-14	-50	6	50	5	9	85	-12	0	-3	0	4	4	2	2	0	4
Hungry_Donkey_bar_English_2	112	3	<?xml version="1.0"?>\n<Clock xmlns:dt="urn:schemas-microsoft-com:datatypes"><Description dt:dt="string">E-Prime Primary Realtime Clock</Description><StartTime><Timestamp dt:dt="int">0</Timestamp><DateUtc dt:dt="string">2015-06-17T20:32:03Z</DateUtc></StartTime><FrequencyChanges><FrequencyChange><Frequency dt:dt="r8">3507685</Frequency><Timestamp dt:dt="r8">49702672229</Timestamp><Current dt:dt="r8">0</Current><DateUtc dt:dt="string">2015-06-17T20:32:03Z</DateUtc></FrequencyChange></FrequencyChanges></Clock>\n	Hungry_Donkey_bar_English_2-112-3	60.017	-20	1.0.0.18	1	-1836707147	Standard	2.0.10.353	2.0.10.353	06-17-2015	6/17/2015 8:32:03 PM	16:32:03	2.0.10.248	86	Bar50-50.bmp	50	1	?	0r_4g.bmp	0r_4g.bmp	0r_2g.bmp	0r_2g.bmp	0r_4g.bmp				TrialProc	TrialList	0	cvbn	-999999	16	311114	0	c	361	311475	246	-250	-4	-10	-50	6	50	8	9	86	0	0	0	0	4	4	2	2	0	4
Hungry_Donkey_bar_English_2	112	3	<?xml version="1.0"?>\n<Clock xmlns:dt="urn:schemas-microsoft-com:datatypes"><Description dt:dt="string">E-Prime Primary Realtime Clock</Description><StartTime><Timestamp dt:dt="int">0</Timestamp><DateUtc dt:dt="string">2015-06-17T20:32:03Z</DateUtc></StartTime><FrequencyChanges><FrequencyChange><Frequency dt:dt="r8">3507685</Frequency><Timestamp dt:dt="r8">49702672229</Timestamp><Current dt:dt="r8">0</Current><DateUtc dt:dt="string">2015-06-17T20:32:03Z</DateUtc></FrequencyChange></FrequencyChanges></Clock>\n	Hungry_Donkey_bar_English_2-112-3	60.017	-20	1.0.0.18	1	-1836707147	Standard	2.0.10.353	2.0.10.353	06-17-2015	6/17/2015 8:32:03 PM	16:32:03	2.0.10.248	87	Bar50-50.bmp	50	4	?	10r_4g.bmp	0r_4g.bmp	2r_2g.bmp	0r_2g.bmp				0r_2g.bmp	TrialProc	TrialList	0	cvbn	-999999	16	313513	0	n	810	314323	248	-250	-2	-10	-50	6	52	3	9	87	-10	0	-2	0	4	4	2	2	0	2
Hungry_Donkey_bar_English_2	112	3	<?xml version="1.0"?>\n<Clock xmlns:dt="urn:schemas-microsoft-com:datatypes"><Description dt:dt="string">E-Prime Primary Realtime Clock</Description><StartTime><Timestamp dt:dt="int">0</Timestamp><DateUtc dt:dt="string">2015-06-17T20:32:03Z</DateUtc></StartTime><FrequencyChanges><FrequencyChange><Frequency dt:dt="r8">3507685</Frequency><Timestamp dt:dt="r8">49702672229</Timestamp><Current dt:dt="r8">0</Current><DateUtc dt:dt="string">2015-06-17T20:32:03Z</DateUtc></FrequencyChange></FrequencyChanges></Clock>\n	Hungry_Donkey_bar_English_2-112-3	60.017	-20	1.0.0.18	1	-1836707147	Standard	2.0.10.353	2.0.10.353	06-17-2015	6/17/2015 8:32:03 PM	16:32:03	2.0.10.248	88	Bar50-50.bmp	50	3	?	8r_4g.bmp	50r_4g.bmp	1r_2g.bmp	10r_2g.bmp			1r_2g.bmp		TrialProc	TrialList	0	cvbn	-999999	16	316362	0	b	377	316739	250	-251	-1	-10	-50	7	52	1	9	88	-8	-50	-1	-10	4	4	2	2	-1	2
Hungry_Donkey_bar_English_2	112	3	<?xml version="1.0"?>\n<Clock xmlns:dt="urn:schemas-microsoft-com:datatypes"><Description dt:dt="string">E-Prime Primary Realtime Clock</Description><StartTime><Timestamp dt:dt="int">0</Timestamp><DateUtc dt:dt="string">2015-06-17T20:32:03Z</DateUtc></StartTime><FrequencyChanges><FrequencyChange><Frequency dt:dt="r8">3507685</Frequency><Timestamp dt:dt="r8">49702672229</Timestamp><Current dt:dt="r8">0</Current><DateUtc dt:dt="string">2015-06-17T20:32:03Z</DateUtc></FrequencyChange></FrequencyChanges></Clock>\n	Hungry_Donkey_bar_English_2-112-3	60.017	-20	1.0.0.18	1	-1836707147	Standard	2.0.10.353	2.0.10.353	06-17-2015	6/17/2015 8:32:03 PM	16:32:03	2.0.10.248	89	Bar50-50.bmp	50	1	?	0r_4g.bmp	0r_4g.bmp	0r_2g.bmp	0r_2g.bmp	0r_4g.bmp				TrialProc	TrialList	0	cvbn	-999999	16	318778	0	c	553	319331	254	-251	3	-6	-50	7	52	6	9	89	0	0	0	0	4	4	2	2	0	4
Hungry_Donkey_bar_English_2	112	3	<?xml version="1.0"?>\n<Clock xmlns:dt="urn:schemas-microsoft-com:datatypes"><Description dt:dt="string">E-Prime Primary Realtime Clock</Description><StartTime><Timestamp dt:dt="int">0</Timestamp><DateUtc dt:dt="string">2015-06-17T20:32:03Z</DateUtc></StartTime><FrequencyChanges><FrequencyChange><Frequency dt:dt="r8">3507685</Frequency><Timestamp dt:dt="r8">49702672229</Timestamp><Current dt:dt="r8">0</Current><DateUtc dt:dt="string">2015-06-17T20:32:03Z</DateUtc></FrequencyChange></FrequencyChanges></Clock>\n	Hungry_Donkey_bar_English_2-112-3	60.017	-20	1.0.0.18	1	-1836707147	Standard	2.0.10.353	2.0.10.353	06-17-2015	6/17/2015 8:32:03 PM	16:32:03	2.0.10.248	90	Bar50-50.bmp	51	2	?	10r_4g.bmp	0r_4g.bmp	2r_2g.bmp	0r_2g.bmp		0r_4g.bmp			TrialProc	TrialList	0	cvbn	-999999	16	321361	0	v	1138	322499	258	-251	7	-6	-46	7	52	2	9	90	-10	0	-2	0	4	4	2	2	0	4
Hungry_Donkey_bar_English_2	112	3	<?xml version="1.0"?>\n<Clock xmlns:dt="urn:schemas-microsoft-com:datatypes"><Description dt:dt="string">E-Prime Primary Realtime Clock</Description><StartTime><Timestamp dt:dt="int">0</Timestamp><DateUtc dt:dt="string">2015-06-17T20:32:03Z</DateUtc></StartTime><FrequencyChanges><FrequencyChange><Frequency dt:dt="r8">3507685</Frequency><Timestamp dt:dt="r8">49702672229</Timestamp><Current dt:dt="r8">0</Current><DateUtc dt:dt="string">2015-06-17T20:32:03Z</DateUtc></FrequencyChange></FrequencyChanges></Clock>\n	Hungry_Donkey_bar_English_2-112-3	60.017	-20	1.0.0.18	1	-1836707147	Standard	2.0.10.353	2.0.10.353	06-17-2015	6/17/2015 8:32:03 PM	16:32:03	2.0.10.248	91	Bar50-50.bmp	51	3	?	0r_4g.bmp	0r_4g.bmp	0r_2g.bmp	0r_2g.bmp			0r_2g.bmp		TrialProc	TrialList	0	cvbn	-999999	16	324526	0	b	1173	325699	260	-251	9	-6	-46	9	52	7	10	91	0	0	0	0	4	4	2	2	0	2
Hungry_Donkey_bar_English_2	112	3	<?xml version="1.0"?>\n<Clock xmlns:dt="urn:schemas-microsoft-com:datatypes"><Description dt:dt="string">E-Prime Primary Realtime Clock</Description><StartTime><Timestamp dt:dt="int">0</Timestamp><DateUtc dt:dt="string">2015-06-17T20:32:03Z</DateUtc></StartTime><FrequencyChanges><FrequencyChange><Frequency dt:dt="r8">3507685</Frequency><Timestamp dt:dt="r8">49702672229</Timestamp><Current dt:dt="r8">0</Current><DateUtc dt:dt="string">2015-06-17T20:32:03Z</DateUtc></FrequencyChange></FrequencyChanges></Clock>\n	Hungry_Donkey_bar_English_2-112-3	60.017	-20	1.0.0.18	1	-1836707147	Standard	2.0.10.353	2.0.10.353	06-17-2015	6/17/2015 8:32:03 PM	16:32:03	2.0.10.248	92	Bar50-50.bmp	51	2	?	10r_4g.bmp	0r_4g.bmp	2r_2g.bmp	0r_2g.bmp		0r_4g.bmp			TrialProc	TrialList	0	cvbn	-999999	16	327725	0	v	390	328115	264	-251	13	-6	-42	9	52	2	10	92	-10	0	-2	0	4	4	2	2	0	4
Hungry_Donkey_bar_English_2	112	3	<?xml version="1.0"?>\n<Clock xmlns:dt="urn:schemas-microsoft-com:datatypes"><Description dt:dt="string">E-Prime Primary Realtime Clock</Description><StartTime><Timestamp dt:dt="int">0</Timestamp><DateUtc dt:dt="string">2015-06-17T20:32:03Z</DateUtc></StartTime><FrequencyChanges><FrequencyChange><Frequency dt:dt="r8">3507685</Frequency><Timestamp dt:dt="r8">49702672229</Timestamp><Current dt:dt="r8">0</Current><DateUtc dt:dt="string">2015-06-17T20:32:03Z</DateUtc></FrequencyChange></FrequencyChanges></Clock>\n	Hungry_Donkey_bar_English_2-112-3	60.017	-20	1.0.0.18	1	-1836707147	Standard	2.0.10.353	2.0.10.353	06-17-2015	6/17/2015 8:32:03 PM	16:32:03	2.0.10.248	93	Bar50-50.bmp	51	1	?	10r_4g.bmp	0r_4g.bmp	2r_2g.bmp	0r_2g.bmp	10r_4g.bmp				TrialProc	TrialList	0	cvbn	-999999	16	330141	0	c	501	330642	268	-261	7	-12	-42	9	52	4	10	93	-10	0	-2	0	4	4	2	2	-10	4
Hungry_Donkey_bar_English_2	112	3	<?xml version="1.0"?>\n<Clock xmlns:dt="urn:schemas-microsoft-com:datatypes"><Description dt:dt="string">E-Prime Primary Realtime Clock</Description><StartTime><Timestamp dt:dt="int">0</Timestamp><DateUtc dt:dt="string">2015-06-17T20:32:03Z</DateUtc></StartTime><FrequencyChanges><FrequencyChange><Frequency dt:dt="r8">3507685</Frequency><Timestamp dt:dt="r8">49702672229</Timestamp><Current dt:dt="r8">0</Current><DateUtc dt:dt="string">2015-06-17T20:32:03Z</DateUtc></FrequencyChange></FrequencyChanges></Clock>\n	Hungry_Donkey_bar_English_2-112-3	60.017	-20	1.0.0.18	1	-1836707147	Standard	2.0.10.353	2.0.10.353	06-17-2015	6/17/2015 8:32:03 PM	16:32:03	2.0.10.248	94	Bar50-50.bmp	51	2	?	0r_4g.bmp	0r_4g.bmp	0r_2g.bmp	0r_2g.bmp		0r_4g.bmp			TrialProc	TrialList	0	cvbn	-999999	16	332674	0	v	960	333634	272	-261	11	-12	-38	9	52	10	10	94	0	0	0	0	4	4	2	2	0	4
Hungry_Donkey_bar_English_2	112	3	<?xml version="1.0"?>\n<Clock xmlns:dt="urn:schemas-microsoft-com:datatypes"><Description dt:dt="string">E-Prime Primary Realtime Clock</Description><StartTime><Timestamp dt:dt="int">0</Timestamp><DateUtc dt:dt="string">2015-06-17T20:32:03Z</DateUtc></StartTime><FrequencyChanges><FrequencyChange><Frequency dt:dt="r8">3507685</Frequency><Timestamp dt:dt="r8">49702672229</Timestamp><Current dt:dt="r8">0</Current><DateUtc dt:dt="string">2015-06-17T20:32:03Z</DateUtc></FrequencyChange></FrequencyChanges></Clock>\n	Hungry_Donkey_bar_English_2-112-3	60.017	-20	1.0.0.18	1	-1836707147	Standard	2.0.10.353	2.0.10.353	06-17-2015	6/17/2015 8:32:03 PM	16:32:03	2.0.10.248	95	Bar50-50.bmp	51	4	?	0r_4g.bmp	0r_4g.bmp	0r_2g.bmp	0r_2g.bmp				0r_2g.bmp	TrialProc	TrialList	0	cvbn	-999999	16	335673	0	n	249	335922	274	-261	13	-12	-38	9	54	6	10	95	0	0	0	0	4	4	2	2	0	2
Hungry_Donkey_bar_English_2	112	3	<?xml version="1.0"?>\n<Clock xmlns:dt="urn:schemas-microsoft-com:datatypes"><Description dt:dt="string">E-Prime Primary Realtime Clock</Description><StartTime><Timestamp dt:dt="int">0</Timestamp><DateUtc dt:dt="string">2015-06-17T20:32:03Z</DateUtc></StartTime><FrequencyChanges><FrequencyChange><Frequency dt:dt="r8">3507685</Frequency><Timestamp dt:dt="r8">49702672229</Timestamp><Current dt:dt="r8">0</Current><DateUtc dt:dt="string">2015-06-17T20:32:03Z</DateUtc></FrequencyChange></FrequencyChanges></Clock>\n	Hungry_Donkey_bar_English_2-112-3	60.017	-20	1.0.0.18	1	-1836707147	Standard	2.0.10.353	2.0.10.353	06-17-2015	6/17/2015 8:32:03 PM	16:32:03	2.0.10.248	96	Bar50-50.bmp	47	2	?	8r_4g.bmp	50r_4g.bmp	1r_2g.bmp	10r_2g.bmp		50r_4g.bmp			TrialProc	TrialList	0	cvbn	-999999	16	337956	0	v	350	338306	278	-311	-33	-12	-84	9	54	1	10	96	-8	-50	-1	-10	4	4	2	2	-50	4
Hungry_Donkey_bar_English_2	112	3	<?xml version="1.0"?>\n<Clock xmlns:dt="urn:schemas-microsoft-com:datatypes"><Description dt:dt="string">E-Prime Primary Realtime Clock</Description><StartTime><Timestamp dt:dt="int">0</Timestamp><DateUtc dt:dt="string">2015-06-17T20:32:03Z</DateUtc></StartTime><FrequencyChanges><FrequencyChange><Frequency dt:dt="r8">3507685</Frequency><Timestamp dt:dt="r8">49702672229</Timestamp><Current dt:dt="r8">0</Current><DateUtc dt:dt="string">2015-06-17T20:32:03Z</DateUtc></FrequencyChange></FrequencyChanges></Clock>\n	Hungry_Donkey_bar_English_2-112-3	60.017	-20	1.0.0.18	1	-1836707147	Standard	2.0.10.353	2.0.10.353	06-17-2015	6/17/2015 8:32:03 PM	16:32:03	2.0.10.248	97	Bar50-50.bmp	47	3	?	0r_4g.bmp	0r_4g.bmp	0r_2g.bmp	0r_2g.bmp			0r_2g.bmp		TrialProc	TrialList	0	cvbn	-999999	16	340338	0	b	640	340978	280	-311	-31	-12	-84	11	54	9	10	97	0	0	0	0	4	4	2	2	0	2
Hungry_Donkey_bar_English_2	112	3	<?xml version="1.0"?>\n<Clock xmlns:dt="urn:schemas-microsoft-com:datatypes"><Description dt:dt="string">E-Prime Primary Realtime Clock</Description><StartTime><Timestamp dt:dt="int">0</Timestamp><DateUtc dt:dt="string">2015-06-17T20:32:03Z</DateUtc></StartTime><FrequencyChanges><FrequencyChange><Frequency dt:dt="r8">3507685</Frequency><Timestamp dt:dt="r8">49702672229</Timestamp><Current dt:dt="r8">0</Current><DateUtc dt:dt="string">2015-06-17T20:32:03Z</DateUtc></FrequencyChange></FrequencyChanges></Clock>\n	Hungry_Donkey_bar_English_2-112-3	60.017	-20	1.0.0.18	1	-1836707147	Standard	2.0.10.353	2.0.10.353	06-17-2015	6/17/2015 8:32:03 PM	16:32:03	2.0.10.248	98	Bar50-50.bmp	48	4	?	10r_4g.bmp	0r_4g.bmp	2r_2g.bmp	0r_2g.bmp				0r_2g.bmp	TrialProc	TrialList	0	cvbn	-999999	16	343004	0	n	1590	344594	282	-311	-29	-12	-84	11	56	3	10	98	-10	0	-2	0	4	4	2	2	0	2
Hungry_Donkey_bar_English_2	112	3	<?xml version="1.0"?>\n<Clock xmlns:dt="urn:schemas-microsoft-com:datatypes"><Description dt:dt="string">E-Prime Primary Realtime Clock</Description><StartTime><Timestamp dt:dt="int">0</Timestamp><DateUtc dt:dt="string">2015-06-17T20:32:03Z</DateUtc></StartTime><FrequencyChanges><FrequencyChange><Frequency dt:dt="r8">3507685</Frequency><Timestamp dt:dt="r8">49702672229</Timestamp><Current dt:dt="r8">0</Current><DateUtc dt:dt="string">2015-06-17T20:32:03Z</DateUtc></FrequencyChange></FrequencyChanges></Clock>\n	Hungry_Donkey_bar_English_2-112-3	60.017	-20	1.0.0.18	1	-1836707147	Standard	2.0.10.353	2.0.10.353	06-17-2015	6/17/2015 8:32:03 PM	16:32:03	2.0.10.248	99	Bar50-50.bmp	48	3	?	0r_4g.bmp	0r_4g.bmp	0r_2g.bmp	0r_2g.bmp			0r_2g.bmp		TrialProc	TrialList	0	cvbn	-999999	16	346620	0	b	198	346818	284	-311	-27	-12	-84	13	56	8	10	99	0	0	0	0	4	4	2	2	0	2
Hungry_Donkey_bar_English_2	112	3	<?xml version="1.0"?>\n<Clock xmlns:dt="urn:schemas-microsoft-com:datatypes"><Description dt:dt="string">E-Prime Primary Realtime Clock</Description><StartTime><Timestamp dt:dt="int">0</Timestamp><DateUtc dt:dt="string">2015-06-17T20:32:03Z</DateUtc></StartTime><FrequencyChanges><FrequencyChange><Frequency dt:dt="r8">3507685</Frequency><Timestamp dt:dt="r8">49702672229</Timestamp><Current dt:dt="r8">0</Current><DateUtc dt:dt="string">2015-06-17T20:32:03Z</DateUtc></FrequencyChange></FrequencyChanges></Clock>\n	Hungry_Donkey_bar_English_2-112-3	60.017	-20	1.0.0.18	1	-1836707147	Standard	2.0.10.353	2.0.10.353	06-17-2015	6/17/2015 8:32:03 PM	16:32:03	2.0.10.248	100	Bar50-50.bmp	48	4	?	12r_4g.bmp	0r_4g.bmp	3r_2g.bmp	0r_2g.bmp				0r_2g.bmp	TrialProc	TrialList	0	cvbn	-999999	16	348853	0	n	301	349154	286	-311	-25	-12	-84	13	58	5	10	100	-12	0	-3	0	4	4	2	2	0	2
Hungry_Donkey_bar_English_2	112	3	<?xml version="1.0"?>\n<Clock xmlns:dt="urn:schemas-microsoft-com:datatypes"><Description dt:dt="string">E-Prime Primary Realtime Clock</Description><StartTime><Timestamp dt:dt="int">0</Timestamp><DateUtc dt:dt="string">2015-06-17T20:32:03Z</DateUtc></StartTime><FrequencyChanges><FrequencyChange><Frequency dt:dt="r8">3507685</Frequency><Timestamp dt:dt="r8">49702672229</Timestamp><Current dt:dt="r8">0</Current><DateUtc dt:dt="string">2015-06-17T20:32:03Z</DateUtc></FrequencyChange></FrequencyChanges></Clock>\n	Hungry_Donkey_bar_English_2-112-3	60.017	-20	1.0.0.18	1	-1836707147	Standard	2.0.10.353	2.0.10.353	06-17-2015	6/17/2015 8:32:03 PM	16:32:03	2.0.10.248	101	Bar50-50.bmp	48	3	?	8r_4g.bmp	50r_4g.bmp	1r_2g.bmp	10r_2g.bmp			1r_2g.bmp		TrialProc	TrialList	0	cvbn	-999999	16	351185	0	b	336	351521	288	-312	-24	-12	-84	14	58	1	11	101	-8	-50	-1	-10	4	4	2	2	-1	2
Hungry_Donkey_bar_English_2	112	3	<?xml version="1.0"?>\n<Clock xmlns:dt="urn:schemas-microsoft-com:datatypes"><Description dt:dt="string">E-Prime Primary Realtime Clock</Description><StartTime><Timestamp dt:dt="int">0</Timestamp><DateUtc dt:dt="string">2015-06-17T20:32:03Z</DateUtc></StartTime><FrequencyChanges><FrequencyChange><Frequency dt:dt="r8">3507685</Frequency><Timestamp dt:dt="r8">49702672229</Timestamp><Current dt:dt="r8">0</Current><DateUtc dt:dt="string">2015-06-17T20:32:03Z</DateUtc></FrequencyChange></FrequencyChanges></Clock>\n	Hungry_Donkey_bar_English_2-112-3	60.017	-20	1.0.0.18	1	-1836707147	Standard	2.0.10.353	2.0.10.353	06-17-2015	6/17/2015 8:32:03 PM	16:32:03	2.0.10.248	102	Bar50-50.bmp	48	4	?	0r_4g.bmp	0r_4g.bmp	0r_2g.bmp	0r_2g.bmp				0r_2g.bmp	TrialProc	TrialList	0	cvbn	-999999	16	353551	0	n	434	353985	290	-312	-22	-12	-84	14	60	10	11	102	0	0	0	0	4	4	2	2	0	2
Hungry_Donkey_bar_English_2	112	3	<?xml version="1.0"?>\n<Clock xmlns:dt="urn:schemas-microsoft-com:datatypes"><Description dt:dt="string">E-Prime Primary Realtime Clock</Description><StartTime><Timestamp dt:dt="int">0</Timestamp><DateUtc dt:dt="string">2015-06-17T20:32:03Z</DateUtc></StartTime><FrequencyChanges><FrequencyChange><Frequency dt:dt="r8">3507685</Frequency><Timestamp dt:dt="r8">49702672229</Timestamp><Current dt:dt="r8">0</Current><DateUtc dt:dt="string">2015-06-17T20:32:03Z</DateUtc></FrequencyChange></FrequencyChanges></Clock>\n	Hungry_Donkey_bar_English_2-112-3	60.017	-20	1.0.0.18	1	-1836707147	Standard	2.0.10.353	2.0.10.353	06-17-2015	6/17/2015 8:32:03 PM	16:32:03	2.0.10.248	103	Bar50-50.bmp	48	3	?	0r_4g.bmp	0r_4g.bmp	0r_2g.bmp	0r_2g.bmp			0r_2g.bmp		TrialProc	TrialList	0	cvbn	-999999	16	356017	0	b	352	356369	292	-312	-20	-12	-84	16	60	8	11	103	0	0	0	0	4	4	2	2	0	2
Hungry_Donkey_bar_English_2	112	3	<?xml version="1.0"?>\n<Clock xmlns:dt="urn:schemas-microsoft-com:datatypes"><Description dt:dt="string">E-Prime Primary Realtime Clock</Description><StartTime><Timestamp dt:dt="int">0</Timestamp><DateUtc dt:dt="string">2015-06-17T20:32:03Z</DateUtc></StartTime><FrequencyChanges><FrequencyChange><Frequency dt:dt="r8">3507685</Frequency><Timestamp dt:dt="r8">49702672229</Timestamp><Current dt:dt="r8">0</Current><DateUtc dt:dt="string">2015-06-17T20:32:03Z</DateUtc></FrequencyChange></FrequencyChanges></Clock>\n	Hungry_Donkey_bar_English_2-112-3	60.017	-20	1.0.0.18	1	-1836707147	Standard	2.0.10.353	2.0.10.353	06-17-2015	6/17/2015 8:32:03 PM	16:32:03	2.0.10.248	104	Bar50-50.bmp	49	4	?	0r_4g.bmp	0r_4g.bmp	0r_2g.bmp	0r_2g.bmp				0r_2g.bmp	TrialProc	TrialList	0	cvbn	-999999	16	358400	0	n	321	358721	294	-312	-18	-12	-84	16	62	9	11	104	0	0	0	0	4	4	2	2	0	2
Hungry_Donkey_bar_English_2	112	3	<?xml version="1.0"?>\n<Clock xmlns:dt="urn:schemas-microsoft-com:datatypes"><Description dt:dt="string">E-Prime Primary Realtime Clock</Description><StartTime><Timestamp dt:dt="int">0</Timestamp><DateUtc dt:dt="string">2015-06-17T20:32:03Z</DateUtc></StartTime><FrequencyChanges><FrequencyChange><Frequency dt:dt="r8">3507685</Frequency><Timestamp dt:dt="r8">49702672229</Timestamp><Current dt:dt="r8">0</Current><DateUtc dt:dt="string">2015-06-17T20:32:03Z</DateUtc></FrequencyChange></FrequencyChanges></Clock>\n	Hungry_Donkey_bar_English_2-112-3	60.017	-20	1.0.0.18	1	-1836707147	Standard	2.0.10.353	2.0.10.353	06-17-2015	6/17/2015 8:32:03 PM	16:32:03	2.0.10.248	105	Bar50-50.bmp	49	3	?	10r_4g.bmp	0r_4g.bmp	2r_2g.bmp	0r_2g.bmp			2r_2g.bmp		TrialProc	TrialList	0	cvbn	-999999	16	360749	0	b	324	361073	296	-314	-18	-12	-84	16	62	4	11	105	-10	0	-2	0	4	4	2	2	-2	2
Hungry_Donkey_bar_English_2	112	3	<?xml version="1.0"?>\n<Clock xmlns:dt="urn:schemas-microsoft-com:datatypes"><Description dt:dt="string">E-Prime Primary Realtime Clock</Description><StartTime><Timestamp dt:dt="int">0</Timestamp><DateUtc dt:dt="string">2015-06-17T20:32:03Z</DateUtc></StartTime><FrequencyChanges><FrequencyChange><Frequency dt:dt="r8">3507685</Frequency><Timestamp dt:dt="r8">49702672229</Timestamp><Current dt:dt="r8">0</Current><DateUtc dt:dt="string">2015-06-17T20:32:03Z</DateUtc></FrequencyChange></FrequencyChanges></Clock>\n	Hungry_Donkey_bar_English_2-112-3	60.017	-20	1.0.0.18	1	-1836707147	Standard	2.0.10.353	2.0.10.353	06-17-2015	6/17/2015 8:32:03 PM	16:32:03	2.0.10.248	106	Bar50-50.bmp	49	4	?	0r_4g.bmp	0r_4g.bmp	0r_2g.bmp	0r_2g.bmp				0r_2g.bmp	TrialProc	TrialList	0	cvbn	-999999	17	363099	0	n	3750	366849	298	-314	-16	-12	-84	16	64	7	11	106	0	0	0	0	4	4	2	2	0	2
Hungry_Donkey_bar_English_2	112	3	<?xml version="1.0"?>\n<Clock xmlns:dt="urn:schemas-microsoft-com:datatypes"><Description dt:dt="string">E-Prime Primary Realtime Clock</Description><StartTime><Timestamp dt:dt="int">0</Timestamp><DateUtc dt:dt="string">2015-06-17T20:32:03Z</DateUtc></StartTime><FrequencyChanges><FrequencyChange><Frequency dt:dt="r8">3507685</Frequency><Timestamp dt:dt="r8">49702672229</Timestamp><Current dt:dt="r8">0</Current><DateUtc dt:dt="string">2015-06-17T20:32:03Z</DateUtc></FrequencyChange></FrequencyChanges></Clock>\n	Hungry_Donkey_bar_English_2-112-3	60.017	-20	1.0.0.18	1	-1836707147	Standard	2.0.10.353	2.0.10.353	06-17-2015	6/17/2015 8:32:03 PM	16:32:03	2.0.10.248	107	Bar50-50.bmp	49	3	?	10r_4g.bmp	0r_4g.bmp	2r_2g.bmp	0r_2g.bmp			2r_2g.bmp		TrialProc	TrialList	0	cvbn	-999999	16	368880	0	b	97	368977	300	-316	-16	-12	-84	16	64	2	11	107	-10	0	-2	0	4	4	2	2	-2	2
Hungry_Donkey_bar_English_2	112	3	<?xml version="1.0"?>\n<Clock xmlns:dt="urn:schemas-microsoft-com:datatypes"><Description dt:dt="string">E-Prime Primary Realtime Clock</Description><StartTime><Timestamp dt:dt="int">0</Timestamp><DateUtc dt:dt="string">2015-06-17T20:32:03Z</DateUtc></StartTime><FrequencyChanges><FrequencyChange><Frequency dt:dt="r8">3507685</Frequency><Timestamp dt:dt="r8">49702672229</Timestamp><Current dt:dt="r8">0</Current><DateUtc dt:dt="string">2015-06-17T20:32:03Z</DateUtc></FrequencyChange></FrequencyChanges></Clock>\n	Hungry_Donkey_bar_English_2-112-3	60.017	-20	1.0.0.18	1	-1836707147	Standard	2.0.10.353	2.0.10.353	06-17-2015	6/17/2015 8:32:03 PM	16:32:03	2.0.10.248	108	Bar50-50.bmp	49	4	?	10r_4g.bmp	0r_4g.bmp	2r_2g.bmp	0r_2g.bmp				0r_2g.bmp	TrialProc	TrialList	0	cvbn	-999999	16	371013	0	n	363	371376	302	-316	-14	-12	-84	16	66	3	11	108	-10	0	-2	0	4	4	2	2	0	2
Hungry_Donkey_bar_English_2	112	3	<?xml version="1.0"?>\n<Clock xmlns:dt="urn:schemas-microsoft-com:datatypes"><Description dt:dt="string">E-Prime Primary Realtime Clock</Description><StartTime><Timestamp dt:dt="int">0</Timestamp><DateUtc dt:dt="string">2015-06-17T20:32:03Z</DateUtc></StartTime><FrequencyChanges><FrequencyChange><Frequency dt:dt="r8">3507685</Frequency><Timestamp dt:dt="r8">49702672229</Timestamp><Current dt:dt="r8">0</Current><DateUtc dt:dt="string">2015-06-17T20:32:03Z</DateUtc></FrequencyChange></FrequencyChanges></Clock>\n	Hungry_Donkey_bar_English_2-112-3	60.017	-20	1.0.0.18	1	-1836707147	Standard	2.0.10.353	2.0.10.353	06-17-2015	6/17/2015 8:32:03 PM	16:32:03	2.0.10.248	109	Bar50-50.bmp	49	3	?	0r_4g.bmp	0r_4g.bmp	0r_2g.bmp	0r_2g.bmp			0r_2g.bmp		TrialProc	TrialList	0	cvbn	-999999	16	373412	0	b	380	373792	304	-316	-12	-12	-84	18	66	6	11	109	0	0	0	0	4	4	2	2	0	2
Hungry_Donkey_bar_English_2	112	3	<?xml version="1.0"?>\n<Clock xmlns:dt="urn:schemas-microsoft-com:datatypes"><Description dt:dt="string">E-Prime Primary Realtime Clock</Description><StartTime><Timestamp dt:dt="int">0</Timestamp><DateUtc dt:dt="string">2015-06-17T20:32:03Z</DateUtc></StartTime><FrequencyChanges><FrequencyChange><Frequency dt:dt="r8">3507685</Frequency><Timestamp dt:dt="r8">49702672229</Timestamp><Current dt:dt="r8">0</Current><DateUtc dt:dt="string">2015-06-17T20:32:03Z</DateUtc></FrequencyChange></FrequencyChanges></Clock>\n	Hungry_Donkey_bar_English_2-112-3	60.017	-20	1.0.0.18	1	-1836707147	Standard	2.0.10.353	2.0.10.353	06-17-2015	6/17/2015 8:32:03 PM	16:32:03	2.0.10.248	110	Bar50-50.bmp	49	4	?	12r_4g.bmp	0r_4g.bmp	3r_2g.bmp	0r_2g.bmp				0r_2g.bmp	TrialProc	TrialList	0	cvbn	-999999	16	375828	0	n	1708	377536	306	-316	-10	-12	-84	18	68	5	11	110	-12	0	-3	0	4	4	2	2	0	2
Hungry_Donkey_bar_English_2	112	3	<?xml version="1.0"?>\n<Clock xmlns:dt="urn:schemas-microsoft-com:datatypes"><Description dt:dt="string">E-Prime Primary Realtime Clock</Description><StartTime><Timestamp dt:dt="int">0</Timestamp><DateUtc dt:dt="string">2015-06-17T20:32:03Z</DateUtc></StartTime><FrequencyChanges><FrequencyChange><Frequency dt:dt="r8">3507685</Frequency><Timestamp dt:dt="r8">49702672229</Timestamp><Current dt:dt="r8">0</Current><DateUtc dt:dt="string">2015-06-17T20:32:03Z</DateUtc></FrequencyChange></FrequencyChanges></Clock>\n	Hungry_Donkey_bar_English_2-112-3	60.017	-20	1.0.0.18	1	-1836707147	Standard	2.0.10.353	2.0.10.353	06-17-2015	6/17/2015 8:32:03 PM	16:32:03	2.0.10.248	111	Bar50-50.bmp	49	3	?	0r_4g.bmp	0r_4g.bmp	0r_2g.bmp	0r_2g.bmp			0r_2g.bmp		TrialProc	TrialList	0	cvbn	-999999	15	379560	0	b	504	380064	308	-316	-8	-12	-84	20	68	7	12	111	0	0	0	0	4	4	2	2	0	2
