ExperimentName	Subject	Session	Clock.Information	DataFile.Basename	Display.RefreshRate	Eindtotaal[Session]	ExperimentVersion	Group	RandomSeed	RuntimeCapabilities	RuntimeVersion	RuntimeVersionExpected	SessionDate	SessionStartDateTimeUtc	SessionTime	StudioVersion	Block	BarImage	BarTotalWinst	DoorChoice	Eindtotaal[Block]	FBDoor1	FBDoor2	FBDoor3	FBDoor4	Image1	Image2	Image3	Image4	Procedure	Running	spel.ACC	spel.CRESP	spel.DurationError	spel.OnsetDelay	spel.OnsetTime	spel.OnsetToOnsetTime	spel.RESP	spel.RT	spel.RTTime	TotalGain	TotalLose	Totalsum	TotalsumD1	TotalsumD2	TotalsumD3	TotalsumD4	TrialList	TrialList.Cycle	TrialList.Sample	varV1	varV2	varV3	varV4	varW1	varW2	varW3	varW4	Verliesbedrag	Winstbedrag
Hungry_Donkey_bar_English_2	117	1	<?xml version="1.0"?>\n<Clock xmlns:dt="urn:schemas-microsoft-com:datatypes"><Description dt:dt="string">E-Prime Primary Realtime Clock</Description><StartTime><Timestamp dt:dt="int">0</Timestamp><DateUtc dt:dt="string">2015-08-07T15:03:28Z</DateUtc></StartTime><FrequencyChanges><FrequencyChange><Frequency dt:dt="r8">3507724</Frequency><Timestamp dt:dt="r8">2025713184805</Timestamp><Current dt:dt="r8">0</Current><DateUtc dt:dt="string">2015-08-07T15:03:28Z</DateUtc></FrequencyChange></FrequencyChanges></Clock>\n	Hungry_Donkey_bar_English_2-117-1	60.018	124	1.0.0.18	1	-1510680060	Standard	2.0.10.353	2.0.10.353	08-07-2015	8/7/2015 3:03:29 PM	11:03:29	2.0.10.248	1	Bar100-0.bmp	100	2	?	0r_4g.bmp	0r_4g.bmp	0r_2g.bmp	0r_2g.bmp		0r_4g.bmp			TrialProc	TrialList	0	cvbn	-999999	31	68756	0	v	2209	70965	4	0	4	0	4	0	0	6	1	1	0	0	0	0	4	4	2	2	0	4
Hungry_Donkey_bar_English_2	117	1	<?xml version="1.0"?>\n<Clock xmlns:dt="urn:schemas-microsoft-com:datatypes"><Description dt:dt="string">E-Prime Primary Realtime Clock</Description><StartTime><Timestamp dt:dt="int">0</Timestamp><DateUtc dt:dt="string">2015-08-07T15:03:28Z</DateUtc></StartTime><FrequencyChanges><FrequencyChange><Frequency dt:dt="r8">3507724</Frequency><Timestamp dt:dt="r8">2025713184805</Timestamp><Current dt:dt="r8">0</Current><DateUtc dt:dt="string">2015-08-07T15:03:28Z</DateUtc></FrequencyChange></FrequencyChanges></Clock>\n	Hungry_Donkey_bar_English_2-117-1	60.018	124	1.0.0.18	1	-1510680060	Standard	2.0.10.353	2.0.10.353	08-07-2015	8/7/2015 3:03:29 PM	11:03:29	2.0.10.248	2	Bar100-0.bmp	100	4	?	10r_4g.bmp	0r_4g.bmp	2r_2g.bmp	0r_2g.bmp				0r_2g.bmp	TrialProc	TrialList	0	cvbn	-999999	16	73004	0	n	2457	75461	6	0	6	0	4	0	2	2	1	2	-10	0	-2	0	4	4	2	2	0	2
Hungry_Donkey_bar_English_2	117	1	<?xml version="1.0"?>\n<Clock xmlns:dt="urn:schemas-microsoft-com:datatypes"><Description dt:dt="string">E-Prime Primary Realtime Clock</Description><StartTime><Timestamp dt:dt="int">0</Timestamp><DateUtc dt:dt="string">2015-08-07T15:03:28Z</DateUtc></StartTime><FrequencyChanges><FrequencyChange><Frequency dt:dt="r8">3507724</Frequency><Timestamp dt:dt="r8">2025713184805</Timestamp><Current dt:dt="r8">0</Current><DateUtc dt:dt="string">2015-08-07T15:03:28Z</DateUtc></FrequencyChange></FrequencyChanges></Clock>\n	Hungry_Donkey_bar_English_2-117-1	60.018	124	1.0.0.18	1	-1510680060	Standard	2.0.10.353	2.0.10.353	08-07-2015	8/7/2015 3:03:29 PM	11:03:29	2.0.10.248	3	Bar100-0.bmp	100	1	?	0r_4g.bmp	0r_4g.bmp	0r_2g.bmp	0r_2g.bmp	0r_4g.bmp				TrialProc	TrialList	0	cvbn	-999999	15	77486	0	c	1479	78965	10	0	10	4	4	0	2	7	1	3	0	0	0	0	4	4	2	2	0	4
Hungry_Donkey_bar_English_2	117	1	<?xml version="1.0"?>\n<Clock xmlns:dt="urn:schemas-microsoft-com:datatypes"><Description dt:dt="string">E-Prime Primary Realtime Clock</Description><StartTime><Timestamp dt:dt="int">0</Timestamp><DateUtc dt:dt="string">2015-08-07T15:03:28Z</DateUtc></StartTime><FrequencyChanges><FrequencyChange><Frequency dt:dt="r8">3507724</Frequency><Timestamp dt:dt="r8">2025713184805</Timestamp><Current dt:dt="r8">0</Current><DateUtc dt:dt="string">2015-08-07T15:03:28Z</DateUtc></FrequencyChange></FrequencyChanges></Clock>\n	Hungry_Donkey_bar_English_2-117-1	60.018	124	1.0.0.18	1	-1510680060	Standard	2.0.10.353	2.0.10.353	08-07-2015	8/7/2015 3:03:29 PM	11:03:29	2.0.10.248	4	Bar100-0.bmp	100	3	?	0r_4g.bmp	0r_4g.bmp	0r_2g.bmp	0r_2g.bmp			0r_2g.bmp		TrialProc	TrialList	0	cvbn	-999999	16	81002	0	b	922	81924	12	0	12	4	4	2	2	10	1	4	0	0	0	0	4	4	2	2	0	2
Hungry_Donkey_bar_English_2	117	1	<?xml version="1.0"?>\n<Clock xmlns:dt="urn:schemas-microsoft-com:datatypes"><Description dt:dt="string">E-Prime Primary Realtime Clock</Description><StartTime><Timestamp dt:dt="int">0</Timestamp><DateUtc dt:dt="string">2015-08-07T15:03:28Z</DateUtc></StartTime><FrequencyChanges><FrequencyChange><Frequency dt:dt="r8">3507724</Frequency><Timestamp dt:dt="r8">2025713184805</Timestamp><Current dt:dt="r8">0</Current><DateUtc dt:dt="string">2015-08-07T15:03:28Z</DateUtc></FrequencyChange></FrequencyChanges></Clock>\n	Hungry_Donkey_bar_English_2-117-1	60.018	124	1.0.0.18	1	-1510680060	Standard	2.0.10.353	2.0.10.353	08-07-2015	8/7/2015 3:03:29 PM	11:03:29	2.0.10.248	5	Bar100-0.bmp	100	2	?	0r_4g.bmp	0r_4g.bmp	0r_2g.bmp	0r_2g.bmp		0r_4g.bmp			TrialProc	TrialList	0	cvbn	-999999	16	83951	0	v	1765	85716	16	0	16	4	8	2	2	9	1	5	0	0	0	0	4	4	2	2	0	4
Hungry_Donkey_bar_English_2	117	1	<?xml version="1.0"?>\n<Clock xmlns:dt="urn:schemas-microsoft-com:datatypes"><Description dt:dt="string">E-Prime Primary Realtime Clock</Description><StartTime><Timestamp dt:dt="int">0</Timestamp><DateUtc dt:dt="string">2015-08-07T15:03:28Z</DateUtc></StartTime><FrequencyChanges><FrequencyChange><Frequency dt:dt="r8">3507724</Frequency><Timestamp dt:dt="r8">2025713184805</Timestamp><Current dt:dt="r8">0</Current><DateUtc dt:dt="string">2015-08-07T15:03:28Z</DateUtc></FrequencyChange></FrequencyChanges></Clock>\n	Hungry_Donkey_bar_English_2-117-1	60.018	124	1.0.0.18	1	-1510680060	Standard	2.0.10.353	2.0.10.353	08-07-2015	8/7/2015 3:03:29 PM	11:03:29	2.0.10.248	6	Bar100-0.bmp	100	4	?	0r_4g.bmp	0r_4g.bmp	0r_2g.bmp	0r_2g.bmp				0r_2g.bmp	TrialProc	TrialList	0	cvbn	-999999	16	87750	0	n	2286	90036	18	0	18	4	8	2	4	8	1	6	0	0	0	0	4	4	2	2	0	2
Hungry_Donkey_bar_English_2	117	1	<?xml version="1.0"?>\n<Clock xmlns:dt="urn:schemas-microsoft-com:datatypes"><Description dt:dt="string">E-Prime Primary Realtime Clock</Description><StartTime><Timestamp dt:dt="int">0</Timestamp><DateUtc dt:dt="string">2015-08-07T15:03:28Z</DateUtc></StartTime><FrequencyChanges><FrequencyChange><Frequency dt:dt="r8">3507724</Frequency><Timestamp dt:dt="r8">2025713184805</Timestamp><Current dt:dt="r8">0</Current><DateUtc dt:dt="string">2015-08-07T15:03:28Z</DateUtc></FrequencyChange></FrequencyChanges></Clock>\n	Hungry_Donkey_bar_English_2-117-1	60.018	124	1.0.0.18	1	-1510680060	Standard	2.0.10.353	2.0.10.353	08-07-2015	8/7/2015 3:03:29 PM	11:03:29	2.0.10.248	7	Bar75-25.bmp	73	1	?	8r_4g.bmp	50r_4g.bmp	1r_2g.bmp	10r_2g.bmp	8r_4g.bmp				TrialProc	TrialList	0	cvbn	-999999	16	92065	0	c	3635	95700	22	-8	14	0	8	2	4	1	1	7	-8	-50	-1	-10	4	4	2	2	-8	4
Hungry_Donkey_bar_English_2	117	1	<?xml version="1.0"?>\n<Clock xmlns:dt="urn:schemas-microsoft-com:datatypes"><Description dt:dt="string">E-Prime Primary Realtime Clock</Description><StartTime><Timestamp dt:dt="int">0</Timestamp><DateUtc dt:dt="string">2015-08-07T15:03:28Z</DateUtc></StartTime><FrequencyChanges><FrequencyChange><Frequency dt:dt="r8">3507724</Frequency><Timestamp dt:dt="r8">2025713184805</Timestamp><Current dt:dt="r8">0</Current><DateUtc dt:dt="string">2015-08-07T15:03:28Z</DateUtc></FrequencyChange></FrequencyChanges></Clock>\n	Hungry_Donkey_bar_English_2-117-1	60.018	124	1.0.0.18	1	-1510680060	Standard	2.0.10.353	2.0.10.353	08-07-2015	8/7/2015 3:03:29 PM	11:03:29	2.0.10.248	8	Bar75-25.bmp	76	2	?	10r_4g.bmp	0r_4g.bmp	2r_2g.bmp	0r_2g.bmp		0r_4g.bmp			TrialProc	TrialList	0	cvbn	-999999	16	97730	0	v	2097	99827	26	-8	18	0	12	2	4	4	1	8	-10	0	-2	0	4	4	2	2	0	4
Hungry_Donkey_bar_English_2	117	1	<?xml version="1.0"?>\n<Clock xmlns:dt="urn:schemas-microsoft-com:datatypes"><Description dt:dt="string">E-Prime Primary Realtime Clock</Description><StartTime><Timestamp dt:dt="int">0</Timestamp><DateUtc dt:dt="string">2015-08-07T15:03:28Z</DateUtc></StartTime><FrequencyChanges><FrequencyChange><Frequency dt:dt="r8">3507724</Frequency><Timestamp dt:dt="r8">2025713184805</Timestamp><Current dt:dt="r8">0</Current><DateUtc dt:dt="string">2015-08-07T15:03:28Z</DateUtc></FrequencyChange></FrequencyChanges></Clock>\n	Hungry_Donkey_bar_English_2-117-1	60.018	124	1.0.0.18	1	-1510680060	Standard	2.0.10.353	2.0.10.353	08-07-2015	8/7/2015 3:03:29 PM	11:03:29	2.0.10.248	9	Bar75-25.bmp	78	4	?	12r_4g.bmp	0r_4g.bmp	3r_2g.bmp	0r_2g.bmp				0r_2g.bmp	TrialProc	TrialList	0	cvbn	-999999	16	101862	0	n	1789	103651	28	-8	20	0	12	2	6	5	1	9	-12	0	-3	0	4	4	2	2	0	2
Hungry_Donkey_bar_English_2	117	1	<?xml version="1.0"?>\n<Clock xmlns:dt="urn:schemas-microsoft-com:datatypes"><Description dt:dt="string">E-Prime Primary Realtime Clock</Description><StartTime><Timestamp dt:dt="int">0</Timestamp><DateUtc dt:dt="string">2015-08-07T15:03:28Z</DateUtc></StartTime><FrequencyChanges><FrequencyChange><Frequency dt:dt="r8">3507724</Frequency><Timestamp dt:dt="r8">2025713184805</Timestamp><Current dt:dt="r8">0</Current><DateUtc dt:dt="string">2015-08-07T15:03:28Z</DateUtc></FrequencyChange></FrequencyChanges></Clock>\n	Hungry_Donkey_bar_English_2-117-1	60.018	124	1.0.0.18	1	-1510680060	Standard	2.0.10.353	2.0.10.353	08-07-2015	8/7/2015 3:03:29 PM	11:03:29	2.0.10.248	10	Bar75-25.bmp	79	4	?	10r_4g.bmp	0r_4g.bmp	2r_2g.bmp	0r_2g.bmp				0r_2g.bmp	TrialProc	TrialList	0	cvbn	-999999	16	105678	0	n	4277	109955	30	-8	22	0	12	2	8	3	1	10	-10	0	-2	0	4	4	2	2	0	2
Hungry_Donkey_bar_English_2	117	1	<?xml version="1.0"?>\n<Clock xmlns:dt="urn:schemas-microsoft-com:datatypes"><Description dt:dt="string">E-Prime Primary Realtime Clock</Description><StartTime><Timestamp dt:dt="int">0</Timestamp><DateUtc dt:dt="string">2015-08-07T15:03:28Z</DateUtc></StartTime><FrequencyChanges><FrequencyChange><Frequency dt:dt="r8">3507724</Frequency><Timestamp dt:dt="r8">2025713184805</Timestamp><Current dt:dt="r8">0</Current><DateUtc dt:dt="string">2015-08-07T15:03:28Z</DateUtc></FrequencyChange></FrequencyChanges></Clock>\n	Hungry_Donkey_bar_English_2-117-1	60.018	124	1.0.0.18	1	-1510680060	Standard	2.0.10.353	2.0.10.353	08-07-2015	8/7/2015 3:03:29 PM	11:03:29	2.0.10.248	11	Bar75-25.bmp	76	3	?	10r_4g.bmp	0r_4g.bmp	2r_2g.bmp	0r_2g.bmp			2r_2g.bmp		TrialProc	TrialList	0	cvbn	-999999	16	111993	0	b	1945	113938	32	-10	22	0	12	2	8	2	2	11	-10	0	-2	0	4	4	2	2	-2	2
Hungry_Donkey_bar_English_2	117	1	<?xml version="1.0"?>\n<Clock xmlns:dt="urn:schemas-microsoft-com:datatypes"><Description dt:dt="string">E-Prime Primary Realtime Clock</Description><StartTime><Timestamp dt:dt="int">0</Timestamp><DateUtc dt:dt="string">2015-08-07T15:03:28Z</DateUtc></StartTime><FrequencyChanges><FrequencyChange><Frequency dt:dt="r8">3507724</Frequency><Timestamp dt:dt="r8">2025713184805</Timestamp><Current dt:dt="r8">0</Current><DateUtc dt:dt="string">2015-08-07T15:03:28Z</DateUtc></FrequencyChange></FrequencyChanges></Clock>\n	Hungry_Donkey_bar_English_2-117-1	60.018	124	1.0.0.18	1	-1510680060	Standard	2.0.10.353	2.0.10.353	08-07-2015	8/7/2015 3:03:29 PM	11:03:29	2.0.10.248	12	Bar75-25.bmp	78	2	?	12r_4g.bmp	0r_4g.bmp	3r_2g.bmp	0r_2g.bmp		0r_4g.bmp			TrialProc	TrialList	0	cvbn	-999999	16	115975	0	v	1179	117154	36	-10	26	0	16	2	8	5	2	12	-12	0	-3	0	4	4	2	2	0	4
Hungry_Donkey_bar_English_2	117	1	<?xml version="1.0"?>\n<Clock xmlns:dt="urn:schemas-microsoft-com:datatypes"><Description dt:dt="string">E-Prime Primary Realtime Clock</Description><StartTime><Timestamp dt:dt="int">0</Timestamp><DateUtc dt:dt="string">2015-08-07T15:03:28Z</DateUtc></StartTime><FrequencyChanges><FrequencyChange><Frequency dt:dt="r8">3507724</Frequency><Timestamp dt:dt="r8">2025713184805</Timestamp><Current dt:dt="r8">0</Current><DateUtc dt:dt="string">2015-08-07T15:03:28Z</DateUtc></FrequencyChange></FrequencyChanges></Clock>\n	Hungry_Donkey_bar_English_2-117-1	60.018	124	1.0.0.18	1	-1510680060	Standard	2.0.10.353	2.0.10.353	08-07-2015	8/7/2015 3:03:29 PM	11:03:29	2.0.10.248	13	Bar75-25.bmp	79	3	?	0r_4g.bmp	0r_4g.bmp	0r_2g.bmp	0r_2g.bmp			0r_2g.bmp		TrialProc	TrialList	0	cvbn	-999999	16	119190	0	b	1564	120754	38	-10	28	0	16	4	8	6	2	13	0	0	0	0	4	4	2	2	0	2
Hungry_Donkey_bar_English_2	117	1	<?xml version="1.0"?>\n<Clock xmlns:dt="urn:schemas-microsoft-com:datatypes"><Description dt:dt="string">E-Prime Primary Realtime Clock</Description><StartTime><Timestamp dt:dt="int">0</Timestamp><DateUtc dt:dt="string">2015-08-07T15:03:28Z</DateUtc></StartTime><FrequencyChanges><FrequencyChange><Frequency dt:dt="r8">3507724</Frequency><Timestamp dt:dt="r8">2025713184805</Timestamp><Current dt:dt="r8">0</Current><DateUtc dt:dt="string">2015-08-07T15:03:28Z</DateUtc></FrequencyChange></FrequencyChanges></Clock>\n	Hungry_Donkey_bar_English_2-117-1	60.018	124	1.0.0.18	1	-1510680060	Standard	2.0.10.353	2.0.10.353	08-07-2015	8/7/2015 3:03:29 PM	11:03:29	2.0.10.248	14	Bar75-25.bmp	81	1	?	0r_4g.bmp	0r_4g.bmp	0r_2g.bmp	0r_2g.bmp	0r_4g.bmp				TrialProc	TrialList	0	cvbn	-999999	16	122789	0	c	397	123186	42	-10	32	4	16	4	8	10	2	14	0	0	0	0	4	4	2	2	0	4
Hungry_Donkey_bar_English_2	117	1	<?xml version="1.0"?>\n<Clock xmlns:dt="urn:schemas-microsoft-com:datatypes"><Description dt:dt="string">E-Prime Primary Realtime Clock</Description><StartTime><Timestamp dt:dt="int">0</Timestamp><DateUtc dt:dt="string">2015-08-07T15:03:28Z</DateUtc></StartTime><FrequencyChanges><FrequencyChange><Frequency dt:dt="r8">3507724</Frequency><Timestamp dt:dt="r8">2025713184805</Timestamp><Current dt:dt="r8">0</Current><DateUtc dt:dt="string">2015-08-07T15:03:28Z</DateUtc></FrequencyChange></FrequencyChanges></Clock>\n	Hungry_Donkey_bar_English_2-117-1	60.018	124	1.0.0.18	1	-1510680060	Standard	2.0.10.353	2.0.10.353	08-07-2015	8/7/2015 3:03:29 PM	11:03:29	2.0.10.248	15	Bar75-25.bmp	81	4	?	10r_4g.bmp	0r_4g.bmp	2r_2g.bmp	0r_2g.bmp				0r_2g.bmp	TrialProc	TrialList	0	cvbn	-999999	16	125222	0	n	876	126098	44	-10	34	4	16	4	10	4	2	15	-10	0	-2	0	4	4	2	2	0	2
Hungry_Donkey_bar_English_2	117	1	<?xml version="1.0"?>\n<Clock xmlns:dt="urn:schemas-microsoft-com:datatypes"><Description dt:dt="string">E-Prime Primary Realtime Clock</Description><StartTime><Timestamp dt:dt="int">0</Timestamp><DateUtc dt:dt="string">2015-08-07T15:03:28Z</DateUtc></StartTime><FrequencyChanges><FrequencyChange><Frequency dt:dt="r8">3507724</Frequency><Timestamp dt:dt="r8">2025713184805</Timestamp><Current dt:dt="r8">0</Current><DateUtc dt:dt="string">2015-08-07T15:03:28Z</DateUtc></FrequencyChange></FrequencyChanges></Clock>\n	Hungry_Donkey_bar_English_2-117-1	60.018	124	1.0.0.18	1	-1510680060	Standard	2.0.10.353	2.0.10.353	08-07-2015	8/7/2015 3:03:29 PM	11:03:29	2.0.10.248	16	Bar87-13.bmp	83	2	?	0r_4g.bmp	0r_4g.bmp	0r_2g.bmp	0r_2g.bmp		0r_4g.bmp			TrialProc	TrialList	0	cvbn	-999999	16	128121	0	v	809	128930	48	-10	38	4	20	4	10	8	2	16	0	0	0	0	4	4	2	2	0	4
Hungry_Donkey_bar_English_2	117	1	<?xml version="1.0"?>\n<Clock xmlns:dt="urn:schemas-microsoft-com:datatypes"><Description dt:dt="string">E-Prime Primary Realtime Clock</Description><StartTime><Timestamp dt:dt="int">0</Timestamp><DateUtc dt:dt="string">2015-08-07T15:03:28Z</DateUtc></StartTime><FrequencyChanges><FrequencyChange><Frequency dt:dt="r8">3507724</Frequency><Timestamp dt:dt="r8">2025713184805</Timestamp><Current dt:dt="r8">0</Current><DateUtc dt:dt="string">2015-08-07T15:03:28Z</DateUtc></FrequencyChange></FrequencyChanges></Clock>\n	Hungry_Donkey_bar_English_2-117-1	60.018	124	1.0.0.18	1	-1510680060	Standard	2.0.10.353	2.0.10.353	08-07-2015	8/7/2015 3:03:29 PM	11:03:29	2.0.10.248	17	Bar75-25.bmp	71	4	?	8r_4g.bmp	50r_4g.bmp	1r_2g.bmp	10r_2g.bmp				10r_2g.bmp	TrialProc	TrialList	0	cvbn	-999999	16	130954	0	n	1063	132017	50	-20	30	4	20	4	2	1	2	17	-8	-50	-1	-10	4	4	2	2	-10	2
Hungry_Donkey_bar_English_2	117	1	<?xml version="1.0"?>\n<Clock xmlns:dt="urn:schemas-microsoft-com:datatypes"><Description dt:dt="string">E-Prime Primary Realtime Clock</Description><StartTime><Timestamp dt:dt="int">0</Timestamp><DateUtc dt:dt="string">2015-08-07T15:03:28Z</DateUtc></StartTime><FrequencyChanges><FrequencyChange><Frequency dt:dt="r8">3507724</Frequency><Timestamp dt:dt="r8">2025713184805</Timestamp><Current dt:dt="r8">0</Current><DateUtc dt:dt="string">2015-08-07T15:03:28Z</DateUtc></FrequencyChange></FrequencyChanges></Clock>\n	Hungry_Donkey_bar_English_2-117-1	60.018	124	1.0.0.18	1	-1510680060	Standard	2.0.10.353	2.0.10.353	08-07-2015	8/7/2015 3:03:29 PM	11:03:29	2.0.10.248	18	Bar63-37.bmp	64	1	?	10r_4g.bmp	0r_4g.bmp	2r_2g.bmp	0r_2g.bmp	10r_4g.bmp				TrialProc	TrialList	0	cvbn	-999999	16	134053	0	c	1292	135345	54	-30	24	-2	20	4	2	3	2	18	-10	0	-2	0	4	4	2	2	-10	4
Hungry_Donkey_bar_English_2	117	1	<?xml version="1.0"?>\n<Clock xmlns:dt="urn:schemas-microsoft-com:datatypes"><Description dt:dt="string">E-Prime Primary Realtime Clock</Description><StartTime><Timestamp dt:dt="int">0</Timestamp><DateUtc dt:dt="string">2015-08-07T15:03:28Z</DateUtc></StartTime><FrequencyChanges><FrequencyChange><Frequency dt:dt="r8">3507724</Frequency><Timestamp dt:dt="r8">2025713184805</Timestamp><Current dt:dt="r8">0</Current><DateUtc dt:dt="string">2015-08-07T15:03:28Z</DateUtc></FrequencyChange></FrequencyChanges></Clock>\n	Hungry_Donkey_bar_English_2-117-1	60.018	124	1.0.0.18	1	-1510680060	Standard	2.0.10.353	2.0.10.353	08-07-2015	8/7/2015 3:03:29 PM	11:03:29	2.0.10.248	19	Bar63-37.bmp	65	3	?	0r_4g.bmp	0r_4g.bmp	0r_2g.bmp	0r_2g.bmp			0r_2g.bmp		TrialProc	TrialList	0	cvbn	-999999	16	137368	0	b	1145	138513	56	-30	26	-2	20	6	2	9	2	19	0	0	0	0	4	4	2	2	0	2
Hungry_Donkey_bar_English_2	117	1	<?xml version="1.0"?>\n<Clock xmlns:dt="urn:schemas-microsoft-com:datatypes"><Description dt:dt="string">E-Prime Primary Realtime Clock</Description><StartTime><Timestamp dt:dt="int">0</Timestamp><DateUtc dt:dt="string">2015-08-07T15:03:28Z</DateUtc></StartTime><FrequencyChanges><FrequencyChange><Frequency dt:dt="r8">3507724</Frequency><Timestamp dt:dt="r8">2025713184805</Timestamp><Current dt:dt="r8">0</Current><DateUtc dt:dt="string">2015-08-07T15:03:28Z</DateUtc></FrequencyChange></FrequencyChanges></Clock>\n	Hungry_Donkey_bar_English_2-117-1	60.018	124	1.0.0.18	1	-1510680060	Standard	2.0.10.353	2.0.10.353	08-07-2015	8/7/2015 3:03:29 PM	11:03:29	2.0.10.248	20	Bar63-37.bmp	66	4	?	0r_4g.bmp	0r_4g.bmp	0r_2g.bmp	0r_2g.bmp				0r_2g.bmp	TrialProc	TrialList	0	cvbn	-999999	16	140551	0	n	378	140929	58	-30	28	-2	20	6	4	7	2	20	0	0	0	0	4	4	2	2	0	2
Hungry_Donkey_bar_English_2	117	1	<?xml version="1.0"?>\n<Clock xmlns:dt="urn:schemas-microsoft-com:datatypes"><Description dt:dt="string">E-Prime Primary Realtime Clock</Description><StartTime><Timestamp dt:dt="int">0</Timestamp><DateUtc dt:dt="string">2015-08-07T15:03:28Z</DateUtc></StartTime><FrequencyChanges><FrequencyChange><Frequency dt:dt="r8">3507724</Frequency><Timestamp dt:dt="r8">2025713184805</Timestamp><Current dt:dt="r8">0</Current><DateUtc dt:dt="string">2015-08-07T15:03:28Z</DateUtc></FrequencyChange></FrequencyChanges></Clock>\n	Hungry_Donkey_bar_English_2-117-1	60.018	124	1.0.0.18	1	-1510680060	Standard	2.0.10.353	2.0.10.353	08-07-2015	8/7/2015 3:03:29 PM	11:03:29	2.0.10.248	21	Bar63-37.bmp	67	2	?	12r_4g.bmp	0r_4g.bmp	3r_2g.bmp	0r_2g.bmp		0r_4g.bmp			TrialProc	TrialList	0	cvbn	-999999	16	142967	0	v	634	143601	62	-30	32	-2	24	6	4	5	3	21	-12	0	-3	0	4	4	2	2	0	4
Hungry_Donkey_bar_English_2	117	1	<?xml version="1.0"?>\n<Clock xmlns:dt="urn:schemas-microsoft-com:datatypes"><Description dt:dt="string">E-Prime Primary Realtime Clock</Description><StartTime><Timestamp dt:dt="int">0</Timestamp><DateUtc dt:dt="string">2015-08-07T15:03:28Z</DateUtc></StartTime><FrequencyChanges><FrequencyChange><Frequency dt:dt="r8">3507724</Frequency><Timestamp dt:dt="r8">2025713184805</Timestamp><Current dt:dt="r8">0</Current><DateUtc dt:dt="string">2015-08-07T15:03:28Z</DateUtc></FrequencyChange></FrequencyChanges></Clock>\n	Hungry_Donkey_bar_English_2-117-1	60.018	124	1.0.0.18	1	-1510680060	Standard	2.0.10.353	2.0.10.353	08-07-2015	8/7/2015 3:03:29 PM	11:03:29	2.0.10.248	22	Bar63-37.bmp	68	3	?	0r_4g.bmp	0r_4g.bmp	0r_2g.bmp	0r_2g.bmp			0r_2g.bmp		TrialProc	TrialList	0	cvbn	-999999	16	145632	0	b	416	146048	64	-30	34	-2	24	8	4	10	3	22	0	0	0	0	4	4	2	2	0	2
Hungry_Donkey_bar_English_2	117	1	<?xml version="1.0"?>\n<Clock xmlns:dt="urn:schemas-microsoft-com:datatypes"><Description dt:dt="string">E-Prime Primary Realtime Clock</Description><StartTime><Timestamp dt:dt="int">0</Timestamp><DateUtc dt:dt="string">2015-08-07T15:03:28Z</DateUtc></StartTime><FrequencyChanges><FrequencyChange><Frequency dt:dt="r8">3507724</Frequency><Timestamp dt:dt="r8">2025713184805</Timestamp><Current dt:dt="r8">0</Current><DateUtc dt:dt="string">2015-08-07T15:03:28Z</DateUtc></FrequencyChange></FrequencyChanges></Clock>\n	Hungry_Donkey_bar_English_2-117-1	60.018	124	1.0.0.18	1	-1510680060	Standard	2.0.10.353	2.0.10.353	08-07-2015	8/7/2015 3:03:29 PM	11:03:29	2.0.10.248	23	Bar63-37.bmp	63	1	?	10r_4g.bmp	0r_4g.bmp	2r_2g.bmp	0r_2g.bmp	10r_4g.bmp				TrialProc	TrialList	0	cvbn	-999999	16	148082	0	c	366	148448	68	-40	28	-8	24	8	4	4	3	23	-10	0	-2	0	4	4	2	2	-10	4
Hungry_Donkey_bar_English_2	117	1	<?xml version="1.0"?>\n<Clock xmlns:dt="urn:schemas-microsoft-com:datatypes"><Description dt:dt="string">E-Prime Primary Realtime Clock</Description><StartTime><Timestamp dt:dt="int">0</Timestamp><DateUtc dt:dt="string">2015-08-07T15:03:28Z</DateUtc></StartTime><FrequencyChanges><FrequencyChange><Frequency dt:dt="r8">3507724</Frequency><Timestamp dt:dt="r8">2025713184805</Timestamp><Current dt:dt="r8">0</Current><DateUtc dt:dt="string">2015-08-07T15:03:28Z</DateUtc></FrequencyChange></FrequencyChanges></Clock>\n	Hungry_Donkey_bar_English_2-117-1	60.018	124	1.0.0.18	1	-1510680060	Standard	2.0.10.353	2.0.10.353	08-07-2015	8/7/2015 3:03:29 PM	11:03:29	2.0.10.248	24	Bar63-37.bmp	64	2	?	10r_4g.bmp	0r_4g.bmp	2r_2g.bmp	0r_2g.bmp		0r_4g.bmp			TrialProc	TrialList	0	cvbn	-999999	16	150481	0	v	1023	151504	72	-40	32	-8	28	8	4	2	3	24	-10	0	-2	0	4	4	2	2	0	4
Hungry_Donkey_bar_English_2	117	1	<?xml version="1.0"?>\n<Clock xmlns:dt="urn:schemas-microsoft-com:datatypes"><Description dt:dt="string">E-Prime Primary Realtime Clock</Description><StartTime><Timestamp dt:dt="int">0</Timestamp><DateUtc dt:dt="string">2015-08-07T15:03:28Z</DateUtc></StartTime><FrequencyChanges><FrequencyChange><Frequency dt:dt="r8">3507724</Frequency><Timestamp dt:dt="r8">2025713184805</Timestamp><Current dt:dt="r8">0</Current><DateUtc dt:dt="string">2015-08-07T15:03:28Z</DateUtc></FrequencyChange></FrequencyChanges></Clock>\n	Hungry_Donkey_bar_English_2-117-1	60.018	124	1.0.0.18	1	-1510680060	Standard	2.0.10.353	2.0.10.353	08-07-2015	8/7/2015 3:03:29 PM	11:03:29	2.0.10.248	25	Bar63-37.bmp	65	3	?	0r_4g.bmp	0r_4g.bmp	0r_2g.bmp	0r_2g.bmp			0r_2g.bmp		TrialProc	TrialList	0	cvbn	-999999	16	153530	0	b	326	153856	74	-40	34	-8	28	10	4	6	3	25	0	0	0	0	4	4	2	2	0	2
Hungry_Donkey_bar_English_2	117	1	<?xml version="1.0"?>\n<Clock xmlns:dt="urn:schemas-microsoft-com:datatypes"><Description dt:dt="string">E-Prime Primary Realtime Clock</Description><StartTime><Timestamp dt:dt="int">0</Timestamp><DateUtc dt:dt="string">2015-08-07T15:03:28Z</DateUtc></StartTime><FrequencyChanges><FrequencyChange><Frequency dt:dt="r8">3507724</Frequency><Timestamp dt:dt="r8">2025713184805</Timestamp><Current dt:dt="r8">0</Current><DateUtc dt:dt="string">2015-08-07T15:03:28Z</DateUtc></FrequencyChange></FrequencyChanges></Clock>\n	Hungry_Donkey_bar_English_2-117-1	60.018	124	1.0.0.18	1	-1510680060	Standard	2.0.10.353	2.0.10.353	08-07-2015	8/7/2015 3:03:29 PM	11:03:29	2.0.10.248	26	Bar63-37.bmp	66	4	?	0r_4g.bmp	0r_4g.bmp	0r_2g.bmp	0r_2g.bmp				0r_2g.bmp	TrialProc	TrialList	0	cvbn	-999999	16	155896	0	n	1416	157312	76	-40	36	-8	28	10	6	9	3	26	0	0	0	0	4	4	2	2	0	2
Hungry_Donkey_bar_English_2	117	1	<?xml version="1.0"?>\n<Clock xmlns:dt="urn:schemas-microsoft-com:datatypes"><Description dt:dt="string">E-Prime Primary Realtime Clock</Description><StartTime><Timestamp dt:dt="int">0</Timestamp><DateUtc dt:dt="string">2015-08-07T15:03:28Z</DateUtc></StartTime><FrequencyChanges><FrequencyChange><Frequency dt:dt="r8">3507724</Frequency><Timestamp dt:dt="r8">2025713184805</Timestamp><Current dt:dt="r8">0</Current><DateUtc dt:dt="string">2015-08-07T15:03:28Z</DateUtc></FrequencyChange></FrequencyChanges></Clock>\n	Hungry_Donkey_bar_English_2-117-1	60.018	124	1.0.0.18	1	-1510680060	Standard	2.0.10.353	2.0.10.353	08-07-2015	8/7/2015 3:03:29 PM	11:03:29	2.0.10.248	27	Bar63-37.bmp	67	2	?	10r_4g.bmp	0r_4g.bmp	2r_2g.bmp	0r_2g.bmp		0r_4g.bmp			TrialProc	TrialList	0	cvbn	-999999	16	159345	0	v	607	159952	80	-40	40	-8	32	10	6	3	3	27	-10	0	-2	0	4	4	2	2	0	4
Hungry_Donkey_bar_English_2	117	1	<?xml version="1.0"?>\n<Clock xmlns:dt="urn:schemas-microsoft-com:datatypes"><Description dt:dt="string">E-Prime Primary Realtime Clock</Description><StartTime><Timestamp dt:dt="int">0</Timestamp><DateUtc dt:dt="string">2015-08-07T15:03:28Z</DateUtc></StartTime><FrequencyChanges><FrequencyChange><Frequency dt:dt="r8">3507724</Frequency><Timestamp dt:dt="r8">2025713184805</Timestamp><Current dt:dt="r8">0</Current><DateUtc dt:dt="string">2015-08-07T15:03:28Z</DateUtc></FrequencyChange></FrequencyChanges></Clock>\n	Hungry_Donkey_bar_English_2-117-1	60.018	124	1.0.0.18	1	-1510680060	Standard	2.0.10.353	2.0.10.353	08-07-2015	8/7/2015 3:03:29 PM	11:03:29	2.0.10.248	28	Bar63-37.bmp	67	3	?	0r_4g.bmp	0r_4g.bmp	0r_2g.bmp	0r_2g.bmp			0r_2g.bmp		TrialProc	TrialList	0	cvbn	-999999	16	161978	0	b	1733	163711	82	-40	42	-8	32	12	6	8	3	28	0	0	0	0	4	4	2	2	0	2
Hungry_Donkey_bar_English_2	117	1	<?xml version="1.0"?>\n<Clock xmlns:dt="urn:schemas-microsoft-com:datatypes"><Description dt:dt="string">E-Prime Primary Realtime Clock</Description><StartTime><Timestamp dt:dt="int">0</Timestamp><DateUtc dt:dt="string">2015-08-07T15:03:28Z</DateUtc></StartTime><FrequencyChanges><FrequencyChange><Frequency dt:dt="r8">3507724</Frequency><Timestamp dt:dt="r8">2025713184805</Timestamp><Current dt:dt="r8">0</Current><DateUtc dt:dt="string">2015-08-07T15:03:28Z</DateUtc></FrequencyChange></FrequencyChanges></Clock>\n	Hungry_Donkey_bar_English_2-117-1	60.018	124	1.0.0.18	1	-1510680060	Standard	2.0.10.353	2.0.10.353	08-07-2015	8/7/2015 3:03:29 PM	11:03:29	2.0.10.248	29	Bar63-37.bmp	63	4	?	8r_4g.bmp	50r_4g.bmp	1r_2g.bmp	10r_2g.bmp				10r_2g.bmp	TrialProc	TrialList	0	cvbn	-999999	16	165743	0	n	1040	166783	84	-50	34	-8	32	12	-2	1	3	29	-8	-50	-1	-10	4	4	2	2	-10	2
Hungry_Donkey_bar_English_2	117	1	<?xml version="1.0"?>\n<Clock xmlns:dt="urn:schemas-microsoft-com:datatypes"><Description dt:dt="string">E-Prime Primary Realtime Clock</Description><StartTime><Timestamp dt:dt="int">0</Timestamp><DateUtc dt:dt="string">2015-08-07T15:03:28Z</DateUtc></StartTime><FrequencyChanges><FrequencyChange><Frequency dt:dt="r8">3507724</Frequency><Timestamp dt:dt="r8">2025713184805</Timestamp><Current dt:dt="r8">0</Current><DateUtc dt:dt="string">2015-08-07T15:03:28Z</DateUtc></FrequencyChange></FrequencyChanges></Clock>\n	Hungry_Donkey_bar_English_2-117-1	60.018	124	1.0.0.18	1	-1510680060	Standard	2.0.10.353	2.0.10.353	08-07-2015	8/7/2015 3:03:29 PM	11:03:29	2.0.10.248	30	Bar63-37.bmp	64	2	?	0r_4g.bmp	0r_4g.bmp	0r_2g.bmp	0r_2g.bmp		0r_4g.bmp			TrialProc	TrialList	0	cvbn	-999999	16	168809	0	v	902	169711	88	-50	38	-8	36	12	-2	7	3	30	0	0	0	0	4	4	2	2	0	4
Hungry_Donkey_bar_English_2	117	1	<?xml version="1.0"?>\n<Clock xmlns:dt="urn:schemas-microsoft-com:datatypes"><Description dt:dt="string">E-Prime Primary Realtime Clock</Description><StartTime><Timestamp dt:dt="int">0</Timestamp><DateUtc dt:dt="string">2015-08-07T15:03:28Z</DateUtc></StartTime><FrequencyChanges><FrequencyChange><Frequency dt:dt="r8">3507724</Frequency><Timestamp dt:dt="r8">2025713184805</Timestamp><Current dt:dt="r8">0</Current><DateUtc dt:dt="string">2015-08-07T15:03:28Z</DateUtc></FrequencyChange></FrequencyChanges></Clock>\n	Hungry_Donkey_bar_English_2-117-1	60.018	124	1.0.0.18	1	-1510680060	Standard	2.0.10.353	2.0.10.353	08-07-2015	8/7/2015 3:03:29 PM	11:03:29	2.0.10.248	31	Bar63-37.bmp	64	3	?	8r_4g.bmp	50r_4g.bmp	1r_2g.bmp	10r_2g.bmp			1r_2g.bmp		TrialProc	TrialList	0	cvbn	-999999	16	171741	0	b	466	172207	90	-51	39	-8	36	13	-2	1	4	31	-8	-50	-1	-10	4	4	2	2	-1	2
Hungry_Donkey_bar_English_2	117	1	<?xml version="1.0"?>\n<Clock xmlns:dt="urn:schemas-microsoft-com:datatypes"><Description dt:dt="string">E-Prime Primary Realtime Clock</Description><StartTime><Timestamp dt:dt="int">0</Timestamp><DateUtc dt:dt="string">2015-08-07T15:03:28Z</DateUtc></StartTime><FrequencyChanges><FrequencyChange><Frequency dt:dt="r8">3507724</Frequency><Timestamp dt:dt="r8">2025713184805</Timestamp><Current dt:dt="r8">0</Current><DateUtc dt:dt="string">2015-08-07T15:03:28Z</DateUtc></FrequencyChange></FrequencyChanges></Clock>\n	Hungry_Donkey_bar_English_2-117-1	60.018	124	1.0.0.18	1	-1510680060	Standard	2.0.10.353	2.0.10.353	08-07-2015	8/7/2015 3:03:29 PM	11:03:29	2.0.10.248	32	Bar63-37.bmp	65	1	?	0r_4g.bmp	0r_4g.bmp	0r_2g.bmp	0r_2g.bmp	0r_4g.bmp				TrialProc	TrialList	0	cvbn	-999999	16	174241	0	c	1246	175487	94	-51	43	-4	36	13	-2	9	4	32	0	0	0	0	4	4	2	2	0	4
Hungry_Donkey_bar_English_2	117	1	<?xml version="1.0"?>\n<Clock xmlns:dt="urn:schemas-microsoft-com:datatypes"><Description dt:dt="string">E-Prime Primary Realtime Clock</Description><StartTime><Timestamp dt:dt="int">0</Timestamp><DateUtc dt:dt="string">2015-08-07T15:03:28Z</DateUtc></StartTime><FrequencyChanges><FrequencyChange><Frequency dt:dt="r8">3507724</Frequency><Timestamp dt:dt="r8">2025713184805</Timestamp><Current dt:dt="r8">0</Current><DateUtc dt:dt="string">2015-08-07T15:03:28Z</DateUtc></FrequencyChange></FrequencyChanges></Clock>\n	Hungry_Donkey_bar_English_2-117-1	60.018	124	1.0.0.18	1	-1510680060	Standard	2.0.10.353	2.0.10.353	08-07-2015	8/7/2015 3:03:29 PM	11:03:29	2.0.10.248	33	Bar63-37.bmp	66	2	?	10r_4g.bmp	0r_4g.bmp	2r_2g.bmp	0r_2g.bmp		0r_4g.bmp			TrialProc	TrialList	0	cvbn	-999999	16	177523	0	v	363	177886	98	-51	47	-4	40	13	-2	3	4	33	-10	0	-2	0	4	4	2	2	0	4
Hungry_Donkey_bar_English_2	117	1	<?xml version="1.0"?>\n<Clock xmlns:dt="urn:schemas-microsoft-com:datatypes"><Description dt:dt="string">E-Prime Primary Realtime Clock</Description><StartTime><Timestamp dt:dt="int">0</Timestamp><DateUtc dt:dt="string">2015-08-07T15:03:28Z</DateUtc></StartTime><FrequencyChanges><FrequencyChange><Frequency dt:dt="r8">3507724</Frequency><Timestamp dt:dt="r8">2025713184805</Timestamp><Current dt:dt="r8">0</Current><DateUtc dt:dt="string">2015-08-07T15:03:28Z</DateUtc></FrequencyChange></FrequencyChanges></Clock>\n	Hungry_Donkey_bar_English_2-117-1	60.018	124	1.0.0.18	1	-1510680060	Standard	2.0.10.353	2.0.10.353	08-07-2015	8/7/2015 3:03:29 PM	11:03:29	2.0.10.248	34	Bar63-37.bmp	66	4	?	0r_4g.bmp	0r_4g.bmp	0r_2g.bmp	0r_2g.bmp				0r_2g.bmp	TrialProc	TrialList	0	cvbn	-999999	16	179922	0	n	652	180574	100	-51	49	-4	40	13	0	6	4	34	0	0	0	0	4	4	2	2	0	2
Hungry_Donkey_bar_English_2	117	1	<?xml version="1.0"?>\n<Clock xmlns:dt="urn:schemas-microsoft-com:datatypes"><Description dt:dt="string">E-Prime Primary Realtime Clock</Description><StartTime><Timestamp dt:dt="int">0</Timestamp><DateUtc dt:dt="string">2015-08-07T15:03:28Z</DateUtc></StartTime><FrequencyChanges><FrequencyChange><Frequency dt:dt="r8">3507724</Frequency><Timestamp dt:dt="r8">2025713184805</Timestamp><Current dt:dt="r8">0</Current><DateUtc dt:dt="string">2015-08-07T15:03:28Z</DateUtc></FrequencyChange></FrequencyChanges></Clock>\n	Hungry_Donkey_bar_English_2-117-1	60.018	124	1.0.0.18	1	-1510680060	Standard	2.0.10.353	2.0.10.353	08-07-2015	8/7/2015 3:03:29 PM	11:03:29	2.0.10.248	35	Bar63-37.bmp	67	3	?	0r_4g.bmp	0r_4g.bmp	0r_2g.bmp	0r_2g.bmp			0r_2g.bmp		TrialProc	TrialList	0	cvbn	-999999	16	182605	0	b	129	182734	102	-51	51	-4	40	15	0	8	4	35	0	0	0	0	4	4	2	2	0	2
Hungry_Donkey_bar_English_2	117	1	<?xml version="1.0"?>\n<Clock xmlns:dt="urn:schemas-microsoft-com:datatypes"><Description dt:dt="string">E-Prime Primary Realtime Clock</Description><StartTime><Timestamp dt:dt="int">0</Timestamp><DateUtc dt:dt="string">2015-08-07T15:03:28Z</DateUtc></StartTime><FrequencyChanges><FrequencyChange><Frequency dt:dt="r8">3507724</Frequency><Timestamp dt:dt="r8">2025713184805</Timestamp><Current dt:dt="r8">0</Current><DateUtc dt:dt="string">2015-08-07T15:03:28Z</DateUtc></FrequencyChange></FrequencyChanges></Clock>\n	Hungry_Donkey_bar_English_2-117-1	60.018	124	1.0.0.18	1	-1510680060	Standard	2.0.10.353	2.0.10.353	08-07-2015	8/7/2015 3:03:29 PM	11:03:29	2.0.10.248	36	Bar63-37.bmp	68	1	?	0r_4g.bmp	0r_4g.bmp	0r_2g.bmp	0r_2g.bmp	0r_4g.bmp				TrialProc	TrialList	0	cvbn	-999999	16	184771	0	c	923	185694	106	-51	55	0	40	15	0	7	4	36	0	0	0	0	4	4	2	2	0	4
Hungry_Donkey_bar_English_2	117	1	<?xml version="1.0"?>\n<Clock xmlns:dt="urn:schemas-microsoft-com:datatypes"><Description dt:dt="string">E-Prime Primary Realtime Clock</Description><StartTime><Timestamp dt:dt="int">0</Timestamp><DateUtc dt:dt="string">2015-08-07T15:03:28Z</DateUtc></StartTime><FrequencyChanges><FrequencyChange><Frequency dt:dt="r8">3507724</Frequency><Timestamp dt:dt="r8">2025713184805</Timestamp><Current dt:dt="r8">0</Current><DateUtc dt:dt="string">2015-08-07T15:03:28Z</DateUtc></FrequencyChange></FrequencyChanges></Clock>\n	Hungry_Donkey_bar_English_2-117-1	60.018	124	1.0.0.18	1	-1510680060	Standard	2.0.10.353	2.0.10.353	08-07-2015	8/7/2015 3:03:29 PM	11:03:29	2.0.10.248	37	Bar63-37.bmp	67	3	?	10r_4g.bmp	0r_4g.bmp	2r_2g.bmp	0r_2g.bmp			2r_2g.bmp		TrialProc	TrialList	0	cvbn	-999999	16	187720	0	b	678	188398	108	-53	55	0	40	15	0	2	4	37	-10	0	-2	0	4	4	2	2	-2	2
Hungry_Donkey_bar_English_2	117	1	<?xml version="1.0"?>\n<Clock xmlns:dt="urn:schemas-microsoft-com:datatypes"><Description dt:dt="string">E-Prime Primary Realtime Clock</Description><StartTime><Timestamp dt:dt="int">0</Timestamp><DateUtc dt:dt="string">2015-08-07T15:03:28Z</DateUtc></StartTime><FrequencyChanges><FrequencyChange><Frequency dt:dt="r8">3507724</Frequency><Timestamp dt:dt="r8">2025713184805</Timestamp><Current dt:dt="r8">0</Current><DateUtc dt:dt="string">2015-08-07T15:03:28Z</DateUtc></FrequencyChange></FrequencyChanges></Clock>\n	Hungry_Donkey_bar_English_2-117-1	60.018	124	1.0.0.18	1	-1510680060	Standard	2.0.10.353	2.0.10.353	08-07-2015	8/7/2015 3:03:29 PM	11:03:29	2.0.10.248	38	Bar63-37.bmp	68	2	?	12r_4g.bmp	0r_4g.bmp	3r_2g.bmp	0r_2g.bmp		0r_4g.bmp			TrialProc	TrialList	0	cvbn	-999999	16	190436	0	v	554	190990	112	-53	59	0	44	15	0	5	4	38	-12	0	-3	0	4	4	2	2	0	4
Hungry_Donkey_bar_English_2	117	1	<?xml version="1.0"?>\n<Clock xmlns:dt="urn:schemas-microsoft-com:datatypes"><Description dt:dt="string">E-Prime Primary Realtime Clock</Description><StartTime><Timestamp dt:dt="int">0</Timestamp><DateUtc dt:dt="string">2015-08-07T15:03:28Z</DateUtc></StartTime><FrequencyChanges><FrequencyChange><Frequency dt:dt="r8">3507724</Frequency><Timestamp dt:dt="r8">2025713184805</Timestamp><Current dt:dt="r8">0</Current><DateUtc dt:dt="string">2015-08-07T15:03:28Z</DateUtc></FrequencyChange></FrequencyChanges></Clock>\n	Hungry_Donkey_bar_English_2-117-1	60.018	124	1.0.0.18	1	-1510680060	Standard	2.0.10.353	2.0.10.353	08-07-2015	8/7/2015 3:03:29 PM	11:03:29	2.0.10.248	39	Bar63-37.bmp	68	4	?	10r_4g.bmp	0r_4g.bmp	2r_2g.bmp	0r_2g.bmp				0r_2g.bmp	TrialProc	TrialList	0	cvbn	-999999	16	193018	0	n	260	193278	114	-53	61	0	44	15	2	4	4	39	-10	0	-2	0	4	4	2	2	0	2
Hungry_Donkey_bar_English_2	117	1	<?xml version="1.0"?>\n<Clock xmlns:dt="urn:schemas-microsoft-com:datatypes"><Description dt:dt="string">E-Prime Primary Realtime Clock</Description><StartTime><Timestamp dt:dt="int">0</Timestamp><DateUtc dt:dt="string">2015-08-07T15:03:28Z</DateUtc></StartTime><FrequencyChanges><FrequencyChange><Frequency dt:dt="r8">3507724</Frequency><Timestamp dt:dt="r8">2025713184805</Timestamp><Current dt:dt="r8">0</Current><DateUtc dt:dt="string">2015-08-07T15:03:28Z</DateUtc></FrequencyChange></FrequencyChanges></Clock>\n	Hungry_Donkey_bar_English_2-117-1	60.018	124	1.0.0.18	1	-1510680060	Standard	2.0.10.353	2.0.10.353	08-07-2015	8/7/2015 3:03:29 PM	11:03:29	2.0.10.248	40	Bar63-37.bmp	69	1	?	0r_4g.bmp	0r_4g.bmp	0r_2g.bmp	0r_2g.bmp	0r_4g.bmp				TrialProc	TrialList	0	cvbn	-999999	15	195301	0	c	312	195613	118	-53	65	4	44	15	2	10	4	40	0	0	0	0	4	4	2	2	0	4
Hungry_Donkey_bar_English_2	117	1	<?xml version="1.0"?>\n<Clock xmlns:dt="urn:schemas-microsoft-com:datatypes"><Description dt:dt="string">E-Prime Primary Realtime Clock</Description><StartTime><Timestamp dt:dt="int">0</Timestamp><DateUtc dt:dt="string">2015-08-07T15:03:28Z</DateUtc></StartTime><FrequencyChanges><FrequencyChange><Frequency dt:dt="r8">3507724</Frequency><Timestamp dt:dt="r8">2025713184805</Timestamp><Current dt:dt="r8">0</Current><DateUtc dt:dt="string">2015-08-07T15:03:28Z</DateUtc></FrequencyChange></FrequencyChanges></Clock>\n	Hungry_Donkey_bar_English_2-117-1	60.018	124	1.0.0.18	1	-1510680060	Standard	2.0.10.353	2.0.10.353	08-07-2015	8/7/2015 3:03:29 PM	11:03:29	2.0.10.248	41	Bar63-37.bmp	69	3	?	10r_4g.bmp	0r_4g.bmp	2r_2g.bmp	0r_2g.bmp			2r_2g.bmp		TrialProc	TrialList	0	cvbn	-999999	16	197650	0	b	1275	198925	120	-55	65	4	44	15	2	3	5	41	-10	0	-2	0	4	4	2	2	-2	2
Hungry_Donkey_bar_English_2	117	1	<?xml version="1.0"?>\n<Clock xmlns:dt="urn:schemas-microsoft-com:datatypes"><Description dt:dt="string">E-Prime Primary Realtime Clock</Description><StartTime><Timestamp dt:dt="int">0</Timestamp><DateUtc dt:dt="string">2015-08-07T15:03:28Z</DateUtc></StartTime><FrequencyChanges><FrequencyChange><Frequency dt:dt="r8">3507724</Frequency><Timestamp dt:dt="r8">2025713184805</Timestamp><Current dt:dt="r8">0</Current><DateUtc dt:dt="string">2015-08-07T15:03:28Z</DateUtc></FrequencyChange></FrequencyChanges></Clock>\n	Hungry_Donkey_bar_English_2-117-1	60.018	124	1.0.0.18	1	-1510680060	Standard	2.0.10.353	2.0.10.353	08-07-2015	8/7/2015 3:03:29 PM	11:03:29	2.0.10.248	42	Bar63-37.bmp	69	2	?	0r_4g.bmp	0r_4g.bmp	0r_2g.bmp	0r_2g.bmp		0r_4g.bmp			TrialProc	TrialList	0	cvbn	-999999	16	200949	0	v	648	201597	124	-55	69	4	48	15	2	6	5	42	0	0	0	0	4	4	2	2	0	4
Hungry_Donkey_bar_English_2	117	1	<?xml version="1.0"?>\n<Clock xmlns:dt="urn:schemas-microsoft-com:datatypes"><Description dt:dt="string">E-Prime Primary Realtime Clock</Description><StartTime><Timestamp dt:dt="int">0</Timestamp><DateUtc dt:dt="string">2015-08-07T15:03:28Z</DateUtc></StartTime><FrequencyChanges><FrequencyChange><Frequency dt:dt="r8">3507724</Frequency><Timestamp dt:dt="r8">2025713184805</Timestamp><Current dt:dt="r8">0</Current><DateUtc dt:dt="string">2015-08-07T15:03:28Z</DateUtc></FrequencyChange></FrequencyChanges></Clock>\n	Hungry_Donkey_bar_English_2-117-1	60.018	124	1.0.0.18	1	-1510680060	Standard	2.0.10.353	2.0.10.353	08-07-2015	8/7/2015 3:03:29 PM	11:03:29	2.0.10.248	43	Bar63-37.bmp	68	3	?	12r_4g.bmp	0r_4g.bmp	3r_2g.bmp	0r_2g.bmp			3r_2g.bmp		TrialProc	TrialList	0	cvbn	-999999	16	203632	0	b	1101	204733	126	-58	68	4	48	14	2	5	5	43	-12	0	-3	0	4	4	2	2	-3	2
Hungry_Donkey_bar_English_2	117	1	<?xml version="1.0"?>\n<Clock xmlns:dt="urn:schemas-microsoft-com:datatypes"><Description dt:dt="string">E-Prime Primary Realtime Clock</Description><StartTime><Timestamp dt:dt="int">0</Timestamp><DateUtc dt:dt="string">2015-08-07T15:03:28Z</DateUtc></StartTime><FrequencyChanges><FrequencyChange><Frequency dt:dt="r8">3507724</Frequency><Timestamp dt:dt="r8">2025713184805</Timestamp><Current dt:dt="r8">0</Current><DateUtc dt:dt="string">2015-08-07T15:03:28Z</DateUtc></FrequencyChange></FrequencyChanges></Clock>\n	Hungry_Donkey_bar_English_2-117-1	60.018	124	1.0.0.18	1	-1510680060	Standard	2.0.10.353	2.0.10.353	08-07-2015	8/7/2015 3:03:29 PM	11:03:29	2.0.10.248	44	Bar63-37.bmp	66	1	?	10r_4g.bmp	0r_4g.bmp	2r_2g.bmp	0r_2g.bmp	10r_4g.bmp				TrialProc	TrialList	0	cvbn	-999999	16	206764	0	c	561	207325	130	-68	62	-2	48	14	2	2	5	44	-10	0	-2	0	4	4	2	2	-10	4
Hungry_Donkey_bar_English_2	117	1	<?xml version="1.0"?>\n<Clock xmlns:dt="urn:schemas-microsoft-com:datatypes"><Description dt:dt="string">E-Prime Primary Realtime Clock</Description><StartTime><Timestamp dt:dt="int">0</Timestamp><DateUtc dt:dt="string">2015-08-07T15:03:28Z</DateUtc></StartTime><FrequencyChanges><FrequencyChange><Frequency dt:dt="r8">3507724</Frequency><Timestamp dt:dt="r8">2025713184805</Timestamp><Current dt:dt="r8">0</Current><DateUtc dt:dt="string">2015-08-07T15:03:28Z</DateUtc></FrequencyChange></FrequencyChanges></Clock>\n	Hungry_Donkey_bar_English_2-117-1	60.018	124	1.0.0.18	1	-1510680060	Standard	2.0.10.353	2.0.10.353	08-07-2015	8/7/2015 3:03:29 PM	11:03:29	2.0.10.248	45	Bar63-37.bmp	66	4	?	0r_4g.bmp	0r_4g.bmp	0r_2g.bmp	0r_2g.bmp				0r_2g.bmp	TrialProc	TrialList	0	cvbn	-999999	16	209363	0	n	1305	210668	132	-68	64	-2	48	14	4	8	5	45	0	0	0	0	4	4	2	2	0	2
Hungry_Donkey_bar_English_2	117	1	<?xml version="1.0"?>\n<Clock xmlns:dt="urn:schemas-microsoft-com:datatypes"><Description dt:dt="string">E-Prime Primary Realtime Clock</Description><StartTime><Timestamp dt:dt="int">0</Timestamp><DateUtc dt:dt="string">2015-08-07T15:03:28Z</DateUtc></StartTime><FrequencyChanges><FrequencyChange><Frequency dt:dt="r8">3507724</Frequency><Timestamp dt:dt="r8">2025713184805</Timestamp><Current dt:dt="r8">0</Current><DateUtc dt:dt="string">2015-08-07T15:03:28Z</DateUtc></FrequencyChange></FrequencyChanges></Clock>\n	Hungry_Donkey_bar_English_2-117-1	60.018	124	1.0.0.18	1	-1510680060	Standard	2.0.10.353	2.0.10.353	08-07-2015	8/7/2015 3:03:29 PM	11:03:29	2.0.10.248	46	Bar63-37.bmp	67	1	?	0r_4g.bmp	0r_4g.bmp	0r_2g.bmp	0r_2g.bmp	0r_4g.bmp				TrialProc	TrialList	0	cvbn	-999999	16	212696	0	c	1492	214188	136	-68	68	2	48	14	4	10	5	46	0	0	0	0	4	4	2	2	0	4
Hungry_Donkey_bar_English_2	117	1	<?xml version="1.0"?>\n<Clock xmlns:dt="urn:schemas-microsoft-com:datatypes"><Description dt:dt="string">E-Prime Primary Realtime Clock</Description><StartTime><Timestamp dt:dt="int">0</Timestamp><DateUtc dt:dt="string">2015-08-07T15:03:28Z</DateUtc></StartTime><FrequencyChanges><FrequencyChange><Frequency dt:dt="r8">3507724</Frequency><Timestamp dt:dt="r8">2025713184805</Timestamp><Current dt:dt="r8">0</Current><DateUtc dt:dt="string">2015-08-07T15:03:28Z</DateUtc></FrequencyChange></FrequencyChanges></Clock>\n	Hungry_Donkey_bar_English_2-117-1	60.018	124	1.0.0.18	1	-1510680060	Standard	2.0.10.353	2.0.10.353	08-07-2015	8/7/2015 3:03:29 PM	11:03:29	2.0.10.248	47	Bar63-37.bmp	67	2	?	10r_4g.bmp	0r_4g.bmp	2r_2g.bmp	0r_2g.bmp		0r_4g.bmp			TrialProc	TrialList	0	cvbn	-999999	15	216211	0	v	361	216572	140	-68	72	2	52	14	4	4	5	47	-10	0	-2	0	4	4	2	2	0	4
Hungry_Donkey_bar_English_2	117	1	<?xml version="1.0"?>\n<Clock xmlns:dt="urn:schemas-microsoft-com:datatypes"><Description dt:dt="string">E-Prime Primary Realtime Clock</Description><StartTime><Timestamp dt:dt="int">0</Timestamp><DateUtc dt:dt="string">2015-08-07T15:03:28Z</DateUtc></StartTime><FrequencyChanges><FrequencyChange><Frequency dt:dt="r8">3507724</Frequency><Timestamp dt:dt="r8">2025713184805</Timestamp><Current dt:dt="r8">0</Current><DateUtc dt:dt="string">2015-08-07T15:03:28Z</DateUtc></FrequencyChange></FrequencyChanges></Clock>\n	Hungry_Donkey_bar_English_2-117-1	60.018	124	1.0.0.18	1	-1510680060	Standard	2.0.10.353	2.0.10.353	08-07-2015	8/7/2015 3:03:29 PM	11:03:29	2.0.10.248	48	Bar63-37.bmp	68	3	?	0r_4g.bmp	0r_4g.bmp	0r_2g.bmp	0r_2g.bmp			0r_2g.bmp		TrialProc	TrialList	0	cvbn	-999999	16	218611	0	b	601	219212	142	-68	74	2	52	16	4	9	5	48	0	0	0	0	4	4	2	2	0	2
Hungry_Donkey_bar_English_2	117	1	<?xml version="1.0"?>\n<Clock xmlns:dt="urn:schemas-microsoft-com:datatypes"><Description dt:dt="string">E-Prime Primary Realtime Clock</Description><StartTime><Timestamp dt:dt="int">0</Timestamp><DateUtc dt:dt="string">2015-08-07T15:03:28Z</DateUtc></StartTime><FrequencyChanges><FrequencyChange><Frequency dt:dt="r8">3507724</Frequency><Timestamp dt:dt="r8">2025713184805</Timestamp><Current dt:dt="r8">0</Current><DateUtc dt:dt="string">2015-08-07T15:03:28Z</DateUtc></FrequencyChange></FrequencyChanges></Clock>\n	Hungry_Donkey_bar_English_2-117-1	60.018	124	1.0.0.18	1	-1510680060	Standard	2.0.10.353	2.0.10.353	08-07-2015	8/7/2015 3:03:29 PM	11:03:29	2.0.10.248	49	Bar63-37.bmp	66	1	?	8r_4g.bmp	50r_4g.bmp	1r_2g.bmp	10r_2g.bmp	8r_4g.bmp				TrialProc	TrialList	0	cvbn	-999999	16	221243	0	c	145	221388	146	-76	70	-2	52	16	4	1	5	49	-8	-50	-1	-10	4	4	2	2	-8	4
Hungry_Donkey_bar_English_2	117	1	<?xml version="1.0"?>\n<Clock xmlns:dt="urn:schemas-microsoft-com:datatypes"><Description dt:dt="string">E-Prime Primary Realtime Clock</Description><StartTime><Timestamp dt:dt="int">0</Timestamp><DateUtc dt:dt="string">2015-08-07T15:03:28Z</DateUtc></StartTime><FrequencyChanges><FrequencyChange><Frequency dt:dt="r8">3507724</Frequency><Timestamp dt:dt="r8">2025713184805</Timestamp><Current dt:dt="r8">0</Current><DateUtc dt:dt="string">2015-08-07T15:03:28Z</DateUtc></FrequencyChange></FrequencyChanges></Clock>\n	Hungry_Donkey_bar_English_2-117-1	60.018	124	1.0.0.18	1	-1510680060	Standard	2.0.10.353	2.0.10.353	08-07-2015	8/7/2015 3:03:29 PM	11:03:29	2.0.10.248	50	Bar63-37.bmp	66	4	?	0r_4g.bmp	0r_4g.bmp	0r_2g.bmp	0r_2g.bmp				0r_2g.bmp	TrialProc	TrialList	0	cvbn	-999999	16	223426	0	n	570	223996	148	-76	72	-2	52	16	6	7	5	50	0	0	0	0	4	4	2	2	0	2
Hungry_Donkey_bar_English_2	117	1	<?xml version="1.0"?>\n<Clock xmlns:dt="urn:schemas-microsoft-com:datatypes"><Description dt:dt="string">E-Prime Primary Realtime Clock</Description><StartTime><Timestamp dt:dt="int">0</Timestamp><DateUtc dt:dt="string">2015-08-07T15:03:28Z</DateUtc></StartTime><FrequencyChanges><FrequencyChange><Frequency dt:dt="r8">3507724</Frequency><Timestamp dt:dt="r8">2025713184805</Timestamp><Current dt:dt="r8">0</Current><DateUtc dt:dt="string">2015-08-07T15:03:28Z</DateUtc></FrequencyChange></FrequencyChanges></Clock>\n	Hungry_Donkey_bar_English_2-117-1	60.018	124	1.0.0.18	1	-1510680060	Standard	2.0.10.353	2.0.10.353	08-07-2015	8/7/2015 3:03:29 PM	11:03:29	2.0.10.248	51	Bar63-37.bmp	67	2	?	10r_4g.bmp	0r_4g.bmp	2r_2g.bmp	0r_2g.bmp		0r_4g.bmp			TrialProc	TrialList	0	cvbn	-999999	16	226025	0	v	610	226635	152	-76	76	-2	56	16	6	4	6	51	-10	0	-2	0	4	4	2	2	0	4
Hungry_Donkey_bar_English_2	117	1	<?xml version="1.0"?>\n<Clock xmlns:dt="urn:schemas-microsoft-com:datatypes"><Description dt:dt="string">E-Prime Primary Realtime Clock</Description><StartTime><Timestamp dt:dt="int">0</Timestamp><DateUtc dt:dt="string">2015-08-07T15:03:28Z</DateUtc></StartTime><FrequencyChanges><FrequencyChange><Frequency dt:dt="r8">3507724</Frequency><Timestamp dt:dt="r8">2025713184805</Timestamp><Current dt:dt="r8">0</Current><DateUtc dt:dt="string">2015-08-07T15:03:28Z</DateUtc></FrequencyChange></FrequencyChanges></Clock>\n	Hungry_Donkey_bar_English_2-117-1	60.018	124	1.0.0.18	1	-1510680060	Standard	2.0.10.353	2.0.10.353	08-07-2015	8/7/2015 3:03:29 PM	11:03:29	2.0.10.248	52	Bar63-37.bmp	67	4	?	0r_4g.bmp	0r_4g.bmp	0r_2g.bmp	0r_2g.bmp				0r_2g.bmp	TrialProc	TrialList	0	cvbn	-999999	16	228658	0	n	1129	229787	154	-76	78	-2	56	16	8	6	6	52	0	0	0	0	4	4	2	2	0	2
Hungry_Donkey_bar_English_2	117	1	<?xml version="1.0"?>\n<Clock xmlns:dt="urn:schemas-microsoft-com:datatypes"><Description dt:dt="string">E-Prime Primary Realtime Clock</Description><StartTime><Timestamp dt:dt="int">0</Timestamp><DateUtc dt:dt="string">2015-08-07T15:03:28Z</DateUtc></StartTime><FrequencyChanges><FrequencyChange><Frequency dt:dt="r8">3507724</Frequency><Timestamp dt:dt="r8">2025713184805</Timestamp><Current dt:dt="r8">0</Current><DateUtc dt:dt="string">2015-08-07T15:03:28Z</DateUtc></FrequencyChange></FrequencyChanges></Clock>\n	Hungry_Donkey_bar_English_2-117-1	60.018	124	1.0.0.18	1	-1510680060	Standard	2.0.10.353	2.0.10.353	08-07-2015	8/7/2015 3:03:29 PM	11:03:29	2.0.10.248	53	Bar63-37.bmp	67	3	?	0r_4g.bmp	0r_4g.bmp	0r_2g.bmp	0r_2g.bmp			0r_2g.bmp		TrialProc	TrialList	0	cvbn	-999999	16	231823	0	b	412	232235	156	-76	80	-2	56	18	8	7	6	53	0	0	0	0	4	4	2	2	0	2
Hungry_Donkey_bar_English_2	117	1	<?xml version="1.0"?>\n<Clock xmlns:dt="urn:schemas-microsoft-com:datatypes"><Description dt:dt="string">E-Prime Primary Realtime Clock</Description><StartTime><Timestamp dt:dt="int">0</Timestamp><DateUtc dt:dt="string">2015-08-07T15:03:28Z</DateUtc></StartTime><FrequencyChanges><FrequencyChange><Frequency dt:dt="r8">3507724</Frequency><Timestamp dt:dt="r8">2025713184805</Timestamp><Current dt:dt="r8">0</Current><DateUtc dt:dt="string">2015-08-07T15:03:28Z</DateUtc></FrequencyChange></FrequencyChanges></Clock>\n	Hungry_Donkey_bar_English_2-117-1	60.018	124	1.0.0.18	1	-1510680060	Standard	2.0.10.353	2.0.10.353	08-07-2015	8/7/2015 3:03:29 PM	11:03:29	2.0.10.248	54	Bar63-37.bmp	68	2	?	0r_4g.bmp	0r_4g.bmp	0r_2g.bmp	0r_2g.bmp		0r_4g.bmp			TrialProc	TrialList	0	cvbn	-999999	16	234273	0	v	570	234843	160	-76	84	-2	60	18	8	10	6	54	0	0	0	0	4	4	2	2	0	4
Hungry_Donkey_bar_English_2	117	1	<?xml version="1.0"?>\n<Clock xmlns:dt="urn:schemas-microsoft-com:datatypes"><Description dt:dt="string">E-Prime Primary Realtime Clock</Description><StartTime><Timestamp dt:dt="int">0</Timestamp><DateUtc dt:dt="string">2015-08-07T15:03:28Z</DateUtc></StartTime><FrequencyChanges><FrequencyChange><Frequency dt:dt="r8">3507724</Frequency><Timestamp dt:dt="r8">2025713184805</Timestamp><Current dt:dt="r8">0</Current><DateUtc dt:dt="string">2015-08-07T15:03:28Z</DateUtc></FrequencyChange></FrequencyChanges></Clock>\n	Hungry_Donkey_bar_English_2-117-1	60.018	124	1.0.0.18	1	-1510680060	Standard	2.0.10.353	2.0.10.353	08-07-2015	8/7/2015 3:03:29 PM	11:03:29	2.0.10.248	55	Bar63-37.bmp	66	1	?	10r_4g.bmp	0r_4g.bmp	2r_2g.bmp	0r_2g.bmp	10r_4g.bmp				TrialProc	TrialList	0	cvbn	-999999	16	236872	0	c	451	237323	164	-86	78	-8	60	18	8	2	6	55	-10	0	-2	0	4	4	2	2	-10	4
Hungry_Donkey_bar_English_2	117	1	<?xml version="1.0"?>\n<Clock xmlns:dt="urn:schemas-microsoft-com:datatypes"><Description dt:dt="string">E-Prime Primary Realtime Clock</Description><StartTime><Timestamp dt:dt="int">0</Timestamp><DateUtc dt:dt="string">2015-08-07T15:03:28Z</DateUtc></StartTime><FrequencyChanges><FrequencyChange><Frequency dt:dt="r8">3507724</Frequency><Timestamp dt:dt="r8">2025713184805</Timestamp><Current dt:dt="r8">0</Current><DateUtc dt:dt="string">2015-08-07T15:03:28Z</DateUtc></FrequencyChange></FrequencyChanges></Clock>\n	Hungry_Donkey_bar_English_2-117-1	60.018	124	1.0.0.18	1	-1510680060	Standard	2.0.10.353	2.0.10.353	08-07-2015	8/7/2015 3:03:29 PM	11:03:29	2.0.10.248	56	Bar63-37.bmp	66	2	?	0r_4g.bmp	0r_4g.bmp	0r_2g.bmp	0r_2g.bmp		0r_4g.bmp			TrialProc	TrialList	0	cvbn	-999999	16	239354	0	v	1409	240763	168	-86	82	-8	64	18	8	8	6	56	0	0	0	0	4	4	2	2	0	4
Hungry_Donkey_bar_English_2	117	1	<?xml version="1.0"?>\n<Clock xmlns:dt="urn:schemas-microsoft-com:datatypes"><Description dt:dt="string">E-Prime Primary Realtime Clock</Description><StartTime><Timestamp dt:dt="int">0</Timestamp><DateUtc dt:dt="string">2015-08-07T15:03:28Z</DateUtc></StartTime><FrequencyChanges><FrequencyChange><Frequency dt:dt="r8">3507724</Frequency><Timestamp dt:dt="r8">2025713184805</Timestamp><Current dt:dt="r8">0</Current><DateUtc dt:dt="string">2015-08-07T15:03:28Z</DateUtc></FrequencyChange></FrequencyChanges></Clock>\n	Hungry_Donkey_bar_English_2-117-1	60.018	124	1.0.0.18	1	-1510680060	Standard	2.0.10.353	2.0.10.353	08-07-2015	8/7/2015 3:03:29 PM	11:03:29	2.0.10.248	57	Bar63-37.bmp	66	4	?	0r_4g.bmp	0r_4g.bmp	0r_2g.bmp	0r_2g.bmp				0r_2g.bmp	TrialProc	TrialList	0	cvbn	-999999	16	242787	0	n	327	243114	170	-86	84	-8	64	18	10	9	6	57	0	0	0	0	4	4	2	2	0	2
Hungry_Donkey_bar_English_2	117	1	<?xml version="1.0"?>\n<Clock xmlns:dt="urn:schemas-microsoft-com:datatypes"><Description dt:dt="string">E-Prime Primary Realtime Clock</Description><StartTime><Timestamp dt:dt="int">0</Timestamp><DateUtc dt:dt="string">2015-08-07T15:03:28Z</DateUtc></StartTime><FrequencyChanges><FrequencyChange><Frequency dt:dt="r8">3507724</Frequency><Timestamp dt:dt="r8">2025713184805</Timestamp><Current dt:dt="r8">0</Current><DateUtc dt:dt="string">2015-08-07T15:03:28Z</DateUtc></FrequencyChange></FrequencyChanges></Clock>\n	Hungry_Donkey_bar_English_2-117-1	60.018	124	1.0.0.18	1	-1510680060	Standard	2.0.10.353	2.0.10.353	08-07-2015	8/7/2015 3:03:29 PM	11:03:29	2.0.10.248	58	Bar63-37.bmp	66	3	?	10r_4g.bmp	0r_4g.bmp	2r_2g.bmp	0r_2g.bmp			2r_2g.bmp		TrialProc	TrialList	0	cvbn	-999999	16	245153	0	b	313	245466	172	-88	84	-8	64	18	10	3	6	58	-10	0	-2	0	4	4	2	2	-2	2
Hungry_Donkey_bar_English_2	117	1	<?xml version="1.0"?>\n<Clock xmlns:dt="urn:schemas-microsoft-com:datatypes"><Description dt:dt="string">E-Prime Primary Realtime Clock</Description><StartTime><Timestamp dt:dt="int">0</Timestamp><DateUtc dt:dt="string">2015-08-07T15:03:28Z</DateUtc></StartTime><FrequencyChanges><FrequencyChange><Frequency dt:dt="r8">3507724</Frequency><Timestamp dt:dt="r8">2025713184805</Timestamp><Current dt:dt="r8">0</Current><DateUtc dt:dt="string">2015-08-07T15:03:28Z</DateUtc></FrequencyChange></FrequencyChanges></Clock>\n	Hungry_Donkey_bar_English_2-117-1	60.018	124	1.0.0.18	1	-1510680060	Standard	2.0.10.353	2.0.10.353	08-07-2015	8/7/2015 3:03:29 PM	11:03:29	2.0.10.248	59	Bar63-37.bmp	67	2	?	12r_4g.bmp	0r_4g.bmp	3r_2g.bmp	0r_2g.bmp		0r_4g.bmp			TrialProc	TrialList	0	cvbn	-999999	16	247502	0	v	524	248026	176	-88	88	-8	68	18	10	5	6	59	-12	0	-3	0	4	4	2	2	0	4
Hungry_Donkey_bar_English_2	117	1	<?xml version="1.0"?>\n<Clock xmlns:dt="urn:schemas-microsoft-com:datatypes"><Description dt:dt="string">E-Prime Primary Realtime Clock</Description><StartTime><Timestamp dt:dt="int">0</Timestamp><DateUtc dt:dt="string">2015-08-07T15:03:28Z</DateUtc></StartTime><FrequencyChanges><FrequencyChange><Frequency dt:dt="r8">3507724</Frequency><Timestamp dt:dt="r8">2025713184805</Timestamp><Current dt:dt="r8">0</Current><DateUtc dt:dt="string">2015-08-07T15:03:28Z</DateUtc></FrequencyChange></FrequencyChanges></Clock>\n	Hungry_Donkey_bar_English_2-117-1	60.018	124	1.0.0.18	1	-1510680060	Standard	2.0.10.353	2.0.10.353	08-07-2015	8/7/2015 3:03:29 PM	11:03:29	2.0.10.248	60	Bar63-37.bmp	65	1	?	8r_4g.bmp	50r_4g.bmp	1r_2g.bmp	10r_2g.bmp	8r_4g.bmp				TrialProc	TrialList	0	cvbn	-999999	16	250051	0	c	439	250490	180	-96	84	-12	68	18	10	1	6	60	-8	-50	-1	-10	4	4	2	2	-8	4
Hungry_Donkey_bar_English_2	117	1	<?xml version="1.0"?>\n<Clock xmlns:dt="urn:schemas-microsoft-com:datatypes"><Description dt:dt="string">E-Prime Primary Realtime Clock</Description><StartTime><Timestamp dt:dt="int">0</Timestamp><DateUtc dt:dt="string">2015-08-07T15:03:28Z</DateUtc></StartTime><FrequencyChanges><FrequencyChange><Frequency dt:dt="r8">3507724</Frequency><Timestamp dt:dt="r8">2025713184805</Timestamp><Current dt:dt="r8">0</Current><DateUtc dt:dt="string">2015-08-07T15:03:28Z</DateUtc></FrequencyChange></FrequencyChanges></Clock>\n	Hungry_Donkey_bar_English_2-117-1	60.018	124	1.0.0.18	1	-1510680060	Standard	2.0.10.353	2.0.10.353	08-07-2015	8/7/2015 3:03:29 PM	11:03:29	2.0.10.248	61	Bar63-37.bmp	66	2	?	0r_4g.bmp	0r_4g.bmp	0r_2g.bmp	0r_2g.bmp		0r_4g.bmp			TrialProc	TrialList	0	cvbn	-999999	16	252517	0	v	597	253114	184	-96	88	-12	72	18	10	7	7	61	0	0	0	0	4	4	2	2	0	4
Hungry_Donkey_bar_English_2	117	1	<?xml version="1.0"?>\n<Clock xmlns:dt="urn:schemas-microsoft-com:datatypes"><Description dt:dt="string">E-Prime Primary Realtime Clock</Description><StartTime><Timestamp dt:dt="int">0</Timestamp><DateUtc dt:dt="string">2015-08-07T15:03:28Z</DateUtc></StartTime><FrequencyChanges><FrequencyChange><Frequency dt:dt="r8">3507724</Frequency><Timestamp dt:dt="r8">2025713184805</Timestamp><Current dt:dt="r8">0</Current><DateUtc dt:dt="string">2015-08-07T15:03:28Z</DateUtc></FrequencyChange></FrequencyChanges></Clock>\n	Hungry_Donkey_bar_English_2-117-1	60.018	124	1.0.0.18	1	-1510680060	Standard	2.0.10.353	2.0.10.353	08-07-2015	8/7/2015 3:03:29 PM	11:03:29	2.0.10.248	62	Bar63-37.bmp	66	3	?	8r_4g.bmp	50r_4g.bmp	1r_2g.bmp	10r_2g.bmp			1r_2g.bmp		TrialProc	TrialList	0	cvbn	-999999	16	255150	0	b	348	255498	186	-97	89	-12	72	19	10	1	7	62	-8	-50	-1	-10	4	4	2	2	-1	2
Hungry_Donkey_bar_English_2	117	1	<?xml version="1.0"?>\n<Clock xmlns:dt="urn:schemas-microsoft-com:datatypes"><Description dt:dt="string">E-Prime Primary Realtime Clock</Description><StartTime><Timestamp dt:dt="int">0</Timestamp><DateUtc dt:dt="string">2015-08-07T15:03:28Z</DateUtc></StartTime><FrequencyChanges><FrequencyChange><Frequency dt:dt="r8">3507724</Frequency><Timestamp dt:dt="r8">2025713184805</Timestamp><Current dt:dt="r8">0</Current><DateUtc dt:dt="string">2015-08-07T15:03:28Z</DateUtc></FrequencyChange></FrequencyChanges></Clock>\n	Hungry_Donkey_bar_English_2-117-1	60.018	124	1.0.0.18	1	-1510680060	Standard	2.0.10.353	2.0.10.353	08-07-2015	8/7/2015 3:03:29 PM	11:03:29	2.0.10.248	63	Bar63-37.bmp	66	4	?	12r_4g.bmp	0r_4g.bmp	3r_2g.bmp	0r_2g.bmp				0r_2g.bmp	TrialProc	TrialList	0	cvbn	-999999	16	257532	0	n	462	257994	188	-97	91	-12	72	19	12	5	7	63	-12	0	-3	0	4	4	2	2	0	2
Hungry_Donkey_bar_English_2	117	1	<?xml version="1.0"?>\n<Clock xmlns:dt="urn:schemas-microsoft-com:datatypes"><Description dt:dt="string">E-Prime Primary Realtime Clock</Description><StartTime><Timestamp dt:dt="int">0</Timestamp><DateUtc dt:dt="string">2015-08-07T15:03:28Z</DateUtc></StartTime><FrequencyChanges><FrequencyChange><Frequency dt:dt="r8">3507724</Frequency><Timestamp dt:dt="r8">2025713184805</Timestamp><Current dt:dt="r8">0</Current><DateUtc dt:dt="string">2015-08-07T15:03:28Z</DateUtc></FrequencyChange></FrequencyChanges></Clock>\n	Hungry_Donkey_bar_English_2-117-1	60.018	124	1.0.0.18	1	-1510680060	Standard	2.0.10.353	2.0.10.353	08-07-2015	8/7/2015 3:03:29 PM	11:03:29	2.0.10.248	64	Bar63-37.bmp	66	2	?	10r_4g.bmp	0r_4g.bmp	2r_2g.bmp	0r_2g.bmp		0r_4g.bmp			TrialProc	TrialList	0	cvbn	-999999	17	260032	0	v	313	260345	192	-97	95	-12	76	19	12	4	7	64	-10	0	-2	0	4	4	2	2	0	4
Hungry_Donkey_bar_English_2	117	1	<?xml version="1.0"?>\n<Clock xmlns:dt="urn:schemas-microsoft-com:datatypes"><Description dt:dt="string">E-Prime Primary Realtime Clock</Description><StartTime><Timestamp dt:dt="int">0</Timestamp><DateUtc dt:dt="string">2015-08-07T15:03:28Z</DateUtc></StartTime><FrequencyChanges><FrequencyChange><Frequency dt:dt="r8">3507724</Frequency><Timestamp dt:dt="r8">2025713184805</Timestamp><Current dt:dt="r8">0</Current><DateUtc dt:dt="string">2015-08-07T15:03:28Z</DateUtc></FrequencyChange></FrequencyChanges></Clock>\n	Hungry_Donkey_bar_English_2-117-1	60.018	124	1.0.0.18	1	-1510680060	Standard	2.0.10.353	2.0.10.353	08-07-2015	8/7/2015 3:03:29 PM	11:03:29	2.0.10.248	65	Bar63-37.bmp	67	1	?	0r_4g.bmp	0r_4g.bmp	0r_2g.bmp	0r_2g.bmp	0r_4g.bmp				TrialProc	TrialList	0	cvbn	-999999	16	262381	0	c	812	263193	196	-97	99	-8	76	19	12	10	7	65	0	0	0	0	4	4	2	2	0	4
Hungry_Donkey_bar_English_2	117	1	<?xml version="1.0"?>\n<Clock xmlns:dt="urn:schemas-microsoft-com:datatypes"><Description dt:dt="string">E-Prime Primary Realtime Clock</Description><StartTime><Timestamp dt:dt="int">0</Timestamp><DateUtc dt:dt="string">2015-08-07T15:03:28Z</DateUtc></StartTime><FrequencyChanges><FrequencyChange><Frequency dt:dt="r8">3507724</Frequency><Timestamp dt:dt="r8">2025713184805</Timestamp><Current dt:dt="r8">0</Current><DateUtc dt:dt="string">2015-08-07T15:03:28Z</DateUtc></FrequencyChange></FrequencyChanges></Clock>\n	Hungry_Donkey_bar_English_2-117-1	60.018	124	1.0.0.18	1	-1510680060	Standard	2.0.10.353	2.0.10.353	08-07-2015	8/7/2015 3:03:29 PM	11:03:29	2.0.10.248	66	Bar63-37.bmp	67	2	?	10r_4g.bmp	0r_4g.bmp	2r_2g.bmp	0r_2g.bmp		0r_4g.bmp			TrialProc	TrialList	0	cvbn	-999999	16	265230	0	v	603	265833	200	-97	103	-8	80	19	12	3	7	66	-10	0	-2	0	4	4	2	2	0	4
Hungry_Donkey_bar_English_2	117	1	<?xml version="1.0"?>\n<Clock xmlns:dt="urn:schemas-microsoft-com:datatypes"><Description dt:dt="string">E-Prime Primary Realtime Clock</Description><StartTime><Timestamp dt:dt="int">0</Timestamp><DateUtc dt:dt="string">2015-08-07T15:03:28Z</DateUtc></StartTime><FrequencyChanges><FrequencyChange><Frequency dt:dt="r8">3507724</Frequency><Timestamp dt:dt="r8">2025713184805</Timestamp><Current dt:dt="r8">0</Current><DateUtc dt:dt="string">2015-08-07T15:03:28Z</DateUtc></FrequencyChange></FrequencyChanges></Clock>\n	Hungry_Donkey_bar_English_2-117-1	60.018	124	1.0.0.18	1	-1510680060	Standard	2.0.10.353	2.0.10.353	08-07-2015	8/7/2015 3:03:29 PM	11:03:29	2.0.10.248	67	Bar63-37.bmp	68	3	?	0r_4g.bmp	0r_4g.bmp	0r_2g.bmp	0r_2g.bmp			0r_2g.bmp		TrialProc	TrialList	0	cvbn	-999999	17	267863	0	b	466	268329	202	-97	105	-8	80	21	12	9	7	67	0	0	0	0	4	4	2	2	0	2
Hungry_Donkey_bar_English_2	117	1	<?xml version="1.0"?>\n<Clock xmlns:dt="urn:schemas-microsoft-com:datatypes"><Description dt:dt="string">E-Prime Primary Realtime Clock</Description><StartTime><Timestamp dt:dt="int">0</Timestamp><DateUtc dt:dt="string">2015-08-07T15:03:28Z</DateUtc></StartTime><FrequencyChanges><FrequencyChange><Frequency dt:dt="r8">3507724</Frequency><Timestamp dt:dt="r8">2025713184805</Timestamp><Current dt:dt="r8">0</Current><DateUtc dt:dt="string">2015-08-07T15:03:28Z</DateUtc></FrequencyChange></FrequencyChanges></Clock>\n	Hungry_Donkey_bar_English_2-117-1	60.018	124	1.0.0.18	1	-1510680060	Standard	2.0.10.353	2.0.10.353	08-07-2015	8/7/2015 3:03:29 PM	11:03:29	2.0.10.248	68	Bar63-37.bmp	68	4	?	10r_4g.bmp	0r_4g.bmp	2r_2g.bmp	0r_2g.bmp				0r_2g.bmp	TrialProc	TrialList	0	cvbn	-999999	16	270362	0	n	495	270857	204	-97	107	-8	80	21	14	2	7	68	-10	0	-2	0	4	4	2	2	0	2
Hungry_Donkey_bar_English_2	117	1	<?xml version="1.0"?>\n<Clock xmlns:dt="urn:schemas-microsoft-com:datatypes"><Description dt:dt="string">E-Prime Primary Realtime Clock</Description><StartTime><Timestamp dt:dt="int">0</Timestamp><DateUtc dt:dt="string">2015-08-07T15:03:28Z</DateUtc></StartTime><FrequencyChanges><FrequencyChange><Frequency dt:dt="r8">3507724</Frequency><Timestamp dt:dt="r8">2025713184805</Timestamp><Current dt:dt="r8">0</Current><DateUtc dt:dt="string">2015-08-07T15:03:28Z</DateUtc></FrequencyChange></FrequencyChanges></Clock>\n	Hungry_Donkey_bar_English_2-117-1	60.018	124	1.0.0.18	1	-1510680060	Standard	2.0.10.353	2.0.10.353	08-07-2015	8/7/2015 3:03:29 PM	11:03:29	2.0.10.248	69	Bar63-37.bmp	68	1	?	0r_4g.bmp	0r_4g.bmp	0r_2g.bmp	0r_2g.bmp	0r_4g.bmp				TrialProc	TrialList	0	cvbn	-999999	16	272894	0	c	267	273161	208	-97	111	-4	80	21	14	6	7	69	0	0	0	0	4	4	2	2	0	4
Hungry_Donkey_bar_English_2	117	1	<?xml version="1.0"?>\n<Clock xmlns:dt="urn:schemas-microsoft-com:datatypes"><Description dt:dt="string">E-Prime Primary Realtime Clock</Description><StartTime><Timestamp dt:dt="int">0</Timestamp><DateUtc dt:dt="string">2015-08-07T15:03:28Z</DateUtc></StartTime><FrequencyChanges><FrequencyChange><Frequency dt:dt="r8">3507724</Frequency><Timestamp dt:dt="r8">2025713184805</Timestamp><Current dt:dt="r8">0</Current><DateUtc dt:dt="string">2015-08-07T15:03:28Z</DateUtc></FrequencyChange></FrequencyChanges></Clock>\n	Hungry_Donkey_bar_English_2-117-1	60.018	124	1.0.0.18	1	-1510680060	Standard	2.0.10.353	2.0.10.353	08-07-2015	8/7/2015 3:03:29 PM	11:03:29	2.0.10.248	70	Bar63-37.bmp	69	2	?	0r_4g.bmp	0r_4g.bmp	0r_2g.bmp	0r_2g.bmp		0r_4g.bmp			TrialProc	TrialList	0	cvbn	-999999	16	275194	0	v	286	275480	212	-97	115	-4	84	21	14	8	7	70	0	0	0	0	4	4	2	2	0	4
Hungry_Donkey_bar_English_2	117	1	<?xml version="1.0"?>\n<Clock xmlns:dt="urn:schemas-microsoft-com:datatypes"><Description dt:dt="string">E-Prime Primary Realtime Clock</Description><StartTime><Timestamp dt:dt="int">0</Timestamp><DateUtc dt:dt="string">2015-08-07T15:03:28Z</DateUtc></StartTime><FrequencyChanges><FrequencyChange><Frequency dt:dt="r8">3507724</Frequency><Timestamp dt:dt="r8">2025713184805</Timestamp><Current dt:dt="r8">0</Current><DateUtc dt:dt="string">2015-08-07T15:03:28Z</DateUtc></FrequencyChange></FrequencyChanges></Clock>\n	Hungry_Donkey_bar_English_2-117-1	60.018	124	1.0.0.18	1	-1510680060	Standard	2.0.10.353	2.0.10.353	08-07-2015	8/7/2015 3:03:29 PM	11:03:29	2.0.10.248	71	Bar63-37.bmp	69	4	?	0r_4g.bmp	0r_4g.bmp	0r_2g.bmp	0r_2g.bmp				0r_2g.bmp	TrialProc	TrialList	0	cvbn	-999999	16	277510	0	n	274	277784	214	-97	117	-4	84	21	16	10	8	71	0	0	0	0	4	4	2	2	0	2
Hungry_Donkey_bar_English_2	117	1	<?xml version="1.0"?>\n<Clock xmlns:dt="urn:schemas-microsoft-com:datatypes"><Description dt:dt="string">E-Prime Primary Realtime Clock</Description><StartTime><Timestamp dt:dt="int">0</Timestamp><DateUtc dt:dt="string">2015-08-07T15:03:28Z</DateUtc></StartTime><FrequencyChanges><FrequencyChange><Frequency dt:dt="r8">3507724</Frequency><Timestamp dt:dt="r8">2025713184805</Timestamp><Current dt:dt="r8">0</Current><DateUtc dt:dt="string">2015-08-07T15:03:28Z</DateUtc></FrequencyChange></FrequencyChanges></Clock>\n	Hungry_Donkey_bar_English_2-117-1	60.018	124	1.0.0.18	1	-1510680060	Standard	2.0.10.353	2.0.10.353	08-07-2015	8/7/2015 3:03:29 PM	11:03:29	2.0.10.248	72	Bar63-37.bmp	69	3	?	8r_4g.bmp	50r_4g.bmp	1r_2g.bmp	10r_2g.bmp			1r_2g.bmp		TrialProc	TrialList	0	cvbn	-999999	16	279809	0	b	359	280168	216	-98	118	-4	84	22	16	1	8	72	-8	-50	-1	-10	4	4	2	2	-1	2
Hungry_Donkey_bar_English_2	117	1	<?xml version="1.0"?>\n<Clock xmlns:dt="urn:schemas-microsoft-com:datatypes"><Description dt:dt="string">E-Prime Primary Realtime Clock</Description><StartTime><Timestamp dt:dt="int">0</Timestamp><DateUtc dt:dt="string">2015-08-07T15:03:28Z</DateUtc></StartTime><FrequencyChanges><FrequencyChange><Frequency dt:dt="r8">3507724</Frequency><Timestamp dt:dt="r8">2025713184805</Timestamp><Current dt:dt="r8">0</Current><DateUtc dt:dt="string">2015-08-07T15:03:28Z</DateUtc></FrequencyChange></FrequencyChanges></Clock>\n	Hungry_Donkey_bar_English_2-117-1	60.018	124	1.0.0.18	1	-1510680060	Standard	2.0.10.353	2.0.10.353	08-07-2015	8/7/2015 3:03:29 PM	11:03:29	2.0.10.248	73	Bar63-37.bmp	67	1	?	10r_4g.bmp	0r_4g.bmp	2r_2g.bmp	0r_2g.bmp	10r_4g.bmp				TrialProc	TrialList	0	cvbn	-999999	16	282208	0	c	104	282312	220	-108	112	-10	84	22	16	3	8	73	-10	0	-2	0	4	4	2	2	-10	4
Hungry_Donkey_bar_English_2	117	1	<?xml version="1.0"?>\n<Clock xmlns:dt="urn:schemas-microsoft-com:datatypes"><Description dt:dt="string">E-Prime Primary Realtime Clock</Description><StartTime><Timestamp dt:dt="int">0</Timestamp><DateUtc dt:dt="string">2015-08-07T15:03:28Z</DateUtc></StartTime><FrequencyChanges><FrequencyChange><Frequency dt:dt="r8">3507724</Frequency><Timestamp dt:dt="r8">2025713184805</Timestamp><Current dt:dt="r8">0</Current><DateUtc dt:dt="string">2015-08-07T15:03:28Z</DateUtc></FrequencyChange></FrequencyChanges></Clock>\n	Hungry_Donkey_bar_English_2-117-1	60.018	124	1.0.0.18	1	-1510680060	Standard	2.0.10.353	2.0.10.353	08-07-2015	8/7/2015 3:03:29 PM	11:03:29	2.0.10.248	74	Bar63-37.bmp	67	4	?	0r_4g.bmp	0r_4g.bmp	0r_2g.bmp	0r_2g.bmp				0r_2g.bmp	TrialProc	TrialList	0	cvbn	-999999	16	284341	0	n	387	284728	222	-108	114	-10	84	22	18	8	8	74	0	0	0	0	4	4	2	2	0	2
Hungry_Donkey_bar_English_2	117	1	<?xml version="1.0"?>\n<Clock xmlns:dt="urn:schemas-microsoft-com:datatypes"><Description dt:dt="string">E-Prime Primary Realtime Clock</Description><StartTime><Timestamp dt:dt="int">0</Timestamp><DateUtc dt:dt="string">2015-08-07T15:03:28Z</DateUtc></StartTime><FrequencyChanges><FrequencyChange><Frequency dt:dt="r8">3507724</Frequency><Timestamp dt:dt="r8">2025713184805</Timestamp><Current dt:dt="r8">0</Current><DateUtc dt:dt="string">2015-08-07T15:03:28Z</DateUtc></FrequencyChange></FrequencyChanges></Clock>\n	Hungry_Donkey_bar_English_2-117-1	60.018	124	1.0.0.18	1	-1510680060	Standard	2.0.10.353	2.0.10.353	08-07-2015	8/7/2015 3:03:29 PM	11:03:29	2.0.10.248	75	Bar63-37.bmp	68	2	?	0r_4g.bmp	0r_4g.bmp	0r_2g.bmp	0r_2g.bmp		0r_4g.bmp			TrialProc	TrialList	0	cvbn	-999999	16	286757	0	v	2051	288808	226	-108	118	-10	88	22	18	7	8	75	0	0	0	0	4	4	2	2	0	4
Hungry_Donkey_bar_English_2	117	1	<?xml version="1.0"?>\n<Clock xmlns:dt="urn:schemas-microsoft-com:datatypes"><Description dt:dt="string">E-Prime Primary Realtime Clock</Description><StartTime><Timestamp dt:dt="int">0</Timestamp><DateUtc dt:dt="string">2015-08-07T15:03:28Z</DateUtc></StartTime><FrequencyChanges><FrequencyChange><Frequency dt:dt="r8">3507724</Frequency><Timestamp dt:dt="r8">2025713184805</Timestamp><Current dt:dt="r8">0</Current><DateUtc dt:dt="string">2015-08-07T15:03:28Z</DateUtc></FrequencyChange></FrequencyChanges></Clock>\n	Hungry_Donkey_bar_English_2-117-1	60.018	124	1.0.0.18	1	-1510680060	Standard	2.0.10.353	2.0.10.353	08-07-2015	8/7/2015 3:03:29 PM	11:03:29	2.0.10.248	76	Bar63-37.bmp	67	3	?	12r_4g.bmp	0r_4g.bmp	3r_2g.bmp	0r_2g.bmp			3r_2g.bmp		TrialProc	TrialList	0	cvbn	-999999	16	290839	0	b	608	291447	228	-111	117	-10	88	21	18	5	8	76	-12	0	-3	0	4	4	2	2	-3	2
Hungry_Donkey_bar_English_2	117	1	<?xml version="1.0"?>\n<Clock xmlns:dt="urn:schemas-microsoft-com:datatypes"><Description dt:dt="string">E-Prime Primary Realtime Clock</Description><StartTime><Timestamp dt:dt="int">0</Timestamp><DateUtc dt:dt="string">2015-08-07T15:03:28Z</DateUtc></StartTime><FrequencyChanges><FrequencyChange><Frequency dt:dt="r8">3507724</Frequency><Timestamp dt:dt="r8">2025713184805</Timestamp><Current dt:dt="r8">0</Current><DateUtc dt:dt="string">2015-08-07T15:03:28Z</DateUtc></FrequencyChange></FrequencyChanges></Clock>\n	Hungry_Donkey_bar_English_2-117-1	60.018	124	1.0.0.18	1	-1510680060	Standard	2.0.10.353	2.0.10.353	08-07-2015	8/7/2015 3:03:29 PM	11:03:29	2.0.10.248	77	Bar63-37.bmp	68	2	?	0r_4g.bmp	0r_4g.bmp	0r_2g.bmp	0r_2g.bmp		0r_4g.bmp			TrialProc	TrialList	0	cvbn	-999999	16	293471	0	v	504	293975	232	-111	121	-10	92	21	18	9	8	77	0	0	0	0	4	4	2	2	0	4
Hungry_Donkey_bar_English_2	117	1	<?xml version="1.0"?>\n<Clock xmlns:dt="urn:schemas-microsoft-com:datatypes"><Description dt:dt="string">E-Prime Primary Realtime Clock</Description><StartTime><Timestamp dt:dt="int">0</Timestamp><DateUtc dt:dt="string">2015-08-07T15:03:28Z</DateUtc></StartTime><FrequencyChanges><FrequencyChange><Frequency dt:dt="r8">3507724</Frequency><Timestamp dt:dt="r8">2025713184805</Timestamp><Current dt:dt="r8">0</Current><DateUtc dt:dt="string">2015-08-07T15:03:28Z</DateUtc></FrequencyChange></FrequencyChanges></Clock>\n	Hungry_Donkey_bar_English_2-117-1	60.018	124	1.0.0.18	1	-1510680060	Standard	2.0.10.353	2.0.10.353	08-07-2015	8/7/2015 3:03:29 PM	11:03:29	2.0.10.248	78	Bar63-37.bmp	68	4	?	10r_4g.bmp	0r_4g.bmp	2r_2g.bmp	0r_2g.bmp				0r_2g.bmp	TrialProc	TrialList	0	cvbn	-999999	16	296004	0	n	1235	297239	234	-111	123	-10	92	21	20	4	8	78	-10	0	-2	0	4	4	2	2	0	2
Hungry_Donkey_bar_English_2	117	1	<?xml version="1.0"?>\n<Clock xmlns:dt="urn:schemas-microsoft-com:datatypes"><Description dt:dt="string">E-Prime Primary Realtime Clock</Description><StartTime><Timestamp dt:dt="int">0</Timestamp><DateUtc dt:dt="string">2015-08-07T15:03:28Z</DateUtc></StartTime><FrequencyChanges><FrequencyChange><Frequency dt:dt="r8">3507724</Frequency><Timestamp dt:dt="r8">2025713184805</Timestamp><Current dt:dt="r8">0</Current><DateUtc dt:dt="string">2015-08-07T15:03:28Z</DateUtc></FrequencyChange></FrequencyChanges></Clock>\n	Hungry_Donkey_bar_English_2-117-1	60.018	124	1.0.0.18	1	-1510680060	Standard	2.0.10.353	2.0.10.353	08-07-2015	8/7/2015 3:03:29 PM	11:03:29	2.0.10.248	79	Bar63-37.bmp	68	1	?	0r_4g.bmp	0r_4g.bmp	0r_2g.bmp	0r_2g.bmp	0r_4g.bmp				TrialProc	TrialList	0	cvbn	-999999	16	299270	0	c	433	299703	238	-111	127	-6	92	21	20	6	8	79	0	0	0	0	4	4	2	2	0	4
Hungry_Donkey_bar_English_2	117	1	<?xml version="1.0"?>\n<Clock xmlns:dt="urn:schemas-microsoft-com:datatypes"><Description dt:dt="string">E-Prime Primary Realtime Clock</Description><StartTime><Timestamp dt:dt="int">0</Timestamp><DateUtc dt:dt="string">2015-08-07T15:03:28Z</DateUtc></StartTime><FrequencyChanges><FrequencyChange><Frequency dt:dt="r8">3507724</Frequency><Timestamp dt:dt="r8">2025713184805</Timestamp><Current dt:dt="r8">0</Current><DateUtc dt:dt="string">2015-08-07T15:03:28Z</DateUtc></FrequencyChange></FrequencyChanges></Clock>\n	Hungry_Donkey_bar_English_2-117-1	60.018	124	1.0.0.18	1	-1510680060	Standard	2.0.10.353	2.0.10.353	08-07-2015	8/7/2015 3:03:29 PM	11:03:29	2.0.10.248	80	Bar63-37.bmp	69	2	?	10r_4g.bmp	0r_4g.bmp	2r_2g.bmp	0r_2g.bmp		0r_4g.bmp			TrialProc	TrialList	0	cvbn	-999999	16	301736	0	v	639	302375	242	-111	131	-6	96	21	20	2	8	80	-10	0	-2	0	4	4	2	2	0	4
Hungry_Donkey_bar_English_2	117	1	<?xml version="1.0"?>\n<Clock xmlns:dt="urn:schemas-microsoft-com:datatypes"><Description dt:dt="string">E-Prime Primary Realtime Clock</Description><StartTime><Timestamp dt:dt="int">0</Timestamp><DateUtc dt:dt="string">2015-08-07T15:03:28Z</DateUtc></StartTime><FrequencyChanges><FrequencyChange><Frequency dt:dt="r8">3507724</Frequency><Timestamp dt:dt="r8">2025713184805</Timestamp><Current dt:dt="r8">0</Current><DateUtc dt:dt="string">2015-08-07T15:03:28Z</DateUtc></FrequencyChange></FrequencyChanges></Clock>\n	Hungry_Donkey_bar_English_2-117-1	60.018	124	1.0.0.18	1	-1510680060	Standard	2.0.10.353	2.0.10.353	08-07-2015	8/7/2015 3:03:29 PM	11:03:29	2.0.10.248	81	Bar63-37.bmp	69	4	?	0r_4g.bmp	0r_4g.bmp	0r_2g.bmp	0r_2g.bmp				0r_2g.bmp	TrialProc	TrialList	0	cvbn	-999999	17	304402	0	n	453	304855	244	-111	133	-6	96	21	22	9	9	81	0	0	0	0	4	4	2	2	0	2
Hungry_Donkey_bar_English_2	117	1	<?xml version="1.0"?>\n<Clock xmlns:dt="urn:schemas-microsoft-com:datatypes"><Description dt:dt="string">E-Prime Primary Realtime Clock</Description><StartTime><Timestamp dt:dt="int">0</Timestamp><DateUtc dt:dt="string">2015-08-07T15:03:28Z</DateUtc></StartTime><FrequencyChanges><FrequencyChange><Frequency dt:dt="r8">3507724</Frequency><Timestamp dt:dt="r8">2025713184805</Timestamp><Current dt:dt="r8">0</Current><DateUtc dt:dt="string">2015-08-07T15:03:28Z</DateUtc></FrequencyChange></FrequencyChanges></Clock>\n	Hungry_Donkey_bar_English_2-117-1	60.018	124	1.0.0.18	1	-1510680060	Standard	2.0.10.353	2.0.10.353	08-07-2015	8/7/2015 3:03:29 PM	11:03:29	2.0.10.248	82	Bar63-37.bmp	69	1	?	0r_4g.bmp	0r_4g.bmp	0r_2g.bmp	0r_2g.bmp	0r_4g.bmp				TrialProc	TrialList	0	cvbn	-999999	16	306884	0	c	434	307318	248	-111	137	-2	96	21	22	7	9	82	0	0	0	0	4	4	2	2	0	4
Hungry_Donkey_bar_English_2	117	1	<?xml version="1.0"?>\n<Clock xmlns:dt="urn:schemas-microsoft-com:datatypes"><Description dt:dt="string">E-Prime Primary Realtime Clock</Description><StartTime><Timestamp dt:dt="int">0</Timestamp><DateUtc dt:dt="string">2015-08-07T15:03:28Z</DateUtc></StartTime><FrequencyChanges><FrequencyChange><Frequency dt:dt="r8">3507724</Frequency><Timestamp dt:dt="r8">2025713184805</Timestamp><Current dt:dt="r8">0</Current><DateUtc dt:dt="string">2015-08-07T15:03:28Z</DateUtc></FrequencyChange></FrequencyChanges></Clock>\n	Hungry_Donkey_bar_English_2-117-1	60.018	124	1.0.0.18	1	-1510680060	Standard	2.0.10.353	2.0.10.353	08-07-2015	8/7/2015 3:03:29 PM	11:03:29	2.0.10.248	83	Bar63-37.bmp	69	3	?	10r_4g.bmp	0r_4g.bmp	2r_2g.bmp	0r_2g.bmp			2r_2g.bmp		TrialProc	TrialList	0	cvbn	-999999	16	309350	0	b	384	309734	250	-113	137	-2	96	21	22	4	9	83	-10	0	-2	0	4	4	2	2	-2	2
Hungry_Donkey_bar_English_2	117	1	<?xml version="1.0"?>\n<Clock xmlns:dt="urn:schemas-microsoft-com:datatypes"><Description dt:dt="string">E-Prime Primary Realtime Clock</Description><StartTime><Timestamp dt:dt="int">0</Timestamp><DateUtc dt:dt="string">2015-08-07T15:03:28Z</DateUtc></StartTime><FrequencyChanges><FrequencyChange><Frequency dt:dt="r8">3507724</Frequency><Timestamp dt:dt="r8">2025713184805</Timestamp><Current dt:dt="r8">0</Current><DateUtc dt:dt="string">2015-08-07T15:03:28Z</DateUtc></FrequencyChange></FrequencyChanges></Clock>\n	Hungry_Donkey_bar_English_2-117-1	60.018	124	1.0.0.18	1	-1510680060	Standard	2.0.10.353	2.0.10.353	08-07-2015	8/7/2015 3:03:29 PM	11:03:29	2.0.10.248	84	Bar63-37.bmp	69	2	?	0r_4g.bmp	0r_4g.bmp	0r_2g.bmp	0r_2g.bmp		0r_4g.bmp			TrialProc	TrialList	0	cvbn	-999999	16	311766	0	v	448	312214	254	-113	141	-2	100	21	22	6	9	84	0	0	0	0	4	4	2	2	0	4
Hungry_Donkey_bar_English_2	117	1	<?xml version="1.0"?>\n<Clock xmlns:dt="urn:schemas-microsoft-com:datatypes"><Description dt:dt="string">E-Prime Primary Realtime Clock</Description><StartTime><Timestamp dt:dt="int">0</Timestamp><DateUtc dt:dt="string">2015-08-07T15:03:28Z</DateUtc></StartTime><FrequencyChanges><FrequencyChange><Frequency dt:dt="r8">3507724</Frequency><Timestamp dt:dt="r8">2025713184805</Timestamp><Current dt:dt="r8">0</Current><DateUtc dt:dt="string">2015-08-07T15:03:28Z</DateUtc></FrequencyChange></FrequencyChanges></Clock>\n	Hungry_Donkey_bar_English_2-117-1	60.018	124	1.0.0.18	1	-1510680060	Standard	2.0.10.353	2.0.10.353	08-07-2015	8/7/2015 3:03:29 PM	11:03:29	2.0.10.248	85	Bar63-37.bmp	68	1	?	8r_4g.bmp	50r_4g.bmp	1r_2g.bmp	10r_2g.bmp	8r_4g.bmp				TrialProc	TrialList	0	cvbn	-999999	16	314249	0	c	525	314774	258	-121	137	-6	100	21	22	1	9	85	-8	-50	-1	-10	4	4	2	2	-8	4
Hungry_Donkey_bar_English_2	117	1	<?xml version="1.0"?>\n<Clock xmlns:dt="urn:schemas-microsoft-com:datatypes"><Description dt:dt="string">E-Prime Primary Realtime Clock</Description><StartTime><Timestamp dt:dt="int">0</Timestamp><DateUtc dt:dt="string">2015-08-07T15:03:28Z</DateUtc></StartTime><FrequencyChanges><FrequencyChange><Frequency dt:dt="r8">3507724</Frequency><Timestamp dt:dt="r8">2025713184805</Timestamp><Current dt:dt="r8">0</Current><DateUtc dt:dt="string">2015-08-07T15:03:28Z</DateUtc></FrequencyChange></FrequencyChanges></Clock>\n	Hungry_Donkey_bar_English_2-117-1	60.018	124	1.0.0.18	1	-1510680060	Standard	2.0.10.353	2.0.10.353	08-07-2015	8/7/2015 3:03:29 PM	11:03:29	2.0.10.248	86	Bar63-37.bmp	68	2	?	0r_4g.bmp	0r_4g.bmp	0r_2g.bmp	0r_2g.bmp		0r_4g.bmp			TrialProc	TrialList	0	cvbn	-999999	16	316798	0	v	456	317254	262	-121	141	-6	104	21	22	10	9	86	0	0	0	0	4	4	2	2	0	4
Hungry_Donkey_bar_English_2	117	1	<?xml version="1.0"?>\n<Clock xmlns:dt="urn:schemas-microsoft-com:datatypes"><Description dt:dt="string">E-Prime Primary Realtime Clock</Description><StartTime><Timestamp dt:dt="int">0</Timestamp><DateUtc dt:dt="string">2015-08-07T15:03:28Z</DateUtc></StartTime><FrequencyChanges><FrequencyChange><Frequency dt:dt="r8">3507724</Frequency><Timestamp dt:dt="r8">2025713184805</Timestamp><Current dt:dt="r8">0</Current><DateUtc dt:dt="string">2015-08-07T15:03:28Z</DateUtc></FrequencyChange></FrequencyChanges></Clock>\n	Hungry_Donkey_bar_English_2-117-1	60.018	124	1.0.0.18	1	-1510680060	Standard	2.0.10.353	2.0.10.353	08-07-2015	8/7/2015 3:03:29 PM	11:03:29	2.0.10.248	87	Bar63-37.bmp	69	4	?	10r_4g.bmp	0r_4g.bmp	2r_2g.bmp	0r_2g.bmp				0r_2g.bmp	TrialProc	TrialList	0	cvbn	-999999	16	319280	0	n	1190	320470	264	-121	143	-6	104	21	24	3	9	87	-10	0	-2	0	4	4	2	2	0	2
Hungry_Donkey_bar_English_2	117	1	<?xml version="1.0"?>\n<Clock xmlns:dt="urn:schemas-microsoft-com:datatypes"><Description dt:dt="string">E-Prime Primary Realtime Clock</Description><StartTime><Timestamp dt:dt="int">0</Timestamp><DateUtc dt:dt="string">2015-08-07T15:03:28Z</DateUtc></StartTime><FrequencyChanges><FrequencyChange><Frequency dt:dt="r8">3507724</Frequency><Timestamp dt:dt="r8">2025713184805</Timestamp><Current dt:dt="r8">0</Current><DateUtc dt:dt="string">2015-08-07T15:03:28Z</DateUtc></FrequencyChange></FrequencyChanges></Clock>\n	Hungry_Donkey_bar_English_2-117-1	60.018	124	1.0.0.18	1	-1510680060	Standard	2.0.10.353	2.0.10.353	08-07-2015	8/7/2015 3:03:29 PM	11:03:29	2.0.10.248	88	Bar63-37.bmp	68	3	?	10r_4g.bmp	0r_4g.bmp	2r_2g.bmp	0r_2g.bmp			2r_2g.bmp		TrialProc	TrialList	0	cvbn	-999999	16	322496	0	b	213	322709	266	-123	143	-6	104	21	24	2	9	88	-10	0	-2	0	4	4	2	2	-2	2
Hungry_Donkey_bar_English_2	117	1	<?xml version="1.0"?>\n<Clock xmlns:dt="urn:schemas-microsoft-com:datatypes"><Description dt:dt="string">E-Prime Primary Realtime Clock</Description><StartTime><Timestamp dt:dt="int">0</Timestamp><DateUtc dt:dt="string">2015-08-07T15:03:28Z</DateUtc></StartTime><FrequencyChanges><FrequencyChange><Frequency dt:dt="r8">3507724</Frequency><Timestamp dt:dt="r8">2025713184805</Timestamp><Current dt:dt="r8">0</Current><DateUtc dt:dt="string">2015-08-07T15:03:28Z</DateUtc></FrequencyChange></FrequencyChanges></Clock>\n	Hungry_Donkey_bar_English_2-117-1	60.018	124	1.0.0.18	1	-1510680060	Standard	2.0.10.353	2.0.10.353	08-07-2015	8/7/2015 3:03:29 PM	11:03:29	2.0.10.248	89	Bar63-37.bmp	69	2	?	12r_4g.bmp	0r_4g.bmp	3r_2g.bmp	0r_2g.bmp		0r_4g.bmp			TrialProc	TrialList	0	cvbn	-999999	16	324745	0	v	412	325157	270	-123	147	-6	108	21	24	5	9	89	-12	0	-3	0	4	4	2	2	0	4
Hungry_Donkey_bar_English_2	117	1	<?xml version="1.0"?>\n<Clock xmlns:dt="urn:schemas-microsoft-com:datatypes"><Description dt:dt="string">E-Prime Primary Realtime Clock</Description><StartTime><Timestamp dt:dt="int">0</Timestamp><DateUtc dt:dt="string">2015-08-07T15:03:28Z</DateUtc></StartTime><FrequencyChanges><FrequencyChange><Frequency dt:dt="r8">3507724</Frequency><Timestamp dt:dt="r8">2025713184805</Timestamp><Current dt:dt="r8">0</Current><DateUtc dt:dt="string">2015-08-07T15:03:28Z</DateUtc></FrequencyChange></FrequencyChanges></Clock>\n	Hungry_Donkey_bar_English_2-117-1	60.018	124	1.0.0.18	1	-1510680060	Standard	2.0.10.353	2.0.10.353	08-07-2015	8/7/2015 3:03:29 PM	11:03:29	2.0.10.248	90	Bar63-37.bmp	69	4	?	0r_4g.bmp	0r_4g.bmp	0r_2g.bmp	0r_2g.bmp				0r_2g.bmp	TrialProc	TrialList	0	cvbn	-999999	16	327195	0	n	74	327269	272	-123	149	-6	108	21	26	8	9	90	0	0	0	0	4	4	2	2	0	2
Hungry_Donkey_bar_English_2	117	1	<?xml version="1.0"?>\n<Clock xmlns:dt="urn:schemas-microsoft-com:datatypes"><Description dt:dt="string">E-Prime Primary Realtime Clock</Description><StartTime><Timestamp dt:dt="int">0</Timestamp><DateUtc dt:dt="string">2015-08-07T15:03:28Z</DateUtc></StartTime><FrequencyChanges><FrequencyChange><Frequency dt:dt="r8">3507724</Frequency><Timestamp dt:dt="r8">2025713184805</Timestamp><Current dt:dt="r8">0</Current><DateUtc dt:dt="string">2015-08-07T15:03:28Z</DateUtc></FrequencyChange></FrequencyChanges></Clock>\n	Hungry_Donkey_bar_English_2-117-1	60.018	124	1.0.0.18	1	-1510680060	Standard	2.0.10.353	2.0.10.353	08-07-2015	8/7/2015 3:03:29 PM	11:03:29	2.0.10.248	91	Bar63-37.bmp	69	3	?	0r_4g.bmp	0r_4g.bmp	0r_2g.bmp	0r_2g.bmp			0r_2g.bmp		TrialProc	TrialList	0	cvbn	-999999	16	329294	0	b	391	329685	274	-123	151	-6	108	23	26	6	10	91	0	0	0	0	4	4	2	2	0	2
Hungry_Donkey_bar_English_2	117	1	<?xml version="1.0"?>\n<Clock xmlns:dt="urn:schemas-microsoft-com:datatypes"><Description dt:dt="string">E-Prime Primary Realtime Clock</Description><StartTime><Timestamp dt:dt="int">0</Timestamp><DateUtc dt:dt="string">2015-08-07T15:03:28Z</DateUtc></StartTime><FrequencyChanges><FrequencyChange><Frequency dt:dt="r8">3507724</Frequency><Timestamp dt:dt="r8">2025713184805</Timestamp><Current dt:dt="r8">0</Current><DateUtc dt:dt="string">2015-08-07T15:03:28Z</DateUtc></FrequencyChange></FrequencyChanges></Clock>\n	Hungry_Donkey_bar_English_2-117-1	60.018	124	1.0.0.18	1	-1510680060	Standard	2.0.10.353	2.0.10.353	08-07-2015	8/7/2015 3:03:29 PM	11:03:29	2.0.10.248	92	Bar63-37.bmp	62	2	?	8r_4g.bmp	50r_4g.bmp	1r_2g.bmp	10r_2g.bmp		50r_4g.bmp			TrialProc	TrialList	0	cvbn	-999999	16	331710	0	v	967	332677	278	-173	105	-6	62	23	26	1	10	92	-8	-50	-1	-10	4	4	2	2	-50	4
Hungry_Donkey_bar_English_2	117	1	<?xml version="1.0"?>\n<Clock xmlns:dt="urn:schemas-microsoft-com:datatypes"><Description dt:dt="string">E-Prime Primary Realtime Clock</Description><StartTime><Timestamp dt:dt="int">0</Timestamp><DateUtc dt:dt="string">2015-08-07T15:03:28Z</DateUtc></StartTime><FrequencyChanges><FrequencyChange><Frequency dt:dt="r8">3507724</Frequency><Timestamp dt:dt="r8">2025713184805</Timestamp><Current dt:dt="r8">0</Current><DateUtc dt:dt="string">2015-08-07T15:03:28Z</DateUtc></FrequencyChange></FrequencyChanges></Clock>\n	Hungry_Donkey_bar_English_2-117-1	60.018	124	1.0.0.18	1	-1510680060	Standard	2.0.10.353	2.0.10.353	08-07-2015	8/7/2015 3:03:29 PM	11:03:29	2.0.10.248	93	Bar63-37.bmp	62	3	?	0r_4g.bmp	0r_4g.bmp	0r_2g.bmp	0r_2g.bmp			0r_2g.bmp		TrialProc	TrialList	0	cvbn	-999999	16	334709	0	b	1168	335877	280	-173	107	-6	62	25	26	9	10	93	0	0	0	0	4	4	2	2	0	2
Hungry_Donkey_bar_English_2	117	1	<?xml version="1.0"?>\n<Clock xmlns:dt="urn:schemas-microsoft-com:datatypes"><Description dt:dt="string">E-Prime Primary Realtime Clock</Description><StartTime><Timestamp dt:dt="int">0</Timestamp><DateUtc dt:dt="string">2015-08-07T15:03:28Z</DateUtc></StartTime><FrequencyChanges><FrequencyChange><Frequency dt:dt="r8">3507724</Frequency><Timestamp dt:dt="r8">2025713184805</Timestamp><Current dt:dt="r8">0</Current><DateUtc dt:dt="string">2015-08-07T15:03:28Z</DateUtc></FrequencyChange></FrequencyChanges></Clock>\n	Hungry_Donkey_bar_English_2-117-1	60.018	124	1.0.0.18	1	-1510680060	Standard	2.0.10.353	2.0.10.353	08-07-2015	8/7/2015 3:03:29 PM	11:03:29	2.0.10.248	94	Bar63-37.bmp	62	4	?	10r_4g.bmp	0r_4g.bmp	2r_2g.bmp	0r_2g.bmp				0r_2g.bmp	TrialProc	TrialList	0	cvbn	-999999	16	337908	0	n	593	338501	282	-173	109	-6	62	25	28	2	10	94	-10	0	-2	0	4	4	2	2	0	2
Hungry_Donkey_bar_English_2	117	1	<?xml version="1.0"?>\n<Clock xmlns:dt="urn:schemas-microsoft-com:datatypes"><Description dt:dt="string">E-Prime Primary Realtime Clock</Description><StartTime><Timestamp dt:dt="int">0</Timestamp><DateUtc dt:dt="string">2015-08-07T15:03:28Z</DateUtc></StartTime><FrequencyChanges><FrequencyChange><Frequency dt:dt="r8">3507724</Frequency><Timestamp dt:dt="r8">2025713184805</Timestamp><Current dt:dt="r8">0</Current><DateUtc dt:dt="string">2015-08-07T15:03:28Z</DateUtc></FrequencyChange></FrequencyChanges></Clock>\n	Hungry_Donkey_bar_English_2-117-1	60.018	124	1.0.0.18	1	-1510680060	Standard	2.0.10.353	2.0.10.353	08-07-2015	8/7/2015 3:03:29 PM	11:03:29	2.0.10.248	95	Bar63-37.bmp	62	1	?	0r_4g.bmp	0r_4g.bmp	0r_2g.bmp	0r_2g.bmp	0r_4g.bmp				TrialProc	TrialList	0	cvbn	-999999	16	340524	0	c	584	341108	286	-173	113	-2	62	25	28	10	10	95	0	0	0	0	4	4	2	2	0	4
Hungry_Donkey_bar_English_2	117	1	<?xml version="1.0"?>\n<Clock xmlns:dt="urn:schemas-microsoft-com:datatypes"><Description dt:dt="string">E-Prime Primary Realtime Clock</Description><StartTime><Timestamp dt:dt="int">0</Timestamp><DateUtc dt:dt="string">2015-08-07T15:03:28Z</DateUtc></StartTime><FrequencyChanges><FrequencyChange><Frequency dt:dt="r8">3507724</Frequency><Timestamp dt:dt="r8">2025713184805</Timestamp><Current dt:dt="r8">0</Current><DateUtc dt:dt="string">2015-08-07T15:03:28Z</DateUtc></FrequencyChange></FrequencyChanges></Clock>\n	Hungry_Donkey_bar_English_2-117-1	60.018	124	1.0.0.18	1	-1510680060	Standard	2.0.10.353	2.0.10.353	08-07-2015	8/7/2015 3:03:29 PM	11:03:29	2.0.10.248	96	Bar63-37.bmp	62	3	?	0r_4g.bmp	0r_4g.bmp	0r_2g.bmp	0r_2g.bmp			0r_2g.bmp		TrialProc	TrialList	0	cvbn	-999999	16	343140	0	b	432	343572	288	-173	115	-2	62	27	28	8	10	96	0	0	0	0	4	4	2	2	0	2
Hungry_Donkey_bar_English_2	117	1	<?xml version="1.0"?>\n<Clock xmlns:dt="urn:schemas-microsoft-com:datatypes"><Description dt:dt="string">E-Prime Primary Realtime Clock</Description><StartTime><Timestamp dt:dt="int">0</Timestamp><DateUtc dt:dt="string">2015-08-07T15:03:28Z</DateUtc></StartTime><FrequencyChanges><FrequencyChange><Frequency dt:dt="r8">3507724</Frequency><Timestamp dt:dt="r8">2025713184805</Timestamp><Current dt:dt="r8">0</Current><DateUtc dt:dt="string">2015-08-07T15:03:28Z</DateUtc></FrequencyChange></FrequencyChanges></Clock>\n	Hungry_Donkey_bar_English_2-117-1	60.018	124	1.0.0.18	1	-1510680060	Standard	2.0.10.353	2.0.10.353	08-07-2015	8/7/2015 3:03:29 PM	11:03:29	2.0.10.248	97	Bar63-37.bmp	63	4	?	10r_4g.bmp	0r_4g.bmp	2r_2g.bmp	0r_2g.bmp				0r_2g.bmp	TrialProc	TrialList	0	cvbn	-999999	16	345606	0	n	558	346164	290	-173	117	-2	62	27	30	3	10	97	-10	0	-2	0	4	4	2	2	0	2
Hungry_Donkey_bar_English_2	117	1	<?xml version="1.0"?>\n<Clock xmlns:dt="urn:schemas-microsoft-com:datatypes"><Description dt:dt="string">E-Prime Primary Realtime Clock</Description><StartTime><Timestamp dt:dt="int">0</Timestamp><DateUtc dt:dt="string">2015-08-07T15:03:28Z</DateUtc></StartTime><FrequencyChanges><FrequencyChange><Frequency dt:dt="r8">3507724</Frequency><Timestamp dt:dt="r8">2025713184805</Timestamp><Current dt:dt="r8">0</Current><DateUtc dt:dt="string">2015-08-07T15:03:28Z</DateUtc></FrequencyChange></FrequencyChanges></Clock>\n	Hungry_Donkey_bar_English_2-117-1	60.018	124	1.0.0.18	1	-1510680060	Standard	2.0.10.353	2.0.10.353	08-07-2015	8/7/2015 3:03:29 PM	11:03:29	2.0.10.248	98	Bar63-37.bmp	61	1	?	12r_4g.bmp	0r_4g.bmp	3r_2g.bmp	0r_2g.bmp	12r_4g.bmp				TrialProc	TrialList	0	cvbn	-999999	16	348188	0	c	1208	349396	294	-185	109	-10	62	27	30	5	10	98	-12	0	-3	0	4	4	2	2	-12	4
Hungry_Donkey_bar_English_2	117	1	<?xml version="1.0"?>\n<Clock xmlns:dt="urn:schemas-microsoft-com:datatypes"><Description dt:dt="string">E-Prime Primary Realtime Clock</Description><StartTime><Timestamp dt:dt="int">0</Timestamp><DateUtc dt:dt="string">2015-08-07T15:03:28Z</DateUtc></StartTime><FrequencyChanges><FrequencyChange><Frequency dt:dt="r8">3507724</Frequency><Timestamp dt:dt="r8">2025713184805</Timestamp><Current dt:dt="r8">0</Current><DateUtc dt:dt="string">2015-08-07T15:03:28Z</DateUtc></FrequencyChange></FrequencyChanges></Clock>\n	Hungry_Donkey_bar_English_2-117-1	60.018	124	1.0.0.18	1	-1510680060	Standard	2.0.10.353	2.0.10.353	08-07-2015	8/7/2015 3:03:29 PM	11:03:29	2.0.10.248	99	Bar63-37.bmp	62	2	?	10r_4g.bmp	0r_4g.bmp	2r_2g.bmp	0r_2g.bmp		0r_4g.bmp			TrialProc	TrialList	0	cvbn	-999999	16	351421	0	v	407	351828	298	-185	113	-10	66	27	30	4	10	99	-10	0	-2	0	4	4	2	2	0	4
Hungry_Donkey_bar_English_2	117	1	<?xml version="1.0"?>\n<Clock xmlns:dt="urn:schemas-microsoft-com:datatypes"><Description dt:dt="string">E-Prime Primary Realtime Clock</Description><StartTime><Timestamp dt:dt="int">0</Timestamp><DateUtc dt:dt="string">2015-08-07T15:03:28Z</DateUtc></StartTime><FrequencyChanges><FrequencyChange><Frequency dt:dt="r8">3507724</Frequency><Timestamp dt:dt="r8">2025713184805</Timestamp><Current dt:dt="r8">0</Current><DateUtc dt:dt="string">2015-08-07T15:03:28Z</DateUtc></FrequencyChange></FrequencyChanges></Clock>\n	Hungry_Donkey_bar_English_2-117-1	60.018	124	1.0.0.18	1	-1510680060	Standard	2.0.10.353	2.0.10.353	08-07-2015	8/7/2015 3:03:29 PM	11:03:29	2.0.10.248	100	Bar63-37.bmp	62	3	?	0r_4g.bmp	0r_4g.bmp	0r_2g.bmp	0r_2g.bmp			0r_2g.bmp		TrialProc	TrialList	0	cvbn	-999999	16	353853	0	b	646	354499	300	-185	115	-10	66	29	30	7	10	100	0	0	0	0	4	4	2	2	0	2
Hungry_Donkey_bar_English_2	117	1	<?xml version="1.0"?>\n<Clock xmlns:dt="urn:schemas-microsoft-com:datatypes"><Description dt:dt="string">E-Prime Primary Realtime Clock</Description><StartTime><Timestamp dt:dt="int">0</Timestamp><DateUtc dt:dt="string">2015-08-07T15:03:28Z</DateUtc></StartTime><FrequencyChanges><FrequencyChange><Frequency dt:dt="r8">3507724</Frequency><Timestamp dt:dt="r8">2025713184805</Timestamp><Current dt:dt="r8">0</Current><DateUtc dt:dt="string">2015-08-07T15:03:28Z</DateUtc></FrequencyChange></FrequencyChanges></Clock>\n	Hungry_Donkey_bar_English_2-117-1	60.018	124	1.0.0.18	1	-1510680060	Standard	2.0.10.353	2.0.10.353	08-07-2015	8/7/2015 3:03:29 PM	11:03:29	2.0.10.248	101	Bar63-37.bmp	62	4	?	10r_4g.bmp	0r_4g.bmp	2r_2g.bmp	0r_2g.bmp				0r_2g.bmp	TrialProc	TrialList	0	cvbn	-999999	16	356536	0	n	939	357475	302	-185	117	-10	66	29	32	3	11	101	-10	0	-2	0	4	4	2	2	0	2
Hungry_Donkey_bar_English_2	117	1	<?xml version="1.0"?>\n<Clock xmlns:dt="urn:schemas-microsoft-com:datatypes"><Description dt:dt="string">E-Prime Primary Realtime Clock</Description><StartTime><Timestamp dt:dt="int">0</Timestamp><DateUtc dt:dt="string">2015-08-07T15:03:28Z</DateUtc></StartTime><FrequencyChanges><FrequencyChange><Frequency dt:dt="r8">3507724</Frequency><Timestamp dt:dt="r8">2025713184805</Timestamp><Current dt:dt="r8">0</Current><DateUtc dt:dt="string">2015-08-07T15:03:28Z</DateUtc></FrequencyChange></FrequencyChanges></Clock>\n	Hungry_Donkey_bar_English_2-117-1	60.018	124	1.0.0.18	1	-1510680060	Standard	2.0.10.353	2.0.10.353	08-07-2015	8/7/2015 3:03:29 PM	11:03:29	2.0.10.248	102	Bar63-37.bmp	62	3	?	12r_4g.bmp	0r_4g.bmp	3r_2g.bmp	0r_2g.bmp			3r_2g.bmp		TrialProc	TrialList	0	cvbn	-999999	16	359502	0	b	757	360259	304	-188	116	-10	66	28	32	5	11	102	-12	0	-3	0	4	4	2	2	-3	2
Hungry_Donkey_bar_English_2	117	1	<?xml version="1.0"?>\n<Clock xmlns:dt="urn:schemas-microsoft-com:datatypes"><Description dt:dt="string">E-Prime Primary Realtime Clock</Description><StartTime><Timestamp dt:dt="int">0</Timestamp><DateUtc dt:dt="string">2015-08-07T15:03:28Z</DateUtc></StartTime><FrequencyChanges><FrequencyChange><Frequency dt:dt="r8">3507724</Frequency><Timestamp dt:dt="r8">2025713184805</Timestamp><Current dt:dt="r8">0</Current><DateUtc dt:dt="string">2015-08-07T15:03:28Z</DateUtc></FrequencyChange></FrequencyChanges></Clock>\n	Hungry_Donkey_bar_English_2-117-1	60.018	124	1.0.0.18	1	-1510680060	Standard	2.0.10.353	2.0.10.353	08-07-2015	8/7/2015 3:03:29 PM	11:03:29	2.0.10.248	103	Bar63-37.bmp	62	2	?	0r_4g.bmp	0r_4g.bmp	0r_2g.bmp	0r_2g.bmp		0r_4g.bmp			TrialProc	TrialList	0	cvbn	-999999	16	362284	0	v	471	362755	308	-188	120	-10	70	28	32	7	11	103	0	0	0	0	4	4	2	2	0	4
Hungry_Donkey_bar_English_2	117	1	<?xml version="1.0"?>\n<Clock xmlns:dt="urn:schemas-microsoft-com:datatypes"><Description dt:dt="string">E-Prime Primary Realtime Clock</Description><StartTime><Timestamp dt:dt="int">0</Timestamp><DateUtc dt:dt="string">2015-08-07T15:03:28Z</DateUtc></StartTime><FrequencyChanges><FrequencyChange><Frequency dt:dt="r8">3507724</Frequency><Timestamp dt:dt="r8">2025713184805</Timestamp><Current dt:dt="r8">0</Current><DateUtc dt:dt="string">2015-08-07T15:03:28Z</DateUtc></FrequencyChange></FrequencyChanges></Clock>\n	Hungry_Donkey_bar_English_2-117-1	60.018	124	1.0.0.18	1	-1510680060	Standard	2.0.10.353	2.0.10.353	08-07-2015	8/7/2015 3:03:29 PM	11:03:29	2.0.10.248	104	Bar63-37.bmp	62	4	?	0r_4g.bmp	0r_4g.bmp	0r_2g.bmp	0r_2g.bmp				0r_2g.bmp	TrialProc	TrialList	0	cvbn	-999999	16	364783	0	n	468	365251	310	-188	122	-10	70	28	34	6	11	104	0	0	0	0	4	4	2	2	0	2
Hungry_Donkey_bar_English_2	117	1	<?xml version="1.0"?>\n<Clock xmlns:dt="urn:schemas-microsoft-com:datatypes"><Description dt:dt="string">E-Prime Primary Realtime Clock</Description><StartTime><Timestamp dt:dt="int">0</Timestamp><DateUtc dt:dt="string">2015-08-07T15:03:28Z</DateUtc></StartTime><FrequencyChanges><FrequencyChange><Frequency dt:dt="r8">3507724</Frequency><Timestamp dt:dt="r8">2025713184805</Timestamp><Current dt:dt="r8">0</Current><DateUtc dt:dt="string">2015-08-07T15:03:28Z</DateUtc></FrequencyChange></FrequencyChanges></Clock>\n	Hungry_Donkey_bar_English_2-117-1	60.018	124	1.0.0.18	1	-1510680060	Standard	2.0.10.353	2.0.10.353	08-07-2015	8/7/2015 3:03:29 PM	11:03:29	2.0.10.248	105	Bar63-37.bmp	62	3	?	0r_4g.bmp	0r_4g.bmp	0r_2g.bmp	0r_2g.bmp			0r_2g.bmp		TrialProc	TrialList	0	cvbn	-999999	16	367283	0	b	544	367827	312	-188	124	-10	70	30	34	10	11	105	0	0	0	0	4	4	2	2	0	2
Hungry_Donkey_bar_English_2	117	1	<?xml version="1.0"?>\n<Clock xmlns:dt="urn:schemas-microsoft-com:datatypes"><Description dt:dt="string">E-Prime Primary Realtime Clock</Description><StartTime><Timestamp dt:dt="int">0</Timestamp><DateUtc dt:dt="string">2015-08-07T15:03:28Z</DateUtc></StartTime><FrequencyChanges><FrequencyChange><Frequency dt:dt="r8">3507724</Frequency><Timestamp dt:dt="r8">2025713184805</Timestamp><Current dt:dt="r8">0</Current><DateUtc dt:dt="string">2015-08-07T15:03:28Z</DateUtc></FrequencyChange></FrequencyChanges></Clock>\n	Hungry_Donkey_bar_English_2-117-1	60.018	124	1.0.0.18	1	-1510680060	Standard	2.0.10.353	2.0.10.353	08-07-2015	8/7/2015 3:03:29 PM	11:03:29	2.0.10.248	106	Bar63-37.bmp	63	1	?	0r_4g.bmp	0r_4g.bmp	0r_2g.bmp	0r_2g.bmp	0r_4g.bmp				TrialProc	TrialList	0	cvbn	-999999	16	369865	0	c	410	370275	316	-188	128	-6	70	30	34	8	11	106	0	0	0	0	4	4	2	2	0	4
Hungry_Donkey_bar_English_2	117	1	<?xml version="1.0"?>\n<Clock xmlns:dt="urn:schemas-microsoft-com:datatypes"><Description dt:dt="string">E-Prime Primary Realtime Clock</Description><StartTime><Timestamp dt:dt="int">0</Timestamp><DateUtc dt:dt="string">2015-08-07T15:03:28Z</DateUtc></StartTime><FrequencyChanges><FrequencyChange><Frequency dt:dt="r8">3507724</Frequency><Timestamp dt:dt="r8">2025713184805</Timestamp><Current dt:dt="r8">0</Current><DateUtc dt:dt="string">2015-08-07T15:03:28Z</DateUtc></FrequencyChange></FrequencyChanges></Clock>\n	Hungry_Donkey_bar_English_2-117-1	60.018	124	1.0.0.18	1	-1510680060	Standard	2.0.10.353	2.0.10.353	08-07-2015	8/7/2015 3:03:29 PM	11:03:29	2.0.10.248	107	Bar63-37.bmp	63	2	?	10r_4g.bmp	0r_4g.bmp	2r_2g.bmp	0r_2g.bmp		0r_4g.bmp			TrialProc	TrialList	0	cvbn	-999999	17	372315	0	v	839	373154	320	-188	132	-6	74	30	34	4	11	107	-10	0	-2	0	4	4	2	2	0	4
Hungry_Donkey_bar_English_2	117	1	<?xml version="1.0"?>\n<Clock xmlns:dt="urn:schemas-microsoft-com:datatypes"><Description dt:dt="string">E-Prime Primary Realtime Clock</Description><StartTime><Timestamp dt:dt="int">0</Timestamp><DateUtc dt:dt="string">2015-08-07T15:03:28Z</DateUtc></StartTime><FrequencyChanges><FrequencyChange><Frequency dt:dt="r8">3507724</Frequency><Timestamp dt:dt="r8">2025713184805</Timestamp><Current dt:dt="r8">0</Current><DateUtc dt:dt="string">2015-08-07T15:03:28Z</DateUtc></FrequencyChange></FrequencyChanges></Clock>\n	Hungry_Donkey_bar_English_2-117-1	60.018	124	1.0.0.18	1	-1510680060	Standard	2.0.10.353	2.0.10.353	08-07-2015	8/7/2015 3:03:29 PM	11:03:29	2.0.10.248	108	Bar63-37.bmp	63	3	?	8r_4g.bmp	50r_4g.bmp	1r_2g.bmp	10r_2g.bmp			1r_2g.bmp		TrialProc	TrialList	0	cvbn	-999999	16	375180	0	b	2022	377202	322	-189	133	-6	74	31	34	1	11	108	-8	-50	-1	-10	4	4	2	2	-1	2
Hungry_Donkey_bar_English_2	117	1	<?xml version="1.0"?>\n<Clock xmlns:dt="urn:schemas-microsoft-com:datatypes"><Description dt:dt="string">E-Prime Primary Realtime Clock</Description><StartTime><Timestamp dt:dt="int">0</Timestamp><DateUtc dt:dt="string">2015-08-07T15:03:28Z</DateUtc></StartTime><FrequencyChanges><FrequencyChange><Frequency dt:dt="r8">3507724</Frequency><Timestamp dt:dt="r8">2025713184805</Timestamp><Current dt:dt="r8">0</Current><DateUtc dt:dt="string">2015-08-07T15:03:28Z</DateUtc></FrequencyChange></FrequencyChanges></Clock>\n	Hungry_Donkey_bar_English_2-117-1	60.018	124	1.0.0.18	1	-1510680060	Standard	2.0.10.353	2.0.10.353	08-07-2015	8/7/2015 3:03:29 PM	11:03:29	2.0.10.248	109	Bar63-37.bmp	63	4	?	0r_4g.bmp	0r_4g.bmp	0r_2g.bmp	0r_2g.bmp				0r_2g.bmp	TrialProc	TrialList	0	cvbn	-999999	16	379229	0	n	405	379634	324	-189	135	-6	74	31	36	9	11	109	0	0	0	0	4	4	2	2	0	2
Hungry_Donkey_bar_English_2	117	1	<?xml version="1.0"?>\n<Clock xmlns:dt="urn:schemas-microsoft-com:datatypes"><Description dt:dt="string">E-Prime Primary Realtime Clock</Description><StartTime><Timestamp dt:dt="int">0</Timestamp><DateUtc dt:dt="string">2015-08-07T15:03:28Z</DateUtc></StartTime><FrequencyChanges><FrequencyChange><Frequency dt:dt="r8">3507724</Frequency><Timestamp dt:dt="r8">2025713184805</Timestamp><Current dt:dt="r8">0</Current><DateUtc dt:dt="string">2015-08-07T15:03:28Z</DateUtc></FrequencyChange></FrequencyChanges></Clock>\n	Hungry_Donkey_bar_English_2-117-1	60.018	124	1.0.0.18	1	-1510680060	Standard	2.0.10.353	2.0.10.353	08-07-2015	8/7/2015 3:03:29 PM	11:03:29	2.0.10.248	110	Bar63-37.bmp	62	1	?	10r_4g.bmp	0r_4g.bmp	2r_2g.bmp	0r_2g.bmp	10r_4g.bmp				TrialProc	TrialList	0	cvbn	-999999	16	381662	0	c	1588	383250	328	-199	129	-12	74	31	36	2	11	110	-10	0	-2	0	4	4	2	2	-10	4
Hungry_Donkey_bar_English_2	117	1	<?xml version="1.0"?>\n<Clock xmlns:dt="urn:schemas-microsoft-com:datatypes"><Description dt:dt="string">E-Prime Primary Realtime Clock</Description><StartTime><Timestamp dt:dt="int">0</Timestamp><DateUtc dt:dt="string">2015-08-07T15:03:28Z</DateUtc></StartTime><FrequencyChanges><FrequencyChange><Frequency dt:dt="r8">3507724</Frequency><Timestamp dt:dt="r8">2025713184805</Timestamp><Current dt:dt="r8">0</Current><DateUtc dt:dt="string">2015-08-07T15:03:28Z</DateUtc></FrequencyChange></FrequencyChanges></Clock>\n	Hungry_Donkey_bar_English_2-117-1	60.018	124	1.0.0.18	1	-1510680060	Standard	2.0.10.353	2.0.10.353	08-07-2015	8/7/2015 3:03:29 PM	11:03:29	2.0.10.248	111	Bar63-37.bmp	63	2	?	0r_4g.bmp	0r_4g.bmp	0r_2g.bmp	0r_2g.bmp		0r_4g.bmp			TrialProc	TrialList	0	cvbn	-999999	16	385277	0	v	1908	387185	332	-199	133	-12	78	31	36	10	12	111	0	0	0	0	4	4	2	2	0	4
