ExperimentName	Subject	Session	Clock.Information	DataFile.Basename	Display.RefreshRate	Eindtotaal[Session]	ExperimentVersion	Group	RandomSeed	RuntimeCapabilities	RuntimeVersion	RuntimeVersionExpected	SessionDate	SessionStartDateTimeUtc	SessionTime	StudioVersion	Block	BarImage	BarTotalWinst	DoorChoice	Eindtotaal[Block]	FBDoor1	FBDoor2	FBDoor3	FBDoor4	Image1	Image2	Image3	Image4	Procedure	Running	spel.ACC	spel.CRESP	spel.DurationError	spel.OnsetDelay	spel.OnsetTime	spel.OnsetToOnsetTime	spel.RESP	spel.RT	spel.RTTime	TotalGain	TotalLose	Totalsum	TotalsumD1	TotalsumD2	TotalsumD3	TotalsumD4	TrialList	TrialList.Cycle	TrialList.Sample	varV1	varV2	varV3	varV4	varW1	varW2	varW3	varW4	Verliesbedrag	Winstbedrag
Hungry_Donkey_bar_English_2	120	2	<?xml version="1.0"?>\n<Clock xmlns:dt="urn:schemas-microsoft-com:datatypes"><Description dt:dt="string">E-Prime Primary Realtime Clock</Description><StartTime><Timestamp dt:dt="int">0</Timestamp><DateUtc dt:dt="string">2015-08-12T17:02:58Z</DateUtc></StartTime><FrequencyChanges><FrequencyChange><Frequency dt:dt="r8">3507705</Frequency><Timestamp dt:dt="r8">260015014992</Timestamp><Current dt:dt="r8">0</Current><DateUtc dt:dt="string">2015-08-12T17:02:58Z</DateUtc></FrequencyChange></FrequencyChanges></Clock>\n	Hungry_Donkey_bar_English_2-120-2	60.018	95	1.0.0.18	1	-1977275071	Standard	2.0.10.353	2.0.10.353	08-12-2015	8/12/2015 5:02:58 PM	13:02:58	2.0.10.248	1	Bar25-75.bmp	25	1	?	12r_4g.bmp	0r_4g.bmp	3r_2g.bmp	0r_2g.bmp	12r_4g.bmp				TrialProc	TrialList	0	cvbn	-999999	16	51572	0	c	18655	70227	4	-12	-8	-8	0	0	0	5	1	1	-12	0	-3	0	4	4	2	2	-12	4
Hungry_Donkey_bar_English_2	120	2	<?xml version="1.0"?>\n<Clock xmlns:dt="urn:schemas-microsoft-com:datatypes"><Description dt:dt="string">E-Prime Primary Realtime Clock</Description><StartTime><Timestamp dt:dt="int">0</Timestamp><DateUtc dt:dt="string">2015-08-12T17:02:58Z</DateUtc></StartTime><FrequencyChanges><FrequencyChange><Frequency dt:dt="r8">3507705</Frequency><Timestamp dt:dt="r8">260015014992</Timestamp><Current dt:dt="r8">0</Current><DateUtc dt:dt="string">2015-08-12T17:02:58Z</DateUtc></FrequencyChange></FrequencyChanges></Clock>\n	Hungry_Donkey_bar_English_2-120-2	60.018	95	1.0.0.18	1	-1977275071	Standard	2.0.10.353	2.0.10.353	08-12-2015	8/12/2015 5:02:58 PM	13:02:58	2.0.10.248	2	Bar37-63.bmp	40	2	?	10r_4g.bmp	0r_4g.bmp	2r_2g.bmp	0r_2g.bmp		0r_4g.bmp			TrialProc	TrialList	0	cvbn	-999999	16	72266	0	v	1673	73939	8	-12	-4	-8	4	0	0	3	1	2	-10	0	-2	0	4	4	2	2	0	4
Hungry_Donkey_bar_English_2	120	2	<?xml version="1.0"?>\n<Clock xmlns:dt="urn:schemas-microsoft-com:datatypes"><Description dt:dt="string">E-Prime Primary Realtime Clock</Description><StartTime><Timestamp dt:dt="int">0</Timestamp><DateUtc dt:dt="string">2015-08-12T17:02:58Z</DateUtc></StartTime><FrequencyChanges><FrequencyChange><Frequency dt:dt="r8">3507705</Frequency><Timestamp dt:dt="r8">260015014992</Timestamp><Current dt:dt="r8">0</Current><DateUtc dt:dt="string">2015-08-12T17:02:58Z</DateUtc></FrequencyChange></FrequencyChanges></Clock>\n	Hungry_Donkey_bar_English_2-120-2	60.018	95	1.0.0.18	1	-1977275071	Standard	2.0.10.353	2.0.10.353	08-12-2015	8/12/2015 5:02:58 PM	13:02:58	2.0.10.248	3	Bar50-50.bmp	45	3	?	0r_4g.bmp	0r_4g.bmp	0r_2g.bmp	0r_2g.bmp			0r_2g.bmp		TrialProc	TrialList	0	cvbn	-999999	16	75981	0	b	1398	77379	10	-12	-2	-8	4	2	0	9	1	3	0	0	0	0	4	4	2	2	0	2
Hungry_Donkey_bar_English_2	120	2	<?xml version="1.0"?>\n<Clock xmlns:dt="urn:schemas-microsoft-com:datatypes"><Description dt:dt="string">E-Prime Primary Realtime Clock</Description><StartTime><Timestamp dt:dt="int">0</Timestamp><DateUtc dt:dt="string">2015-08-12T17:02:58Z</DateUtc></StartTime><FrequencyChanges><FrequencyChange><Frequency dt:dt="r8">3507705</Frequency><Timestamp dt:dt="r8">260015014992</Timestamp><Current dt:dt="r8">0</Current><DateUtc dt:dt="string">2015-08-12T17:02:58Z</DateUtc></FrequencyChange></FrequencyChanges></Clock>\n	Hungry_Donkey_bar_English_2-120-2	60.018	95	1.0.0.18	1	-1977275071	Standard	2.0.10.353	2.0.10.353	08-12-2015	8/12/2015 5:02:58 PM	13:02:58	2.0.10.248	4	Bar50-50.bmp	50	4	?	0r_4g.bmp	0r_4g.bmp	0r_2g.bmp	0r_2g.bmp				0r_2g.bmp	TrialProc	TrialList	0	cvbn	-999999	16	79414	0	n	493	79907	12	-12	0	-8	4	2	2	8	1	4	0	0	0	0	4	4	2	2	0	2
Hungry_Donkey_bar_English_2	120	2	<?xml version="1.0"?>\n<Clock xmlns:dt="urn:schemas-microsoft-com:datatypes"><Description dt:dt="string">E-Prime Primary Realtime Clock</Description><StartTime><Timestamp dt:dt="int">0</Timestamp><DateUtc dt:dt="string">2015-08-12T17:02:58Z</DateUtc></StartTime><FrequencyChanges><FrequencyChange><Frequency dt:dt="r8">3507705</Frequency><Timestamp dt:dt="r8">260015014992</Timestamp><Current dt:dt="r8">0</Current><DateUtc dt:dt="string">2015-08-12T17:02:58Z</DateUtc></FrequencyChange></FrequencyChanges></Clock>\n	Hungry_Donkey_bar_English_2-120-2	60.018	95	1.0.0.18	1	-1977275071	Standard	2.0.10.353	2.0.10.353	08-12-2015	8/12/2015 5:02:58 PM	13:02:58	2.0.10.248	5	Bar50-50.bmp	54	4	?	0r_4g.bmp	0r_4g.bmp	0r_2g.bmp	0r_2g.bmp				0r_2g.bmp	TrialProc	TrialList	0	cvbn	-999999	16	81946	0	n	8440	90386	14	-12	2	-8	4	2	4	7	1	5	0	0	0	0	4	4	2	2	0	2
Hungry_Donkey_bar_English_2	120	2	<?xml version="1.0"?>\n<Clock xmlns:dt="urn:schemas-microsoft-com:datatypes"><Description dt:dt="string">E-Prime Primary Realtime Clock</Description><StartTime><Timestamp dt:dt="int">0</Timestamp><DateUtc dt:dt="string">2015-08-12T17:02:58Z</DateUtc></StartTime><FrequencyChanges><FrequencyChange><Frequency dt:dt="r8">3507705</Frequency><Timestamp dt:dt="r8">260015014992</Timestamp><Current dt:dt="r8">0</Current><DateUtc dt:dt="string">2015-08-12T17:02:58Z</DateUtc></FrequencyChange></FrequencyChanges></Clock>\n	Hungry_Donkey_bar_English_2-120-2	60.018	95	1.0.0.18	1	-1977275071	Standard	2.0.10.353	2.0.10.353	08-12-2015	8/12/2015 5:02:58 PM	13:02:58	2.0.10.248	6	Bar63-37.bmp	57	4	?	10r_4g.bmp	0r_4g.bmp	2r_2g.bmp	0r_2g.bmp				0r_2g.bmp	TrialProc	TrialList	0	cvbn	-999999	16	92426	0	n	1096	93522	16	-12	4	-8	4	2	6	4	1	6	-10	0	-2	0	4	4	2	2	0	2
Hungry_Donkey_bar_English_2	120	2	<?xml version="1.0"?>\n<Clock xmlns:dt="urn:schemas-microsoft-com:datatypes"><Description dt:dt="string">E-Prime Primary Realtime Clock</Description><StartTime><Timestamp dt:dt="int">0</Timestamp><DateUtc dt:dt="string">2015-08-12T17:02:58Z</DateUtc></StartTime><FrequencyChanges><FrequencyChange><Frequency dt:dt="r8">3507705</Frequency><Timestamp dt:dt="r8">260015014992</Timestamp><Current dt:dt="r8">0</Current><DateUtc dt:dt="string">2015-08-12T17:02:58Z</DateUtc></FrequencyChange></FrequencyChanges></Clock>\n	Hungry_Donkey_bar_English_2-120-2	60.018	95	1.0.0.18	1	-1977275071	Standard	2.0.10.353	2.0.10.353	08-12-2015	8/12/2015 5:02:58 PM	13:02:58	2.0.10.248	7	Bar50-50.bmp	45	4	?	8r_4g.bmp	50r_4g.bmp	1r_2g.bmp	10r_2g.bmp				10r_2g.bmp	TrialProc	TrialList	0	cvbn	-999999	16	95559	0	n	667	96226	18	-22	-4	-8	4	2	-2	1	1	7	-8	-50	-1	-10	4	4	2	2	-10	2
Hungry_Donkey_bar_English_2	120	2	<?xml version="1.0"?>\n<Clock xmlns:dt="urn:schemas-microsoft-com:datatypes"><Description dt:dt="string">E-Prime Primary Realtime Clock</Description><StartTime><Timestamp dt:dt="int">0</Timestamp><DateUtc dt:dt="string">2015-08-12T17:02:58Z</DateUtc></StartTime><FrequencyChanges><FrequencyChange><Frequency dt:dt="r8">3507705</Frequency><Timestamp dt:dt="r8">260015014992</Timestamp><Current dt:dt="r8">0</Current><DateUtc dt:dt="string">2015-08-12T17:02:58Z</DateUtc></FrequencyChange></FrequencyChanges></Clock>\n	Hungry_Donkey_bar_English_2-120-2	60.018	95	1.0.0.18	1	-1977275071	Standard	2.0.10.353	2.0.10.353	08-12-2015	8/12/2015 5:02:58 PM	13:02:58	2.0.10.248	8	Bar50-50.bmp	48	3	?	0r_4g.bmp	0r_4g.bmp	0r_2g.bmp	0r_2g.bmp			0r_2g.bmp		TrialProc	TrialList	0	cvbn	-999999	16	98258	0	b	400	98658	20	-22	-2	-8	4	4	-2	6	1	8	0	0	0	0	4	4	2	2	0	2
Hungry_Donkey_bar_English_2	120	2	<?xml version="1.0"?>\n<Clock xmlns:dt="urn:schemas-microsoft-com:datatypes"><Description dt:dt="string">E-Prime Primary Realtime Clock</Description><StartTime><Timestamp dt:dt="int">0</Timestamp><DateUtc dt:dt="string">2015-08-12T17:02:58Z</DateUtc></StartTime><FrequencyChanges><FrequencyChange><Frequency dt:dt="r8">3507705</Frequency><Timestamp dt:dt="r8">260015014992</Timestamp><Current dt:dt="r8">0</Current><DateUtc dt:dt="string">2015-08-12T17:02:58Z</DateUtc></FrequencyChange></FrequencyChanges></Clock>\n	Hungry_Donkey_bar_English_2-120-2	60.018	95	1.0.0.18	1	-1977275071	Standard	2.0.10.353	2.0.10.353	08-12-2015	8/12/2015 5:02:58 PM	13:02:58	2.0.10.248	9	Bar50-50.bmp	52	2	?	10r_4g.bmp	0r_4g.bmp	2r_2g.bmp	0r_2g.bmp		0r_4g.bmp			TrialProc	TrialList	0	cvbn	-999999	16	100691	0	v	958	101649	24	-22	2	-8	8	4	-2	2	1	9	-10	0	-2	0	4	4	2	2	0	4
Hungry_Donkey_bar_English_2	120	2	<?xml version="1.0"?>\n<Clock xmlns:dt="urn:schemas-microsoft-com:datatypes"><Description dt:dt="string">E-Prime Primary Realtime Clock</Description><StartTime><Timestamp dt:dt="int">0</Timestamp><DateUtc dt:dt="string">2015-08-12T17:02:58Z</DateUtc></StartTime><FrequencyChanges><FrequencyChange><Frequency dt:dt="r8">3507705</Frequency><Timestamp dt:dt="r8">260015014992</Timestamp><Current dt:dt="r8">0</Current><DateUtc dt:dt="string">2015-08-12T17:02:58Z</DateUtc></FrequencyChange></FrequencyChanges></Clock>\n	Hungry_Donkey_bar_English_2-120-2	60.018	95	1.0.0.18	1	-1977275071	Standard	2.0.10.353	2.0.10.353	08-12-2015	8/12/2015 5:02:58 PM	13:02:58	2.0.10.248	10	Bar50-50.bmp	56	1	?	0r_4g.bmp	0r_4g.bmp	0r_2g.bmp	0r_2g.bmp	0r_4g.bmp				TrialProc	TrialList	0	cvbn	-999999	16	103673	0	c	584	104257	28	-22	6	-4	8	4	-2	10	1	10	0	0	0	0	4	4	2	2	0	4
Hungry_Donkey_bar_English_2	120	2	<?xml version="1.0"?>\n<Clock xmlns:dt="urn:schemas-microsoft-com:datatypes"><Description dt:dt="string">E-Prime Primary Realtime Clock</Description><StartTime><Timestamp dt:dt="int">0</Timestamp><DateUtc dt:dt="string">2015-08-12T17:02:58Z</DateUtc></StartTime><FrequencyChanges><FrequencyChange><Frequency dt:dt="r8">3507705</Frequency><Timestamp dt:dt="r8">260015014992</Timestamp><Current dt:dt="r8">0</Current><DateUtc dt:dt="string">2015-08-12T17:02:58Z</DateUtc></FrequencyChange></FrequencyChanges></Clock>\n	Hungry_Donkey_bar_English_2-120-2	60.018	95	1.0.0.18	1	-1977275071	Standard	2.0.10.353	2.0.10.353	08-12-2015	8/12/2015 5:02:58 PM	13:02:58	2.0.10.248	11	Bar63-37.bmp	59	1	?	0r_4g.bmp	0r_4g.bmp	0r_2g.bmp	0r_2g.bmp	0r_4g.bmp				TrialProc	TrialList	0	cvbn	-999999	16	106289	0	c	432	106721	32	-22	10	0	8	4	-2	8	2	11	0	0	0	0	4	4	2	2	0	4
Hungry_Donkey_bar_English_2	120	2	<?xml version="1.0"?>\n<Clock xmlns:dt="urn:schemas-microsoft-com:datatypes"><Description dt:dt="string">E-Prime Primary Realtime Clock</Description><StartTime><Timestamp dt:dt="int">0</Timestamp><DateUtc dt:dt="string">2015-08-12T17:02:58Z</DateUtc></StartTime><FrequencyChanges><FrequencyChange><Frequency dt:dt="r8">3507705</Frequency><Timestamp dt:dt="r8">260015014992</Timestamp><Current dt:dt="r8">0</Current><DateUtc dt:dt="string">2015-08-12T17:02:58Z</DateUtc></FrequencyChange></FrequencyChanges></Clock>\n	Hungry_Donkey_bar_English_2-120-2	60.018	95	1.0.0.18	1	-1977275071	Standard	2.0.10.353	2.0.10.353	08-12-2015	8/12/2015 5:02:58 PM	13:02:58	2.0.10.248	12	Bar50-50.bmp	53	1	?	10r_4g.bmp	0r_4g.bmp	2r_2g.bmp	0r_2g.bmp	10r_4g.bmp				TrialProc	TrialList	0	cvbn	-999999	16	108755	0	c	1470	110225	36	-32	4	-6	8	4	-2	2	2	12	-10	0	-2	0	4	4	2	2	-10	4
Hungry_Donkey_bar_English_2	120	2	<?xml version="1.0"?>\n<Clock xmlns:dt="urn:schemas-microsoft-com:datatypes"><Description dt:dt="string">E-Prime Primary Realtime Clock</Description><StartTime><Timestamp dt:dt="int">0</Timestamp><DateUtc dt:dt="string">2015-08-12T17:02:58Z</DateUtc></StartTime><FrequencyChanges><FrequencyChange><Frequency dt:dt="r8">3507705</Frequency><Timestamp dt:dt="r8">260015014992</Timestamp><Current dt:dt="r8">0</Current><DateUtc dt:dt="string">2015-08-12T17:02:58Z</DateUtc></FrequencyChange></FrequencyChanges></Clock>\n	Hungry_Donkey_bar_English_2-120-2	60.018	95	1.0.0.18	1	-1977275071	Standard	2.0.10.353	2.0.10.353	08-12-2015	8/12/2015 5:02:58 PM	13:02:58	2.0.10.248	13	Bar50-50.bmp	56	1	?	0r_4g.bmp	0r_4g.bmp	0r_2g.bmp	0r_2g.bmp	0r_4g.bmp				TrialProc	TrialList	0	cvbn	-999999	16	112271	0	c	674	112945	40	-32	8	-2	8	4	-2	6	2	13	0	0	0	0	4	4	2	2	0	4
Hungry_Donkey_bar_English_2	120	2	<?xml version="1.0"?>\n<Clock xmlns:dt="urn:schemas-microsoft-com:datatypes"><Description dt:dt="string">E-Prime Primary Realtime Clock</Description><StartTime><Timestamp dt:dt="int">0</Timestamp><DateUtc dt:dt="string">2015-08-12T17:02:58Z</DateUtc></StartTime><FrequencyChanges><FrequencyChange><Frequency dt:dt="r8">3507705</Frequency><Timestamp dt:dt="r8">260015014992</Timestamp><Current dt:dt="r8">0</Current><DateUtc dt:dt="string">2015-08-12T17:02:58Z</DateUtc></FrequencyChange></FrequencyChanges></Clock>\n	Hungry_Donkey_bar_English_2-120-2	60.018	95	1.0.0.18	1	-1977275071	Standard	2.0.10.353	2.0.10.353	08-12-2015	8/12/2015 5:02:58 PM	13:02:58	2.0.10.248	14	Bar50-50.bmp	55	3	?	12r_4g.bmp	0r_4g.bmp	3r_2g.bmp	0r_2g.bmp			3r_2g.bmp		TrialProc	TrialList	0	cvbn	-999999	16	114970	0	b	1607	116577	42	-35	7	-2	8	3	-2	5	2	14	-12	0	-3	0	4	4	2	2	-3	2
Hungry_Donkey_bar_English_2	120	2	<?xml version="1.0"?>\n<Clock xmlns:dt="urn:schemas-microsoft-com:datatypes"><Description dt:dt="string">E-Prime Primary Realtime Clock</Description><StartTime><Timestamp dt:dt="int">0</Timestamp><DateUtc dt:dt="string">2015-08-12T17:02:58Z</DateUtc></StartTime><FrequencyChanges><FrequencyChange><Frequency dt:dt="r8">3507705</Frequency><Timestamp dt:dt="r8">260015014992</Timestamp><Current dt:dt="r8">0</Current><DateUtc dt:dt="string">2015-08-12T17:02:58Z</DateUtc></FrequencyChange></FrequencyChanges></Clock>\n	Hungry_Donkey_bar_English_2-120-2	60.018	95	1.0.0.18	1	-1977275071	Standard	2.0.10.353	2.0.10.353	08-12-2015	8/12/2015 5:02:58 PM	13:02:58	2.0.10.248	15	Bar63-37.bmp	57	2	?	10r_4g.bmp	0r_4g.bmp	2r_2g.bmp	0r_2g.bmp		0r_4g.bmp			TrialProc	TrialList	0	cvbn	-999999	16	118619	0	v	1557	120176	46	-35	11	-2	12	3	-2	3	2	15	-10	0	-2	0	4	4	2	2	0	4
Hungry_Donkey_bar_English_2	120	2	<?xml version="1.0"?>\n<Clock xmlns:dt="urn:schemas-microsoft-com:datatypes"><Description dt:dt="string">E-Prime Primary Realtime Clock</Description><StartTime><Timestamp dt:dt="int">0</Timestamp><DateUtc dt:dt="string">2015-08-12T17:02:58Z</DateUtc></StartTime><FrequencyChanges><FrequencyChange><Frequency dt:dt="r8">3507705</Frequency><Timestamp dt:dt="r8">260015014992</Timestamp><Current dt:dt="r8">0</Current><DateUtc dt:dt="string">2015-08-12T17:02:58Z</DateUtc></FrequencyChange></FrequencyChanges></Clock>\n	Hungry_Donkey_bar_English_2-120-2	60.018	95	1.0.0.18	1	-1977275071	Standard	2.0.10.353	2.0.10.353	08-12-2015	8/12/2015 5:02:58 PM	13:02:58	2.0.10.248	16	Bar50-50.bmp	52	4	?	8r_4g.bmp	50r_4g.bmp	1r_2g.bmp	10r_2g.bmp				10r_2g.bmp	TrialProc	TrialList	0	cvbn	-999999	16	122201	0	n	1543	123744	48	-45	3	-2	12	3	-10	1	2	16	-8	-50	-1	-10	4	4	2	2	-10	2
Hungry_Donkey_bar_English_2	120	2	<?xml version="1.0"?>\n<Clock xmlns:dt="urn:schemas-microsoft-com:datatypes"><Description dt:dt="string">E-Prime Primary Realtime Clock</Description><StartTime><Timestamp dt:dt="int">0</Timestamp><DateUtc dt:dt="string">2015-08-12T17:02:58Z</DateUtc></StartTime><FrequencyChanges><FrequencyChange><Frequency dt:dt="r8">3507705</Frequency><Timestamp dt:dt="r8">260015014992</Timestamp><Current dt:dt="r8">0</Current><DateUtc dt:dt="string">2015-08-12T17:02:58Z</DateUtc></FrequencyChange></FrequencyChanges></Clock>\n	Hungry_Donkey_bar_English_2-120-2	60.018	95	1.0.0.18	1	-1977275071	Standard	2.0.10.353	2.0.10.353	08-12-2015	8/12/2015 5:02:58 PM	13:02:58	2.0.10.248	17	Bar50-50.bmp	54	1	?	0r_4g.bmp	0r_4g.bmp	0r_2g.bmp	0r_2g.bmp	0r_4g.bmp				TrialProc	TrialList	0	cvbn	-999999	16	125783	0	c	1689	127472	52	-45	7	2	12	3	-10	10	2	17	0	0	0	0	4	4	2	2	0	4
Hungry_Donkey_bar_English_2	120	2	<?xml version="1.0"?>\n<Clock xmlns:dt="urn:schemas-microsoft-com:datatypes"><Description dt:dt="string">E-Prime Primary Realtime Clock</Description><StartTime><Timestamp dt:dt="int">0</Timestamp><DateUtc dt:dt="string">2015-08-12T17:02:58Z</DateUtc></StartTime><FrequencyChanges><FrequencyChange><Frequency dt:dt="r8">3507705</Frequency><Timestamp dt:dt="r8">260015014992</Timestamp><Current dt:dt="r8">0</Current><DateUtc dt:dt="string">2015-08-12T17:02:58Z</DateUtc></FrequencyChange></FrequencyChanges></Clock>\n	Hungry_Donkey_bar_English_2-120-2	60.018	95	1.0.0.18	1	-1977275071	Standard	2.0.10.353	2.0.10.353	08-12-2015	8/12/2015 5:02:58 PM	13:02:58	2.0.10.248	18	Bar50-50.bmp	55	2	?	0r_4g.bmp	0r_4g.bmp	0r_2g.bmp	0r_2g.bmp		0r_4g.bmp			TrialProc	TrialList	0	cvbn	-999999	16	129499	0	v	1397	130896	56	-45	11	2	16	3	-10	9	2	18	0	0	0	0	4	4	2	2	0	4
Hungry_Donkey_bar_English_2	120	2	<?xml version="1.0"?>\n<Clock xmlns:dt="urn:schemas-microsoft-com:datatypes"><Description dt:dt="string">E-Prime Primary Realtime Clock</Description><StartTime><Timestamp dt:dt="int">0</Timestamp><DateUtc dt:dt="string">2015-08-12T17:02:58Z</DateUtc></StartTime><FrequencyChanges><FrequencyChange><Frequency dt:dt="r8">3507705</Frequency><Timestamp dt:dt="r8">260015014992</Timestamp><Current dt:dt="r8">0</Current><DateUtc dt:dt="string">2015-08-12T17:02:58Z</DateUtc></FrequencyChange></FrequencyChanges></Clock>\n	Hungry_Donkey_bar_English_2-120-2	60.018	95	1.0.0.18	1	-1977275071	Standard	2.0.10.353	2.0.10.353	08-12-2015	8/12/2015 5:02:58 PM	13:02:58	2.0.10.248	19	Bar63-37.bmp	57	2	?	0r_4g.bmp	0r_4g.bmp	0r_2g.bmp	0r_2g.bmp		0r_4g.bmp			TrialProc	TrialList	0	cvbn	-999999	16	132931	0	v	2076	135007	60	-45	15	2	20	3	-10	7	2	19	0	0	0	0	4	4	2	2	0	4
Hungry_Donkey_bar_English_2	120	2	<?xml version="1.0"?>\n<Clock xmlns:dt="urn:schemas-microsoft-com:datatypes"><Description dt:dt="string">E-Prime Primary Realtime Clock</Description><StartTime><Timestamp dt:dt="int">0</Timestamp><DateUtc dt:dt="string">2015-08-12T17:02:58Z</DateUtc></StartTime><FrequencyChanges><FrequencyChange><Frequency dt:dt="r8">3507705</Frequency><Timestamp dt:dt="r8">260015014992</Timestamp><Current dt:dt="r8">0</Current><DateUtc dt:dt="string">2015-08-12T17:02:58Z</DateUtc></FrequencyChange></FrequencyChanges></Clock>\n	Hungry_Donkey_bar_English_2-120-2	60.018	95	1.0.0.18	1	-1977275071	Standard	2.0.10.353	2.0.10.353	08-12-2015	8/12/2015 5:02:58 PM	13:02:58	2.0.10.248	20	Bar63-37.bmp	59	2	?	10r_4g.bmp	0r_4g.bmp	2r_2g.bmp	0r_2g.bmp		0r_4g.bmp			TrialProc	TrialList	0	cvbn	-999999	16	137047	0	v	760	137807	64	-45	19	2	24	3	-10	4	2	20	-10	0	-2	0	4	4	2	2	0	4
Hungry_Donkey_bar_English_2	120	2	<?xml version="1.0"?>\n<Clock xmlns:dt="urn:schemas-microsoft-com:datatypes"><Description dt:dt="string">E-Prime Primary Realtime Clock</Description><StartTime><Timestamp dt:dt="int">0</Timestamp><DateUtc dt:dt="string">2015-08-12T17:02:58Z</DateUtc></StartTime><FrequencyChanges><FrequencyChange><Frequency dt:dt="r8">3507705</Frequency><Timestamp dt:dt="r8">260015014992</Timestamp><Current dt:dt="r8">0</Current><DateUtc dt:dt="string">2015-08-12T17:02:58Z</DateUtc></FrequencyChange></FrequencyChanges></Clock>\n	Hungry_Donkey_bar_English_2-120-2	60.018	95	1.0.0.18	1	-1977275071	Standard	2.0.10.353	2.0.10.353	08-12-2015	8/12/2015 5:02:58 PM	13:02:58	2.0.10.248	21	Bar63-37.bmp	60	2	?	10r_4g.bmp	0r_4g.bmp	2r_2g.bmp	0r_2g.bmp		0r_4g.bmp			TrialProc	TrialList	0	cvbn	-999999	16	139846	0	v	1273	141119	68	-45	23	2	28	3	-10	4	3	21	-10	0	-2	0	4	4	2	2	0	4
Hungry_Donkey_bar_English_2	120	2	<?xml version="1.0"?>\n<Clock xmlns:dt="urn:schemas-microsoft-com:datatypes"><Description dt:dt="string">E-Prime Primary Realtime Clock</Description><StartTime><Timestamp dt:dt="int">0</Timestamp><DateUtc dt:dt="string">2015-08-12T17:02:58Z</DateUtc></StartTime><FrequencyChanges><FrequencyChange><Frequency dt:dt="r8">3507705</Frequency><Timestamp dt:dt="r8">260015014992</Timestamp><Current dt:dt="r8">0</Current><DateUtc dt:dt="string">2015-08-12T17:02:58Z</DateUtc></FrequencyChange></FrequencyChanges></Clock>\n	Hungry_Donkey_bar_English_2-120-2	60.018	95	1.0.0.18	1	-1977275071	Standard	2.0.10.353	2.0.10.353	08-12-2015	8/12/2015 5:02:58 PM	13:02:58	2.0.10.248	22	Bar63-37.bmp	62	2	?	0r_4g.bmp	0r_4g.bmp	0r_2g.bmp	0r_2g.bmp		0r_4g.bmp			TrialProc	TrialList	0	cvbn	-999999	16	143145	0	v	1670	144815	72	-45	27	2	32	3	-10	9	3	22	0	0	0	0	4	4	2	2	0	4
Hungry_Donkey_bar_English_2	120	2	<?xml version="1.0"?>\n<Clock xmlns:dt="urn:schemas-microsoft-com:datatypes"><Description dt:dt="string">E-Prime Primary Realtime Clock</Description><StartTime><Timestamp dt:dt="int">0</Timestamp><DateUtc dt:dt="string">2015-08-12T17:02:58Z</DateUtc></StartTime><FrequencyChanges><FrequencyChange><Frequency dt:dt="r8">3507705</Frequency><Timestamp dt:dt="r8">260015014992</Timestamp><Current dt:dt="r8">0</Current><DateUtc dt:dt="string">2015-08-12T17:02:58Z</DateUtc></FrequencyChange></FrequencyChanges></Clock>\n	Hungry_Donkey_bar_English_2-120-2	60.018	95	1.0.0.18	1	-1977275071	Standard	2.0.10.353	2.0.10.353	08-12-2015	8/12/2015 5:02:58 PM	13:02:58	2.0.10.248	23	Bar63-37.bmp	63	2	?	10r_4g.bmp	0r_4g.bmp	2r_2g.bmp	0r_2g.bmp		0r_4g.bmp			TrialProc	TrialList	0	cvbn	-999999	16	146844	0	v	5475	152319	76	-45	31	2	36	3	-10	3	3	23	-10	0	-2	0	4	4	2	2	0	4
Hungry_Donkey_bar_English_2	120	2	<?xml version="1.0"?>\n<Clock xmlns:dt="urn:schemas-microsoft-com:datatypes"><Description dt:dt="string">E-Prime Primary Realtime Clock</Description><StartTime><Timestamp dt:dt="int">0</Timestamp><DateUtc dt:dt="string">2015-08-12T17:02:58Z</DateUtc></StartTime><FrequencyChanges><FrequencyChange><Frequency dt:dt="r8">3507705</Frequency><Timestamp dt:dt="r8">260015014992</Timestamp><Current dt:dt="r8">0</Current><DateUtc dt:dt="string">2015-08-12T17:02:58Z</DateUtc></FrequencyChange></FrequencyChanges></Clock>\n	Hungry_Donkey_bar_English_2-120-2	60.018	95	1.0.0.18	1	-1977275071	Standard	2.0.10.353	2.0.10.353	08-12-2015	8/12/2015 5:02:58 PM	13:02:58	2.0.10.248	24	Bar63-37.bmp	64	2	?	12r_4g.bmp	0r_4g.bmp	3r_2g.bmp	0r_2g.bmp		0r_4g.bmp			TrialProc	TrialList	0	cvbn	-999999	16	154358	0	v	1784	156142	80	-45	35	2	40	3	-10	5	3	24	-12	0	-3	0	4	4	2	2	0	4
Hungry_Donkey_bar_English_2	120	2	<?xml version="1.0"?>\n<Clock xmlns:dt="urn:schemas-microsoft-com:datatypes"><Description dt:dt="string">E-Prime Primary Realtime Clock</Description><StartTime><Timestamp dt:dt="int">0</Timestamp><DateUtc dt:dt="string">2015-08-12T17:02:58Z</DateUtc></StartTime><FrequencyChanges><FrequencyChange><Frequency dt:dt="r8">3507705</Frequency><Timestamp dt:dt="r8">260015014992</Timestamp><Current dt:dt="r8">0</Current><DateUtc dt:dt="string">2015-08-12T17:02:58Z</DateUtc></FrequencyChange></FrequencyChanges></Clock>\n	Hungry_Donkey_bar_English_2-120-2	60.018	95	1.0.0.18	1	-1977275071	Standard	2.0.10.353	2.0.10.353	08-12-2015	8/12/2015 5:02:58 PM	13:02:58	2.0.10.248	25	Bar63-37.bmp	65	2	?	0r_4g.bmp	0r_4g.bmp	0r_2g.bmp	0r_2g.bmp		0r_4g.bmp			TrialProc	TrialList	0	cvbn	-999999	16	158174	0	v	576	158750	84	-45	39	2	44	3	-10	8	3	25	0	0	0	0	4	4	2	2	0	4
Hungry_Donkey_bar_English_2	120	2	<?xml version="1.0"?>\n<Clock xmlns:dt="urn:schemas-microsoft-com:datatypes"><Description dt:dt="string">E-Prime Primary Realtime Clock</Description><StartTime><Timestamp dt:dt="int">0</Timestamp><DateUtc dt:dt="string">2015-08-12T17:02:58Z</DateUtc></StartTime><FrequencyChanges><FrequencyChange><Frequency dt:dt="r8">3507705</Frequency><Timestamp dt:dt="r8">260015014992</Timestamp><Current dt:dt="r8">0</Current><DateUtc dt:dt="string">2015-08-12T17:02:58Z</DateUtc></FrequencyChange></FrequencyChanges></Clock>\n	Hungry_Donkey_bar_English_2-120-2	60.018	95	1.0.0.18	1	-1977275071	Standard	2.0.10.353	2.0.10.353	08-12-2015	8/12/2015 5:02:58 PM	13:02:58	2.0.10.248	26	Bar63-37.bmp	66	2	?	0r_4g.bmp	0r_4g.bmp	0r_2g.bmp	0r_2g.bmp		0r_4g.bmp			TrialProc	TrialList	0	cvbn	-999999	16	160790	0	v	680	161470	88	-45	43	2	48	3	-10	6	3	26	0	0	0	0	4	4	2	2	0	4
Hungry_Donkey_bar_English_2	120	2	<?xml version="1.0"?>\n<Clock xmlns:dt="urn:schemas-microsoft-com:datatypes"><Description dt:dt="string">E-Prime Primary Realtime Clock</Description><StartTime><Timestamp dt:dt="int">0</Timestamp><DateUtc dt:dt="string">2015-08-12T17:02:58Z</DateUtc></StartTime><FrequencyChanges><FrequencyChange><Frequency dt:dt="r8">3507705</Frequency><Timestamp dt:dt="r8">260015014992</Timestamp><Current dt:dt="r8">0</Current><DateUtc dt:dt="string">2015-08-12T17:02:58Z</DateUtc></FrequencyChange></FrequencyChanges></Clock>\n	Hungry_Donkey_bar_English_2-120-2	60.018	95	1.0.0.18	1	-1977275071	Standard	2.0.10.353	2.0.10.353	08-12-2015	8/12/2015 5:02:58 PM	13:02:58	2.0.10.248	27	Bar63-37.bmp	67	2	?	0r_4g.bmp	0r_4g.bmp	0r_2g.bmp	0r_2g.bmp		0r_4g.bmp			TrialProc	TrialList	0	cvbn	-999999	17	163506	0	v	396	163902	92	-45	47	2	52	3	-10	7	3	27	0	0	0	0	4	4	2	2	0	4
Hungry_Donkey_bar_English_2	120	2	<?xml version="1.0"?>\n<Clock xmlns:dt="urn:schemas-microsoft-com:datatypes"><Description dt:dt="string">E-Prime Primary Realtime Clock</Description><StartTime><Timestamp dt:dt="int">0</Timestamp><DateUtc dt:dt="string">2015-08-12T17:02:58Z</DateUtc></StartTime><FrequencyChanges><FrequencyChange><Frequency dt:dt="r8">3507705</Frequency><Timestamp dt:dt="r8">260015014992</Timestamp><Current dt:dt="r8">0</Current><DateUtc dt:dt="string">2015-08-12T17:02:58Z</DateUtc></FrequencyChange></FrequencyChanges></Clock>\n	Hungry_Donkey_bar_English_2-120-2	60.018	95	1.0.0.18	1	-1977275071	Standard	2.0.10.353	2.0.10.353	08-12-2015	8/12/2015 5:02:58 PM	13:02:58	2.0.10.248	28	Bar63-37.bmp	68	2	?	0r_4g.bmp	0r_4g.bmp	0r_2g.bmp	0r_2g.bmp		0r_4g.bmp			TrialProc	TrialList	0	cvbn	-999999	16	165938	0	v	332	166270	96	-45	51	2	56	3	-10	10	3	28	0	0	0	0	4	4	2	2	0	4
Hungry_Donkey_bar_English_2	120	2	<?xml version="1.0"?>\n<Clock xmlns:dt="urn:schemas-microsoft-com:datatypes"><Description dt:dt="string">E-Prime Primary Realtime Clock</Description><StartTime><Timestamp dt:dt="int">0</Timestamp><DateUtc dt:dt="string">2015-08-12T17:02:58Z</DateUtc></StartTime><FrequencyChanges><FrequencyChange><Frequency dt:dt="r8">3507705</Frequency><Timestamp dt:dt="r8">260015014992</Timestamp><Current dt:dt="r8">0</Current><DateUtc dt:dt="string">2015-08-12T17:02:58Z</DateUtc></FrequencyChange></FrequencyChanges></Clock>\n	Hungry_Donkey_bar_English_2-120-2	60.018	95	1.0.0.18	1	-1977275071	Standard	2.0.10.353	2.0.10.353	08-12-2015	8/12/2015 5:02:58 PM	13:02:58	2.0.10.248	29	Bar50-50.bmp	51	2	?	8r_4g.bmp	50r_4g.bmp	1r_2g.bmp	10r_2g.bmp		50r_4g.bmp			TrialProc	TrialList	0	cvbn	-999999	16	168304	0	v	446	168750	100	-95	5	2	10	3	-10	1	3	29	-8	-50	-1	-10	4	4	2	2	-50	4
Hungry_Donkey_bar_English_2	120	2	<?xml version="1.0"?>\n<Clock xmlns:dt="urn:schemas-microsoft-com:datatypes"><Description dt:dt="string">E-Prime Primary Realtime Clock</Description><StartTime><Timestamp dt:dt="int">0</Timestamp><DateUtc dt:dt="string">2015-08-12T17:02:58Z</DateUtc></StartTime><FrequencyChanges><FrequencyChange><Frequency dt:dt="r8">3507705</Frequency><Timestamp dt:dt="r8">260015014992</Timestamp><Current dt:dt="r8">0</Current><DateUtc dt:dt="string">2015-08-12T17:02:58Z</DateUtc></FrequencyChange></FrequencyChanges></Clock>\n	Hungry_Donkey_bar_English_2-120-2	60.018	95	1.0.0.18	1	-1977275071	Standard	2.0.10.353	2.0.10.353	08-12-2015	8/12/2015 5:02:58 PM	13:02:58	2.0.10.248	30	Bar50-50.bmp	51	3	?	10r_4g.bmp	0r_4g.bmp	2r_2g.bmp	0r_2g.bmp			2r_2g.bmp		TrialProc	TrialList	0	cvbn	-999999	16	170787	0	b	970	171757	102	-97	5	2	10	3	-10	2	3	30	-10	0	-2	0	4	4	2	2	-2	2
Hungry_Donkey_bar_English_2	120	2	<?xml version="1.0"?>\n<Clock xmlns:dt="urn:schemas-microsoft-com:datatypes"><Description dt:dt="string">E-Prime Primary Realtime Clock</Description><StartTime><Timestamp dt:dt="int">0</Timestamp><DateUtc dt:dt="string">2015-08-12T17:02:58Z</DateUtc></StartTime><FrequencyChanges><FrequencyChange><Frequency dt:dt="r8">3507705</Frequency><Timestamp dt:dt="r8">260015014992</Timestamp><Current dt:dt="r8">0</Current><DateUtc dt:dt="string">2015-08-12T17:02:58Z</DateUtc></FrequencyChange></FrequencyChanges></Clock>\n	Hungry_Donkey_bar_English_2-120-2	60.018	95	1.0.0.18	1	-1977275071	Standard	2.0.10.353	2.0.10.353	08-12-2015	8/12/2015 5:02:58 PM	13:02:58	2.0.10.248	31	Bar50-50.bmp	52	1	?	0r_4g.bmp	0r_4g.bmp	0r_2g.bmp	0r_2g.bmp	0r_4g.bmp				TrialProc	TrialList	0	cvbn	-999999	16	173802	0	c	1923	175725	106	-97	9	6	10	3	-10	10	4	31	0	0	0	0	4	4	2	2	0	4
Hungry_Donkey_bar_English_2	120	2	<?xml version="1.0"?>\n<Clock xmlns:dt="urn:schemas-microsoft-com:datatypes"><Description dt:dt="string">E-Prime Primary Realtime Clock</Description><StartTime><Timestamp dt:dt="int">0</Timestamp><DateUtc dt:dt="string">2015-08-12T17:02:58Z</DateUtc></StartTime><FrequencyChanges><FrequencyChange><Frequency dt:dt="r8">3507705</Frequency><Timestamp dt:dt="r8">260015014992</Timestamp><Current dt:dt="r8">0</Current><DateUtc dt:dt="string">2015-08-12T17:02:58Z</DateUtc></FrequencyChange></FrequencyChanges></Clock>\n	Hungry_Donkey_bar_English_2-120-2	60.018	95	1.0.0.18	1	-1977275071	Standard	2.0.10.353	2.0.10.353	08-12-2015	8/12/2015 5:02:58 PM	13:02:58	2.0.10.248	32	Bar50-50.bmp	53	1	?	0r_4g.bmp	0r_4g.bmp	0r_2g.bmp	0r_2g.bmp	0r_4g.bmp				TrialProc	TrialList	0	cvbn	-999999	15	177751	0	c	1254	179005	110	-97	13	10	10	3	-10	7	4	32	0	0	0	0	4	4	2	2	0	4
Hungry_Donkey_bar_English_2	120	2	<?xml version="1.0"?>\n<Clock xmlns:dt="urn:schemas-microsoft-com:datatypes"><Description dt:dt="string">E-Prime Primary Realtime Clock</Description><StartTime><Timestamp dt:dt="int">0</Timestamp><DateUtc dt:dt="string">2015-08-12T17:02:58Z</DateUtc></StartTime><FrequencyChanges><FrequencyChange><Frequency dt:dt="r8">3507705</Frequency><Timestamp dt:dt="r8">260015014992</Timestamp><Current dt:dt="r8">0</Current><DateUtc dt:dt="string">2015-08-12T17:02:58Z</DateUtc></FrequencyChange></FrequencyChanges></Clock>\n	Hungry_Donkey_bar_English_2-120-2	60.018	95	1.0.0.18	1	-1977275071	Standard	2.0.10.353	2.0.10.353	08-12-2015	8/12/2015 5:02:58 PM	13:02:58	2.0.10.248	33	Bar50-50.bmp	54	2	?	0r_4g.bmp	0r_4g.bmp	0r_2g.bmp	0r_2g.bmp		0r_4g.bmp			TrialProc	TrialList	0	cvbn	-999999	16	181034	0	v	531	181565	114	-97	17	10	14	3	-10	6	4	33	0	0	0	0	4	4	2	2	0	4
Hungry_Donkey_bar_English_2	120	2	<?xml version="1.0"?>\n<Clock xmlns:dt="urn:schemas-microsoft-com:datatypes"><Description dt:dt="string">E-Prime Primary Realtime Clock</Description><StartTime><Timestamp dt:dt="int">0</Timestamp><DateUtc dt:dt="string">2015-08-12T17:02:58Z</DateUtc></StartTime><FrequencyChanges><FrequencyChange><Frequency dt:dt="r8">3507705</Frequency><Timestamp dt:dt="r8">260015014992</Timestamp><Current dt:dt="r8">0</Current><DateUtc dt:dt="string">2015-08-12T17:02:58Z</DateUtc></FrequencyChange></FrequencyChanges></Clock>\n	Hungry_Donkey_bar_English_2-120-2	60.018	95	1.0.0.18	1	-1977275071	Standard	2.0.10.353	2.0.10.353	08-12-2015	8/12/2015 5:02:58 PM	13:02:58	2.0.10.248	34	Bar50-50.bmp	52	1	?	10r_4g.bmp	0r_4g.bmp	2r_2g.bmp	0r_2g.bmp	10r_4g.bmp				TrialProc	TrialList	0	cvbn	-999999	16	183600	0	c	397	183997	118	-107	11	4	14	3	-10	2	4	34	-10	0	-2	0	4	4	2	2	-10	4
Hungry_Donkey_bar_English_2	120	2	<?xml version="1.0"?>\n<Clock xmlns:dt="urn:schemas-microsoft-com:datatypes"><Description dt:dt="string">E-Prime Primary Realtime Clock</Description><StartTime><Timestamp dt:dt="int">0</Timestamp><DateUtc dt:dt="string">2015-08-12T17:02:58Z</DateUtc></StartTime><FrequencyChanges><FrequencyChange><Frequency dt:dt="r8">3507705</Frequency><Timestamp dt:dt="r8">260015014992</Timestamp><Current dt:dt="r8">0</Current><DateUtc dt:dt="string">2015-08-12T17:02:58Z</DateUtc></FrequencyChange></FrequencyChanges></Clock>\n	Hungry_Donkey_bar_English_2-120-2	60.018	95	1.0.0.18	1	-1977275071	Standard	2.0.10.353	2.0.10.353	08-12-2015	8/12/2015 5:02:58 PM	13:02:58	2.0.10.248	35	Bar50-50.bmp	53	2	?	12r_4g.bmp	0r_4g.bmp	3r_2g.bmp	0r_2g.bmp		0r_4g.bmp			TrialProc	TrialList	0	cvbn	-999999	16	186032	0	v	477	186509	122	-107	15	4	18	3	-10	5	4	35	-12	0	-3	0	4	4	2	2	0	4
Hungry_Donkey_bar_English_2	120	2	<?xml version="1.0"?>\n<Clock xmlns:dt="urn:schemas-microsoft-com:datatypes"><Description dt:dt="string">E-Prime Primary Realtime Clock</Description><StartTime><Timestamp dt:dt="int">0</Timestamp><DateUtc dt:dt="string">2015-08-12T17:02:58Z</DateUtc></StartTime><FrequencyChanges><FrequencyChange><Frequency dt:dt="r8">3507705</Frequency><Timestamp dt:dt="r8">260015014992</Timestamp><Current dt:dt="r8">0</Current><DateUtc dt:dt="string">2015-08-12T17:02:58Z</DateUtc></FrequencyChange></FrequencyChanges></Clock>\n	Hungry_Donkey_bar_English_2-120-2	60.018	95	1.0.0.18	1	-1977275071	Standard	2.0.10.353	2.0.10.353	08-12-2015	8/12/2015 5:02:58 PM	13:02:58	2.0.10.248	36	Bar50-50.bmp	53	3	?	8r_4g.bmp	50r_4g.bmp	1r_2g.bmp	10r_2g.bmp			1r_2g.bmp		TrialProc	TrialList	0	cvbn	-999999	16	188548	0	b	632	189180	124	-108	16	4	18	4	-10	1	4	36	-8	-50	-1	-10	4	4	2	2	-1	2
Hungry_Donkey_bar_English_2	120	2	<?xml version="1.0"?>\n<Clock xmlns:dt="urn:schemas-microsoft-com:datatypes"><Description dt:dt="string">E-Prime Primary Realtime Clock</Description><StartTime><Timestamp dt:dt="int">0</Timestamp><DateUtc dt:dt="string">2015-08-12T17:02:58Z</DateUtc></StartTime><FrequencyChanges><FrequencyChange><Frequency dt:dt="r8">3507705</Frequency><Timestamp dt:dt="r8">260015014992</Timestamp><Current dt:dt="r8">0</Current><DateUtc dt:dt="string">2015-08-12T17:02:58Z</DateUtc></FrequencyChange></FrequencyChanges></Clock>\n	Hungry_Donkey_bar_English_2-120-2	60.018	95	1.0.0.18	1	-1977275071	Standard	2.0.10.353	2.0.10.353	08-12-2015	8/12/2015 5:02:58 PM	13:02:58	2.0.10.248	37	Bar50-50.bmp	54	2	?	10r_4g.bmp	0r_4g.bmp	2r_2g.bmp	0r_2g.bmp		0r_4g.bmp			TrialProc	TrialList	0	cvbn	-999999	16	191214	0	v	462	191676	128	-108	20	4	22	4	-10	3	4	37	-10	0	-2	0	4	4	2	2	0	4
Hungry_Donkey_bar_English_2	120	2	<?xml version="1.0"?>\n<Clock xmlns:dt="urn:schemas-microsoft-com:datatypes"><Description dt:dt="string">E-Prime Primary Realtime Clock</Description><StartTime><Timestamp dt:dt="int">0</Timestamp><DateUtc dt:dt="string">2015-08-12T17:02:58Z</DateUtc></StartTime><FrequencyChanges><FrequencyChange><Frequency dt:dt="r8">3507705</Frequency><Timestamp dt:dt="r8">260015014992</Timestamp><Current dt:dt="r8">0</Current><DateUtc dt:dt="string">2015-08-12T17:02:58Z</DateUtc></FrequencyChange></FrequencyChanges></Clock>\n	Hungry_Donkey_bar_English_2-120-2	60.018	95	1.0.0.18	1	-1977275071	Standard	2.0.10.353	2.0.10.353	08-12-2015	8/12/2015 5:02:58 PM	13:02:58	2.0.10.248	38	Bar50-50.bmp	55	2	?	0r_4g.bmp	0r_4g.bmp	0r_2g.bmp	0r_2g.bmp		0r_4g.bmp			TrialProc	TrialList	0	cvbn	-999999	16	193713	0	v	587	194300	132	-108	24	4	26	4	-10	8	4	38	0	0	0	0	4	4	2	2	0	4
Hungry_Donkey_bar_English_2	120	2	<?xml version="1.0"?>\n<Clock xmlns:dt="urn:schemas-microsoft-com:datatypes"><Description dt:dt="string">E-Prime Primary Realtime Clock</Description><StartTime><Timestamp dt:dt="int">0</Timestamp><DateUtc dt:dt="string">2015-08-12T17:02:58Z</DateUtc></StartTime><FrequencyChanges><FrequencyChange><Frequency dt:dt="r8">3507705</Frequency><Timestamp dt:dt="r8">260015014992</Timestamp><Current dt:dt="r8">0</Current><DateUtc dt:dt="string">2015-08-12T17:02:58Z</DateUtc></FrequencyChange></FrequencyChanges></Clock>\n	Hungry_Donkey_bar_English_2-120-2	60.018	95	1.0.0.18	1	-1977275071	Standard	2.0.10.353	2.0.10.353	08-12-2015	8/12/2015 5:02:58 PM	13:02:58	2.0.10.248	39	Bar50-50.bmp	54	1	?	10r_4g.bmp	0r_4g.bmp	2r_2g.bmp	0r_2g.bmp	10r_4g.bmp				TrialProc	TrialList	0	cvbn	-999999	16	196329	0	c	499	196828	136	-118	18	-2	26	4	-10	4	4	39	-10	0	-2	0	4	4	2	2	-10	4
Hungry_Donkey_bar_English_2	120	2	<?xml version="1.0"?>\n<Clock xmlns:dt="urn:schemas-microsoft-com:datatypes"><Description dt:dt="string">E-Prime Primary Realtime Clock</Description><StartTime><Timestamp dt:dt="int">0</Timestamp><DateUtc dt:dt="string">2015-08-12T17:02:58Z</DateUtc></StartTime><FrequencyChanges><FrequencyChange><Frequency dt:dt="r8">3507705</Frequency><Timestamp dt:dt="r8">260015014992</Timestamp><Current dt:dt="r8">0</Current><DateUtc dt:dt="string">2015-08-12T17:02:58Z</DateUtc></FrequencyChange></FrequencyChanges></Clock>\n	Hungry_Donkey_bar_English_2-120-2	60.018	95	1.0.0.18	1	-1977275071	Standard	2.0.10.353	2.0.10.353	08-12-2015	8/12/2015 5:02:58 PM	13:02:58	2.0.10.248	40	Bar50-50.bmp	54	2	?	0r_4g.bmp	0r_4g.bmp	0r_2g.bmp	0r_2g.bmp		0r_4g.bmp			TrialProc	TrialList	0	cvbn	-999999	16	198862	0	v	750	199612	140	-118	22	-2	30	4	-10	9	4	40	0	0	0	0	4	4	2	2	0	4
Hungry_Donkey_bar_English_2	120	2	<?xml version="1.0"?>\n<Clock xmlns:dt="urn:schemas-microsoft-com:datatypes"><Description dt:dt="string">E-Prime Primary Realtime Clock</Description><StartTime><Timestamp dt:dt="int">0</Timestamp><DateUtc dt:dt="string">2015-08-12T17:02:58Z</DateUtc></StartTime><FrequencyChanges><FrequencyChange><Frequency dt:dt="r8">3507705</Frequency><Timestamp dt:dt="r8">260015014992</Timestamp><Current dt:dt="r8">0</Current><DateUtc dt:dt="string">2015-08-12T17:02:58Z</DateUtc></FrequencyChange></FrequencyChanges></Clock>\n	Hungry_Donkey_bar_English_2-120-2	60.018	95	1.0.0.18	1	-1977275071	Standard	2.0.10.353	2.0.10.353	08-12-2015	8/12/2015 5:02:58 PM	13:02:58	2.0.10.248	41	Bar50-50.bmp	46	2	?	8r_4g.bmp	50r_4g.bmp	1r_2g.bmp	10r_2g.bmp		50r_4g.bmp			TrialProc	TrialList	0	cvbn	-999999	16	201644	0	v	656	202300	144	-168	-24	-2	-16	4	-10	1	5	41	-8	-50	-1	-10	4	4	2	2	-50	4
Hungry_Donkey_bar_English_2	120	2	<?xml version="1.0"?>\n<Clock xmlns:dt="urn:schemas-microsoft-com:datatypes"><Description dt:dt="string">E-Prime Primary Realtime Clock</Description><StartTime><Timestamp dt:dt="int">0</Timestamp><DateUtc dt:dt="string">2015-08-12T17:02:58Z</DateUtc></StartTime><FrequencyChanges><FrequencyChange><Frequency dt:dt="r8">3507705</Frequency><Timestamp dt:dt="r8">260015014992</Timestamp><Current dt:dt="r8">0</Current><DateUtc dt:dt="string">2015-08-12T17:02:58Z</DateUtc></FrequencyChange></FrequencyChanges></Clock>\n	Hungry_Donkey_bar_English_2-120-2	60.018	95	1.0.0.18	1	-1977275071	Standard	2.0.10.353	2.0.10.353	08-12-2015	8/12/2015 5:02:58 PM	13:02:58	2.0.10.248	42	Bar50-50.bmp	46	3	?	10r_4g.bmp	0r_4g.bmp	2r_2g.bmp	0r_2g.bmp			2r_2g.bmp		TrialProc	TrialList	0	cvbn	-999999	16	204327	0	b	485	204812	146	-170	-24	-2	-16	4	-10	2	5	42	-10	0	-2	0	4	4	2	2	-2	2
Hungry_Donkey_bar_English_2	120	2	<?xml version="1.0"?>\n<Clock xmlns:dt="urn:schemas-microsoft-com:datatypes"><Description dt:dt="string">E-Prime Primary Realtime Clock</Description><StartTime><Timestamp dt:dt="int">0</Timestamp><DateUtc dt:dt="string">2015-08-12T17:02:58Z</DateUtc></StartTime><FrequencyChanges><FrequencyChange><Frequency dt:dt="r8">3507705</Frequency><Timestamp dt:dt="r8">260015014992</Timestamp><Current dt:dt="r8">0</Current><DateUtc dt:dt="string">2015-08-12T17:02:58Z</DateUtc></FrequencyChange></FrequencyChanges></Clock>\n	Hungry_Donkey_bar_English_2-120-2	60.018	95	1.0.0.18	1	-1977275071	Standard	2.0.10.353	2.0.10.353	08-12-2015	8/12/2015 5:02:58 PM	13:02:58	2.0.10.248	43	Bar50-50.bmp	47	2	?	0r_4g.bmp	0r_4g.bmp	0r_2g.bmp	0r_2g.bmp		0r_4g.bmp			TrialProc	TrialList	0	cvbn	-999999	16	206843	0	v	1440	208283	150	-170	-20	-2	-12	4	-10	10	5	43	0	0	0	0	4	4	2	2	0	4
Hungry_Donkey_bar_English_2	120	2	<?xml version="1.0"?>\n<Clock xmlns:dt="urn:schemas-microsoft-com:datatypes"><Description dt:dt="string">E-Prime Primary Realtime Clock</Description><StartTime><Timestamp dt:dt="int">0</Timestamp><DateUtc dt:dt="string">2015-08-12T17:02:58Z</DateUtc></StartTime><FrequencyChanges><FrequencyChange><Frequency dt:dt="r8">3507705</Frequency><Timestamp dt:dt="r8">260015014992</Timestamp><Current dt:dt="r8">0</Current><DateUtc dt:dt="string">2015-08-12T17:02:58Z</DateUtc></FrequencyChange></FrequencyChanges></Clock>\n	Hungry_Donkey_bar_English_2-120-2	60.018	95	1.0.0.18	1	-1977275071	Standard	2.0.10.353	2.0.10.353	08-12-2015	8/12/2015 5:02:58 PM	13:02:58	2.0.10.248	44	Bar50-50.bmp	48	1	?	0r_4g.bmp	0r_4g.bmp	0r_2g.bmp	0r_2g.bmp	0r_4g.bmp				TrialProc	TrialList	0	cvbn	-999999	16	210308	0	c	583	210891	154	-170	-16	2	-12	4	-10	7	5	44	0	0	0	0	4	4	2	2	0	4
Hungry_Donkey_bar_English_2	120	2	<?xml version="1.0"?>\n<Clock xmlns:dt="urn:schemas-microsoft-com:datatypes"><Description dt:dt="string">E-Prime Primary Realtime Clock</Description><StartTime><Timestamp dt:dt="int">0</Timestamp><DateUtc dt:dt="string">2015-08-12T17:02:58Z</DateUtc></StartTime><FrequencyChanges><FrequencyChange><Frequency dt:dt="r8">3507705</Frequency><Timestamp dt:dt="r8">260015014992</Timestamp><Current dt:dt="r8">0</Current><DateUtc dt:dt="string">2015-08-12T17:02:58Z</DateUtc></FrequencyChange></FrequencyChanges></Clock>\n	Hungry_Donkey_bar_English_2-120-2	60.018	95	1.0.0.18	1	-1977275071	Standard	2.0.10.353	2.0.10.353	08-12-2015	8/12/2015 5:02:58 PM	13:02:58	2.0.10.248	45	Bar50-50.bmp	48	2	?	12r_4g.bmp	0r_4g.bmp	3r_2g.bmp	0r_2g.bmp		0r_4g.bmp			TrialProc	TrialList	0	cvbn	-999999	16	212924	0	v	719	213643	158	-170	-12	2	-8	4	-10	5	5	45	-12	0	-3	0	4	4	2	2	0	4
Hungry_Donkey_bar_English_2	120	2	<?xml version="1.0"?>\n<Clock xmlns:dt="urn:schemas-microsoft-com:datatypes"><Description dt:dt="string">E-Prime Primary Realtime Clock</Description><StartTime><Timestamp dt:dt="int">0</Timestamp><DateUtc dt:dt="string">2015-08-12T17:02:58Z</DateUtc></StartTime><FrequencyChanges><FrequencyChange><Frequency dt:dt="r8">3507705</Frequency><Timestamp dt:dt="r8">260015014992</Timestamp><Current dt:dt="r8">0</Current><DateUtc dt:dt="string">2015-08-12T17:02:58Z</DateUtc></FrequencyChange></FrequencyChanges></Clock>\n	Hungry_Donkey_bar_English_2-120-2	60.018	95	1.0.0.18	1	-1977275071	Standard	2.0.10.353	2.0.10.353	08-12-2015	8/12/2015 5:02:58 PM	13:02:58	2.0.10.248	46	Bar50-50.bmp	48	3	?	0r_4g.bmp	0r_4g.bmp	0r_2g.bmp	0r_2g.bmp			0r_2g.bmp		TrialProc	TrialList	0	cvbn	-999999	16	215673	0	b	674	216347	160	-170	-10	2	-8	6	-10	9	5	46	0	0	0	0	4	4	2	2	0	2
Hungry_Donkey_bar_English_2	120	2	<?xml version="1.0"?>\n<Clock xmlns:dt="urn:schemas-microsoft-com:datatypes"><Description dt:dt="string">E-Prime Primary Realtime Clock</Description><StartTime><Timestamp dt:dt="int">0</Timestamp><DateUtc dt:dt="string">2015-08-12T17:02:58Z</DateUtc></StartTime><FrequencyChanges><FrequencyChange><Frequency dt:dt="r8">3507705</Frequency><Timestamp dt:dt="r8">260015014992</Timestamp><Current dt:dt="r8">0</Current><DateUtc dt:dt="string">2015-08-12T17:02:58Z</DateUtc></FrequencyChange></FrequencyChanges></Clock>\n	Hungry_Donkey_bar_English_2-120-2	60.018	95	1.0.0.18	1	-1977275071	Standard	2.0.10.353	2.0.10.353	08-12-2015	8/12/2015 5:02:58 PM	13:02:58	2.0.10.248	47	Bar50-50.bmp	49	4	?	0r_4g.bmp	0r_4g.bmp	0r_2g.bmp	0r_2g.bmp				0r_2g.bmp	TrialProc	TrialList	0	cvbn	-999999	16	218373	0	n	678	219051	162	-170	-8	2	-8	6	-8	6	5	47	0	0	0	0	4	4	2	2	0	2
Hungry_Donkey_bar_English_2	120	2	<?xml version="1.0"?>\n<Clock xmlns:dt="urn:schemas-microsoft-com:datatypes"><Description dt:dt="string">E-Prime Primary Realtime Clock</Description><StartTime><Timestamp dt:dt="int">0</Timestamp><DateUtc dt:dt="string">2015-08-12T17:02:58Z</DateUtc></StartTime><FrequencyChanges><FrequencyChange><Frequency dt:dt="r8">3507705</Frequency><Timestamp dt:dt="r8">260015014992</Timestamp><Current dt:dt="r8">0</Current><DateUtc dt:dt="string">2015-08-12T17:02:58Z</DateUtc></FrequencyChange></FrequencyChanges></Clock>\n	Hungry_Donkey_bar_English_2-120-2	60.018	95	1.0.0.18	1	-1977275071	Standard	2.0.10.353	2.0.10.353	08-12-2015	8/12/2015 5:02:58 PM	13:02:58	2.0.10.248	48	Bar50-50.bmp	49	3	?	0r_4g.bmp	0r_4g.bmp	0r_2g.bmp	0r_2g.bmp			0r_2g.bmp		TrialProc	TrialList	0	cvbn	-999999	17	221089	0	b	682	221771	164	-170	-6	2	-8	8	-8	8	5	48	0	0	0	0	4	4	2	2	0	2
Hungry_Donkey_bar_English_2	120	2	<?xml version="1.0"?>\n<Clock xmlns:dt="urn:schemas-microsoft-com:datatypes"><Description dt:dt="string">E-Prime Primary Realtime Clock</Description><StartTime><Timestamp dt:dt="int">0</Timestamp><DateUtc dt:dt="string">2015-08-12T17:02:58Z</DateUtc></StartTime><FrequencyChanges><FrequencyChange><Frequency dt:dt="r8">3507705</Frequency><Timestamp dt:dt="r8">260015014992</Timestamp><Current dt:dt="r8">0</Current><DateUtc dt:dt="string">2015-08-12T17:02:58Z</DateUtc></FrequencyChange></FrequencyChanges></Clock>\n	Hungry_Donkey_bar_English_2-120-2	60.018	95	1.0.0.18	1	-1977275071	Standard	2.0.10.353	2.0.10.353	08-12-2015	8/12/2015 5:02:58 PM	13:02:58	2.0.10.248	49	Bar50-50.bmp	49	4	?	10r_4g.bmp	0r_4g.bmp	2r_2g.bmp	0r_2g.bmp				0r_2g.bmp	TrialProc	TrialList	0	cvbn	-999999	16	223804	0	n	366	224170	166	-170	-4	2	-8	8	-6	3	5	49	-10	0	-2	0	4	4	2	2	0	2
Hungry_Donkey_bar_English_2	120	2	<?xml version="1.0"?>\n<Clock xmlns:dt="urn:schemas-microsoft-com:datatypes"><Description dt:dt="string">E-Prime Primary Realtime Clock</Description><StartTime><Timestamp dt:dt="int">0</Timestamp><DateUtc dt:dt="string">2015-08-12T17:02:58Z</DateUtc></StartTime><FrequencyChanges><FrequencyChange><Frequency dt:dt="r8">3507705</Frequency><Timestamp dt:dt="r8">260015014992</Timestamp><Current dt:dt="r8">0</Current><DateUtc dt:dt="string">2015-08-12T17:02:58Z</DateUtc></FrequencyChange></FrequencyChanges></Clock>\n	Hungry_Donkey_bar_English_2-120-2	60.018	95	1.0.0.18	1	-1977275071	Standard	2.0.10.353	2.0.10.353	08-12-2015	8/12/2015 5:02:58 PM	13:02:58	2.0.10.248	50	Bar50-50.bmp	49	3	?	10r_4g.bmp	0r_4g.bmp	2r_2g.bmp	0r_2g.bmp			2r_2g.bmp		TrialProc	TrialList	0	cvbn	-999999	16	226204	0	b	590	226794	168	-172	-4	2	-8	8	-6	4	5	50	-10	0	-2	0	4	4	2	2	-2	2
Hungry_Donkey_bar_English_2	120	2	<?xml version="1.0"?>\n<Clock xmlns:dt="urn:schemas-microsoft-com:datatypes"><Description dt:dt="string">E-Prime Primary Realtime Clock</Description><StartTime><Timestamp dt:dt="int">0</Timestamp><DateUtc dt:dt="string">2015-08-12T17:02:58Z</DateUtc></StartTime><FrequencyChanges><FrequencyChange><Frequency dt:dt="r8">3507705</Frequency><Timestamp dt:dt="r8">260015014992</Timestamp><Current dt:dt="r8">0</Current><DateUtc dt:dt="string">2015-08-12T17:02:58Z</DateUtc></FrequencyChange></FrequencyChanges></Clock>\n	Hungry_Donkey_bar_English_2-120-2	60.018	95	1.0.0.18	1	-1977275071	Standard	2.0.10.353	2.0.10.353	08-12-2015	8/12/2015 5:02:58 PM	13:02:58	2.0.10.248	51	Bar50-50.bmp	44	2	?	8r_4g.bmp	50r_4g.bmp	1r_2g.bmp	10r_2g.bmp		50r_4g.bmp			TrialProc	TrialList	0	cvbn	-999999	16	228820	0	v	454	229274	172	-222	-50	2	-54	8	-6	1	6	51	-8	-50	-1	-10	4	4	2	2	-50	4
Hungry_Donkey_bar_English_2	120	2	<?xml version="1.0"?>\n<Clock xmlns:dt="urn:schemas-microsoft-com:datatypes"><Description dt:dt="string">E-Prime Primary Realtime Clock</Description><StartTime><Timestamp dt:dt="int">0</Timestamp><DateUtc dt:dt="string">2015-08-12T17:02:58Z</DateUtc></StartTime><FrequencyChanges><FrequencyChange><Frequency dt:dt="r8">3507705</Frequency><Timestamp dt:dt="r8">260015014992</Timestamp><Current dt:dt="r8">0</Current><DateUtc dt:dt="string">2015-08-12T17:02:58Z</DateUtc></FrequencyChange></FrequencyChanges></Clock>\n	Hungry_Donkey_bar_English_2-120-2	60.018	95	1.0.0.18	1	-1977275071	Standard	2.0.10.353	2.0.10.353	08-12-2015	8/12/2015 5:02:58 PM	13:02:58	2.0.10.248	52	Bar50-50.bmp	44	1	?	0r_4g.bmp	0r_4g.bmp	0r_2g.bmp	0r_2g.bmp	0r_4g.bmp				TrialProc	TrialList	0	cvbn	-999999	16	231302	0	c	500	231802	176	-222	-46	6	-54	8	-6	6	6	52	0	0	0	0	4	4	2	2	0	4
Hungry_Donkey_bar_English_2	120	2	<?xml version="1.0"?>\n<Clock xmlns:dt="urn:schemas-microsoft-com:datatypes"><Description dt:dt="string">E-Prime Primary Realtime Clock</Description><StartTime><Timestamp dt:dt="int">0</Timestamp><DateUtc dt:dt="string">2015-08-12T17:02:58Z</DateUtc></StartTime><FrequencyChanges><FrequencyChange><Frequency dt:dt="r8">3507705</Frequency><Timestamp dt:dt="r8">260015014992</Timestamp><Current dt:dt="r8">0</Current><DateUtc dt:dt="string">2015-08-12T17:02:58Z</DateUtc></FrequencyChange></FrequencyChanges></Clock>\n	Hungry_Donkey_bar_English_2-120-2	60.018	95	1.0.0.18	1	-1977275071	Standard	2.0.10.353	2.0.10.353	08-12-2015	8/12/2015 5:02:58 PM	13:02:58	2.0.10.248	53	Bar50-50.bmp	45	1	?	0r_4g.bmp	0r_4g.bmp	0r_2g.bmp	0r_2g.bmp	0r_4g.bmp				TrialProc	TrialList	0	cvbn	-999999	16	233835	0	c	1055	234890	180	-222	-42	10	-54	8	-6	7	6	53	0	0	0	0	4	4	2	2	0	4
Hungry_Donkey_bar_English_2	120	2	<?xml version="1.0"?>\n<Clock xmlns:dt="urn:schemas-microsoft-com:datatypes"><Description dt:dt="string">E-Prime Primary Realtime Clock</Description><StartTime><Timestamp dt:dt="int">0</Timestamp><DateUtc dt:dt="string">2015-08-12T17:02:58Z</DateUtc></StartTime><FrequencyChanges><FrequencyChange><Frequency dt:dt="r8">3507705</Frequency><Timestamp dt:dt="r8">260015014992</Timestamp><Current dt:dt="r8">0</Current><DateUtc dt:dt="string">2015-08-12T17:02:58Z</DateUtc></FrequencyChange></FrequencyChanges></Clock>\n	Hungry_Donkey_bar_English_2-120-2	60.018	95	1.0.0.18	1	-1977275071	Standard	2.0.10.353	2.0.10.353	08-12-2015	8/12/2015 5:02:58 PM	13:02:58	2.0.10.248	54	Bar50-50.bmp	44	1	?	10r_4g.bmp	0r_4g.bmp	2r_2g.bmp	0r_2g.bmp	10r_4g.bmp				TrialProc	TrialList	0	cvbn	-999999	16	236917	0	c	693	237610	184	-232	-48	4	-54	8	-6	3	6	54	-10	0	-2	0	4	4	2	2	-10	4
Hungry_Donkey_bar_English_2	120	2	<?xml version="1.0"?>\n<Clock xmlns:dt="urn:schemas-microsoft-com:datatypes"><Description dt:dt="string">E-Prime Primary Realtime Clock</Description><StartTime><Timestamp dt:dt="int">0</Timestamp><DateUtc dt:dt="string">2015-08-12T17:02:58Z</DateUtc></StartTime><FrequencyChanges><FrequencyChange><Frequency dt:dt="r8">3507705</Frequency><Timestamp dt:dt="r8">260015014992</Timestamp><Current dt:dt="r8">0</Current><DateUtc dt:dt="string">2015-08-12T17:02:58Z</DateUtc></FrequencyChange></FrequencyChanges></Clock>\n	Hungry_Donkey_bar_English_2-120-2	60.018	95	1.0.0.18	1	-1977275071	Standard	2.0.10.353	2.0.10.353	08-12-2015	8/12/2015 5:02:58 PM	13:02:58	2.0.10.248	55	Bar50-50.bmp	45	2	?	10r_4g.bmp	0r_4g.bmp	2r_2g.bmp	0r_2g.bmp		0r_4g.bmp			TrialProc	TrialList	0	cvbn	-999999	15	239633	0	v	1048	240681	188	-232	-44	4	-50	8	-6	2	6	55	-10	0	-2	0	4	4	2	2	0	4
Hungry_Donkey_bar_English_2	120	2	<?xml version="1.0"?>\n<Clock xmlns:dt="urn:schemas-microsoft-com:datatypes"><Description dt:dt="string">E-Prime Primary Realtime Clock</Description><StartTime><Timestamp dt:dt="int">0</Timestamp><DateUtc dt:dt="string">2015-08-12T17:02:58Z</DateUtc></StartTime><FrequencyChanges><FrequencyChange><Frequency dt:dt="r8">3507705</Frequency><Timestamp dt:dt="r8">260015014992</Timestamp><Current dt:dt="r8">0</Current><DateUtc dt:dt="string">2015-08-12T17:02:58Z</DateUtc></FrequencyChange></FrequencyChanges></Clock>\n	Hungry_Donkey_bar_English_2-120-2	60.018	95	1.0.0.18	1	-1977275071	Standard	2.0.10.353	2.0.10.353	08-12-2015	8/12/2015 5:02:58 PM	13:02:58	2.0.10.248	56	Bar50-50.bmp	45	3	?	10r_4g.bmp	0r_4g.bmp	2r_2g.bmp	0r_2g.bmp			2r_2g.bmp		TrialProc	TrialList	0	cvbn	-999999	17	242716	0	b	957	243673	190	-234	-44	4	-50	8	-6	4	6	56	-10	0	-2	0	4	4	2	2	-2	2
Hungry_Donkey_bar_English_2	120	2	<?xml version="1.0"?>\n<Clock xmlns:dt="urn:schemas-microsoft-com:datatypes"><Description dt:dt="string">E-Prime Primary Realtime Clock</Description><StartTime><Timestamp dt:dt="int">0</Timestamp><DateUtc dt:dt="string">2015-08-12T17:02:58Z</DateUtc></StartTime><FrequencyChanges><FrequencyChange><Frequency dt:dt="r8">3507705</Frequency><Timestamp dt:dt="r8">260015014992</Timestamp><Current dt:dt="r8">0</Current><DateUtc dt:dt="string">2015-08-12T17:02:58Z</DateUtc></FrequencyChange></FrequencyChanges></Clock>\n	Hungry_Donkey_bar_English_2-120-2	60.018	95	1.0.0.18	1	-1977275071	Standard	2.0.10.353	2.0.10.353	08-12-2015	8/12/2015 5:02:58 PM	13:02:58	2.0.10.248	57	Bar50-50.bmp	45	2	?	0r_4g.bmp	0r_4g.bmp	0r_2g.bmp	0r_2g.bmp		0r_4g.bmp			TrialProc	TrialList	0	cvbn	-999999	16	245698	0	v	599	246297	194	-234	-40	4	-46	8	-6	9	6	57	0	0	0	0	4	4	2	2	0	4
Hungry_Donkey_bar_English_2	120	2	<?xml version="1.0"?>\n<Clock xmlns:dt="urn:schemas-microsoft-com:datatypes"><Description dt:dt="string">E-Prime Primary Realtime Clock</Description><StartTime><Timestamp dt:dt="int">0</Timestamp><DateUtc dt:dt="string">2015-08-12T17:02:58Z</DateUtc></StartTime><FrequencyChanges><FrequencyChange><Frequency dt:dt="r8">3507705</Frequency><Timestamp dt:dt="r8">260015014992</Timestamp><Current dt:dt="r8">0</Current><DateUtc dt:dt="string">2015-08-12T17:02:58Z</DateUtc></FrequencyChange></FrequencyChanges></Clock>\n	Hungry_Donkey_bar_English_2-120-2	60.018	95	1.0.0.18	1	-1977275071	Standard	2.0.10.353	2.0.10.353	08-12-2015	8/12/2015 5:02:58 PM	13:02:58	2.0.10.248	58	Bar50-50.bmp	46	1	?	0r_4g.bmp	0r_4g.bmp	0r_2g.bmp	0r_2g.bmp	0r_4g.bmp				TrialProc	TrialList	0	cvbn	-999999	17	248331	0	c	1262	249593	198	-234	-36	8	-46	8	-6	10	6	58	0	0	0	0	4	4	2	2	0	4
Hungry_Donkey_bar_English_2	120	2	<?xml version="1.0"?>\n<Clock xmlns:dt="urn:schemas-microsoft-com:datatypes"><Description dt:dt="string">E-Prime Primary Realtime Clock</Description><StartTime><Timestamp dt:dt="int">0</Timestamp><DateUtc dt:dt="string">2015-08-12T17:02:58Z</DateUtc></StartTime><FrequencyChanges><FrequencyChange><Frequency dt:dt="r8">3507705</Frequency><Timestamp dt:dt="r8">260015014992</Timestamp><Current dt:dt="r8">0</Current><DateUtc dt:dt="string">2015-08-12T17:02:58Z</DateUtc></FrequencyChange></FrequencyChanges></Clock>\n	Hungry_Donkey_bar_English_2-120-2	60.018	95	1.0.0.18	1	-1977275071	Standard	2.0.10.353	2.0.10.353	08-12-2015	8/12/2015 5:02:58 PM	13:02:58	2.0.10.248	59	Bar50-50.bmp	46	2	?	0r_4g.bmp	0r_4g.bmp	0r_2g.bmp	0r_2g.bmp		0r_4g.bmp			TrialProc	TrialList	0	cvbn	-999999	16	251630	0	v	795	252425	202	-234	-32	8	-42	8	-6	8	6	59	0	0	0	0	4	4	2	2	0	4
Hungry_Donkey_bar_English_2	120	2	<?xml version="1.0"?>\n<Clock xmlns:dt="urn:schemas-microsoft-com:datatypes"><Description dt:dt="string">E-Prime Primary Realtime Clock</Description><StartTime><Timestamp dt:dt="int">0</Timestamp><DateUtc dt:dt="string">2015-08-12T17:02:58Z</DateUtc></StartTime><FrequencyChanges><FrequencyChange><Frequency dt:dt="r8">3507705</Frequency><Timestamp dt:dt="r8">260015014992</Timestamp><Current dt:dt="r8">0</Current><DateUtc dt:dt="string">2015-08-12T17:02:58Z</DateUtc></FrequencyChange></FrequencyChanges></Clock>\n	Hungry_Donkey_bar_English_2-120-2	60.018	95	1.0.0.18	1	-1977275071	Standard	2.0.10.353	2.0.10.353	08-12-2015	8/12/2015 5:02:58 PM	13:02:58	2.0.10.248	60	Bar50-50.bmp	47	2	?	12r_4g.bmp	0r_4g.bmp	3r_2g.bmp	0r_2g.bmp		0r_4g.bmp			TrialProc	TrialList	0	cvbn	-999999	16	254462	0	v	923	255385	206	-234	-28	8	-38	8	-6	5	6	60	-12	0	-3	0	4	4	2	2	0	4
Hungry_Donkey_bar_English_2	120	2	<?xml version="1.0"?>\n<Clock xmlns:dt="urn:schemas-microsoft-com:datatypes"><Description dt:dt="string">E-Prime Primary Realtime Clock</Description><StartTime><Timestamp dt:dt="int">0</Timestamp><DateUtc dt:dt="string">2015-08-12T17:02:58Z</DateUtc></StartTime><FrequencyChanges><FrequencyChange><Frequency dt:dt="r8">3507705</Frequency><Timestamp dt:dt="r8">260015014992</Timestamp><Current dt:dt="r8">0</Current><DateUtc dt:dt="string">2015-08-12T17:02:58Z</DateUtc></FrequencyChange></FrequencyChanges></Clock>\n	Hungry_Donkey_bar_English_2-120-2	60.018	95	1.0.0.18	1	-1977275071	Standard	2.0.10.353	2.0.10.353	08-12-2015	8/12/2015 5:02:58 PM	13:02:58	2.0.10.248	61	Bar50-50.bmp	46	1	?	8r_4g.bmp	50r_4g.bmp	1r_2g.bmp	10r_2g.bmp	8r_4g.bmp				TrialProc	TrialList	0	cvbn	-999999	16	257411	0	c	453	257864	210	-242	-32	4	-38	8	-6	1	7	61	-8	-50	-1	-10	4	4	2	2	-8	4
Hungry_Donkey_bar_English_2	120	2	<?xml version="1.0"?>\n<Clock xmlns:dt="urn:schemas-microsoft-com:datatypes"><Description dt:dt="string">E-Prime Primary Realtime Clock</Description><StartTime><Timestamp dt:dt="int">0</Timestamp><DateUtc dt:dt="string">2015-08-12T17:02:58Z</DateUtc></StartTime><FrequencyChanges><FrequencyChange><Frequency dt:dt="r8">3507705</Frequency><Timestamp dt:dt="r8">260015014992</Timestamp><Current dt:dt="r8">0</Current><DateUtc dt:dt="string">2015-08-12T17:02:58Z</DateUtc></FrequencyChange></FrequencyChanges></Clock>\n	Hungry_Donkey_bar_English_2-120-2	60.018	95	1.0.0.18	1	-1977275071	Standard	2.0.10.353	2.0.10.353	08-12-2015	8/12/2015 5:02:58 PM	13:02:58	2.0.10.248	62	Bar50-50.bmp	47	2	?	0r_4g.bmp	0r_4g.bmp	0r_2g.bmp	0r_2g.bmp		0r_4g.bmp			TrialProc	TrialList	0	cvbn	-999999	16	259910	0	v	578	260488	214	-242	-28	4	-34	8	-6	7	7	62	0	0	0	0	4	4	2	2	0	4
Hungry_Donkey_bar_English_2	120	2	<?xml version="1.0"?>\n<Clock xmlns:dt="urn:schemas-microsoft-com:datatypes"><Description dt:dt="string">E-Prime Primary Realtime Clock</Description><StartTime><Timestamp dt:dt="int">0</Timestamp><DateUtc dt:dt="string">2015-08-12T17:02:58Z</DateUtc></StartTime><FrequencyChanges><FrequencyChange><Frequency dt:dt="r8">3507705</Frequency><Timestamp dt:dt="r8">260015014992</Timestamp><Current dt:dt="r8">0</Current><DateUtc dt:dt="string">2015-08-12T17:02:58Z</DateUtc></FrequencyChange></FrequencyChanges></Clock>\n	Hungry_Donkey_bar_English_2-120-2	60.018	95	1.0.0.18	1	-1977275071	Standard	2.0.10.353	2.0.10.353	08-12-2015	8/12/2015 5:02:58 PM	13:02:58	2.0.10.248	63	Bar50-50.bmp	47	3	?	10r_4g.bmp	0r_4g.bmp	2r_2g.bmp	0r_2g.bmp			2r_2g.bmp		TrialProc	TrialList	0	cvbn	-999999	16	262526	0	b	1178	263704	216	-244	-28	4	-34	8	-6	4	7	63	-10	0	-2	0	4	4	2	2	-2	2
Hungry_Donkey_bar_English_2	120	2	<?xml version="1.0"?>\n<Clock xmlns:dt="urn:schemas-microsoft-com:datatypes"><Description dt:dt="string">E-Prime Primary Realtime Clock</Description><StartTime><Timestamp dt:dt="int">0</Timestamp><DateUtc dt:dt="string">2015-08-12T17:02:58Z</DateUtc></StartTime><FrequencyChanges><FrequencyChange><Frequency dt:dt="r8">3507705</Frequency><Timestamp dt:dt="r8">260015014992</Timestamp><Current dt:dt="r8">0</Current><DateUtc dt:dt="string">2015-08-12T17:02:58Z</DateUtc></FrequencyChange></FrequencyChanges></Clock>\n	Hungry_Donkey_bar_English_2-120-2	60.018	95	1.0.0.18	1	-1977275071	Standard	2.0.10.353	2.0.10.353	08-12-2015	8/12/2015 5:02:58 PM	13:02:58	2.0.10.248	64	Bar50-50.bmp	47	2	?	0r_4g.bmp	0r_4g.bmp	0r_2g.bmp	0r_2g.bmp		0r_4g.bmp			TrialProc	TrialList	0	cvbn	-999999	16	265742	0	v	442	266184	220	-244	-24	4	-30	8	-6	9	7	64	0	0	0	0	4	4	2	2	0	4
Hungry_Donkey_bar_English_2	120	2	<?xml version="1.0"?>\n<Clock xmlns:dt="urn:schemas-microsoft-com:datatypes"><Description dt:dt="string">E-Prime Primary Realtime Clock</Description><StartTime><Timestamp dt:dt="int">0</Timestamp><DateUtc dt:dt="string">2015-08-12T17:02:58Z</DateUtc></StartTime><FrequencyChanges><FrequencyChange><Frequency dt:dt="r8">3507705</Frequency><Timestamp dt:dt="r8">260015014992</Timestamp><Current dt:dt="r8">0</Current><DateUtc dt:dt="string">2015-08-12T17:02:58Z</DateUtc></FrequencyChange></FrequencyChanges></Clock>\n	Hungry_Donkey_bar_English_2-120-2	60.018	95	1.0.0.18	1	-1977275071	Standard	2.0.10.353	2.0.10.353	08-12-2015	8/12/2015 5:02:58 PM	13:02:58	2.0.10.248	65	Bar50-50.bmp	48	4	?	0r_4g.bmp	0r_4g.bmp	0r_2g.bmp	0r_2g.bmp				0r_2g.bmp	TrialProc	TrialList	0	cvbn	-999999	16	268208	0	n	632	268840	222	-244	-22	4	-30	8	-4	10	7	65	0	0	0	0	4	4	2	2	0	2
Hungry_Donkey_bar_English_2	120	2	<?xml version="1.0"?>\n<Clock xmlns:dt="urn:schemas-microsoft-com:datatypes"><Description dt:dt="string">E-Prime Primary Realtime Clock</Description><StartTime><Timestamp dt:dt="int">0</Timestamp><DateUtc dt:dt="string">2015-08-12T17:02:58Z</DateUtc></StartTime><FrequencyChanges><FrequencyChange><Frequency dt:dt="r8">3507705</Frequency><Timestamp dt:dt="r8">260015014992</Timestamp><Current dt:dt="r8">0</Current><DateUtc dt:dt="string">2015-08-12T17:02:58Z</DateUtc></FrequencyChange></FrequencyChanges></Clock>\n	Hungry_Donkey_bar_English_2-120-2	60.018	95	1.0.0.18	1	-1977275071	Standard	2.0.10.353	2.0.10.353	08-12-2015	8/12/2015 5:02:58 PM	13:02:58	2.0.10.248	66	Bar50-50.bmp	48	4	?	12r_4g.bmp	0r_4g.bmp	3r_2g.bmp	0r_2g.bmp				0r_2g.bmp	TrialProc	TrialList	0	cvbn	-999999	16	270874	0	n	526	271400	224	-244	-20	4	-30	8	-2	5	7	66	-12	0	-3	0	4	4	2	2	0	2
Hungry_Donkey_bar_English_2	120	2	<?xml version="1.0"?>\n<Clock xmlns:dt="urn:schemas-microsoft-com:datatypes"><Description dt:dt="string">E-Prime Primary Realtime Clock</Description><StartTime><Timestamp dt:dt="int">0</Timestamp><DateUtc dt:dt="string">2015-08-12T17:02:58Z</DateUtc></StartTime><FrequencyChanges><FrequencyChange><Frequency dt:dt="r8">3507705</Frequency><Timestamp dt:dt="r8">260015014992</Timestamp><Current dt:dt="r8">0</Current><DateUtc dt:dt="string">2015-08-12T17:02:58Z</DateUtc></FrequencyChange></FrequencyChanges></Clock>\n	Hungry_Donkey_bar_English_2-120-2	60.018	95	1.0.0.18	1	-1977275071	Standard	2.0.10.353	2.0.10.353	08-12-2015	8/12/2015 5:02:58 PM	13:02:58	2.0.10.248	67	Bar50-50.bmp	48	4	?	10r_4g.bmp	0r_4g.bmp	2r_2g.bmp	0r_2g.bmp				0r_2g.bmp	TrialProc	TrialList	0	cvbn	-999999	16	273440	0	n	1016	274456	226	-244	-18	4	-30	8	0	2	7	67	-10	0	-2	0	4	4	2	2	0	2
Hungry_Donkey_bar_English_2	120	2	<?xml version="1.0"?>\n<Clock xmlns:dt="urn:schemas-microsoft-com:datatypes"><Description dt:dt="string">E-Prime Primary Realtime Clock</Description><StartTime><Timestamp dt:dt="int">0</Timestamp><DateUtc dt:dt="string">2015-08-12T17:02:58Z</DateUtc></StartTime><FrequencyChanges><FrequencyChange><Frequency dt:dt="r8">3507705</Frequency><Timestamp dt:dt="r8">260015014992</Timestamp><Current dt:dt="r8">0</Current><DateUtc dt:dt="string">2015-08-12T17:02:58Z</DateUtc></FrequencyChange></FrequencyChanges></Clock>\n	Hungry_Donkey_bar_English_2-120-2	60.018	95	1.0.0.18	1	-1977275071	Standard	2.0.10.353	2.0.10.353	08-12-2015	8/12/2015 5:02:58 PM	13:02:58	2.0.10.248	68	Bar50-50.bmp	48	4	?	10r_4g.bmp	0r_4g.bmp	2r_2g.bmp	0r_2g.bmp				0r_2g.bmp	TrialProc	TrialList	0	cvbn	-999999	16	276489	0	n	382	276871	228	-244	-16	4	-30	8	2	3	7	68	-10	0	-2	0	4	4	2	2	0	2
Hungry_Donkey_bar_English_2	120	2	<?xml version="1.0"?>\n<Clock xmlns:dt="urn:schemas-microsoft-com:datatypes"><Description dt:dt="string">E-Prime Primary Realtime Clock</Description><StartTime><Timestamp dt:dt="int">0</Timestamp><DateUtc dt:dt="string">2015-08-12T17:02:58Z</DateUtc></StartTime><FrequencyChanges><FrequencyChange><Frequency dt:dt="r8">3507705</Frequency><Timestamp dt:dt="r8">260015014992</Timestamp><Current dt:dt="r8">0</Current><DateUtc dt:dt="string">2015-08-12T17:02:58Z</DateUtc></FrequencyChange></FrequencyChanges></Clock>\n	Hungry_Donkey_bar_English_2-120-2	60.018	95	1.0.0.18	1	-1977275071	Standard	2.0.10.353	2.0.10.353	08-12-2015	8/12/2015 5:02:58 PM	13:02:58	2.0.10.248	69	Bar50-50.bmp	49	4	?	0r_4g.bmp	0r_4g.bmp	0r_2g.bmp	0r_2g.bmp				0r_2g.bmp	TrialProc	TrialList	0	cvbn	-999999	16	278905	0	n	302	279207	230	-244	-14	4	-30	8	4	6	7	69	0	0	0	0	4	4	2	2	0	2
Hungry_Donkey_bar_English_2	120	2	<?xml version="1.0"?>\n<Clock xmlns:dt="urn:schemas-microsoft-com:datatypes"><Description dt:dt="string">E-Prime Primary Realtime Clock</Description><StartTime><Timestamp dt:dt="int">0</Timestamp><DateUtc dt:dt="string">2015-08-12T17:02:58Z</DateUtc></StartTime><FrequencyChanges><FrequencyChange><Frequency dt:dt="r8">3507705</Frequency><Timestamp dt:dt="r8">260015014992</Timestamp><Current dt:dt="r8">0</Current><DateUtc dt:dt="string">2015-08-12T17:02:58Z</DateUtc></FrequencyChange></FrequencyChanges></Clock>\n	Hungry_Donkey_bar_English_2-120-2	60.018	95	1.0.0.18	1	-1977275071	Standard	2.0.10.353	2.0.10.353	08-12-2015	8/12/2015 5:02:58 PM	13:02:58	2.0.10.248	70	Bar50-50.bmp	49	4	?	0r_4g.bmp	0r_4g.bmp	0r_2g.bmp	0r_2g.bmp				0r_2g.bmp	TrialProc	TrialList	0	cvbn	-999999	17	281238	0	n	129	281367	232	-244	-12	4	-30	8	6	8	7	70	0	0	0	0	4	4	2	2	0	2
Hungry_Donkey_bar_English_2	120	2	<?xml version="1.0"?>\n<Clock xmlns:dt="urn:schemas-microsoft-com:datatypes"><Description dt:dt="string">E-Prime Primary Realtime Clock</Description><StartTime><Timestamp dt:dt="int">0</Timestamp><DateUtc dt:dt="string">2015-08-12T17:02:58Z</DateUtc></StartTime><FrequencyChanges><FrequencyChange><Frequency dt:dt="r8">3507705</Frequency><Timestamp dt:dt="r8">260015014992</Timestamp><Current dt:dt="r8">0</Current><DateUtc dt:dt="string">2015-08-12T17:02:58Z</DateUtc></FrequencyChange></FrequencyChanges></Clock>\n	Hungry_Donkey_bar_English_2-120-2	60.018	95	1.0.0.18	1	-1977275071	Standard	2.0.10.353	2.0.10.353	08-12-2015	8/12/2015 5:02:58 PM	13:02:58	2.0.10.248	71	Bar50-50.bmp	49	4	?	10r_4g.bmp	0r_4g.bmp	2r_2g.bmp	0r_2g.bmp				0r_2g.bmp	TrialProc	TrialList	0	cvbn	-999999	17	283404	0	n	299	283703	234	-244	-10	4	-30	8	8	3	8	71	-10	0	-2	0	4	4	2	2	0	2
Hungry_Donkey_bar_English_2	120	2	<?xml version="1.0"?>\n<Clock xmlns:dt="urn:schemas-microsoft-com:datatypes"><Description dt:dt="string">E-Prime Primary Realtime Clock</Description><StartTime><Timestamp dt:dt="int">0</Timestamp><DateUtc dt:dt="string">2015-08-12T17:02:58Z</DateUtc></StartTime><FrequencyChanges><FrequencyChange><Frequency dt:dt="r8">3507705</Frequency><Timestamp dt:dt="r8">260015014992</Timestamp><Current dt:dt="r8">0</Current><DateUtc dt:dt="string">2015-08-12T17:02:58Z</DateUtc></FrequencyChange></FrequencyChanges></Clock>\n	Hungry_Donkey_bar_English_2-120-2	60.018	95	1.0.0.18	1	-1977275071	Standard	2.0.10.353	2.0.10.353	08-12-2015	8/12/2015 5:02:58 PM	13:02:58	2.0.10.248	72	Bar50-50.bmp	49	4	?	0r_4g.bmp	0r_4g.bmp	0r_2g.bmp	0r_2g.bmp				0r_2g.bmp	TrialProc	TrialList	0	cvbn	-999999	16	285736	0	n	3391	289127	236	-244	-8	4	-30	8	10	10	8	72	0	0	0	0	4	4	2	2	0	2
Hungry_Donkey_bar_English_2	120	2	<?xml version="1.0"?>\n<Clock xmlns:dt="urn:schemas-microsoft-com:datatypes"><Description dt:dt="string">E-Prime Primary Realtime Clock</Description><StartTime><Timestamp dt:dt="int">0</Timestamp><DateUtc dt:dt="string">2015-08-12T17:02:58Z</DateUtc></StartTime><FrequencyChanges><FrequencyChange><Frequency dt:dt="r8">3507705</Frequency><Timestamp dt:dt="r8">260015014992</Timestamp><Current dt:dt="r8">0</Current><DateUtc dt:dt="string">2015-08-12T17:02:58Z</DateUtc></FrequencyChange></FrequencyChanges></Clock>\n	Hungry_Donkey_bar_English_2-120-2	60.018	95	1.0.0.18	1	-1977275071	Standard	2.0.10.353	2.0.10.353	08-12-2015	8/12/2015 5:02:58 PM	13:02:58	2.0.10.248	73	Bar50-50.bmp	49	4	?	0r_4g.bmp	0r_4g.bmp	0r_2g.bmp	0r_2g.bmp				0r_2g.bmp	TrialProc	TrialList	0	cvbn	-999999	16	291151	0	n	360	291511	238	-244	-6	4	-30	8	12	9	8	73	0	0	0	0	4	4	2	2	0	2
Hungry_Donkey_bar_English_2	120	2	<?xml version="1.0"?>\n<Clock xmlns:dt="urn:schemas-microsoft-com:datatypes"><Description dt:dt="string">E-Prime Primary Realtime Clock</Description><StartTime><Timestamp dt:dt="int">0</Timestamp><DateUtc dt:dt="string">2015-08-12T17:02:58Z</DateUtc></StartTime><FrequencyChanges><FrequencyChange><Frequency dt:dt="r8">3507705</Frequency><Timestamp dt:dt="r8">260015014992</Timestamp><Current dt:dt="r8">0</Current><DateUtc dt:dt="string">2015-08-12T17:02:58Z</DateUtc></FrequencyChange></FrequencyChanges></Clock>\n	Hungry_Donkey_bar_English_2-120-2	60.018	95	1.0.0.18	1	-1977275071	Standard	2.0.10.353	2.0.10.353	08-12-2015	8/12/2015 5:02:58 PM	13:02:58	2.0.10.248	74	Bar50-50.bmp	50	4	?	10r_4g.bmp	0r_4g.bmp	2r_2g.bmp	0r_2g.bmp				0r_2g.bmp	TrialProc	TrialList	0	cvbn	-999999	16	293534	0	n	424	293958	240	-244	-4	4	-30	8	14	2	8	74	-10	0	-2	0	4	4	2	2	0	2
Hungry_Donkey_bar_English_2	120	2	<?xml version="1.0"?>\n<Clock xmlns:dt="urn:schemas-microsoft-com:datatypes"><Description dt:dt="string">E-Prime Primary Realtime Clock</Description><StartTime><Timestamp dt:dt="int">0</Timestamp><DateUtc dt:dt="string">2015-08-12T17:02:58Z</DateUtc></StartTime><FrequencyChanges><FrequencyChange><Frequency dt:dt="r8">3507705</Frequency><Timestamp dt:dt="r8">260015014992</Timestamp><Current dt:dt="r8">0</Current><DateUtc dt:dt="string">2015-08-12T17:02:58Z</DateUtc></FrequencyChange></FrequencyChanges></Clock>\n	Hungry_Donkey_bar_English_2-120-2	60.018	95	1.0.0.18	1	-1977275071	Standard	2.0.10.353	2.0.10.353	08-12-2015	8/12/2015 5:02:58 PM	13:02:58	2.0.10.248	75	Bar50-50.bmp	50	4	?	0r_4g.bmp	0r_4g.bmp	0r_2g.bmp	0r_2g.bmp				0r_2g.bmp	TrialProc	TrialList	0	cvbn	-999999	16	295983	0	n	279	296262	242	-244	-2	4	-30	8	16	6	8	75	0	0	0	0	4	4	2	2	0	2
Hungry_Donkey_bar_English_2	120	2	<?xml version="1.0"?>\n<Clock xmlns:dt="urn:schemas-microsoft-com:datatypes"><Description dt:dt="string">E-Prime Primary Realtime Clock</Description><StartTime><Timestamp dt:dt="int">0</Timestamp><DateUtc dt:dt="string">2015-08-12T17:02:58Z</DateUtc></StartTime><FrequencyChanges><FrequencyChange><Frequency dt:dt="r8">3507705</Frequency><Timestamp dt:dt="r8">260015014992</Timestamp><Current dt:dt="r8">0</Current><DateUtc dt:dt="string">2015-08-12T17:02:58Z</DateUtc></FrequencyChange></FrequencyChanges></Clock>\n	Hungry_Donkey_bar_English_2-120-2	60.018	95	1.0.0.18	1	-1977275071	Standard	2.0.10.353	2.0.10.353	08-12-2015	8/12/2015 5:02:58 PM	13:02:58	2.0.10.248	76	Bar50-50.bmp	50	4	?	12r_4g.bmp	0r_4g.bmp	3r_2g.bmp	0r_2g.bmp				0r_2g.bmp	TrialProc	TrialList	0	cvbn	-999999	16	298299	0	n	299	298598	244	-244	0	4	-30	8	18	5	8	76	-12	0	-3	0	4	4	2	2	0	2
Hungry_Donkey_bar_English_2	120	2	<?xml version="1.0"?>\n<Clock xmlns:dt="urn:schemas-microsoft-com:datatypes"><Description dt:dt="string">E-Prime Primary Realtime Clock</Description><StartTime><Timestamp dt:dt="int">0</Timestamp><DateUtc dt:dt="string">2015-08-12T17:02:58Z</DateUtc></StartTime><FrequencyChanges><FrequencyChange><Frequency dt:dt="r8">3507705</Frequency><Timestamp dt:dt="r8">260015014992</Timestamp><Current dt:dt="r8">0</Current><DateUtc dt:dt="string">2015-08-12T17:02:58Z</DateUtc></FrequencyChange></FrequencyChanges></Clock>\n	Hungry_Donkey_bar_English_2-120-2	60.018	95	1.0.0.18	1	-1977275071	Standard	2.0.10.353	2.0.10.353	08-12-2015	8/12/2015 5:02:58 PM	13:02:58	2.0.10.248	77	Bar50-50.bmp	50	4	?	10r_4g.bmp	0r_4g.bmp	2r_2g.bmp	0r_2g.bmp				0r_2g.bmp	TrialProc	TrialList	0	cvbn	-999999	16	300632	0	n	142	300774	246	-244	2	4	-30	8	20	4	8	77	-10	0	-2	0	4	4	2	2	0	2
Hungry_Donkey_bar_English_2	120	2	<?xml version="1.0"?>\n<Clock xmlns:dt="urn:schemas-microsoft-com:datatypes"><Description dt:dt="string">E-Prime Primary Realtime Clock</Description><StartTime><Timestamp dt:dt="int">0</Timestamp><DateUtc dt:dt="string">2015-08-12T17:02:58Z</DateUtc></StartTime><FrequencyChanges><FrequencyChange><Frequency dt:dt="r8">3507705</Frequency><Timestamp dt:dt="r8">260015014992</Timestamp><Current dt:dt="r8">0</Current><DateUtc dt:dt="string">2015-08-12T17:02:58Z</DateUtc></FrequencyChange></FrequencyChanges></Clock>\n	Hungry_Donkey_bar_English_2-120-2	60.018	95	1.0.0.18	1	-1977275071	Standard	2.0.10.353	2.0.10.353	08-12-2015	8/12/2015 5:02:58 PM	13:02:58	2.0.10.248	78	Bar50-50.bmp	50	4	?	0r_4g.bmp	0r_4g.bmp	0r_2g.bmp	0r_2g.bmp				0r_2g.bmp	TrialProc	TrialList	0	cvbn	-999999	16	302798	0	n	1320	304118	248	-244	4	4	-30	8	22	8	8	78	0	0	0	0	4	4	2	2	0	2
Hungry_Donkey_bar_English_2	120	2	<?xml version="1.0"?>\n<Clock xmlns:dt="urn:schemas-microsoft-com:datatypes"><Description dt:dt="string">E-Prime Primary Realtime Clock</Description><StartTime><Timestamp dt:dt="int">0</Timestamp><DateUtc dt:dt="string">2015-08-12T17:02:58Z</DateUtc></StartTime><FrequencyChanges><FrequencyChange><Frequency dt:dt="r8">3507705</Frequency><Timestamp dt:dt="r8">260015014992</Timestamp><Current dt:dt="r8">0</Current><DateUtc dt:dt="string">2015-08-12T17:02:58Z</DateUtc></FrequencyChange></FrequencyChanges></Clock>\n	Hungry_Donkey_bar_English_2-120-2	60.018	95	1.0.0.18	1	-1977275071	Standard	2.0.10.353	2.0.10.353	08-12-2015	8/12/2015 5:02:58 PM	13:02:58	2.0.10.248	79	Bar50-50.bmp	51	4	?	0r_4g.bmp	0r_4g.bmp	0r_2g.bmp	0r_2g.bmp				0r_2g.bmp	TrialProc	TrialList	0	cvbn	-999999	16	306147	0	n	467	306614	250	-244	6	4	-30	8	24	7	8	79	0	0	0	0	4	4	2	2	0	2
Hungry_Donkey_bar_English_2	120	2	<?xml version="1.0"?>\n<Clock xmlns:dt="urn:schemas-microsoft-com:datatypes"><Description dt:dt="string">E-Prime Primary Realtime Clock</Description><StartTime><Timestamp dt:dt="int">0</Timestamp><DateUtc dt:dt="string">2015-08-12T17:02:58Z</DateUtc></StartTime><FrequencyChanges><FrequencyChange><Frequency dt:dt="r8">3507705</Frequency><Timestamp dt:dt="r8">260015014992</Timestamp><Current dt:dt="r8">0</Current><DateUtc dt:dt="string">2015-08-12T17:02:58Z</DateUtc></FrequencyChange></FrequencyChanges></Clock>\n	Hungry_Donkey_bar_English_2-120-2	60.018	95	1.0.0.18	1	-1977275071	Standard	2.0.10.353	2.0.10.353	08-12-2015	8/12/2015 5:02:58 PM	13:02:58	2.0.10.248	80	Bar50-50.bmp	50	4	?	8r_4g.bmp	50r_4g.bmp	1r_2g.bmp	10r_2g.bmp				10r_2g.bmp	TrialProc	TrialList	0	cvbn	-999999	16	308646	0	n	2495	311141	252	-254	-2	4	-30	8	16	1	8	80	-8	-50	-1	-10	4	4	2	2	-10	2
Hungry_Donkey_bar_English_2	120	2	<?xml version="1.0"?>\n<Clock xmlns:dt="urn:schemas-microsoft-com:datatypes"><Description dt:dt="string">E-Prime Primary Realtime Clock</Description><StartTime><Timestamp dt:dt="int">0</Timestamp><DateUtc dt:dt="string">2015-08-12T17:02:58Z</DateUtc></StartTime><FrequencyChanges><FrequencyChange><Frequency dt:dt="r8">3507705</Frequency><Timestamp dt:dt="r8">260015014992</Timestamp><Current dt:dt="r8">0</Current><DateUtc dt:dt="string">2015-08-12T17:02:58Z</DateUtc></FrequencyChange></FrequencyChanges></Clock>\n	Hungry_Donkey_bar_English_2-120-2	60.018	95	1.0.0.18	1	-1977275071	Standard	2.0.10.353	2.0.10.353	08-12-2015	8/12/2015 5:02:58 PM	13:02:58	2.0.10.248	81	Bar50-50.bmp	50	3	?	8r_4g.bmp	50r_4g.bmp	1r_2g.bmp	10r_2g.bmp			1r_2g.bmp		TrialProc	TrialList	0	cvbn	-999999	16	313178	0	b	763	313941	254	-255	-1	4	-30	9	16	1	9	81	-8	-50	-1	-10	4	4	2	2	-1	2
Hungry_Donkey_bar_English_2	120	2	<?xml version="1.0"?>\n<Clock xmlns:dt="urn:schemas-microsoft-com:datatypes"><Description dt:dt="string">E-Prime Primary Realtime Clock</Description><StartTime><Timestamp dt:dt="int">0</Timestamp><DateUtc dt:dt="string">2015-08-12T17:02:58Z</DateUtc></StartTime><FrequencyChanges><FrequencyChange><Frequency dt:dt="r8">3507705</Frequency><Timestamp dt:dt="r8">260015014992</Timestamp><Current dt:dt="r8">0</Current><DateUtc dt:dt="string">2015-08-12T17:02:58Z</DateUtc></FrequencyChange></FrequencyChanges></Clock>\n	Hungry_Donkey_bar_English_2-120-2	60.018	95	1.0.0.18	1	-1977275071	Standard	2.0.10.353	2.0.10.353	08-12-2015	8/12/2015 5:02:58 PM	13:02:58	2.0.10.248	82	Bar50-50.bmp	50	2	?	10r_4g.bmp	0r_4g.bmp	2r_2g.bmp	0r_2g.bmp		0r_4g.bmp			TrialProc	TrialList	0	cvbn	-999999	16	315977	0	v	2492	318469	258	-255	3	4	-26	9	16	2	9	82	-10	0	-2	0	4	4	2	2	0	4
Hungry_Donkey_bar_English_2	120	2	<?xml version="1.0"?>\n<Clock xmlns:dt="urn:schemas-microsoft-com:datatypes"><Description dt:dt="string">E-Prime Primary Realtime Clock</Description><StartTime><Timestamp dt:dt="int">0</Timestamp><DateUtc dt:dt="string">2015-08-12T17:02:58Z</DateUtc></StartTime><FrequencyChanges><FrequencyChange><Frequency dt:dt="r8">3507705</Frequency><Timestamp dt:dt="r8">260015014992</Timestamp><Current dt:dt="r8">0</Current><DateUtc dt:dt="string">2015-08-12T17:02:58Z</DateUtc></FrequencyChange></FrequencyChanges></Clock>\n	Hungry_Donkey_bar_English_2-120-2	60.018	95	1.0.0.18	1	-1977275071	Standard	2.0.10.353	2.0.10.353	08-12-2015	8/12/2015 5:02:58 PM	13:02:58	2.0.10.248	83	Bar50-50.bmp	50	4	?	0r_4g.bmp	0r_4g.bmp	0r_2g.bmp	0r_2g.bmp				0r_2g.bmp	TrialProc	TrialList	0	cvbn	-999999	16	320493	0	n	1464	321957	260	-255	5	4	-26	9	18	6	9	83	0	0	0	0	4	4	2	2	0	2
Hungry_Donkey_bar_English_2	120	2	<?xml version="1.0"?>\n<Clock xmlns:dt="urn:schemas-microsoft-com:datatypes"><Description dt:dt="string">E-Prime Primary Realtime Clock</Description><StartTime><Timestamp dt:dt="int">0</Timestamp><DateUtc dt:dt="string">2015-08-12T17:02:58Z</DateUtc></StartTime><FrequencyChanges><FrequencyChange><Frequency dt:dt="r8">3507705</Frequency><Timestamp dt:dt="r8">260015014992</Timestamp><Current dt:dt="r8">0</Current><DateUtc dt:dt="string">2015-08-12T17:02:58Z</DateUtc></FrequencyChange></FrequencyChanges></Clock>\n	Hungry_Donkey_bar_English_2-120-2	60.018	95	1.0.0.18	1	-1977275071	Standard	2.0.10.353	2.0.10.353	08-12-2015	8/12/2015 5:02:58 PM	13:02:58	2.0.10.248	84	Bar50-50.bmp	51	4	?	10r_4g.bmp	0r_4g.bmp	2r_2g.bmp	0r_2g.bmp				0r_2g.bmp	TrialProc	TrialList	0	cvbn	-999999	16	323992	0	n	1117	325109	262	-255	7	4	-26	9	20	3	9	84	-10	0	-2	0	4	4	2	2	0	2
Hungry_Donkey_bar_English_2	120	2	<?xml version="1.0"?>\n<Clock xmlns:dt="urn:schemas-microsoft-com:datatypes"><Description dt:dt="string">E-Prime Primary Realtime Clock</Description><StartTime><Timestamp dt:dt="int">0</Timestamp><DateUtc dt:dt="string">2015-08-12T17:02:58Z</DateUtc></StartTime><FrequencyChanges><FrequencyChange><Frequency dt:dt="r8">3507705</Frequency><Timestamp dt:dt="r8">260015014992</Timestamp><Current dt:dt="r8">0</Current><DateUtc dt:dt="string">2015-08-12T17:02:58Z</DateUtc></FrequencyChange></FrequencyChanges></Clock>\n	Hungry_Donkey_bar_English_2-120-2	60.018	95	1.0.0.18	1	-1977275071	Standard	2.0.10.353	2.0.10.353	08-12-2015	8/12/2015 5:02:58 PM	13:02:58	2.0.10.248	85	Bar50-50.bmp	51	4	?	0r_4g.bmp	0r_4g.bmp	0r_2g.bmp	0r_2g.bmp				0r_2g.bmp	TrialProc	TrialList	0	cvbn	-999999	16	327141	0	n	1984	329125	264	-255	9	4	-26	9	22	8	9	85	0	0	0	0	4	4	2	2	0	2
Hungry_Donkey_bar_English_2	120	2	<?xml version="1.0"?>\n<Clock xmlns:dt="urn:schemas-microsoft-com:datatypes"><Description dt:dt="string">E-Prime Primary Realtime Clock</Description><StartTime><Timestamp dt:dt="int">0</Timestamp><DateUtc dt:dt="string">2015-08-12T17:02:58Z</DateUtc></StartTime><FrequencyChanges><FrequencyChange><Frequency dt:dt="r8">3507705</Frequency><Timestamp dt:dt="r8">260015014992</Timestamp><Current dt:dt="r8">0</Current><DateUtc dt:dt="string">2015-08-12T17:02:58Z</DateUtc></FrequencyChange></FrequencyChanges></Clock>\n	Hungry_Donkey_bar_English_2-120-2	60.018	95	1.0.0.18	1	-1977275071	Standard	2.0.10.353	2.0.10.353	08-12-2015	8/12/2015 5:02:58 PM	13:02:58	2.0.10.248	86	Bar50-50.bmp	51	4	?	0r_4g.bmp	0r_4g.bmp	0r_2g.bmp	0r_2g.bmp				0r_2g.bmp	TrialProc	TrialList	0	cvbn	-999999	16	331156	0	n	1248	332404	266	-255	11	4	-26	9	24	9	9	86	0	0	0	0	4	4	2	2	0	2
Hungry_Donkey_bar_English_2	120	2	<?xml version="1.0"?>\n<Clock xmlns:dt="urn:schemas-microsoft-com:datatypes"><Description dt:dt="string">E-Prime Primary Realtime Clock</Description><StartTime><Timestamp dt:dt="int">0</Timestamp><DateUtc dt:dt="string">2015-08-12T17:02:58Z</DateUtc></StartTime><FrequencyChanges><FrequencyChange><Frequency dt:dt="r8">3507705</Frequency><Timestamp dt:dt="r8">260015014992</Timestamp><Current dt:dt="r8">0</Current><DateUtc dt:dt="string">2015-08-12T17:02:58Z</DateUtc></FrequencyChange></FrequencyChanges></Clock>\n	Hungry_Donkey_bar_English_2-120-2	60.018	95	1.0.0.18	1	-1977275071	Standard	2.0.10.353	2.0.10.353	08-12-2015	8/12/2015 5:02:58 PM	13:02:58	2.0.10.248	87	Bar50-50.bmp	51	4	?	0r_4g.bmp	0r_4g.bmp	0r_2g.bmp	0r_2g.bmp				0r_2g.bmp	TrialProc	TrialList	0	cvbn	-999999	17	334439	0	n	765	335204	268	-255	13	4	-26	9	26	10	9	87	0	0	0	0	4	4	2	2	0	2
Hungry_Donkey_bar_English_2	120	2	<?xml version="1.0"?>\n<Clock xmlns:dt="urn:schemas-microsoft-com:datatypes"><Description dt:dt="string">E-Prime Primary Realtime Clock</Description><StartTime><Timestamp dt:dt="int">0</Timestamp><DateUtc dt:dt="string">2015-08-12T17:02:58Z</DateUtc></StartTime><FrequencyChanges><FrequencyChange><Frequency dt:dt="r8">3507705</Frequency><Timestamp dt:dt="r8">260015014992</Timestamp><Current dt:dt="r8">0</Current><DateUtc dt:dt="string">2015-08-12T17:02:58Z</DateUtc></FrequencyChange></FrequencyChanges></Clock>\n	Hungry_Donkey_bar_English_2-120-2	60.018	95	1.0.0.18	1	-1977275071	Standard	2.0.10.353	2.0.10.353	08-12-2015	8/12/2015 5:02:58 PM	13:02:58	2.0.10.248	88	Bar50-50.bmp	51	4	?	10r_4g.bmp	0r_4g.bmp	2r_2g.bmp	0r_2g.bmp				0r_2g.bmp	TrialProc	TrialList	0	cvbn	-999999	16	337238	0	n	510	337748	270	-255	15	4	-26	9	28	4	9	88	-10	0	-2	0	4	4	2	2	0	2
Hungry_Donkey_bar_English_2	120	2	<?xml version="1.0"?>\n<Clock xmlns:dt="urn:schemas-microsoft-com:datatypes"><Description dt:dt="string">E-Prime Primary Realtime Clock</Description><StartTime><Timestamp dt:dt="int">0</Timestamp><DateUtc dt:dt="string">2015-08-12T17:02:58Z</DateUtc></StartTime><FrequencyChanges><FrequencyChange><Frequency dt:dt="r8">3507705</Frequency><Timestamp dt:dt="r8">260015014992</Timestamp><Current dt:dt="r8">0</Current><DateUtc dt:dt="string">2015-08-12T17:02:58Z</DateUtc></FrequencyChange></FrequencyChanges></Clock>\n	Hungry_Donkey_bar_English_2-120-2	60.018	95	1.0.0.18	1	-1977275071	Standard	2.0.10.353	2.0.10.353	08-12-2015	8/12/2015 5:02:58 PM	13:02:58	2.0.10.248	89	Bar50-50.bmp	52	4	?	12r_4g.bmp	0r_4g.bmp	3r_2g.bmp	0r_2g.bmp				0r_2g.bmp	TrialProc	TrialList	0	cvbn	-999999	16	339787	0	n	745	340532	272	-255	17	4	-26	9	30	5	9	89	-12	0	-3	0	4	4	2	2	0	2
Hungry_Donkey_bar_English_2	120	2	<?xml version="1.0"?>\n<Clock xmlns:dt="urn:schemas-microsoft-com:datatypes"><Description dt:dt="string">E-Prime Primary Realtime Clock</Description><StartTime><Timestamp dt:dt="int">0</Timestamp><DateUtc dt:dt="string">2015-08-12T17:02:58Z</DateUtc></StartTime><FrequencyChanges><FrequencyChange><Frequency dt:dt="r8">3507705</Frequency><Timestamp dt:dt="r8">260015014992</Timestamp><Current dt:dt="r8">0</Current><DateUtc dt:dt="string">2015-08-12T17:02:58Z</DateUtc></FrequencyChange></FrequencyChanges></Clock>\n	Hungry_Donkey_bar_English_2-120-2	60.018	95	1.0.0.18	1	-1977275071	Standard	2.0.10.353	2.0.10.353	08-12-2015	8/12/2015 5:02:58 PM	13:02:58	2.0.10.248	90	Bar50-50.bmp	52	3	?	0r_4g.bmp	0r_4g.bmp	0r_2g.bmp	0r_2g.bmp			0r_2g.bmp		TrialProc	TrialList	0	cvbn	-999999	16	342569	0	b	827	343396	274	-255	19	4	-26	11	30	7	9	90	0	0	0	0	4	4	2	2	0	2
Hungry_Donkey_bar_English_2	120	2	<?xml version="1.0"?>\n<Clock xmlns:dt="urn:schemas-microsoft-com:datatypes"><Description dt:dt="string">E-Prime Primary Realtime Clock</Description><StartTime><Timestamp dt:dt="int">0</Timestamp><DateUtc dt:dt="string">2015-08-12T17:02:58Z</DateUtc></StartTime><FrequencyChanges><FrequencyChange><Frequency dt:dt="r8">3507705</Frequency><Timestamp dt:dt="r8">260015014992</Timestamp><Current dt:dt="r8">0</Current><DateUtc dt:dt="string">2015-08-12T17:02:58Z</DateUtc></FrequencyChange></FrequencyChanges></Clock>\n	Hungry_Donkey_bar_English_2-120-2	60.018	95	1.0.0.18	1	-1977275071	Standard	2.0.10.353	2.0.10.353	08-12-2015	8/12/2015 5:02:58 PM	13:02:58	2.0.10.248	91	Bar50-50.bmp	51	4	?	8r_4g.bmp	50r_4g.bmp	1r_2g.bmp	10r_2g.bmp				10r_2g.bmp	TrialProc	TrialList	0	cvbn	-999999	16	345435	0	n	345	345780	276	-265	11	4	-26	11	22	1	10	91	-8	-50	-1	-10	4	4	2	2	-10	2
Hungry_Donkey_bar_English_2	120	2	<?xml version="1.0"?>\n<Clock xmlns:dt="urn:schemas-microsoft-com:datatypes"><Description dt:dt="string">E-Prime Primary Realtime Clock</Description><StartTime><Timestamp dt:dt="int">0</Timestamp><DateUtc dt:dt="string">2015-08-12T17:02:58Z</DateUtc></StartTime><FrequencyChanges><FrequencyChange><Frequency dt:dt="r8">3507705</Frequency><Timestamp dt:dt="r8">260015014992</Timestamp><Current dt:dt="r8">0</Current><DateUtc dt:dt="string">2015-08-12T17:02:58Z</DateUtc></FrequencyChange></FrequencyChanges></Clock>\n	Hungry_Donkey_bar_English_2-120-2	60.018	95	1.0.0.18	1	-1977275071	Standard	2.0.10.353	2.0.10.353	08-12-2015	8/12/2015 5:02:58 PM	13:02:58	2.0.10.248	92	Bar50-50.bmp	51	2	?	0r_4g.bmp	0r_4g.bmp	0r_2g.bmp	0r_2g.bmp		0r_4g.bmp			TrialProc	TrialList	0	cvbn	-999999	16	347818	0	v	665	348483	280	-265	15	4	-22	11	22	8	10	92	0	0	0	0	4	4	2	2	0	4
Hungry_Donkey_bar_English_2	120	2	<?xml version="1.0"?>\n<Clock xmlns:dt="urn:schemas-microsoft-com:datatypes"><Description dt:dt="string">E-Prime Primary Realtime Clock</Description><StartTime><Timestamp dt:dt="int">0</Timestamp><DateUtc dt:dt="string">2015-08-12T17:02:58Z</DateUtc></StartTime><FrequencyChanges><FrequencyChange><Frequency dt:dt="r8">3507705</Frequency><Timestamp dt:dt="r8">260015014992</Timestamp><Current dt:dt="r8">0</Current><DateUtc dt:dt="string">2015-08-12T17:02:58Z</DateUtc></FrequencyChange></FrequencyChanges></Clock>\n	Hungry_Donkey_bar_English_2-120-2	60.018	95	1.0.0.18	1	-1977275071	Standard	2.0.10.353	2.0.10.353	08-12-2015	8/12/2015 5:02:58 PM	13:02:58	2.0.10.248	93	Bar50-50.bmp	52	2	?	12r_4g.bmp	0r_4g.bmp	3r_2g.bmp	0r_2g.bmp		0r_4g.bmp			TrialProc	TrialList	0	cvbn	-999999	16	350517	0	v	670	351187	284	-265	19	4	-18	11	22	5	10	93	-12	0	-3	0	4	4	2	2	0	4
Hungry_Donkey_bar_English_2	120	2	<?xml version="1.0"?>\n<Clock xmlns:dt="urn:schemas-microsoft-com:datatypes"><Description dt:dt="string">E-Prime Primary Realtime Clock</Description><StartTime><Timestamp dt:dt="int">0</Timestamp><DateUtc dt:dt="string">2015-08-12T17:02:58Z</DateUtc></StartTime><FrequencyChanges><FrequencyChange><Frequency dt:dt="r8">3507705</Frequency><Timestamp dt:dt="r8">260015014992</Timestamp><Current dt:dt="r8">0</Current><DateUtc dt:dt="string">2015-08-12T17:02:58Z</DateUtc></FrequencyChange></FrequencyChanges></Clock>\n	Hungry_Donkey_bar_English_2-120-2	60.018	95	1.0.0.18	1	-1977275071	Standard	2.0.10.353	2.0.10.353	08-12-2015	8/12/2015 5:02:58 PM	13:02:58	2.0.10.248	94	Bar50-50.bmp	51	1	?	10r_4g.bmp	0r_4g.bmp	2r_2g.bmp	0r_2g.bmp	10r_4g.bmp				TrialProc	TrialList	0	cvbn	-999999	16	353216	0	c	771	353987	288	-275	13	-2	-18	11	22	3	10	94	-10	0	-2	0	4	4	2	2	-10	4
Hungry_Donkey_bar_English_2	120	2	<?xml version="1.0"?>\n<Clock xmlns:dt="urn:schemas-microsoft-com:datatypes"><Description dt:dt="string">E-Prime Primary Realtime Clock</Description><StartTime><Timestamp dt:dt="int">0</Timestamp><DateUtc dt:dt="string">2015-08-12T17:02:58Z</DateUtc></StartTime><FrequencyChanges><FrequencyChange><Frequency dt:dt="r8">3507705</Frequency><Timestamp dt:dt="r8">260015014992</Timestamp><Current dt:dt="r8">0</Current><DateUtc dt:dt="string">2015-08-12T17:02:58Z</DateUtc></FrequencyChange></FrequencyChanges></Clock>\n	Hungry_Donkey_bar_English_2-120-2	60.018	95	1.0.0.18	1	-1977275071	Standard	2.0.10.353	2.0.10.353	08-12-2015	8/12/2015 5:02:58 PM	13:02:58	2.0.10.248	95	Bar50-50.bmp	51	2	?	10r_4g.bmp	0r_4g.bmp	2r_2g.bmp	0r_2g.bmp		0r_4g.bmp			TrialProc	TrialList	0	cvbn	-999999	16	356015	0	v	1684	357699	292	-275	17	-2	-14	11	22	2	10	95	-10	0	-2	0	4	4	2	2	0	4
Hungry_Donkey_bar_English_2	120	2	<?xml version="1.0"?>\n<Clock xmlns:dt="urn:schemas-microsoft-com:datatypes"><Description dt:dt="string">E-Prime Primary Realtime Clock</Description><StartTime><Timestamp dt:dt="int">0</Timestamp><DateUtc dt:dt="string">2015-08-12T17:02:58Z</DateUtc></StartTime><FrequencyChanges><FrequencyChange><Frequency dt:dt="r8">3507705</Frequency><Timestamp dt:dt="r8">260015014992</Timestamp><Current dt:dt="r8">0</Current><DateUtc dt:dt="string">2015-08-12T17:02:58Z</DateUtc></FrequencyChange></FrequencyChanges></Clock>\n	Hungry_Donkey_bar_English_2-120-2	60.018	95	1.0.0.18	1	-1977275071	Standard	2.0.10.353	2.0.10.353	08-12-2015	8/12/2015 5:02:58 PM	13:02:58	2.0.10.248	96	Bar50-50.bmp	52	4	?	0r_4g.bmp	0r_4g.bmp	0r_2g.bmp	0r_2g.bmp				0r_2g.bmp	TrialProc	TrialList	0	cvbn	-999999	16	359731	0	n	2176	361907	294	-275	19	-2	-14	11	24	9	10	96	0	0	0	0	4	4	2	2	0	2
Hungry_Donkey_bar_English_2	120	2	<?xml version="1.0"?>\n<Clock xmlns:dt="urn:schemas-microsoft-com:datatypes"><Description dt:dt="string">E-Prime Primary Realtime Clock</Description><StartTime><Timestamp dt:dt="int">0</Timestamp><DateUtc dt:dt="string">2015-08-12T17:02:58Z</DateUtc></StartTime><FrequencyChanges><FrequencyChange><Frequency dt:dt="r8">3507705</Frequency><Timestamp dt:dt="r8">260015014992</Timestamp><Current dt:dt="r8">0</Current><DateUtc dt:dt="string">2015-08-12T17:02:58Z</DateUtc></FrequencyChange></FrequencyChanges></Clock>\n	Hungry_Donkey_bar_English_2-120-2	60.018	95	1.0.0.18	1	-1977275071	Standard	2.0.10.353	2.0.10.353	08-12-2015	8/12/2015 5:02:58 PM	13:02:58	2.0.10.248	97	Bar50-50.bmp	52	4	?	0r_4g.bmp	0r_4g.bmp	0r_2g.bmp	0r_2g.bmp				0r_2g.bmp	TrialProc	TrialList	0	cvbn	-999999	17	363947	0	n	695	364642	296	-275	21	-2	-14	11	26	10	10	97	0	0	0	0	4	4	2	2	0	2
Hungry_Donkey_bar_English_2	120	2	<?xml version="1.0"?>\n<Clock xmlns:dt="urn:schemas-microsoft-com:datatypes"><Description dt:dt="string">E-Prime Primary Realtime Clock</Description><StartTime><Timestamp dt:dt="int">0</Timestamp><DateUtc dt:dt="string">2015-08-12T17:02:58Z</DateUtc></StartTime><FrequencyChanges><FrequencyChange><Frequency dt:dt="r8">3507705</Frequency><Timestamp dt:dt="r8">260015014992</Timestamp><Current dt:dt="r8">0</Current><DateUtc dt:dt="string">2015-08-12T17:02:58Z</DateUtc></FrequencyChange></FrequencyChanges></Clock>\n	Hungry_Donkey_bar_English_2-120-2	60.018	95	1.0.0.18	1	-1977275071	Standard	2.0.10.353	2.0.10.353	08-12-2015	8/12/2015 5:02:58 PM	13:02:58	2.0.10.248	98	Bar50-50.bmp	52	3	?	0r_4g.bmp	0r_4g.bmp	0r_2g.bmp	0r_2g.bmp			0r_2g.bmp		TrialProc	TrialList	0	cvbn	-999999	16	366679	0	b	475	367154	298	-275	23	-2	-14	13	26	6	10	98	0	0	0	0	4	4	2	2	0	2
Hungry_Donkey_bar_English_2	120	2	<?xml version="1.0"?>\n<Clock xmlns:dt="urn:schemas-microsoft-com:datatypes"><Description dt:dt="string">E-Prime Primary Realtime Clock</Description><StartTime><Timestamp dt:dt="int">0</Timestamp><DateUtc dt:dt="string">2015-08-12T17:02:58Z</DateUtc></StartTime><FrequencyChanges><FrequencyChange><Frequency dt:dt="r8">3507705</Frequency><Timestamp dt:dt="r8">260015014992</Timestamp><Current dt:dt="r8">0</Current><DateUtc dt:dt="string">2015-08-12T17:02:58Z</DateUtc></FrequencyChange></FrequencyChanges></Clock>\n	Hungry_Donkey_bar_English_2-120-2	60.018	95	1.0.0.18	1	-1977275071	Standard	2.0.10.353	2.0.10.353	08-12-2015	8/12/2015 5:02:58 PM	13:02:58	2.0.10.248	99	Bar50-50.bmp	52	4	?	0r_4g.bmp	0r_4g.bmp	0r_2g.bmp	0r_2g.bmp				0r_2g.bmp	TrialProc	TrialList	0	cvbn	-999999	15	369178	0	n	584	369762	300	-275	25	-2	-14	13	28	7	10	99	0	0	0	0	4	4	2	2	0	2
Hungry_Donkey_bar_English_2	120	2	<?xml version="1.0"?>\n<Clock xmlns:dt="urn:schemas-microsoft-com:datatypes"><Description dt:dt="string">E-Prime Primary Realtime Clock</Description><StartTime><Timestamp dt:dt="int">0</Timestamp><DateUtc dt:dt="string">2015-08-12T17:02:58Z</DateUtc></StartTime><FrequencyChanges><FrequencyChange><Frequency dt:dt="r8">3507705</Frequency><Timestamp dt:dt="r8">260015014992</Timestamp><Current dt:dt="r8">0</Current><DateUtc dt:dt="string">2015-08-12T17:02:58Z</DateUtc></FrequencyChange></FrequencyChanges></Clock>\n	Hungry_Donkey_bar_English_2-120-2	60.018	95	1.0.0.18	1	-1977275071	Standard	2.0.10.353	2.0.10.353	08-12-2015	8/12/2015 5:02:58 PM	13:02:58	2.0.10.248	100	Bar50-50.bmp	52	4	?	10r_4g.bmp	0r_4g.bmp	2r_2g.bmp	0r_2g.bmp				0r_2g.bmp	TrialProc	TrialList	0	cvbn	-999999	16	371794	0	n	1088	372882	302	-275	27	-2	-14	13	30	4	10	100	-10	0	-2	0	4	4	2	2	0	2
Hungry_Donkey_bar_English_2	120	2	<?xml version="1.0"?>\n<Clock xmlns:dt="urn:schemas-microsoft-com:datatypes"><Description dt:dt="string">E-Prime Primary Realtime Clock</Description><StartTime><Timestamp dt:dt="int">0</Timestamp><DateUtc dt:dt="string">2015-08-12T17:02:58Z</DateUtc></StartTime><FrequencyChanges><FrequencyChange><Frequency dt:dt="r8">3507705</Frequency><Timestamp dt:dt="r8">260015014992</Timestamp><Current dt:dt="r8">0</Current><DateUtc dt:dt="string">2015-08-12T17:02:58Z</DateUtc></FrequencyChange></FrequencyChanges></Clock>\n	Hungry_Donkey_bar_English_2-120-2	60.018	95	1.0.0.18	1	-1977275071	Standard	2.0.10.353	2.0.10.353	08-12-2015	8/12/2015 5:02:58 PM	13:02:58	2.0.10.248	101	Bar50-50.bmp	53	4	?	12r_4g.bmp	0r_4g.bmp	3r_2g.bmp	0r_2g.bmp				0r_2g.bmp	TrialProc	TrialList	0	cvbn	-999999	16	374910	0	n	468	375378	304	-275	29	-2	-14	13	32	5	11	101	-12	0	-3	0	4	4	2	2	0	2
Hungry_Donkey_bar_English_2	120	2	<?xml version="1.0"?>\n<Clock xmlns:dt="urn:schemas-microsoft-com:datatypes"><Description dt:dt="string">E-Prime Primary Realtime Clock</Description><StartTime><Timestamp dt:dt="int">0</Timestamp><DateUtc dt:dt="string">2015-08-12T17:02:58Z</DateUtc></StartTime><FrequencyChanges><FrequencyChange><Frequency dt:dt="r8">3507705</Frequency><Timestamp dt:dt="r8">260015014992</Timestamp><Current dt:dt="r8">0</Current><DateUtc dt:dt="string">2015-08-12T17:02:58Z</DateUtc></FrequencyChange></FrequencyChanges></Clock>\n	Hungry_Donkey_bar_English_2-120-2	60.018	95	1.0.0.18	1	-1977275071	Standard	2.0.10.353	2.0.10.353	08-12-2015	8/12/2015 5:02:58 PM	13:02:58	2.0.10.248	102	Bar50-50.bmp	53	4	?	0r_4g.bmp	0r_4g.bmp	0r_2g.bmp	0r_2g.bmp				0r_2g.bmp	TrialProc	TrialList	0	cvbn	-999999	16	377409	0	n	289	377698	306	-275	31	-2	-14	13	34	7	11	102	0	0	0	0	4	4	2	2	0	2
Hungry_Donkey_bar_English_2	120	2	<?xml version="1.0"?>\n<Clock xmlns:dt="urn:schemas-microsoft-com:datatypes"><Description dt:dt="string">E-Prime Primary Realtime Clock</Description><StartTime><Timestamp dt:dt="int">0</Timestamp><DateUtc dt:dt="string">2015-08-12T17:02:58Z</DateUtc></StartTime><FrequencyChanges><FrequencyChange><Frequency dt:dt="r8">3507705</Frequency><Timestamp dt:dt="r8">260015014992</Timestamp><Current dt:dt="r8">0</Current><DateUtc dt:dt="string">2015-08-12T17:02:58Z</DateUtc></FrequencyChange></FrequencyChanges></Clock>\n	Hungry_Donkey_bar_English_2-120-2	60.018	95	1.0.0.18	1	-1977275071	Standard	2.0.10.353	2.0.10.353	08-12-2015	8/12/2015 5:02:58 PM	13:02:58	2.0.10.248	103	Bar50-50.bmp	53	4	?	10r_4g.bmp	0r_4g.bmp	2r_2g.bmp	0r_2g.bmp				0r_2g.bmp	TrialProc	TrialList	0	cvbn	-999999	16	379725	0	n	517	380242	308	-275	33	-2	-14	13	36	3	11	103	-10	0	-2	0	4	4	2	2	0	2
Hungry_Donkey_bar_English_2	120	2	<?xml version="1.0"?>\n<Clock xmlns:dt="urn:schemas-microsoft-com:datatypes"><Description dt:dt="string">E-Prime Primary Realtime Clock</Description><StartTime><Timestamp dt:dt="int">0</Timestamp><DateUtc dt:dt="string">2015-08-12T17:02:58Z</DateUtc></StartTime><FrequencyChanges><FrequencyChange><Frequency dt:dt="r8">3507705</Frequency><Timestamp dt:dt="r8">260015014992</Timestamp><Current dt:dt="r8">0</Current><DateUtc dt:dt="string">2015-08-12T17:02:58Z</DateUtc></FrequencyChange></FrequencyChanges></Clock>\n	Hungry_Donkey_bar_English_2-120-2	60.018	95	1.0.0.18	1	-1977275071	Standard	2.0.10.353	2.0.10.353	08-12-2015	8/12/2015 5:02:58 PM	13:02:58	2.0.10.248	104	Bar50-50.bmp	53	4	?	10r_4g.bmp	0r_4g.bmp	2r_2g.bmp	0r_2g.bmp				0r_2g.bmp	TrialProc	TrialList	0	cvbn	-999999	16	382274	0	n	335	382609	310	-275	35	-2	-14	13	38	2	11	104	-10	0	-2	0	4	4	2	2	0	2
Hungry_Donkey_bar_English_2	120	2	<?xml version="1.0"?>\n<Clock xmlns:dt="urn:schemas-microsoft-com:datatypes"><Description dt:dt="string">E-Prime Primary Realtime Clock</Description><StartTime><Timestamp dt:dt="int">0</Timestamp><DateUtc dt:dt="string">2015-08-12T17:02:58Z</DateUtc></StartTime><FrequencyChanges><FrequencyChange><Frequency dt:dt="r8">3507705</Frequency><Timestamp dt:dt="r8">260015014992</Timestamp><Current dt:dt="r8">0</Current><DateUtc dt:dt="string">2015-08-12T17:02:58Z</DateUtc></FrequencyChange></FrequencyChanges></Clock>\n	Hungry_Donkey_bar_English_2-120-2	60.018	95	1.0.0.18	1	-1977275071	Standard	2.0.10.353	2.0.10.353	08-12-2015	8/12/2015 5:02:58 PM	13:02:58	2.0.10.248	105	Bar50-50.bmp	52	4	?	8r_4g.bmp	50r_4g.bmp	1r_2g.bmp	10r_2g.bmp				10r_2g.bmp	TrialProc	TrialList	0	cvbn	-999999	16	384640	0	n	193	384833	312	-285	27	-2	-14	13	30	1	11	105	-8	-50	-1	-10	4	4	2	2	-10	2
Hungry_Donkey_bar_English_2	120	2	<?xml version="1.0"?>\n<Clock xmlns:dt="urn:schemas-microsoft-com:datatypes"><Description dt:dt="string">E-Prime Primary Realtime Clock</Description><StartTime><Timestamp dt:dt="int">0</Timestamp><DateUtc dt:dt="string">2015-08-12T17:02:58Z</DateUtc></StartTime><FrequencyChanges><FrequencyChange><Frequency dt:dt="r8">3507705</Frequency><Timestamp dt:dt="r8">260015014992</Timestamp><Current dt:dt="r8">0</Current><DateUtc dt:dt="string">2015-08-12T17:02:58Z</DateUtc></FrequencyChange></FrequencyChanges></Clock>\n	Hungry_Donkey_bar_English_2-120-2	60.018	95	1.0.0.18	1	-1977275071	Standard	2.0.10.353	2.0.10.353	08-12-2015	8/12/2015 5:02:58 PM	13:02:58	2.0.10.248	106	Bar50-50.bmp	52	3	?	0r_4g.bmp	0r_4g.bmp	0r_2g.bmp	0r_2g.bmp			0r_2g.bmp		TrialProc	TrialList	0	cvbn	-999999	16	386873	0	b	344	387217	314	-285	29	-2	-14	15	30	9	11	106	0	0	0	0	4	4	2	2	0	2
Hungry_Donkey_bar_English_2	120	2	<?xml version="1.0"?>\n<Clock xmlns:dt="urn:schemas-microsoft-com:datatypes"><Description dt:dt="string">E-Prime Primary Realtime Clock</Description><StartTime><Timestamp dt:dt="int">0</Timestamp><DateUtc dt:dt="string">2015-08-12T17:02:58Z</DateUtc></StartTime><FrequencyChanges><FrequencyChange><Frequency dt:dt="r8">3507705</Frequency><Timestamp dt:dt="r8">260015014992</Timestamp><Current dt:dt="r8">0</Current><DateUtc dt:dt="string">2015-08-12T17:02:58Z</DateUtc></FrequencyChange></FrequencyChanges></Clock>\n	Hungry_Donkey_bar_English_2-120-2	60.018	95	1.0.0.18	1	-1977275071	Standard	2.0.10.353	2.0.10.353	08-12-2015	8/12/2015 5:02:58 PM	13:02:58	2.0.10.248	107	Bar50-50.bmp	53	2	?	0r_4g.bmp	0r_4g.bmp	0r_2g.bmp	0r_2g.bmp		0r_4g.bmp			TrialProc	TrialList	0	cvbn	-999999	16	389256	0	v	345	389601	318	-285	33	-2	-10	15	30	8	11	107	0	0	0	0	4	4	2	2	0	4
Hungry_Donkey_bar_English_2	120	2	<?xml version="1.0"?>\n<Clock xmlns:dt="urn:schemas-microsoft-com:datatypes"><Description dt:dt="string">E-Prime Primary Realtime Clock</Description><StartTime><Timestamp dt:dt="int">0</Timestamp><DateUtc dt:dt="string">2015-08-12T17:02:58Z</DateUtc></StartTime><FrequencyChanges><FrequencyChange><Frequency dt:dt="r8">3507705</Frequency><Timestamp dt:dt="r8">260015014992</Timestamp><Current dt:dt="r8">0</Current><DateUtc dt:dt="string">2015-08-12T17:02:58Z</DateUtc></FrequencyChange></FrequencyChanges></Clock>\n	Hungry_Donkey_bar_English_2-120-2	60.018	95	1.0.0.18	1	-1977275071	Standard	2.0.10.353	2.0.10.353	08-12-2015	8/12/2015 5:02:58 PM	13:02:58	2.0.10.248	108	Bar50-50.bmp	53	1	?	0r_4g.bmp	0r_4g.bmp	0r_2g.bmp	0r_2g.bmp	0r_4g.bmp				TrialProc	TrialList	0	cvbn	-999999	16	391638	0	c	395	392033	322	-285	37	2	-10	15	30	10	11	108	0	0	0	0	4	4	2	2	0	4
Hungry_Donkey_bar_English_2	120	2	<?xml version="1.0"?>\n<Clock xmlns:dt="urn:schemas-microsoft-com:datatypes"><Description dt:dt="string">E-Prime Primary Realtime Clock</Description><StartTime><Timestamp dt:dt="int">0</Timestamp><DateUtc dt:dt="string">2015-08-12T17:02:58Z</DateUtc></StartTime><FrequencyChanges><FrequencyChange><Frequency dt:dt="r8">3507705</Frequency><Timestamp dt:dt="r8">260015014992</Timestamp><Current dt:dt="r8">0</Current><DateUtc dt:dt="string">2015-08-12T17:02:58Z</DateUtc></FrequencyChange></FrequencyChanges></Clock>\n	Hungry_Donkey_bar_English_2-120-2	60.018	95	1.0.0.18	1	-1977275071	Standard	2.0.10.353	2.0.10.353	08-12-2015	8/12/2015 5:02:58 PM	13:02:58	2.0.10.248	109	Bar50-50.bmp	53	2	?	10r_4g.bmp	0r_4g.bmp	2r_2g.bmp	0r_2g.bmp		0r_4g.bmp			TrialProc	TrialList	0	cvbn	-999999	16	394071	0	v	666	394737	326	-285	41	2	-6	15	30	4	11	109	-10	0	-2	0	4	4	2	2	0	4
Hungry_Donkey_bar_English_2	120	2	<?xml version="1.0"?>\n<Clock xmlns:dt="urn:schemas-microsoft-com:datatypes"><Description dt:dt="string">E-Prime Primary Realtime Clock</Description><StartTime><Timestamp dt:dt="int">0</Timestamp><DateUtc dt:dt="string">2015-08-12T17:02:58Z</DateUtc></StartTime><FrequencyChanges><FrequencyChange><Frequency dt:dt="r8">3507705</Frequency><Timestamp dt:dt="r8">260015014992</Timestamp><Current dt:dt="r8">0</Current><DateUtc dt:dt="string">2015-08-12T17:02:58Z</DateUtc></FrequencyChange></FrequencyChanges></Clock>\n	Hungry_Donkey_bar_English_2-120-2	60.018	95	1.0.0.18	1	-1977275071	Standard	2.0.10.353	2.0.10.353	08-12-2015	8/12/2015 5:02:58 PM	13:02:58	2.0.10.248	110	Bar50-50.bmp	54	4	?	0r_4g.bmp	0r_4g.bmp	0r_2g.bmp	0r_2g.bmp				0r_2g.bmp	TrialProc	TrialList	0	cvbn	-999999	16	396770	0	n	303	397073	328	-285	43	2	-6	15	32	6	11	110	0	0	0	0	4	4	2	2	0	2
Hungry_Donkey_bar_English_2	120	2	<?xml version="1.0"?>\n<Clock xmlns:dt="urn:schemas-microsoft-com:datatypes"><Description dt:dt="string">E-Prime Primary Realtime Clock</Description><StartTime><Timestamp dt:dt="int">0</Timestamp><DateUtc dt:dt="string">2015-08-12T17:02:58Z</DateUtc></StartTime><FrequencyChanges><FrequencyChange><Frequency dt:dt="r8">3507705</Frequency><Timestamp dt:dt="r8">260015014992</Timestamp><Current dt:dt="r8">0</Current><DateUtc dt:dt="string">2015-08-12T17:02:58Z</DateUtc></FrequencyChange></FrequencyChanges></Clock>\n	Hungry_Donkey_bar_English_2-120-2	60.018	95	1.0.0.18	1	-1977275071	Standard	2.0.10.353	2.0.10.353	08-12-2015	8/12/2015 5:02:58 PM	13:02:58	2.0.10.248	111	Bar50-50.bmp	54	2	?	0r_4g.bmp	0r_4g.bmp	0r_2g.bmp	0r_2g.bmp		0r_4g.bmp			TrialProc	TrialList	0	cvbn	-999999	16	399103	0	v	369	399472	332	-285	47	2	-2	15	32	8	12	111	0	0	0	0	4	4	2	2	0	4
