ExperimentName	Subject	Session	Clock.Information	DataFile.Basename	Display.RefreshRate	Eindtotaal[Session]	ExperimentVersion	Group	RandomSeed	RuntimeCapabilities	RuntimeVersion	RuntimeVersionExpected	SessionDate	SessionStartDateTimeUtc	SessionTime	StudioVersion	Block	BarImage	BarTotalWinst	DoorChoice	Eindtotaal[Block]	FBDoor1	FBDoor2	FBDoor3	FBDoor4	Image1	Image2	Image3	Image4	Procedure	Running	spel.ACC	spel.CRESP	spel.DurationError	spel.OnsetDelay	spel.OnsetTime	spel.OnsetToOnsetTime	spel.RESP	spel.RT	spel.RTTime	TotalGain	TotalLose	Totalsum	TotalsumD1	TotalsumD2	TotalsumD3	TotalsumD4	TrialList	TrialList.Cycle	TrialList.Sample	varV1	varV2	varV3	varV4	varW1	varW2	varW3	varW4	Verliesbedrag	Winstbedrag
Hungry_Donkey_bar_English_2	134	1	<?xml version="1.0"?>\n<Clock xmlns:dt="urn:schemas-microsoft-com:datatypes"><Description dt:dt="string">E-Prime Primary Realtime Clock</Description><StartTime><Timestamp dt:dt="int">0</Timestamp><DateUtc dt:dt="string">2016-03-22T22:35:22Z</DateUtc></StartTime><FrequencyChanges><FrequencyChange><Frequency dt:dt="r8">3507685</Frequency><Timestamp dt:dt="r8">1815016337727</Timestamp><Current dt:dt="r8">0</Current><DateUtc dt:dt="string">2016-03-22T22:35:22Z</DateUtc></FrequencyChange></FrequencyChanges></Clock>\n	Hungry_Donkey_bar_English_2-134-1	60.017	-120	1.0.0.18	1	-1754117044	Standard	2.0.10.353	2.0.10.353	03-22-2016		18:35:23	2.0.10.248	1	Bar25-75.bmp	29	1	?	10r_4g.bmp	0r_4g.bmp	2r_2g.bmp	0r_2g.bmp	10r_4g.bmp				TrialProc	TrialList	0	cvbn	-999999	31	57831	0	c	1297	59128	4	-10	-6	-6	0	0	0	2	1	1	-10	0	-2	0	4	4	2	2	-10	4
Hungry_Donkey_bar_English_2	134	1	<?xml version="1.0"?>\n<Clock xmlns:dt="urn:schemas-microsoft-com:datatypes"><Description dt:dt="string">E-Prime Primary Realtime Clock</Description><StartTime><Timestamp dt:dt="int">0</Timestamp><DateUtc dt:dt="string">2016-03-22T22:35:22Z</DateUtc></StartTime><FrequencyChanges><FrequencyChange><Frequency dt:dt="r8">3507685</Frequency><Timestamp dt:dt="r8">1815016337727</Timestamp><Current dt:dt="r8">0</Current><DateUtc dt:dt="string">2016-03-22T22:35:22Z</DateUtc></FrequencyChange></FrequencyChanges></Clock>\n	Hungry_Donkey_bar_English_2-134-1	60.017	-120	1.0.0.18	1	-1754117044	Standard	2.0.10.353	2.0.10.353	03-22-2016		18:35:23	2.0.10.248	2	Bar50-50.bmp	44	2	?	0r_4g.bmp	0r_4g.bmp	0r_2g.bmp	0r_2g.bmp		0r_4g.bmp			TrialProc	TrialList	0	cvbn	-999999	16	61163	0	v	2941	64104	8	-10	-2	-6	4	0	0	9	1	2	0	0	0	0	4	4	2	2	0	4
Hungry_Donkey_bar_English_2	134	1	<?xml version="1.0"?>\n<Clock xmlns:dt="urn:schemas-microsoft-com:datatypes"><Description dt:dt="string">E-Prime Primary Realtime Clock</Description><StartTime><Timestamp dt:dt="int">0</Timestamp><DateUtc dt:dt="string">2016-03-22T22:35:22Z</DateUtc></StartTime><FrequencyChanges><FrequencyChange><Frequency dt:dt="r8">3507685</Frequency><Timestamp dt:dt="r8">1815016337727</Timestamp><Current dt:dt="r8">0</Current><DateUtc dt:dt="string">2016-03-22T22:35:22Z</DateUtc></FrequencyChange></FrequencyChanges></Clock>\n	Hungry_Donkey_bar_English_2-134-1	60.017	-120	1.0.0.18	1	-1754117044	Standard	2.0.10.353	2.0.10.353	03-22-2016		18:35:23	2.0.10.248	3	Bar50-50.bmp	55	2	?	10r_4g.bmp	0r_4g.bmp	2r_2g.bmp	0r_2g.bmp		0r_4g.bmp			TrialProc	TrialList	0	cvbn	-999999	16	66145	0	v	1783	67928	12	-10	2	-6	8	0	0	4	1	3	-10	0	-2	0	4	4	2	2	0	4
Hungry_Donkey_bar_English_2	134	1	<?xml version="1.0"?>\n<Clock xmlns:dt="urn:schemas-microsoft-com:datatypes"><Description dt:dt="string">E-Prime Primary Realtime Clock</Description><StartTime><Timestamp dt:dt="int">0</Timestamp><DateUtc dt:dt="string">2016-03-22T22:35:22Z</DateUtc></StartTime><FrequencyChanges><FrequencyChange><Frequency dt:dt="r8">3507685</Frequency><Timestamp dt:dt="r8">1815016337727</Timestamp><Current dt:dt="r8">0</Current><DateUtc dt:dt="string">2016-03-22T22:35:22Z</DateUtc></FrequencyChange></FrequencyChanges></Clock>\n	Hungry_Donkey_bar_English_2-134-1	60.017	-120	1.0.0.18	1	-1754117044	Standard	2.0.10.353	2.0.10.353	03-22-2016		18:35:23	2.0.10.248	4	Bar63-37.bmp	58	4	?	12r_4g.bmp	0r_4g.bmp	3r_2g.bmp	0r_2g.bmp				0r_2g.bmp	TrialProc	TrialList	0	cvbn	-999999	16	69961	0	n	1966	71927	14	-10	4	-6	8	0	2	5	1	4	-12	0	-3	0	4	4	2	2	0	2
Hungry_Donkey_bar_English_2	134	1	<?xml version="1.0"?>\n<Clock xmlns:dt="urn:schemas-microsoft-com:datatypes"><Description dt:dt="string">E-Prime Primary Realtime Clock</Description><StartTime><Timestamp dt:dt="int">0</Timestamp><DateUtc dt:dt="string">2016-03-22T22:35:22Z</DateUtc></StartTime><FrequencyChanges><FrequencyChange><Frequency dt:dt="r8">3507685</Frequency><Timestamp dt:dt="r8">1815016337727</Timestamp><Current dt:dt="r8">0</Current><DateUtc dt:dt="string">2016-03-22T22:35:22Z</DateUtc></FrequencyChange></FrequencyChanges></Clock>\n	Hungry_Donkey_bar_English_2-134-1	60.017	-120	1.0.0.18	1	-1754117044	Standard	2.0.10.353	2.0.10.353	03-22-2016		18:35:23	2.0.10.248	5	Bar63-37.bmp	62	3	?	0r_4g.bmp	0r_4g.bmp	0r_2g.bmp	0r_2g.bmp			0r_2g.bmp		TrialProc	TrialList	0	cvbn	-999999	16	73960	0	b	463	74423	16	-10	6	-6	8	2	2	8	1	5	0	0	0	0	4	4	2	2	0	2
Hungry_Donkey_bar_English_2	134	1	<?xml version="1.0"?>\n<Clock xmlns:dt="urn:schemas-microsoft-com:datatypes"><Description dt:dt="string">E-Prime Primary Realtime Clock</Description><StartTime><Timestamp dt:dt="int">0</Timestamp><DateUtc dt:dt="string">2016-03-22T22:35:22Z</DateUtc></StartTime><FrequencyChanges><FrequencyChange><Frequency dt:dt="r8">3507685</Frequency><Timestamp dt:dt="r8">1815016337727</Timestamp><Current dt:dt="r8">0</Current><DateUtc dt:dt="string">2016-03-22T22:35:22Z</DateUtc></FrequencyChange></FrequencyChanges></Clock>\n	Hungry_Donkey_bar_English_2-134-1	60.017	-120	1.0.0.18	1	-1754117044	Standard	2.0.10.353	2.0.10.353	03-22-2016		18:35:23	2.0.10.248	6	Bar63-37.bmp	67	1	?	0r_4g.bmp	0r_4g.bmp	0r_2g.bmp	0r_2g.bmp	0r_4g.bmp				TrialProc	TrialList	0	cvbn	-999999	16	76459	0	c	716	77175	20	-10	10	-2	8	2	2	7	1	6	0	0	0	0	4	4	2	2	0	4
Hungry_Donkey_bar_English_2	134	1	<?xml version="1.0"?>\n<Clock xmlns:dt="urn:schemas-microsoft-com:datatypes"><Description dt:dt="string">E-Prime Primary Realtime Clock</Description><StartTime><Timestamp dt:dt="int">0</Timestamp><DateUtc dt:dt="string">2016-03-22T22:35:22Z</DateUtc></StartTime><FrequencyChanges><FrequencyChange><Frequency dt:dt="r8">3507685</Frequency><Timestamp dt:dt="r8">1815016337727</Timestamp><Current dt:dt="r8">0</Current><DateUtc dt:dt="string">2016-03-22T22:35:22Z</DateUtc></FrequencyChange></FrequencyChanges></Clock>\n	Hungry_Donkey_bar_English_2-134-1	60.017	-120	1.0.0.18	1	-1754117044	Standard	2.0.10.353	2.0.10.353	03-22-2016		18:35:23	2.0.10.248	7	Bar63-37.bmp	69	3	?	0r_4g.bmp	0r_4g.bmp	0r_2g.bmp	0r_2g.bmp			0r_2g.bmp		TrialProc	TrialList	0	cvbn	-999999	16	79208	0	b	543	79751	22	-10	12	-2	8	4	2	6	1	7	0	0	0	0	4	4	2	2	0	2
Hungry_Donkey_bar_English_2	134	1	<?xml version="1.0"?>\n<Clock xmlns:dt="urn:schemas-microsoft-com:datatypes"><Description dt:dt="string">E-Prime Primary Realtime Clock</Description><StartTime><Timestamp dt:dt="int">0</Timestamp><DateUtc dt:dt="string">2016-03-22T22:35:22Z</DateUtc></StartTime><FrequencyChanges><FrequencyChange><Frequency dt:dt="r8">3507685</Frequency><Timestamp dt:dt="r8">1815016337727</Timestamp><Current dt:dt="r8">0</Current><DateUtc dt:dt="string">2016-03-22T22:35:22Z</DateUtc></FrequencyChange></FrequencyChanges></Clock>\n	Hungry_Donkey_bar_English_2-134-1	60.017	-120	1.0.0.18	1	-1754117044	Standard	2.0.10.353	2.0.10.353	03-22-2016		18:35:23	2.0.10.248	8	Bar25-75.bmp	30	2	?	8r_4g.bmp	50r_4g.bmp	1r_2g.bmp	10r_2g.bmp		50r_4g.bmp			TrialProc	TrialList	0	cvbn	-999999	16	81791	0	v	344	82135	26	-60	-34	-2	-38	4	2	1	1	8	-8	-50	-1	-10	4	4	2	2	-50	4
Hungry_Donkey_bar_English_2	134	1	<?xml version="1.0"?>\n<Clock xmlns:dt="urn:schemas-microsoft-com:datatypes"><Description dt:dt="string">E-Prime Primary Realtime Clock</Description><StartTime><Timestamp dt:dt="int">0</Timestamp><DateUtc dt:dt="string">2016-03-22T22:35:22Z</DateUtc></StartTime><FrequencyChanges><FrequencyChange><Frequency dt:dt="r8">3507685</Frequency><Timestamp dt:dt="r8">1815016337727</Timestamp><Current dt:dt="r8">0</Current><DateUtc dt:dt="string">2016-03-22T22:35:22Z</DateUtc></FrequencyChange></FrequencyChanges></Clock>\n	Hungry_Donkey_bar_English_2-134-1	60.017	-120	1.0.0.18	1	-1754117044	Standard	2.0.10.353	2.0.10.353	03-22-2016		18:35:23	2.0.10.248	9	Bar37-63.bmp	32	4	?	0r_4g.bmp	0r_4g.bmp	0r_2g.bmp	0r_2g.bmp				0r_2g.bmp	TrialProc	TrialList	0	cvbn	-999999	16	84173	0	n	2410	86583	28	-60	-32	-2	-38	4	4	10	1	9	0	0	0	0	4	4	2	2	0	2
Hungry_Donkey_bar_English_2	134	1	<?xml version="1.0"?>\n<Clock xmlns:dt="urn:schemas-microsoft-com:datatypes"><Description dt:dt="string">E-Prime Primary Realtime Clock</Description><StartTime><Timestamp dt:dt="int">0</Timestamp><DateUtc dt:dt="string">2016-03-22T22:35:22Z</DateUtc></StartTime><FrequencyChanges><FrequencyChange><Frequency dt:dt="r8">3507685</Frequency><Timestamp dt:dt="r8">1815016337727</Timestamp><Current dt:dt="r8">0</Current><DateUtc dt:dt="string">2016-03-22T22:35:22Z</DateUtc></FrequencyChange></FrequencyChanges></Clock>\n	Hungry_Donkey_bar_English_2-134-1	60.017	-120	1.0.0.18	1	-1754117044	Standard	2.0.10.353	2.0.10.353	03-22-2016		18:35:23	2.0.10.248	10	Bar37-63.bmp	33	3	?	10r_4g.bmp	0r_4g.bmp	2r_2g.bmp	0r_2g.bmp			2r_2g.bmp		TrialProc	TrialList	0	cvbn	-999999	16	88622	0	b	360	88982	30	-62	-32	-2	-38	4	4	3	1	10	-10	0	-2	0	4	4	2	2	-2	2
Hungry_Donkey_bar_English_2	134	1	<?xml version="1.0"?>\n<Clock xmlns:dt="urn:schemas-microsoft-com:datatypes"><Description dt:dt="string">E-Prime Primary Realtime Clock</Description><StartTime><Timestamp dt:dt="int">0</Timestamp><DateUtc dt:dt="string">2016-03-22T22:35:22Z</DateUtc></StartTime><FrequencyChanges><FrequencyChange><Frequency dt:dt="r8">3507685</Frequency><Timestamp dt:dt="r8">1815016337727</Timestamp><Current dt:dt="r8">0</Current><DateUtc dt:dt="string">2016-03-22T22:35:22Z</DateUtc></FrequencyChange></FrequencyChanges></Clock>\n	Hungry_Donkey_bar_English_2-134-1	60.017	-120	1.0.0.18	1	-1754117044	Standard	2.0.10.353	2.0.10.353	03-22-2016		18:35:23	2.0.10.248	11	Bar37-63.bmp	35	2	?	0r_4g.bmp	0r_4g.bmp	0r_2g.bmp	0r_2g.bmp		0r_4g.bmp			TrialProc	TrialList	0	cvbn	-999999	17	91022	0	v	376	91398	34	-62	-28	-2	-34	4	4	8	2	11	0	0	0	0	4	4	2	2	0	4
Hungry_Donkey_bar_English_2	134	1	<?xml version="1.0"?>\n<Clock xmlns:dt="urn:schemas-microsoft-com:datatypes"><Description dt:dt="string">E-Prime Primary Realtime Clock</Description><StartTime><Timestamp dt:dt="int">0</Timestamp><DateUtc dt:dt="string">2016-03-22T22:35:22Z</DateUtc></StartTime><FrequencyChanges><FrequencyChange><Frequency dt:dt="r8">3507685</Frequency><Timestamp dt:dt="r8">1815016337727</Timestamp><Current dt:dt="r8">0</Current><DateUtc dt:dt="string">2016-03-22T22:35:22Z</DateUtc></FrequencyChange></FrequencyChanges></Clock>\n	Hungry_Donkey_bar_English_2-134-1	60.017	-120	1.0.0.18	1	-1754117044	Standard	2.0.10.353	2.0.10.353	03-22-2016		18:35:23	2.0.10.248	12	Bar37-63.bmp	38	2	?	12r_4g.bmp	0r_4g.bmp	3r_2g.bmp	0r_2g.bmp		0r_4g.bmp			TrialProc	TrialList	0	cvbn	-999999	16	93437	0	v	233	93670	38	-62	-24	-2	-30	4	4	5	2	12	-12	0	-3	0	4	4	2	2	0	4
Hungry_Donkey_bar_English_2	134	1	<?xml version="1.0"?>\n<Clock xmlns:dt="urn:schemas-microsoft-com:datatypes"><Description dt:dt="string">E-Prime Primary Realtime Clock</Description><StartTime><Timestamp dt:dt="int">0</Timestamp><DateUtc dt:dt="string">2016-03-22T22:35:22Z</DateUtc></StartTime><FrequencyChanges><FrequencyChange><Frequency dt:dt="r8">3507685</Frequency><Timestamp dt:dt="r8">1815016337727</Timestamp><Current dt:dt="r8">0</Current><DateUtc dt:dt="string">2016-03-22T22:35:22Z</DateUtc></FrequencyChange></FrequencyChanges></Clock>\n	Hungry_Donkey_bar_English_2-134-1	60.017	-120	1.0.0.18	1	-1754117044	Standard	2.0.10.353	2.0.10.353	03-22-2016		18:35:23	2.0.10.248	13	Bar37-63.bmp	40	2	?	10r_4g.bmp	0r_4g.bmp	2r_2g.bmp	0r_2g.bmp		0r_4g.bmp			TrialProc	TrialList	0	cvbn	-999999	16	95703	0	v	255	95958	42	-62	-20	-2	-26	4	4	2	2	13	-10	0	-2	0	4	4	2	2	0	4
Hungry_Donkey_bar_English_2	134	1	<?xml version="1.0"?>\n<Clock xmlns:dt="urn:schemas-microsoft-com:datatypes"><Description dt:dt="string">E-Prime Primary Realtime Clock</Description><StartTime><Timestamp dt:dt="int">0</Timestamp><DateUtc dt:dt="string">2016-03-22T22:35:22Z</DateUtc></StartTime><FrequencyChanges><FrequencyChange><Frequency dt:dt="r8">3507685</Frequency><Timestamp dt:dt="r8">1815016337727</Timestamp><Current dt:dt="r8">0</Current><DateUtc dt:dt="string">2016-03-22T22:35:22Z</DateUtc></FrequencyChange></FrequencyChanges></Clock>\n	Hungry_Donkey_bar_English_2-134-1	60.017	-120	1.0.0.18	1	-1754117044	Standard	2.0.10.353	2.0.10.353	03-22-2016		18:35:23	2.0.10.248	14	Bar37-63.bmp	43	2	?	0r_4g.bmp	0r_4g.bmp	0r_2g.bmp	0r_2g.bmp		0r_4g.bmp			TrialProc	TrialList	0	cvbn	-999999	16	97986	0	v	20	98006	46	-62	-16	-2	-22	4	4	10	2	14	0	0	0	0	4	4	2	2	0	4
Hungry_Donkey_bar_English_2	134	1	<?xml version="1.0"?>\n<Clock xmlns:dt="urn:schemas-microsoft-com:datatypes"><Description dt:dt="string">E-Prime Primary Realtime Clock</Description><StartTime><Timestamp dt:dt="int">0</Timestamp><DateUtc dt:dt="string">2016-03-22T22:35:22Z</DateUtc></StartTime><FrequencyChanges><FrequencyChange><Frequency dt:dt="r8">3507685</Frequency><Timestamp dt:dt="r8">1815016337727</Timestamp><Current dt:dt="r8">0</Current><DateUtc dt:dt="string">2016-03-22T22:35:22Z</DateUtc></FrequencyChange></FrequencyChanges></Clock>\n	Hungry_Donkey_bar_English_2-134-1	60.017	-120	1.0.0.18	1	-1754117044	Standard	2.0.10.353	2.0.10.353	03-22-2016		18:35:23	2.0.10.248	15	Bar50-50.bmp	45	2	?	0r_4g.bmp	0r_4g.bmp	0r_2g.bmp	0r_2g.bmp		0r_4g.bmp			TrialProc	TrialList	0	cvbn	-999999	17	100036	0	v	50	100086	50	-62	-12	-2	-18	4	4	6	2	15	0	0	0	0	4	4	2	2	0	4
Hungry_Donkey_bar_English_2	134	1	<?xml version="1.0"?>\n<Clock xmlns:dt="urn:schemas-microsoft-com:datatypes"><Description dt:dt="string">E-Prime Primary Realtime Clock</Description><StartTime><Timestamp dt:dt="int">0</Timestamp><DateUtc dt:dt="string">2016-03-22T22:35:22Z</DateUtc></StartTime><FrequencyChanges><FrequencyChange><Frequency dt:dt="r8">3507685</Frequency><Timestamp dt:dt="r8">1815016337727</Timestamp><Current dt:dt="r8">0</Current><DateUtc dt:dt="string">2016-03-22T22:35:22Z</DateUtc></FrequencyChange></FrequencyChanges></Clock>\n	Hungry_Donkey_bar_English_2-134-1	60.017	-120	1.0.0.18	1	-1754117044	Standard	2.0.10.353	2.0.10.353	03-22-2016		18:35:23	2.0.10.248	16	Bar50-50.bmp	47	2	?	10r_4g.bmp	0r_4g.bmp	2r_2g.bmp	0r_2g.bmp		0r_4g.bmp			TrialProc	TrialList	0	cvbn	-999999	16	102118	0	v	32	102150	54	-62	-8	-2	-14	4	4	4	2	16	-10	0	-2	0	4	4	2	2	0	4
Hungry_Donkey_bar_English_2	134	1	<?xml version="1.0"?>\n<Clock xmlns:dt="urn:schemas-microsoft-com:datatypes"><Description dt:dt="string">E-Prime Primary Realtime Clock</Description><StartTime><Timestamp dt:dt="int">0</Timestamp><DateUtc dt:dt="string">2016-03-22T22:35:22Z</DateUtc></StartTime><FrequencyChanges><FrequencyChange><Frequency dt:dt="r8">3507685</Frequency><Timestamp dt:dt="r8">1815016337727</Timestamp><Current dt:dt="r8">0</Current><DateUtc dt:dt="string">2016-03-22T22:35:22Z</DateUtc></FrequencyChange></FrequencyChanges></Clock>\n	Hungry_Donkey_bar_English_2-134-1	60.017	-120	1.0.0.18	1	-1754117044	Standard	2.0.10.353	2.0.10.353	03-22-2016		18:35:23	2.0.10.248	17	Bar50-50.bmp	48	2	?	0r_4g.bmp	0r_4g.bmp	0r_2g.bmp	0r_2g.bmp		0r_4g.bmp			TrialProc	TrialList	0	cvbn	-999999	16	104184	0	v	206	104390	58	-62	-4	-2	-10	4	4	9	2	17	0	0	0	0	4	4	2	2	0	4
Hungry_Donkey_bar_English_2	134	1	<?xml version="1.0"?>\n<Clock xmlns:dt="urn:schemas-microsoft-com:datatypes"><Description dt:dt="string">E-Prime Primary Realtime Clock</Description><StartTime><Timestamp dt:dt="int">0</Timestamp><DateUtc dt:dt="string">2016-03-22T22:35:22Z</DateUtc></StartTime><FrequencyChanges><FrequencyChange><Frequency dt:dt="r8">3507685</Frequency><Timestamp dt:dt="r8">1815016337727</Timestamp><Current dt:dt="r8">0</Current><DateUtc dt:dt="string">2016-03-22T22:35:22Z</DateUtc></FrequencyChange></FrequencyChanges></Clock>\n	Hungry_Donkey_bar_English_2-134-1	60.017	-120	1.0.0.18	1	-1754117044	Standard	2.0.10.353	2.0.10.353	03-22-2016		18:35:23	2.0.10.248	18	Bar50-50.bmp	50	2	?	10r_4g.bmp	0r_4g.bmp	2r_2g.bmp	0r_2g.bmp		0r_4g.bmp			TrialProc	TrialList	0	cvbn	-999999	16	106417	0	v	245	106662	62	-62	0	-2	-6	4	4	3	2	18	-10	0	-2	0	4	4	2	2	0	4
Hungry_Donkey_bar_English_2	134	1	<?xml version="1.0"?>\n<Clock xmlns:dt="urn:schemas-microsoft-com:datatypes"><Description dt:dt="string">E-Prime Primary Realtime Clock</Description><StartTime><Timestamp dt:dt="int">0</Timestamp><DateUtc dt:dt="string">2016-03-22T22:35:22Z</DateUtc></StartTime><FrequencyChanges><FrequencyChange><Frequency dt:dt="r8">3507685</Frequency><Timestamp dt:dt="r8">1815016337727</Timestamp><Current dt:dt="r8">0</Current><DateUtc dt:dt="string">2016-03-22T22:35:22Z</DateUtc></FrequencyChange></FrequencyChanges></Clock>\n	Hungry_Donkey_bar_English_2-134-1	60.017	-120	1.0.0.18	1	-1754117044	Standard	2.0.10.353	2.0.10.353	03-22-2016		18:35:23	2.0.10.248	19	Bar37-63.bmp	37	2	?	8r_4g.bmp	50r_4g.bmp	1r_2g.bmp	10r_2g.bmp		50r_4g.bmp			TrialProc	TrialList	0	cvbn	-999999	16	108700	0	v	121	108821	66	-112	-46	-2	-52	4	4	1	2	19	-8	-50	-1	-10	4	4	2	2	-50	4
Hungry_Donkey_bar_English_2	134	1	<?xml version="1.0"?>\n<Clock xmlns:dt="urn:schemas-microsoft-com:datatypes"><Description dt:dt="string">E-Prime Primary Realtime Clock</Description><StartTime><Timestamp dt:dt="int">0</Timestamp><DateUtc dt:dt="string">2016-03-22T22:35:22Z</DateUtc></StartTime><FrequencyChanges><FrequencyChange><Frequency dt:dt="r8">3507685</Frequency><Timestamp dt:dt="r8">1815016337727</Timestamp><Current dt:dt="r8">0</Current><DateUtc dt:dt="string">2016-03-22T22:35:22Z</DateUtc></FrequencyChange></FrequencyChanges></Clock>\n	Hungry_Donkey_bar_English_2-134-1	60.017	-120	1.0.0.18	1	-1754117044	Standard	2.0.10.353	2.0.10.353	03-22-2016		18:35:23	2.0.10.248	20	Bar37-63.bmp	38	2	?	0r_4g.bmp	0r_4g.bmp	0r_2g.bmp	0r_2g.bmp		0r_4g.bmp			TrialProc	TrialList	0	cvbn	-999999	16	110849	0	v	660	111509	70	-112	-42	-2	-48	4	4	7	2	20	0	0	0	0	4	4	2	2	0	4
Hungry_Donkey_bar_English_2	134	1	<?xml version="1.0"?>\n<Clock xmlns:dt="urn:schemas-microsoft-com:datatypes"><Description dt:dt="string">E-Prime Primary Realtime Clock</Description><StartTime><Timestamp dt:dt="int">0</Timestamp><DateUtc dt:dt="string">2016-03-22T22:35:22Z</DateUtc></StartTime><FrequencyChanges><FrequencyChange><Frequency dt:dt="r8">3507685</Frequency><Timestamp dt:dt="r8">1815016337727</Timestamp><Current dt:dt="r8">0</Current><DateUtc dt:dt="string">2016-03-22T22:35:22Z</DateUtc></FrequencyChange></FrequencyChanges></Clock>\n	Hungry_Donkey_bar_English_2-134-1	60.017	-120	1.0.0.18	1	-1754117044	Standard	2.0.10.353	2.0.10.353	03-22-2016		18:35:23	2.0.10.248	21	Bar37-63.bmp	40	2	?	0r_4g.bmp	0r_4g.bmp	0r_2g.bmp	0r_2g.bmp		0r_4g.bmp			TrialProc	TrialList	0	cvbn	-999999	16	113548	0	v	25	113573	74	-112	-38	-2	-44	4	4	10	3	21	0	0	0	0	4	4	2	2	0	4
Hungry_Donkey_bar_English_2	134	1	<?xml version="1.0"?>\n<Clock xmlns:dt="urn:schemas-microsoft-com:datatypes"><Description dt:dt="string">E-Prime Primary Realtime Clock</Description><StartTime><Timestamp dt:dt="int">0</Timestamp><DateUtc dt:dt="string">2016-03-22T22:35:22Z</DateUtc></StartTime><FrequencyChanges><FrequencyChange><Frequency dt:dt="r8">3507685</Frequency><Timestamp dt:dt="r8">1815016337727</Timestamp><Current dt:dt="r8">0</Current><DateUtc dt:dt="string">2016-03-22T22:35:22Z</DateUtc></FrequencyChange></FrequencyChanges></Clock>\n	Hungry_Donkey_bar_English_2-134-1	60.017	-120	1.0.0.18	1	-1754117044	Standard	2.0.10.353	2.0.10.353	03-22-2016		18:35:23	2.0.10.248	22	Bar37-63.bmp	41	2	?	10r_4g.bmp	0r_4g.bmp	2r_2g.bmp	0r_2g.bmp		0r_4g.bmp			TrialProc	TrialList	0	cvbn	-999999	16	115598	0	v	247	115845	78	-112	-34	-2	-40	4	4	2	3	22	-10	0	-2	0	4	4	2	2	0	4
Hungry_Donkey_bar_English_2	134	1	<?xml version="1.0"?>\n<Clock xmlns:dt="urn:schemas-microsoft-com:datatypes"><Description dt:dt="string">E-Prime Primary Realtime Clock</Description><StartTime><Timestamp dt:dt="int">0</Timestamp><DateUtc dt:dt="string">2016-03-22T22:35:22Z</DateUtc></StartTime><FrequencyChanges><FrequencyChange><Frequency dt:dt="r8">3507685</Frequency><Timestamp dt:dt="r8">1815016337727</Timestamp><Current dt:dt="r8">0</Current><DateUtc dt:dt="string">2016-03-22T22:35:22Z</DateUtc></FrequencyChange></FrequencyChanges></Clock>\n	Hungry_Donkey_bar_English_2-134-1	60.017	-120	1.0.0.18	1	-1754117044	Standard	2.0.10.353	2.0.10.353	03-22-2016		18:35:23	2.0.10.248	23	Bar37-63.bmp	42	2	?	0r_4g.bmp	0r_4g.bmp	0r_2g.bmp	0r_2g.bmp		0r_4g.bmp			TrialProc	TrialList	0	cvbn	-999999	16	117880	0	v	205	118085	82	-112	-30	-2	-36	4	4	7	3	23	0	0	0	0	4	4	2	2	0	4
Hungry_Donkey_bar_English_2	134	1	<?xml version="1.0"?>\n<Clock xmlns:dt="urn:schemas-microsoft-com:datatypes"><Description dt:dt="string">E-Prime Primary Realtime Clock</Description><StartTime><Timestamp dt:dt="int">0</Timestamp><DateUtc dt:dt="string">2016-03-22T22:35:22Z</DateUtc></StartTime><FrequencyChanges><FrequencyChange><Frequency dt:dt="r8">3507685</Frequency><Timestamp dt:dt="r8">1815016337727</Timestamp><Current dt:dt="r8">0</Current><DateUtc dt:dt="string">2016-03-22T22:35:22Z</DateUtc></FrequencyChange></FrequencyChanges></Clock>\n	Hungry_Donkey_bar_English_2-134-1	60.017	-120	1.0.0.18	1	-1754117044	Standard	2.0.10.353	2.0.10.353	03-22-2016		18:35:23	2.0.10.248	24	Bar37-63.bmp	43	2	?	0r_4g.bmp	0r_4g.bmp	0r_2g.bmp	0r_2g.bmp		0r_4g.bmp			TrialProc	TrialList	0	cvbn	-999999	16	120113	0	v	116	120229	86	-112	-26	-2	-32	4	4	8	3	24	0	0	0	0	4	4	2	2	0	4
Hungry_Donkey_bar_English_2	134	1	<?xml version="1.0"?>\n<Clock xmlns:dt="urn:schemas-microsoft-com:datatypes"><Description dt:dt="string">E-Prime Primary Realtime Clock</Description><StartTime><Timestamp dt:dt="int">0</Timestamp><DateUtc dt:dt="string">2016-03-22T22:35:22Z</DateUtc></StartTime><FrequencyChanges><FrequencyChange><Frequency dt:dt="r8">3507685</Frequency><Timestamp dt:dt="r8">1815016337727</Timestamp><Current dt:dt="r8">0</Current><DateUtc dt:dt="string">2016-03-22T22:35:22Z</DateUtc></FrequencyChange></FrequencyChanges></Clock>\n	Hungry_Donkey_bar_English_2-134-1	60.017	-120	1.0.0.18	1	-1754117044	Standard	2.0.10.353	2.0.10.353	03-22-2016		18:35:23	2.0.10.248	25	Bar50-50.bmp	45	2	?	0r_4g.bmp	0r_4g.bmp	0r_2g.bmp	0r_2g.bmp		0r_4g.bmp			TrialProc	TrialList	0	cvbn	-999999	16	122262	0	v	511	122773	90	-112	-22	-2	-28	4	4	6	3	25	0	0	0	0	4	4	2	2	0	4
Hungry_Donkey_bar_English_2	134	1	<?xml version="1.0"?>\n<Clock xmlns:dt="urn:schemas-microsoft-com:datatypes"><Description dt:dt="string">E-Prime Primary Realtime Clock</Description><StartTime><Timestamp dt:dt="int">0</Timestamp><DateUtc dt:dt="string">2016-03-22T22:35:22Z</DateUtc></StartTime><FrequencyChanges><FrequencyChange><Frequency dt:dt="r8">3507685</Frequency><Timestamp dt:dt="r8">1815016337727</Timestamp><Current dt:dt="r8">0</Current><DateUtc dt:dt="string">2016-03-22T22:35:22Z</DateUtc></FrequencyChange></FrequencyChanges></Clock>\n	Hungry_Donkey_bar_English_2-134-1	60.017	-120	1.0.0.18	1	-1754117044	Standard	2.0.10.353	2.0.10.353	03-22-2016		18:35:23	2.0.10.248	26	Bar50-50.bmp	46	2	?	10r_4g.bmp	0r_4g.bmp	2r_2g.bmp	0r_2g.bmp		0r_4g.bmp			TrialProc	TrialList	0	cvbn	-999999	16	124812	0	v	457	125269	94	-112	-18	-2	-24	4	4	4	3	26	-10	0	-2	0	4	4	2	2	0	4
Hungry_Donkey_bar_English_2	134	1	<?xml version="1.0"?>\n<Clock xmlns:dt="urn:schemas-microsoft-com:datatypes"><Description dt:dt="string">E-Prime Primary Realtime Clock</Description><StartTime><Timestamp dt:dt="int">0</Timestamp><DateUtc dt:dt="string">2016-03-22T22:35:22Z</DateUtc></StartTime><FrequencyChanges><FrequencyChange><Frequency dt:dt="r8">3507685</Frequency><Timestamp dt:dt="r8">1815016337727</Timestamp><Current dt:dt="r8">0</Current><DateUtc dt:dt="string">2016-03-22T22:35:22Z</DateUtc></FrequencyChange></FrequencyChanges></Clock>\n	Hungry_Donkey_bar_English_2-134-1	60.017	-120	1.0.0.18	1	-1754117044	Standard	2.0.10.353	2.0.10.353	03-22-2016		18:35:23	2.0.10.248	27	Bar50-50.bmp	46	3	?	8r_4g.bmp	50r_4g.bmp	1r_2g.bmp	10r_2g.bmp			1r_2g.bmp		TrialProc	TrialList	0	cvbn	-999999	16	127294	0	b	326	127620	96	-113	-17	-2	-24	5	4	1	3	27	-8	-50	-1	-10	4	4	2	2	-1	2
Hungry_Donkey_bar_English_2	134	1	<?xml version="1.0"?>\n<Clock xmlns:dt="urn:schemas-microsoft-com:datatypes"><Description dt:dt="string">E-Prime Primary Realtime Clock</Description><StartTime><Timestamp dt:dt="int">0</Timestamp><DateUtc dt:dt="string">2016-03-22T22:35:22Z</DateUtc></StartTime><FrequencyChanges><FrequencyChange><Frequency dt:dt="r8">3507685</Frequency><Timestamp dt:dt="r8">1815016337727</Timestamp><Current dt:dt="r8">0</Current><DateUtc dt:dt="string">2016-03-22T22:35:22Z</DateUtc></FrequencyChange></FrequencyChanges></Clock>\n	Hungry_Donkey_bar_English_2-134-1	60.017	-120	1.0.0.18	1	-1754117044	Standard	2.0.10.353	2.0.10.353	03-22-2016		18:35:23	2.0.10.248	28	Bar50-50.bmp	47	2	?	10r_4g.bmp	0r_4g.bmp	2r_2g.bmp	0r_2g.bmp		0r_4g.bmp			TrialProc	TrialList	0	cvbn	-999999	16	129660	0	v	632	130292	100	-113	-13	-2	-20	5	4	3	3	28	-10	0	-2	0	4	4	2	2	0	4
Hungry_Donkey_bar_English_2	134	1	<?xml version="1.0"?>\n<Clock xmlns:dt="urn:schemas-microsoft-com:datatypes"><Description dt:dt="string">E-Prime Primary Realtime Clock</Description><StartTime><Timestamp dt:dt="int">0</Timestamp><DateUtc dt:dt="string">2016-03-22T22:35:22Z</DateUtc></StartTime><FrequencyChanges><FrequencyChange><Frequency dt:dt="r8">3507685</Frequency><Timestamp dt:dt="r8">1815016337727</Timestamp><Current dt:dt="r8">0</Current><DateUtc dt:dt="string">2016-03-22T22:35:22Z</DateUtc></FrequencyChange></FrequencyChanges></Clock>\n	Hungry_Donkey_bar_English_2-134-1	60.017	-120	1.0.0.18	1	-1754117044	Standard	2.0.10.353	2.0.10.353	03-22-2016		18:35:23	2.0.10.248	29	Bar50-50.bmp	48	2	?	0r_4g.bmp	0r_4g.bmp	0r_2g.bmp	0r_2g.bmp		0r_4g.bmp			TrialProc	TrialList	0	cvbn	-999999	16	132326	0	v	286	132612	104	-113	-9	-2	-16	5	4	9	3	29	0	0	0	0	4	4	2	2	0	4
Hungry_Donkey_bar_English_2	134	1	<?xml version="1.0"?>\n<Clock xmlns:dt="urn:schemas-microsoft-com:datatypes"><Description dt:dt="string">E-Prime Primary Realtime Clock</Description><StartTime><Timestamp dt:dt="int">0</Timestamp><DateUtc dt:dt="string">2016-03-22T22:35:22Z</DateUtc></StartTime><FrequencyChanges><FrequencyChange><Frequency dt:dt="r8">3507685</Frequency><Timestamp dt:dt="r8">1815016337727</Timestamp><Current dt:dt="r8">0</Current><DateUtc dt:dt="string">2016-03-22T22:35:22Z</DateUtc></FrequencyChange></FrequencyChanges></Clock>\n	Hungry_Donkey_bar_English_2-134-1	60.017	-120	1.0.0.18	1	-1754117044	Standard	2.0.10.353	2.0.10.353	03-22-2016		18:35:23	2.0.10.248	30	Bar50-50.bmp	49	2	?	12r_4g.bmp	0r_4g.bmp	3r_2g.bmp	0r_2g.bmp		0r_4g.bmp			TrialProc	TrialList	0	cvbn	-999999	16	134642	0	v	482	135124	108	-113	-5	-2	-12	5	4	5	3	30	-12	0	-3	0	4	4	2	2	0	4
Hungry_Donkey_bar_English_2	134	1	<?xml version="1.0"?>\n<Clock xmlns:dt="urn:schemas-microsoft-com:datatypes"><Description dt:dt="string">E-Prime Primary Realtime Clock</Description><StartTime><Timestamp dt:dt="int">0</Timestamp><DateUtc dt:dt="string">2016-03-22T22:35:22Z</DateUtc></StartTime><FrequencyChanges><FrequencyChange><Frequency dt:dt="r8">3507685</Frequency><Timestamp dt:dt="r8">1815016337727</Timestamp><Current dt:dt="r8">0</Current><DateUtc dt:dt="string">2016-03-22T22:35:22Z</DateUtc></FrequencyChange></FrequencyChanges></Clock>\n	Hungry_Donkey_bar_English_2-134-1	60.017	-120	1.0.0.18	1	-1754117044	Standard	2.0.10.353	2.0.10.353	03-22-2016		18:35:23	2.0.10.248	31	Bar50-50.bmp	50	2	?	0r_4g.bmp	0r_4g.bmp	0r_2g.bmp	0r_2g.bmp		0r_4g.bmp			TrialProc	TrialList	0	cvbn	-999999	16	137158	0	v	254	137412	112	-113	-1	-2	-8	5	4	9	4	31	0	0	0	0	4	4	2	2	0	4
Hungry_Donkey_bar_English_2	134	1	<?xml version="1.0"?>\n<Clock xmlns:dt="urn:schemas-microsoft-com:datatypes"><Description dt:dt="string">E-Prime Primary Realtime Clock</Description><StartTime><Timestamp dt:dt="int">0</Timestamp><DateUtc dt:dt="string">2016-03-22T22:35:22Z</DateUtc></StartTime><FrequencyChanges><FrequencyChange><Frequency dt:dt="r8">3507685</Frequency><Timestamp dt:dt="r8">1815016337727</Timestamp><Current dt:dt="r8">0</Current><DateUtc dt:dt="string">2016-03-22T22:35:22Z</DateUtc></FrequencyChange></FrequencyChanges></Clock>\n	Hungry_Donkey_bar_English_2-134-1	60.017	-120	1.0.0.18	1	-1754117044	Standard	2.0.10.353	2.0.10.353	03-22-2016		18:35:23	2.0.10.248	32	Bar50-50.bmp	48	1	?	12r_4g.bmp	0r_4g.bmp	3r_2g.bmp	0r_2g.bmp	12r_4g.bmp				TrialProc	TrialList	0	cvbn	-999999	16	139441	0	c	563	140004	116	-125	-9	-10	-8	5	4	5	4	32	-12	0	-3	0	4	4	2	2	-12	4
Hungry_Donkey_bar_English_2	134	1	<?xml version="1.0"?>\n<Clock xmlns:dt="urn:schemas-microsoft-com:datatypes"><Description dt:dt="string">E-Prime Primary Realtime Clock</Description><StartTime><Timestamp dt:dt="int">0</Timestamp><DateUtc dt:dt="string">2016-03-22T22:35:22Z</DateUtc></StartTime><FrequencyChanges><FrequencyChange><Frequency dt:dt="r8">3507685</Frequency><Timestamp dt:dt="r8">1815016337727</Timestamp><Current dt:dt="r8">0</Current><DateUtc dt:dt="string">2016-03-22T22:35:22Z</DateUtc></FrequencyChange></FrequencyChanges></Clock>\n	Hungry_Donkey_bar_English_2-134-1	60.017	-120	1.0.0.18	1	-1754117044	Standard	2.0.10.353	2.0.10.353	03-22-2016		18:35:23	2.0.10.248	33	Bar50-50.bmp	49	2	?	0r_4g.bmp	0r_4g.bmp	0r_2g.bmp	0r_2g.bmp		0r_4g.bmp			TrialProc	TrialList	0	cvbn	-999999	16	142040	0	v	412	142452	120	-125	-5	-10	-4	5	4	6	4	33	0	0	0	0	4	4	2	2	0	4
Hungry_Donkey_bar_English_2	134	1	<?xml version="1.0"?>\n<Clock xmlns:dt="urn:schemas-microsoft-com:datatypes"><Description dt:dt="string">E-Prime Primary Realtime Clock</Description><StartTime><Timestamp dt:dt="int">0</Timestamp><DateUtc dt:dt="string">2016-03-22T22:35:22Z</DateUtc></StartTime><FrequencyChanges><FrequencyChange><Frequency dt:dt="r8">3507685</Frequency><Timestamp dt:dt="r8">1815016337727</Timestamp><Current dt:dt="r8">0</Current><DateUtc dt:dt="string">2016-03-22T22:35:22Z</DateUtc></FrequencyChange></FrequencyChanges></Clock>\n	Hungry_Donkey_bar_English_2-134-1	60.017	-120	1.0.0.18	1	-1754117044	Standard	2.0.10.353	2.0.10.353	03-22-2016		18:35:23	2.0.10.248	34	Bar50-50.bmp	50	2	?	0r_4g.bmp	0r_4g.bmp	0r_2g.bmp	0r_2g.bmp		0r_4g.bmp			TrialProc	TrialList	0	cvbn	-999999	16	144489	0	v	347	144836	124	-125	-1	-10	0	5	4	10	4	34	0	0	0	0	4	4	2	2	0	4
Hungry_Donkey_bar_English_2	134	1	<?xml version="1.0"?>\n<Clock xmlns:dt="urn:schemas-microsoft-com:datatypes"><Description dt:dt="string">E-Prime Primary Realtime Clock</Description><StartTime><Timestamp dt:dt="int">0</Timestamp><DateUtc dt:dt="string">2016-03-22T22:35:22Z</DateUtc></StartTime><FrequencyChanges><FrequencyChange><Frequency dt:dt="r8">3507685</Frequency><Timestamp dt:dt="r8">1815016337727</Timestamp><Current dt:dt="r8">0</Current><DateUtc dt:dt="string">2016-03-22T22:35:22Z</DateUtc></FrequencyChange></FrequencyChanges></Clock>\n	Hungry_Donkey_bar_English_2-134-1	60.017	-120	1.0.0.18	1	-1754117044	Standard	2.0.10.353	2.0.10.353	03-22-2016		18:35:23	2.0.10.248	35	Bar50-50.bmp	50	4	?	10r_4g.bmp	0r_4g.bmp	2r_2g.bmp	0r_2g.bmp				0r_2g.bmp	TrialProc	TrialList	0	cvbn	-999999	16	146872	0	n	379	147251	126	-125	1	-10	0	5	6	2	4	35	-10	0	-2	0	4	4	2	2	0	2
Hungry_Donkey_bar_English_2	134	1	<?xml version="1.0"?>\n<Clock xmlns:dt="urn:schemas-microsoft-com:datatypes"><Description dt:dt="string">E-Prime Primary Realtime Clock</Description><StartTime><Timestamp dt:dt="int">0</Timestamp><DateUtc dt:dt="string">2016-03-22T22:35:22Z</DateUtc></StartTime><FrequencyChanges><FrequencyChange><Frequency dt:dt="r8">3507685</Frequency><Timestamp dt:dt="r8">1815016337727</Timestamp><Current dt:dt="r8">0</Current><DateUtc dt:dt="string">2016-03-22T22:35:22Z</DateUtc></FrequencyChange></FrequencyChanges></Clock>\n	Hungry_Donkey_bar_English_2-134-1	60.017	-120	1.0.0.18	1	-1754117044	Standard	2.0.10.353	2.0.10.353	03-22-2016		18:35:23	2.0.10.248	36	Bar50-50.bmp	51	3	?	0r_4g.bmp	0r_4g.bmp	0r_2g.bmp	0r_2g.bmp			0r_2g.bmp		TrialProc	TrialList	0	cvbn	-999999	16	149288	0	b	363	149651	128	-125	3	-10	0	7	6	8	4	36	0	0	0	0	4	4	2	2	0	2
Hungry_Donkey_bar_English_2	134	1	<?xml version="1.0"?>\n<Clock xmlns:dt="urn:schemas-microsoft-com:datatypes"><Description dt:dt="string">E-Prime Primary Realtime Clock</Description><StartTime><Timestamp dt:dt="int">0</Timestamp><DateUtc dt:dt="string">2016-03-22T22:35:22Z</DateUtc></StartTime><FrequencyChanges><FrequencyChange><Frequency dt:dt="r8">3507685</Frequency><Timestamp dt:dt="r8">1815016337727</Timestamp><Current dt:dt="r8">0</Current><DateUtc dt:dt="string">2016-03-22T22:35:22Z</DateUtc></FrequencyChange></FrequencyChanges></Clock>\n	Hungry_Donkey_bar_English_2-134-1	60.017	-120	1.0.0.18	1	-1754117044	Standard	2.0.10.353	2.0.10.353	03-22-2016		18:35:23	2.0.10.248	37	Bar37-63.bmp	43	2	?	8r_4g.bmp	50r_4g.bmp	1r_2g.bmp	10r_2g.bmp		50r_4g.bmp			TrialProc	TrialList	0	cvbn	-999999	16	151687	0	v	572	152259	132	-175	-43	-10	-46	7	6	1	4	37	-8	-50	-1	-10	4	4	2	2	-50	4
Hungry_Donkey_bar_English_2	134	1	<?xml version="1.0"?>\n<Clock xmlns:dt="urn:schemas-microsoft-com:datatypes"><Description dt:dt="string">E-Prime Primary Realtime Clock</Description><StartTime><Timestamp dt:dt="int">0</Timestamp><DateUtc dt:dt="string">2016-03-22T22:35:22Z</DateUtc></StartTime><FrequencyChanges><FrequencyChange><Frequency dt:dt="r8">3507685</Frequency><Timestamp dt:dt="r8">1815016337727</Timestamp><Current dt:dt="r8">0</Current><DateUtc dt:dt="string">2016-03-22T22:35:22Z</DateUtc></FrequencyChange></FrequencyChanges></Clock>\n	Hungry_Donkey_bar_English_2-134-1	60.017	-120	1.0.0.18	1	-1754117044	Standard	2.0.10.353	2.0.10.353	03-22-2016		18:35:23	2.0.10.248	38	Bar50-50.bmp	44	2	?	10r_4g.bmp	0r_4g.bmp	2r_2g.bmp	0r_2g.bmp		0r_4g.bmp			TrialProc	TrialList	0	cvbn	-999999	17	154287	0	v	372	154659	136	-175	-39	-10	-42	7	6	4	4	38	-10	0	-2	0	4	4	2	2	0	4
Hungry_Donkey_bar_English_2	134	1	<?xml version="1.0"?>\n<Clock xmlns:dt="urn:schemas-microsoft-com:datatypes"><Description dt:dt="string">E-Prime Primary Realtime Clock</Description><StartTime><Timestamp dt:dt="int">0</Timestamp><DateUtc dt:dt="string">2016-03-22T22:35:22Z</DateUtc></StartTime><FrequencyChanges><FrequencyChange><Frequency dt:dt="r8">3507685</Frequency><Timestamp dt:dt="r8">1815016337727</Timestamp><Current dt:dt="r8">0</Current><DateUtc dt:dt="string">2016-03-22T22:35:22Z</DateUtc></FrequencyChange></FrequencyChanges></Clock>\n	Hungry_Donkey_bar_English_2-134-1	60.017	-120	1.0.0.18	1	-1754117044	Standard	2.0.10.353	2.0.10.353	03-22-2016		18:35:23	2.0.10.248	39	Bar50-50.bmp	44	2	?	0r_4g.bmp	0r_4g.bmp	0r_2g.bmp	0r_2g.bmp		0r_4g.bmp			TrialProc	TrialList	0	cvbn	-999999	16	156686	0	v	5	156691	140	-175	-35	-10	-38	7	6	7	4	39	0	0	0	0	4	4	2	2	0	4
Hungry_Donkey_bar_English_2	134	1	<?xml version="1.0"?>\n<Clock xmlns:dt="urn:schemas-microsoft-com:datatypes"><Description dt:dt="string">E-Prime Primary Realtime Clock</Description><StartTime><Timestamp dt:dt="int">0</Timestamp><DateUtc dt:dt="string">2016-03-22T22:35:22Z</DateUtc></StartTime><FrequencyChanges><FrequencyChange><Frequency dt:dt="r8">3507685</Frequency><Timestamp dt:dt="r8">1815016337727</Timestamp><Current dt:dt="r8">0</Current><DateUtc dt:dt="string">2016-03-22T22:35:22Z</DateUtc></FrequencyChange></FrequencyChanges></Clock>\n	Hungry_Donkey_bar_English_2-134-1	60.017	-120	1.0.0.18	1	-1754117044	Standard	2.0.10.353	2.0.10.353	03-22-2016		18:35:23	2.0.10.248	40	Bar50-50.bmp	45	2	?	10r_4g.bmp	0r_4g.bmp	2r_2g.bmp	0r_2g.bmp		0r_4g.bmp			TrialProc	TrialList	0	cvbn	-999999	16	158719	0	v	4	158723	144	-175	-31	-10	-34	7	6	3	4	40	-10	0	-2	0	4	4	2	2	0	4
Hungry_Donkey_bar_English_2	134	1	<?xml version="1.0"?>\n<Clock xmlns:dt="urn:schemas-microsoft-com:datatypes"><Description dt:dt="string">E-Prime Primary Realtime Clock</Description><StartTime><Timestamp dt:dt="int">0</Timestamp><DateUtc dt:dt="string">2016-03-22T22:35:22Z</DateUtc></StartTime><FrequencyChanges><FrequencyChange><Frequency dt:dt="r8">3507685</Frequency><Timestamp dt:dt="r8">1815016337727</Timestamp><Current dt:dt="r8">0</Current><DateUtc dt:dt="string">2016-03-22T22:35:22Z</DateUtc></FrequencyChange></FrequencyChanges></Clock>\n	Hungry_Donkey_bar_English_2-134-1	60.017	-120	1.0.0.18	1	-1754117044	Standard	2.0.10.353	2.0.10.353	03-22-2016		18:35:23	2.0.10.248	41	Bar37-63.bmp	40	2	?	8r_4g.bmp	50r_4g.bmp	1r_2g.bmp	10r_2g.bmp		50r_4g.bmp			TrialProc	TrialList	0	cvbn	-999999	16	160751	0	v	292	161043	148	-225	-77	-10	-80	7	6	1	5	41	-8	-50	-1	-10	4	4	2	2	-50	4
Hungry_Donkey_bar_English_2	134	1	<?xml version="1.0"?>\n<Clock xmlns:dt="urn:schemas-microsoft-com:datatypes"><Description dt:dt="string">E-Prime Primary Realtime Clock</Description><StartTime><Timestamp dt:dt="int">0</Timestamp><DateUtc dt:dt="string">2016-03-22T22:35:22Z</DateUtc></StartTime><FrequencyChanges><FrequencyChange><Frequency dt:dt="r8">3507685</Frequency><Timestamp dt:dt="r8">1815016337727</Timestamp><Current dt:dt="r8">0</Current><DateUtc dt:dt="string">2016-03-22T22:35:22Z</DateUtc></FrequencyChange></FrequencyChanges></Clock>\n	Hungry_Donkey_bar_English_2-134-1	60.017	-120	1.0.0.18	1	-1754117044	Standard	2.0.10.353	2.0.10.353	03-22-2016		18:35:23	2.0.10.248	42	Bar37-63.bmp	40	2	?	10r_4g.bmp	0r_4g.bmp	2r_2g.bmp	0r_2g.bmp		0r_4g.bmp			TrialProc	TrialList	0	cvbn	-999999	15	163067	0	v	760	163827	152	-225	-73	-10	-76	7	6	4	5	42	-10	0	-2	0	4	4	2	2	0	4
Hungry_Donkey_bar_English_2	134	1	<?xml version="1.0"?>\n<Clock xmlns:dt="urn:schemas-microsoft-com:datatypes"><Description dt:dt="string">E-Prime Primary Realtime Clock</Description><StartTime><Timestamp dt:dt="int">0</Timestamp><DateUtc dt:dt="string">2016-03-22T22:35:22Z</DateUtc></StartTime><FrequencyChanges><FrequencyChange><Frequency dt:dt="r8">3507685</Frequency><Timestamp dt:dt="r8">1815016337727</Timestamp><Current dt:dt="r8">0</Current><DateUtc dt:dt="string">2016-03-22T22:35:22Z</DateUtc></FrequencyChange></FrequencyChanges></Clock>\n	Hungry_Donkey_bar_English_2-134-1	60.017	-120	1.0.0.18	1	-1754117044	Standard	2.0.10.353	2.0.10.353	03-22-2016		18:35:23	2.0.10.248	43	Bar37-63.bmp	41	2	?	0r_4g.bmp	0r_4g.bmp	0r_2g.bmp	0r_2g.bmp		0r_4g.bmp			TrialProc	TrialList	0	cvbn	-999999	16	165850	0	v	248	166098	156	-225	-69	-10	-72	7	6	10	5	43	0	0	0	0	4	4	2	2	0	4
Hungry_Donkey_bar_English_2	134	1	<?xml version="1.0"?>\n<Clock xmlns:dt="urn:schemas-microsoft-com:datatypes"><Description dt:dt="string">E-Prime Primary Realtime Clock</Description><StartTime><Timestamp dt:dt="int">0</Timestamp><DateUtc dt:dt="string">2016-03-22T22:35:22Z</DateUtc></StartTime><FrequencyChanges><FrequencyChange><Frequency dt:dt="r8">3507685</Frequency><Timestamp dt:dt="r8">1815016337727</Timestamp><Current dt:dt="r8">0</Current><DateUtc dt:dt="string">2016-03-22T22:35:22Z</DateUtc></FrequencyChange></FrequencyChanges></Clock>\n	Hungry_Donkey_bar_English_2-134-1	60.017	-120	1.0.0.18	1	-1754117044	Standard	2.0.10.353	2.0.10.353	03-22-2016		18:35:23	2.0.10.248	44	Bar37-63.bmp	42	2	?	12r_4g.bmp	0r_4g.bmp	3r_2g.bmp	0r_2g.bmp		0r_4g.bmp			TrialProc	TrialList	0	cvbn	-999999	17	168133	0	v	941	169074	160	-225	-65	-10	-68	7	6	5	5	44	-12	0	-3	0	4	4	2	2	0	4
Hungry_Donkey_bar_English_2	134	1	<?xml version="1.0"?>\n<Clock xmlns:dt="urn:schemas-microsoft-com:datatypes"><Description dt:dt="string">E-Prime Primary Realtime Clock</Description><StartTime><Timestamp dt:dt="int">0</Timestamp><DateUtc dt:dt="string">2016-03-22T22:35:22Z</DateUtc></StartTime><FrequencyChanges><FrequencyChange><Frequency dt:dt="r8">3507685</Frequency><Timestamp dt:dt="r8">1815016337727</Timestamp><Current dt:dt="r8">0</Current><DateUtc dt:dt="string">2016-03-22T22:35:22Z</DateUtc></FrequencyChange></FrequencyChanges></Clock>\n	Hungry_Donkey_bar_English_2-134-1	60.017	-120	1.0.0.18	1	-1754117044	Standard	2.0.10.353	2.0.10.353	03-22-2016		18:35:23	2.0.10.248	45	Bar37-63.bmp	42	2	?	0r_4g.bmp	0r_4g.bmp	0r_2g.bmp	0r_2g.bmp		0r_4g.bmp			TrialProc	TrialList	0	cvbn	-999999	16	171098	0	v	8	171106	164	-225	-61	-10	-64	7	6	6	5	45	0	0	0	0	4	4	2	2	0	4
Hungry_Donkey_bar_English_2	134	1	<?xml version="1.0"?>\n<Clock xmlns:dt="urn:schemas-microsoft-com:datatypes"><Description dt:dt="string">E-Prime Primary Realtime Clock</Description><StartTime><Timestamp dt:dt="int">0</Timestamp><DateUtc dt:dt="string">2016-03-22T22:35:22Z</DateUtc></StartTime><FrequencyChanges><FrequencyChange><Frequency dt:dt="r8">3507685</Frequency><Timestamp dt:dt="r8">1815016337727</Timestamp><Current dt:dt="r8">0</Current><DateUtc dt:dt="string">2016-03-22T22:35:22Z</DateUtc></FrequencyChange></FrequencyChanges></Clock>\n	Hungry_Donkey_bar_English_2-134-1	60.017	-120	1.0.0.18	1	-1754117044	Standard	2.0.10.353	2.0.10.353	03-22-2016		18:35:23	2.0.10.248	46	Bar37-63.bmp	42	3	?	0r_4g.bmp	0r_4g.bmp	0r_2g.bmp	0r_2g.bmp			0r_2g.bmp		TrialProc	TrialList	0	cvbn	-999999	16	173131	0	b	487	173618	166	-225	-59	-10	-64	9	6	9	5	46	0	0	0	0	4	4	2	2	0	2
Hungry_Donkey_bar_English_2	134	1	<?xml version="1.0"?>\n<Clock xmlns:dt="urn:schemas-microsoft-com:datatypes"><Description dt:dt="string">E-Prime Primary Realtime Clock</Description><StartTime><Timestamp dt:dt="int">0</Timestamp><DateUtc dt:dt="string">2016-03-22T22:35:22Z</DateUtc></StartTime><FrequencyChanges><FrequencyChange><Frequency dt:dt="r8">3507685</Frequency><Timestamp dt:dt="r8">1815016337727</Timestamp><Current dt:dt="r8">0</Current><DateUtc dt:dt="string">2016-03-22T22:35:22Z</DateUtc></FrequencyChange></FrequencyChanges></Clock>\n	Hungry_Donkey_bar_English_2-134-1	60.017	-120	1.0.0.18	1	-1754117044	Standard	2.0.10.353	2.0.10.353	03-22-2016		18:35:23	2.0.10.248	47	Bar37-63.bmp	43	1	?	0r_4g.bmp	0r_4g.bmp	0r_2g.bmp	0r_2g.bmp	0r_4g.bmp				TrialProc	TrialList	0	cvbn	-999999	16	175647	0	c	691	176338	170	-225	-55	-6	-64	9	6	8	5	47	0	0	0	0	4	4	2	2	0	4
Hungry_Donkey_bar_English_2	134	1	<?xml version="1.0"?>\n<Clock xmlns:dt="urn:schemas-microsoft-com:datatypes"><Description dt:dt="string">E-Prime Primary Realtime Clock</Description><StartTime><Timestamp dt:dt="int">0</Timestamp><DateUtc dt:dt="string">2016-03-22T22:35:22Z</DateUtc></StartTime><FrequencyChanges><FrequencyChange><Frequency dt:dt="r8">3507685</Frequency><Timestamp dt:dt="r8">1815016337727</Timestamp><Current dt:dt="r8">0</Current><DateUtc dt:dt="string">2016-03-22T22:35:22Z</DateUtc></FrequencyChange></FrequencyChanges></Clock>\n	Hungry_Donkey_bar_English_2-134-1	60.017	-120	1.0.0.18	1	-1754117044	Standard	2.0.10.353	2.0.10.353	03-22-2016		18:35:23	2.0.10.248	48	Bar50-50.bmp	44	2	?	10r_4g.bmp	0r_4g.bmp	2r_2g.bmp	0r_2g.bmp		0r_4g.bmp			TrialProc	TrialList	0	cvbn	-999999	16	178363	0	v	311	178674	174	-225	-51	-6	-60	9	6	2	5	48	-10	0	-2	0	4	4	2	2	0	4
Hungry_Donkey_bar_English_2	134	1	<?xml version="1.0"?>\n<Clock xmlns:dt="urn:schemas-microsoft-com:datatypes"><Description dt:dt="string">E-Prime Primary Realtime Clock</Description><StartTime><Timestamp dt:dt="int">0</Timestamp><DateUtc dt:dt="string">2016-03-22T22:35:22Z</DateUtc></StartTime><FrequencyChanges><FrequencyChange><Frequency dt:dt="r8">3507685</Frequency><Timestamp dt:dt="r8">1815016337727</Timestamp><Current dt:dt="r8">0</Current><DateUtc dt:dt="string">2016-03-22T22:35:22Z</DateUtc></FrequencyChange></FrequencyChanges></Clock>\n	Hungry_Donkey_bar_English_2-134-1	60.017	-120	1.0.0.18	1	-1754117044	Standard	2.0.10.353	2.0.10.353	03-22-2016		18:35:23	2.0.10.248	49	Bar50-50.bmp	44	4	?	10r_4g.bmp	0r_4g.bmp	2r_2g.bmp	0r_2g.bmp				0r_2g.bmp	TrialProc	TrialList	0	cvbn	-999999	16	180712	0	n	890	181602	176	-225	-49	-6	-60	9	8	3	5	49	-10	0	-2	0	4	4	2	2	0	2
Hungry_Donkey_bar_English_2	134	1	<?xml version="1.0"?>\n<Clock xmlns:dt="urn:schemas-microsoft-com:datatypes"><Description dt:dt="string">E-Prime Primary Realtime Clock</Description><StartTime><Timestamp dt:dt="int">0</Timestamp><DateUtc dt:dt="string">2016-03-22T22:35:22Z</DateUtc></StartTime><FrequencyChanges><FrequencyChange><Frequency dt:dt="r8">3507685</Frequency><Timestamp dt:dt="r8">1815016337727</Timestamp><Current dt:dt="r8">0</Current><DateUtc dt:dt="string">2016-03-22T22:35:22Z</DateUtc></FrequencyChange></FrequencyChanges></Clock>\n	Hungry_Donkey_bar_English_2-134-1	60.017	-120	1.0.0.18	1	-1754117044	Standard	2.0.10.353	2.0.10.353	03-22-2016		18:35:23	2.0.10.248	50	Bar50-50.bmp	44	3	?	0r_4g.bmp	0r_4g.bmp	0r_2g.bmp	0r_2g.bmp			0r_2g.bmp		TrialProc	TrialList	0	cvbn	-999999	16	183628	0	b	294	183922	178	-225	-47	-6	-60	11	8	7	5	50	0	0	0	0	4	4	2	2	0	2
Hungry_Donkey_bar_English_2	134	1	<?xml version="1.0"?>\n<Clock xmlns:dt="urn:schemas-microsoft-com:datatypes"><Description dt:dt="string">E-Prime Primary Realtime Clock</Description><StartTime><Timestamp dt:dt="int">0</Timestamp><DateUtc dt:dt="string">2016-03-22T22:35:22Z</DateUtc></StartTime><FrequencyChanges><FrequencyChange><Frequency dt:dt="r8">3507685</Frequency><Timestamp dt:dt="r8">1815016337727</Timestamp><Current dt:dt="r8">0</Current><DateUtc dt:dt="string">2016-03-22T22:35:22Z</DateUtc></FrequencyChange></FrequencyChanges></Clock>\n	Hungry_Donkey_bar_English_2-134-1	60.017	-120	1.0.0.18	1	-1754117044	Standard	2.0.10.353	2.0.10.353	03-22-2016		18:35:23	2.0.10.248	51	Bar50-50.bmp	45	2	?	10r_4g.bmp	0r_4g.bmp	2r_2g.bmp	0r_2g.bmp		0r_4g.bmp			TrialProc	TrialList	0	cvbn	-999999	16	185961	0	v	121	186082	182	-225	-43	-6	-56	11	8	2	6	51	-10	0	-2	0	4	4	2	2	0	4
Hungry_Donkey_bar_English_2	134	1	<?xml version="1.0"?>\n<Clock xmlns:dt="urn:schemas-microsoft-com:datatypes"><Description dt:dt="string">E-Prime Primary Realtime Clock</Description><StartTime><Timestamp dt:dt="int">0</Timestamp><DateUtc dt:dt="string">2016-03-22T22:35:22Z</DateUtc></StartTime><FrequencyChanges><FrequencyChange><Frequency dt:dt="r8">3507685</Frequency><Timestamp dt:dt="r8">1815016337727</Timestamp><Current dt:dt="r8">0</Current><DateUtc dt:dt="string">2016-03-22T22:35:22Z</DateUtc></FrequencyChange></FrequencyChanges></Clock>\n	Hungry_Donkey_bar_English_2-134-1	60.017	-120	1.0.0.18	1	-1754117044	Standard	2.0.10.353	2.0.10.353	03-22-2016		18:35:23	2.0.10.248	52	Bar50-50.bmp	45	1	?	0r_4g.bmp	0r_4g.bmp	0r_2g.bmp	0r_2g.bmp	0r_4g.bmp				TrialProc	TrialList	0	cvbn	-999999	16	188110	0	c	451	188561	186	-225	-39	-2	-56	11	8	7	6	52	0	0	0	0	4	4	2	2	0	4
Hungry_Donkey_bar_English_2	134	1	<?xml version="1.0"?>\n<Clock xmlns:dt="urn:schemas-microsoft-com:datatypes"><Description dt:dt="string">E-Prime Primary Realtime Clock</Description><StartTime><Timestamp dt:dt="int">0</Timestamp><DateUtc dt:dt="string">2016-03-22T22:35:22Z</DateUtc></StartTime><FrequencyChanges><FrequencyChange><Frequency dt:dt="r8">3507685</Frequency><Timestamp dt:dt="r8">1815016337727</Timestamp><Current dt:dt="r8">0</Current><DateUtc dt:dt="string">2016-03-22T22:35:22Z</DateUtc></FrequencyChange></FrequencyChanges></Clock>\n	Hungry_Donkey_bar_English_2-134-1	60.017	-120	1.0.0.18	1	-1754117044	Standard	2.0.10.353	2.0.10.353	03-22-2016		18:35:23	2.0.10.248	53	Bar50-50.bmp	46	2	?	0r_4g.bmp	0r_4g.bmp	0r_2g.bmp	0r_2g.bmp		0r_4g.bmp			TrialProc	TrialList	0	cvbn	-999999	16	190593	0	v	128	190721	190	-225	-35	-2	-52	11	8	10	6	53	0	0	0	0	4	4	2	2	0	4
Hungry_Donkey_bar_English_2	134	1	<?xml version="1.0"?>\n<Clock xmlns:dt="urn:schemas-microsoft-com:datatypes"><Description dt:dt="string">E-Prime Primary Realtime Clock</Description><StartTime><Timestamp dt:dt="int">0</Timestamp><DateUtc dt:dt="string">2016-03-22T22:35:22Z</DateUtc></StartTime><FrequencyChanges><FrequencyChange><Frequency dt:dt="r8">3507685</Frequency><Timestamp dt:dt="r8">1815016337727</Timestamp><Current dt:dt="r8">0</Current><DateUtc dt:dt="string">2016-03-22T22:35:22Z</DateUtc></FrequencyChange></FrequencyChanges></Clock>\n	Hungry_Donkey_bar_English_2-134-1	60.017	-120	1.0.0.18	1	-1754117044	Standard	2.0.10.353	2.0.10.353	03-22-2016		18:35:23	2.0.10.248	54	Bar50-50.bmp	46	1	?	0r_4g.bmp	0r_4g.bmp	0r_2g.bmp	0r_2g.bmp	0r_4g.bmp				TrialProc	TrialList	0	cvbn	-999999	16	192759	0	c	122	192881	194	-225	-31	2	-52	11	8	9	6	54	0	0	0	0	4	4	2	2	0	4
Hungry_Donkey_bar_English_2	134	1	<?xml version="1.0"?>\n<Clock xmlns:dt="urn:schemas-microsoft-com:datatypes"><Description dt:dt="string">E-Prime Primary Realtime Clock</Description><StartTime><Timestamp dt:dt="int">0</Timestamp><DateUtc dt:dt="string">2016-03-22T22:35:22Z</DateUtc></StartTime><FrequencyChanges><FrequencyChange><Frequency dt:dt="r8">3507685</Frequency><Timestamp dt:dt="r8">1815016337727</Timestamp><Current dt:dt="r8">0</Current><DateUtc dt:dt="string">2016-03-22T22:35:22Z</DateUtc></FrequencyChange></FrequencyChanges></Clock>\n	Hungry_Donkey_bar_English_2-134-1	60.017	-120	1.0.0.18	1	-1754117044	Standard	2.0.10.353	2.0.10.353	03-22-2016		18:35:23	2.0.10.248	55	Bar50-50.bmp	46	1	?	10r_4g.bmp	0r_4g.bmp	2r_2g.bmp	0r_2g.bmp	10r_4g.bmp				TrialProc	TrialList	0	cvbn	-999999	16	194908	0	c	293	195201	198	-235	-37	-4	-52	11	8	3	6	55	-10	0	-2	0	4	4	2	2	-10	4
Hungry_Donkey_bar_English_2	134	1	<?xml version="1.0"?>\n<Clock xmlns:dt="urn:schemas-microsoft-com:datatypes"><Description dt:dt="string">E-Prime Primary Realtime Clock</Description><StartTime><Timestamp dt:dt="int">0</Timestamp><DateUtc dt:dt="string">2016-03-22T22:35:22Z</DateUtc></StartTime><FrequencyChanges><FrequencyChange><Frequency dt:dt="r8">3507685</Frequency><Timestamp dt:dt="r8">1815016337727</Timestamp><Current dt:dt="r8">0</Current><DateUtc dt:dt="string">2016-03-22T22:35:22Z</DateUtc></FrequencyChange></FrequencyChanges></Clock>\n	Hungry_Donkey_bar_English_2-134-1	60.017	-120	1.0.0.18	1	-1754117044	Standard	2.0.10.353	2.0.10.353	03-22-2016		18:35:23	2.0.10.248	56	Bar50-50.bmp	46	2	?	0r_4g.bmp	0r_4g.bmp	0r_2g.bmp	0r_2g.bmp		0r_4g.bmp			TrialProc	TrialList	0	cvbn	-999999	16	197241	0	v	56	197297	202	-235	-33	-4	-48	11	8	8	6	56	0	0	0	0	4	4	2	2	0	4
Hungry_Donkey_bar_English_2	134	1	<?xml version="1.0"?>\n<Clock xmlns:dt="urn:schemas-microsoft-com:datatypes"><Description dt:dt="string">E-Prime Primary Realtime Clock</Description><StartTime><Timestamp dt:dt="int">0</Timestamp><DateUtc dt:dt="string">2016-03-22T22:35:22Z</DateUtc></StartTime><FrequencyChanges><FrequencyChange><Frequency dt:dt="r8">3507685</Frequency><Timestamp dt:dt="r8">1815016337727</Timestamp><Current dt:dt="r8">0</Current><DateUtc dt:dt="string">2016-03-22T22:35:22Z</DateUtc></FrequencyChange></FrequencyChanges></Clock>\n	Hungry_Donkey_bar_English_2-134-1	60.017	-120	1.0.0.18	1	-1754117044	Standard	2.0.10.353	2.0.10.353	03-22-2016		18:35:23	2.0.10.248	57	Bar50-50.bmp	46	1	?	10r_4g.bmp	0r_4g.bmp	2r_2g.bmp	0r_2g.bmp	10r_4g.bmp				TrialProc	TrialList	0	cvbn	-999999	17	199324	0	c	309	199633	206	-245	-39	-10	-48	11	8	4	6	57	-10	0	-2	0	4	4	2	2	-10	4
Hungry_Donkey_bar_English_2	134	1	<?xml version="1.0"?>\n<Clock xmlns:dt="urn:schemas-microsoft-com:datatypes"><Description dt:dt="string">E-Prime Primary Realtime Clock</Description><StartTime><Timestamp dt:dt="int">0</Timestamp><DateUtc dt:dt="string">2016-03-22T22:35:22Z</DateUtc></StartTime><FrequencyChanges><FrequencyChange><Frequency dt:dt="r8">3507685</Frequency><Timestamp dt:dt="r8">1815016337727</Timestamp><Current dt:dt="r8">0</Current><DateUtc dt:dt="string">2016-03-22T22:35:22Z</DateUtc></FrequencyChange></FrequencyChanges></Clock>\n	Hungry_Donkey_bar_English_2-134-1	60.017	-120	1.0.0.18	1	-1754117044	Standard	2.0.10.353	2.0.10.353	03-22-2016		18:35:23	2.0.10.248	58	Bar50-50.bmp	46	2	?	12r_4g.bmp	0r_4g.bmp	3r_2g.bmp	0r_2g.bmp		0r_4g.bmp			TrialProc	TrialList	0	cvbn	-999999	16	201656	0	v	57	201713	210	-245	-35	-10	-44	11	8	5	6	58	-12	0	-3	0	4	4	2	2	0	4
Hungry_Donkey_bar_English_2	134	1	<?xml version="1.0"?>\n<Clock xmlns:dt="urn:schemas-microsoft-com:datatypes"><Description dt:dt="string">E-Prime Primary Realtime Clock</Description><StartTime><Timestamp dt:dt="int">0</Timestamp><DateUtc dt:dt="string">2016-03-22T22:35:22Z</DateUtc></StartTime><FrequencyChanges><FrequencyChange><Frequency dt:dt="r8">3507685</Frequency><Timestamp dt:dt="r8">1815016337727</Timestamp><Current dt:dt="r8">0</Current><DateUtc dt:dt="string">2016-03-22T22:35:22Z</DateUtc></FrequencyChange></FrequencyChanges></Clock>\n	Hungry_Donkey_bar_English_2-134-1	60.017	-120	1.0.0.18	1	-1754117044	Standard	2.0.10.353	2.0.10.353	03-22-2016		18:35:23	2.0.10.248	59	Bar37-63.bmp	42	2	?	8r_4g.bmp	50r_4g.bmp	1r_2g.bmp	10r_2g.bmp		50r_4g.bmp			TrialProc	TrialList	0	cvbn	-999999	16	203739	0	v	438	204177	214	-295	-81	-10	-90	11	8	1	6	59	-8	-50	-1	-10	4	4	2	2	-50	4
Hungry_Donkey_bar_English_2	134	1	<?xml version="1.0"?>\n<Clock xmlns:dt="urn:schemas-microsoft-com:datatypes"><Description dt:dt="string">E-Prime Primary Realtime Clock</Description><StartTime><Timestamp dt:dt="int">0</Timestamp><DateUtc dt:dt="string">2016-03-22T22:35:22Z</DateUtc></StartTime><FrequencyChanges><FrequencyChange><Frequency dt:dt="r8">3507685</Frequency><Timestamp dt:dt="r8">1815016337727</Timestamp><Current dt:dt="r8">0</Current><DateUtc dt:dt="string">2016-03-22T22:35:22Z</DateUtc></FrequencyChange></FrequencyChanges></Clock>\n	Hungry_Donkey_bar_English_2-134-1	60.017	-120	1.0.0.18	1	-1754117044	Standard	2.0.10.353	2.0.10.353	03-22-2016		18:35:23	2.0.10.248	60	Bar37-63.bmp	42	1	?	0r_4g.bmp	0r_4g.bmp	0r_2g.bmp	0r_2g.bmp	0r_4g.bmp				TrialProc	TrialList	0	cvbn	-999999	16	206205	0	c	803	207008	218	-295	-77	-6	-90	11	8	6	6	60	0	0	0	0	4	4	2	2	0	4
Hungry_Donkey_bar_English_2	134	1	<?xml version="1.0"?>\n<Clock xmlns:dt="urn:schemas-microsoft-com:datatypes"><Description dt:dt="string">E-Prime Primary Realtime Clock</Description><StartTime><Timestamp dt:dt="int">0</Timestamp><DateUtc dt:dt="string">2016-03-22T22:35:22Z</DateUtc></StartTime><FrequencyChanges><FrequencyChange><Frequency dt:dt="r8">3507685</Frequency><Timestamp dt:dt="r8">1815016337727</Timestamp><Current dt:dt="r8">0</Current><DateUtc dt:dt="string">2016-03-22T22:35:22Z</DateUtc></FrequencyChange></FrequencyChanges></Clock>\n	Hungry_Donkey_bar_English_2-134-1	60.017	-120	1.0.0.18	1	-1754117044	Standard	2.0.10.353	2.0.10.353	03-22-2016		18:35:23	2.0.10.248	61	Bar37-63.bmp	43	2	?	0r_4g.bmp	0r_4g.bmp	0r_2g.bmp	0r_2g.bmp		0r_4g.bmp			TrialProc	TrialList	0	cvbn	-999999	16	209037	0	v	51	209088	222	-295	-73	-6	-86	11	8	7	7	61	0	0	0	0	4	4	2	2	0	4
Hungry_Donkey_bar_English_2	134	1	<?xml version="1.0"?>\n<Clock xmlns:dt="urn:schemas-microsoft-com:datatypes"><Description dt:dt="string">E-Prime Primary Realtime Clock</Description><StartTime><Timestamp dt:dt="int">0</Timestamp><DateUtc dt:dt="string">2016-03-22T22:35:22Z</DateUtc></StartTime><FrequencyChanges><FrequencyChange><Frequency dt:dt="r8">3507685</Frequency><Timestamp dt:dt="r8">1815016337727</Timestamp><Current dt:dt="r8">0</Current><DateUtc dt:dt="string">2016-03-22T22:35:22Z</DateUtc></FrequencyChange></FrequencyChanges></Clock>\n	Hungry_Donkey_bar_English_2-134-1	60.017	-120	1.0.0.18	1	-1754117044	Standard	2.0.10.353	2.0.10.353	03-22-2016		18:35:23	2.0.10.248	62	Bar37-63.bmp	43	4	?	10r_4g.bmp	0r_4g.bmp	2r_2g.bmp	0r_2g.bmp				0r_2g.bmp	TrialProc	TrialList	0	cvbn	-999999	16	211120	0	n	720	211840	224	-295	-71	-6	-86	11	10	3	7	62	-10	0	-2	0	4	4	2	2	0	2
Hungry_Donkey_bar_English_2	134	1	<?xml version="1.0"?>\n<Clock xmlns:dt="urn:schemas-microsoft-com:datatypes"><Description dt:dt="string">E-Prime Primary Realtime Clock</Description><StartTime><Timestamp dt:dt="int">0</Timestamp><DateUtc dt:dt="string">2016-03-22T22:35:22Z</DateUtc></StartTime><FrequencyChanges><FrequencyChange><Frequency dt:dt="r8">3507685</Frequency><Timestamp dt:dt="r8">1815016337727</Timestamp><Current dt:dt="r8">0</Current><DateUtc dt:dt="string">2016-03-22T22:35:22Z</DateUtc></FrequencyChange></FrequencyChanges></Clock>\n	Hungry_Donkey_bar_English_2-134-1	60.017	-120	1.0.0.18	1	-1754117044	Standard	2.0.10.353	2.0.10.353	03-22-2016		18:35:23	2.0.10.248	63	Bar37-63.bmp	43	3	?	0r_4g.bmp	0r_4g.bmp	0r_2g.bmp	0r_2g.bmp			0r_2g.bmp		TrialProc	TrialList	0	cvbn	-999999	16	213869	0	b	323	214192	226	-295	-69	-6	-86	13	10	10	7	63	0	0	0	0	4	4	2	2	0	2
Hungry_Donkey_bar_English_2	134	1	<?xml version="1.0"?>\n<Clock xmlns:dt="urn:schemas-microsoft-com:datatypes"><Description dt:dt="string">E-Prime Primary Realtime Clock</Description><StartTime><Timestamp dt:dt="int">0</Timestamp><DateUtc dt:dt="string">2016-03-22T22:35:22Z</DateUtc></StartTime><FrequencyChanges><FrequencyChange><Frequency dt:dt="r8">3507685</Frequency><Timestamp dt:dt="r8">1815016337727</Timestamp><Current dt:dt="r8">0</Current><DateUtc dt:dt="string">2016-03-22T22:35:22Z</DateUtc></FrequencyChange></FrequencyChanges></Clock>\n	Hungry_Donkey_bar_English_2-134-1	60.017	-120	1.0.0.18	1	-1754117044	Standard	2.0.10.353	2.0.10.353	03-22-2016		18:35:23	2.0.10.248	64	Bar50-50.bmp	44	2	?	12r_4g.bmp	0r_4g.bmp	3r_2g.bmp	0r_2g.bmp		0r_4g.bmp			TrialProc	TrialList	0	cvbn	-999999	16	216219	0	v	293	216512	230	-295	-65	-6	-82	13	10	5	7	64	-12	0	-3	0	4	4	2	2	0	4
Hungry_Donkey_bar_English_2	134	1	<?xml version="1.0"?>\n<Clock xmlns:dt="urn:schemas-microsoft-com:datatypes"><Description dt:dt="string">E-Prime Primary Realtime Clock</Description><StartTime><Timestamp dt:dt="int">0</Timestamp><DateUtc dt:dt="string">2016-03-22T22:35:22Z</DateUtc></StartTime><FrequencyChanges><FrequencyChange><Frequency dt:dt="r8">3507685</Frequency><Timestamp dt:dt="r8">1815016337727</Timestamp><Current dt:dt="r8">0</Current><DateUtc dt:dt="string">2016-03-22T22:35:22Z</DateUtc></FrequencyChange></FrequencyChanges></Clock>\n	Hungry_Donkey_bar_English_2-134-1	60.017	-120	1.0.0.18	1	-1754117044	Standard	2.0.10.353	2.0.10.353	03-22-2016		18:35:23	2.0.10.248	65	Bar50-50.bmp	44	1	?	8r_4g.bmp	50r_4g.bmp	1r_2g.bmp	10r_2g.bmp	8r_4g.bmp				TrialProc	TrialList	0	cvbn	-999999	16	218551	0	c	409	218960	234	-303	-69	-10	-82	13	10	1	7	65	-8	-50	-1	-10	4	4	2	2	-8	4
Hungry_Donkey_bar_English_2	134	1	<?xml version="1.0"?>\n<Clock xmlns:dt="urn:schemas-microsoft-com:datatypes"><Description dt:dt="string">E-Prime Primary Realtime Clock</Description><StartTime><Timestamp dt:dt="int">0</Timestamp><DateUtc dt:dt="string">2016-03-22T22:35:22Z</DateUtc></StartTime><FrequencyChanges><FrequencyChange><Frequency dt:dt="r8">3507685</Frequency><Timestamp dt:dt="r8">1815016337727</Timestamp><Current dt:dt="r8">0</Current><DateUtc dt:dt="string">2016-03-22T22:35:22Z</DateUtc></FrequencyChange></FrequencyChanges></Clock>\n	Hungry_Donkey_bar_English_2-134-1	60.017	-120	1.0.0.18	1	-1754117044	Standard	2.0.10.353	2.0.10.353	03-22-2016		18:35:23	2.0.10.248	66	Bar50-50.bmp	44	2	?	0r_4g.bmp	0r_4g.bmp	0r_2g.bmp	0r_2g.bmp		0r_4g.bmp			TrialProc	TrialList	0	cvbn	-999999	16	221001	0	v	103	221104	238	-303	-65	-10	-78	13	10	9	7	66	0	0	0	0	4	4	2	2	0	4
Hungry_Donkey_bar_English_2	134	1	<?xml version="1.0"?>\n<Clock xmlns:dt="urn:schemas-microsoft-com:datatypes"><Description dt:dt="string">E-Prime Primary Realtime Clock</Description><StartTime><Timestamp dt:dt="int">0</Timestamp><DateUtc dt:dt="string">2016-03-22T22:35:22Z</DateUtc></StartTime><FrequencyChanges><FrequencyChange><Frequency dt:dt="r8">3507685</Frequency><Timestamp dt:dt="r8">1815016337727</Timestamp><Current dt:dt="r8">0</Current><DateUtc dt:dt="string">2016-03-22T22:35:22Z</DateUtc></FrequencyChange></FrequencyChanges></Clock>\n	Hungry_Donkey_bar_English_2-134-1	60.017	-120	1.0.0.18	1	-1754117044	Standard	2.0.10.353	2.0.10.353	03-22-2016		18:35:23	2.0.10.248	67	Bar50-50.bmp	44	2	?	0r_4g.bmp	0r_4g.bmp	0r_2g.bmp	0r_2g.bmp		0r_4g.bmp			TrialProc	TrialList	0	cvbn	-999999	16	223133	0	v	1651	224784	242	-303	-61	-10	-74	13	10	6	7	67	0	0	0	0	4	4	2	2	0	4
Hungry_Donkey_bar_English_2	134	1	<?xml version="1.0"?>\n<Clock xmlns:dt="urn:schemas-microsoft-com:datatypes"><Description dt:dt="string">E-Prime Primary Realtime Clock</Description><StartTime><Timestamp dt:dt="int">0</Timestamp><DateUtc dt:dt="string">2016-03-22T22:35:22Z</DateUtc></StartTime><FrequencyChanges><FrequencyChange><Frequency dt:dt="r8">3507685</Frequency><Timestamp dt:dt="r8">1815016337727</Timestamp><Current dt:dt="r8">0</Current><DateUtc dt:dt="string">2016-03-22T22:35:22Z</DateUtc></FrequencyChange></FrequencyChanges></Clock>\n	Hungry_Donkey_bar_English_2-134-1	60.017	-120	1.0.0.18	1	-1754117044	Standard	2.0.10.353	2.0.10.353	03-22-2016		18:35:23	2.0.10.248	68	Bar50-50.bmp	44	3	?	10r_4g.bmp	0r_4g.bmp	2r_2g.bmp	0r_2g.bmp			2r_2g.bmp		TrialProc	TrialList	0	cvbn	-999999	16	226816	0	b	5487	232303	244	-305	-61	-10	-74	13	10	4	7	68	-10	0	-2	0	4	4	2	2	-2	2
Hungry_Donkey_bar_English_2	134	1	<?xml version="1.0"?>\n<Clock xmlns:dt="urn:schemas-microsoft-com:datatypes"><Description dt:dt="string">E-Prime Primary Realtime Clock</Description><StartTime><Timestamp dt:dt="int">0</Timestamp><DateUtc dt:dt="string">2016-03-22T22:35:22Z</DateUtc></StartTime><FrequencyChanges><FrequencyChange><Frequency dt:dt="r8">3507685</Frequency><Timestamp dt:dt="r8">1815016337727</Timestamp><Current dt:dt="r8">0</Current><DateUtc dt:dt="string">2016-03-22T22:35:22Z</DateUtc></FrequencyChange></FrequencyChanges></Clock>\n	Hungry_Donkey_bar_English_2-134-1	60.017	-120	1.0.0.18	1	-1754117044	Standard	2.0.10.353	2.0.10.353	03-22-2016		18:35:23	2.0.10.248	69	Bar50-50.bmp	45	2	?	0r_4g.bmp	0r_4g.bmp	0r_2g.bmp	0r_2g.bmp		0r_4g.bmp			TrialProc	TrialList	0	cvbn	-999999	16	234330	0	v	341	234671	248	-305	-57	-10	-70	13	10	8	7	69	0	0	0	0	4	4	2	2	0	4
Hungry_Donkey_bar_English_2	134	1	<?xml version="1.0"?>\n<Clock xmlns:dt="urn:schemas-microsoft-com:datatypes"><Description dt:dt="string">E-Prime Primary Realtime Clock</Description><StartTime><Timestamp dt:dt="int">0</Timestamp><DateUtc dt:dt="string">2016-03-22T22:35:22Z</DateUtc></StartTime><FrequencyChanges><FrequencyChange><Frequency dt:dt="r8">3507685</Frequency><Timestamp dt:dt="r8">1815016337727</Timestamp><Current dt:dt="r8">0</Current><DateUtc dt:dt="string">2016-03-22T22:35:22Z</DateUtc></FrequencyChange></FrequencyChanges></Clock>\n	Hungry_Donkey_bar_English_2-134-1	60.017	-120	1.0.0.18	1	-1754117044	Standard	2.0.10.353	2.0.10.353	03-22-2016		18:35:23	2.0.10.248	70	Bar50-50.bmp	45	2	?	10r_4g.bmp	0r_4g.bmp	2r_2g.bmp	0r_2g.bmp		0r_4g.bmp			TrialProc	TrialList	0	cvbn	-999999	16	236696	0	v	311	237007	252	-305	-53	-10	-66	13	10	2	7	70	-10	0	-2	0	4	4	2	2	0	4
Hungry_Donkey_bar_English_2	134	1	<?xml version="1.0"?>\n<Clock xmlns:dt="urn:schemas-microsoft-com:datatypes"><Description dt:dt="string">E-Prime Primary Realtime Clock</Description><StartTime><Timestamp dt:dt="int">0</Timestamp><DateUtc dt:dt="string">2016-03-22T22:35:22Z</DateUtc></StartTime><FrequencyChanges><FrequencyChange><Frequency dt:dt="r8">3507685</Frequency><Timestamp dt:dt="r8">1815016337727</Timestamp><Current dt:dt="r8">0</Current><DateUtc dt:dt="string">2016-03-22T22:35:22Z</DateUtc></FrequencyChange></FrequencyChanges></Clock>\n	Hungry_Donkey_bar_English_2-134-1	60.017	-120	1.0.0.18	1	-1754117044	Standard	2.0.10.353	2.0.10.353	03-22-2016		18:35:23	2.0.10.248	71	Bar50-50.bmp	45	1	?	10r_4g.bmp	0r_4g.bmp	2r_2g.bmp	0r_2g.bmp	10r_4g.bmp				TrialProc	TrialList	0	cvbn	-999999	16	239045	0	c	474	239519	256	-315	-59	-16	-66	13	10	2	8	71	-10	0	-2	0	4	4	2	2	-10	4
Hungry_Donkey_bar_English_2	134	1	<?xml version="1.0"?>\n<Clock xmlns:dt="urn:schemas-microsoft-com:datatypes"><Description dt:dt="string">E-Prime Primary Realtime Clock</Description><StartTime><Timestamp dt:dt="int">0</Timestamp><DateUtc dt:dt="string">2016-03-22T22:35:22Z</DateUtc></StartTime><FrequencyChanges><FrequencyChange><Frequency dt:dt="r8">3507685</Frequency><Timestamp dt:dt="r8">1815016337727</Timestamp><Current dt:dt="r8">0</Current><DateUtc dt:dt="string">2016-03-22T22:35:22Z</DateUtc></FrequencyChange></FrequencyChanges></Clock>\n	Hungry_Donkey_bar_English_2-134-1	60.017	-120	1.0.0.18	1	-1754117044	Standard	2.0.10.353	2.0.10.353	03-22-2016		18:35:23	2.0.10.248	72	Bar50-50.bmp	45	2	?	0r_4g.bmp	0r_4g.bmp	0r_2g.bmp	0r_2g.bmp		0r_4g.bmp			TrialProc	TrialList	0	cvbn	-999999	16	241545	0	v	326	241871	260	-315	-55	-16	-62	13	10	6	8	72	0	0	0	0	4	4	2	2	0	4
Hungry_Donkey_bar_English_2	134	1	<?xml version="1.0"?>\n<Clock xmlns:dt="urn:schemas-microsoft-com:datatypes"><Description dt:dt="string">E-Prime Primary Realtime Clock</Description><StartTime><Timestamp dt:dt="int">0</Timestamp><DateUtc dt:dt="string">2016-03-22T22:35:22Z</DateUtc></StartTime><FrequencyChanges><FrequencyChange><Frequency dt:dt="r8">3507685</Frequency><Timestamp dt:dt="r8">1815016337727</Timestamp><Current dt:dt="r8">0</Current><DateUtc dt:dt="string">2016-03-22T22:35:22Z</DateUtc></FrequencyChange></FrequencyChanges></Clock>\n	Hungry_Donkey_bar_English_2-134-1	60.017	-120	1.0.0.18	1	-1754117044	Standard	2.0.10.353	2.0.10.353	03-22-2016		18:35:23	2.0.10.248	73	Bar50-50.bmp	46	2	?	12r_4g.bmp	0r_4g.bmp	3r_2g.bmp	0r_2g.bmp		0r_4g.bmp			TrialProc	TrialList	0	cvbn	-999999	16	243911	0	v	232	244143	264	-315	-51	-16	-58	13	10	5	8	73	-12	0	-3	0	4	4	2	2	0	4
Hungry_Donkey_bar_English_2	134	1	<?xml version="1.0"?>\n<Clock xmlns:dt="urn:schemas-microsoft-com:datatypes"><Description dt:dt="string">E-Prime Primary Realtime Clock</Description><StartTime><Timestamp dt:dt="int">0</Timestamp><DateUtc dt:dt="string">2016-03-22T22:35:22Z</DateUtc></StartTime><FrequencyChanges><FrequencyChange><Frequency dt:dt="r8">3507685</Frequency><Timestamp dt:dt="r8">1815016337727</Timestamp><Current dt:dt="r8">0</Current><DateUtc dt:dt="string">2016-03-22T22:35:22Z</DateUtc></FrequencyChange></FrequencyChanges></Clock>\n	Hungry_Donkey_bar_English_2-134-1	60.017	-120	1.0.0.18	1	-1754117044	Standard	2.0.10.353	2.0.10.353	03-22-2016		18:35:23	2.0.10.248	74	Bar50-50.bmp	46	2	?	10r_4g.bmp	0r_4g.bmp	2r_2g.bmp	0r_2g.bmp		0r_4g.bmp			TrialProc	TrialList	0	cvbn	-999999	16	246177	0	v	173	246350	268	-315	-47	-16	-54	13	10	3	8	74	-10	0	-2	0	4	4	2	2	0	4
Hungry_Donkey_bar_English_2	134	1	<?xml version="1.0"?>\n<Clock xmlns:dt="urn:schemas-microsoft-com:datatypes"><Description dt:dt="string">E-Prime Primary Realtime Clock</Description><StartTime><Timestamp dt:dt="int">0</Timestamp><DateUtc dt:dt="string">2016-03-22T22:35:22Z</DateUtc></StartTime><FrequencyChanges><FrequencyChange><Frequency dt:dt="r8">3507685</Frequency><Timestamp dt:dt="r8">1815016337727</Timestamp><Current dt:dt="r8">0</Current><DateUtc dt:dt="string">2016-03-22T22:35:22Z</DateUtc></FrequencyChange></FrequencyChanges></Clock>\n	Hungry_Donkey_bar_English_2-134-1	60.017	-120	1.0.0.18	1	-1754117044	Standard	2.0.10.353	2.0.10.353	03-22-2016		18:35:23	2.0.10.248	75	Bar37-63.bmp	43	2	?	8r_4g.bmp	50r_4g.bmp	1r_2g.bmp	10r_2g.bmp		50r_4g.bmp			TrialProc	TrialList	0	cvbn	-999999	16	248376	0	v	70	248446	272	-365	-93	-16	-100	13	10	1	8	75	-8	-50	-1	-10	4	4	2	2	-50	4
Hungry_Donkey_bar_English_2	134	1	<?xml version="1.0"?>\n<Clock xmlns:dt="urn:schemas-microsoft-com:datatypes"><Description dt:dt="string">E-Prime Primary Realtime Clock</Description><StartTime><Timestamp dt:dt="int">0</Timestamp><DateUtc dt:dt="string">2016-03-22T22:35:22Z</DateUtc></StartTime><FrequencyChanges><FrequencyChange><Frequency dt:dt="r8">3507685</Frequency><Timestamp dt:dt="r8">1815016337727</Timestamp><Current dt:dt="r8">0</Current><DateUtc dt:dt="string">2016-03-22T22:35:22Z</DateUtc></FrequencyChange></FrequencyChanges></Clock>\n	Hungry_Donkey_bar_English_2-134-1	60.017	-120	1.0.0.18	1	-1754117044	Standard	2.0.10.353	2.0.10.353	03-22-2016		18:35:23	2.0.10.248	76	Bar37-63.bmp	43	3	?	0r_4g.bmp	0r_4g.bmp	0r_2g.bmp	0r_2g.bmp			0r_2g.bmp		TrialProc	TrialList	0	cvbn	-999999	16	250475	0	b	2915	253390	274	-365	-91	-16	-100	15	10	7	8	76	0	0	0	0	4	4	2	2	0	2
Hungry_Donkey_bar_English_2	134	1	<?xml version="1.0"?>\n<Clock xmlns:dt="urn:schemas-microsoft-com:datatypes"><Description dt:dt="string">E-Prime Primary Realtime Clock</Description><StartTime><Timestamp dt:dt="int">0</Timestamp><DateUtc dt:dt="string">2016-03-22T22:35:22Z</DateUtc></StartTime><FrequencyChanges><FrequencyChange><Frequency dt:dt="r8">3507685</Frequency><Timestamp dt:dt="r8">1815016337727</Timestamp><Current dt:dt="r8">0</Current><DateUtc dt:dt="string">2016-03-22T22:35:22Z</DateUtc></FrequencyChange></FrequencyChanges></Clock>\n	Hungry_Donkey_bar_English_2-134-1	60.017	-120	1.0.0.18	1	-1754117044	Standard	2.0.10.353	2.0.10.353	03-22-2016		18:35:23	2.0.10.248	77	Bar37-63.bmp	43	4	?	0r_4g.bmp	0r_4g.bmp	0r_2g.bmp	0r_2g.bmp				0r_2g.bmp	TrialProc	TrialList	0	cvbn	-999999	16	255424	0	n	190	255614	276	-365	-89	-16	-100	15	12	8	8	77	0	0	0	0	4	4	2	2	0	2
Hungry_Donkey_bar_English_2	134	1	<?xml version="1.0"?>\n<Clock xmlns:dt="urn:schemas-microsoft-com:datatypes"><Description dt:dt="string">E-Prime Primary Realtime Clock</Description><StartTime><Timestamp dt:dt="int">0</Timestamp><DateUtc dt:dt="string">2016-03-22T22:35:22Z</DateUtc></StartTime><FrequencyChanges><FrequencyChange><Frequency dt:dt="r8">3507685</Frequency><Timestamp dt:dt="r8">1815016337727</Timestamp><Current dt:dt="r8">0</Current><DateUtc dt:dt="string">2016-03-22T22:35:22Z</DateUtc></FrequencyChange></FrequencyChanges></Clock>\n	Hungry_Donkey_bar_English_2-134-1	60.017	-120	1.0.0.18	1	-1754117044	Standard	2.0.10.353	2.0.10.353	03-22-2016		18:35:23	2.0.10.248	78	Bar37-63.bmp	43	3	?	0r_4g.bmp	0r_4g.bmp	0r_2g.bmp	0r_2g.bmp			0r_2g.bmp		TrialProc	TrialList	0	cvbn	-999999	16	257640	0	b	134	257774	278	-365	-87	-16	-100	17	12	9	8	78	0	0	0	0	4	4	2	2	0	2
Hungry_Donkey_bar_English_2	134	1	<?xml version="1.0"?>\n<Clock xmlns:dt="urn:schemas-microsoft-com:datatypes"><Description dt:dt="string">E-Prime Primary Realtime Clock</Description><StartTime><Timestamp dt:dt="int">0</Timestamp><DateUtc dt:dt="string">2016-03-22T22:35:22Z</DateUtc></StartTime><FrequencyChanges><FrequencyChange><Frequency dt:dt="r8">3507685</Frequency><Timestamp dt:dt="r8">1815016337727</Timestamp><Current dt:dt="r8">0</Current><DateUtc dt:dt="string">2016-03-22T22:35:22Z</DateUtc></FrequencyChange></FrequencyChanges></Clock>\n	Hungry_Donkey_bar_English_2-134-1	60.017	-120	1.0.0.18	1	-1754117044	Standard	2.0.10.353	2.0.10.353	03-22-2016		18:35:23	2.0.10.248	79	Bar50-50.bmp	44	2	?	0r_4g.bmp	0r_4g.bmp	0r_2g.bmp	0r_2g.bmp		0r_4g.bmp			TrialProc	TrialList	0	cvbn	-999999	16	259806	0	v	32	259838	282	-365	-83	-16	-96	17	12	10	8	79	0	0	0	0	4	4	2	2	0	4
Hungry_Donkey_bar_English_2	134	1	<?xml version="1.0"?>\n<Clock xmlns:dt="urn:schemas-microsoft-com:datatypes"><Description dt:dt="string">E-Prime Primary Realtime Clock</Description><StartTime><Timestamp dt:dt="int">0</Timestamp><DateUtc dt:dt="string">2016-03-22T22:35:22Z</DateUtc></StartTime><FrequencyChanges><FrequencyChange><Frequency dt:dt="r8">3507685</Frequency><Timestamp dt:dt="r8">1815016337727</Timestamp><Current dt:dt="r8">0</Current><DateUtc dt:dt="string">2016-03-22T22:35:22Z</DateUtc></FrequencyChange></FrequencyChanges></Clock>\n	Hungry_Donkey_bar_English_2-134-1	60.017	-120	1.0.0.18	1	-1754117044	Standard	2.0.10.353	2.0.10.353	03-22-2016		18:35:23	2.0.10.248	80	Bar37-63.bmp	43	1	?	10r_4g.bmp	0r_4g.bmp	2r_2g.bmp	0r_2g.bmp	10r_4g.bmp				TrialProc	TrialList	0	cvbn	-999999	16	261872	0	c	334	262206	286	-375	-89	-22	-96	17	12	4	8	80	-10	0	-2	0	4	4	2	2	-10	4
Hungry_Donkey_bar_English_2	134	1	<?xml version="1.0"?>\n<Clock xmlns:dt="urn:schemas-microsoft-com:datatypes"><Description dt:dt="string">E-Prime Primary Realtime Clock</Description><StartTime><Timestamp dt:dt="int">0</Timestamp><DateUtc dt:dt="string">2016-03-22T22:35:22Z</DateUtc></StartTime><FrequencyChanges><FrequencyChange><Frequency dt:dt="r8">3507685</Frequency><Timestamp dt:dt="r8">1815016337727</Timestamp><Current dt:dt="r8">0</Current><DateUtc dt:dt="string">2016-03-22T22:35:22Z</DateUtc></FrequencyChange></FrequencyChanges></Clock>\n	Hungry_Donkey_bar_English_2-134-1	60.017	-120	1.0.0.18	1	-1754117044	Standard	2.0.10.353	2.0.10.353	03-22-2016		18:35:23	2.0.10.248	81	Bar50-50.bmp	44	2	?	10r_4g.bmp	0r_4g.bmp	2r_2g.bmp	0r_2g.bmp		0r_4g.bmp			TrialProc	TrialList	0	cvbn	-999999	16	264238	0	v	304	264542	290	-375	-85	-22	-92	17	12	4	9	81	-10	0	-2	0	4	4	2	2	0	4
Hungry_Donkey_bar_English_2	134	1	<?xml version="1.0"?>\n<Clock xmlns:dt="urn:schemas-microsoft-com:datatypes"><Description dt:dt="string">E-Prime Primary Realtime Clock</Description><StartTime><Timestamp dt:dt="int">0</Timestamp><DateUtc dt:dt="string">2016-03-22T22:35:22Z</DateUtc></StartTime><FrequencyChanges><FrequencyChange><Frequency dt:dt="r8">3507685</Frequency><Timestamp dt:dt="r8">1815016337727</Timestamp><Current dt:dt="r8">0</Current><DateUtc dt:dt="string">2016-03-22T22:35:22Z</DateUtc></FrequencyChange></FrequencyChanges></Clock>\n	Hungry_Donkey_bar_English_2-134-1	60.017	-120	1.0.0.18	1	-1754117044	Standard	2.0.10.353	2.0.10.353	03-22-2016		18:35:23	2.0.10.248	82	Bar50-50.bmp	44	3	?	0r_4g.bmp	0r_4g.bmp	0r_2g.bmp	0r_2g.bmp			0r_2g.bmp		TrialProc	TrialList	0	cvbn	-999999	16	266571	0	b	578	267149	292	-375	-83	-22	-92	19	12	7	9	82	0	0	0	0	4	4	2	2	0	2
Hungry_Donkey_bar_English_2	134	1	<?xml version="1.0"?>\n<Clock xmlns:dt="urn:schemas-microsoft-com:datatypes"><Description dt:dt="string">E-Prime Primary Realtime Clock</Description><StartTime><Timestamp dt:dt="int">0</Timestamp><DateUtc dt:dt="string">2016-03-22T22:35:22Z</DateUtc></StartTime><FrequencyChanges><FrequencyChange><Frequency dt:dt="r8">3507685</Frequency><Timestamp dt:dt="r8">1815016337727</Timestamp><Current dt:dt="r8">0</Current><DateUtc dt:dt="string">2016-03-22T22:35:22Z</DateUtc></FrequencyChange></FrequencyChanges></Clock>\n	Hungry_Donkey_bar_English_2-134-1	60.017	-120	1.0.0.18	1	-1754117044	Standard	2.0.10.353	2.0.10.353	03-22-2016		18:35:23	2.0.10.248	83	Bar50-50.bmp	44	4	?	0r_4g.bmp	0r_4g.bmp	0r_2g.bmp	0r_2g.bmp				0r_2g.bmp	TrialProc	TrialList	0	cvbn	-999999	16	269187	0	n	90	269277	294	-375	-81	-22	-92	19	14	9	9	83	0	0	0	0	4	4	2	2	0	2
Hungry_Donkey_bar_English_2	134	1	<?xml version="1.0"?>\n<Clock xmlns:dt="urn:schemas-microsoft-com:datatypes"><Description dt:dt="string">E-Prime Primary Realtime Clock</Description><StartTime><Timestamp dt:dt="int">0</Timestamp><DateUtc dt:dt="string">2016-03-22T22:35:22Z</DateUtc></StartTime><FrequencyChanges><FrequencyChange><Frequency dt:dt="r8">3507685</Frequency><Timestamp dt:dt="r8">1815016337727</Timestamp><Current dt:dt="r8">0</Current><DateUtc dt:dt="string">2016-03-22T22:35:22Z</DateUtc></FrequencyChange></FrequencyChanges></Clock>\n	Hungry_Donkey_bar_English_2-134-1	60.017	-120	1.0.0.18	1	-1754117044	Standard	2.0.10.353	2.0.10.353	03-22-2016		18:35:23	2.0.10.248	84	Bar50-50.bmp	44	4	?	0r_4g.bmp	0r_4g.bmp	0r_2g.bmp	0r_2g.bmp				0r_2g.bmp	TrialProc	TrialList	0	cvbn	-999999	16	271303	0	n	246	271549	296	-375	-79	-22	-92	19	16	6	9	84	0	0	0	0	4	4	2	2	0	2
Hungry_Donkey_bar_English_2	134	1	<?xml version="1.0"?>\n<Clock xmlns:dt="urn:schemas-microsoft-com:datatypes"><Description dt:dt="string">E-Prime Primary Realtime Clock</Description><StartTime><Timestamp dt:dt="int">0</Timestamp><DateUtc dt:dt="string">2016-03-22T22:35:22Z</DateUtc></StartTime><FrequencyChanges><FrequencyChange><Frequency dt:dt="r8">3507685</Frequency><Timestamp dt:dt="r8">1815016337727</Timestamp><Current dt:dt="r8">0</Current><DateUtc dt:dt="string">2016-03-22T22:35:22Z</DateUtc></FrequencyChange></FrequencyChanges></Clock>\n	Hungry_Donkey_bar_English_2-134-1	60.017	-120	1.0.0.18	1	-1754117044	Standard	2.0.10.353	2.0.10.353	03-22-2016		18:35:23	2.0.10.248	85	Bar50-50.bmp	44	4	?	10r_4g.bmp	0r_4g.bmp	2r_2g.bmp	0r_2g.bmp				0r_2g.bmp	TrialProc	TrialList	0	cvbn	-999999	16	273585	0	n	316	273901	298	-375	-77	-22	-92	19	18	2	9	85	-10	0	-2	0	4	4	2	2	0	2
Hungry_Donkey_bar_English_2	134	1	<?xml version="1.0"?>\n<Clock xmlns:dt="urn:schemas-microsoft-com:datatypes"><Description dt:dt="string">E-Prime Primary Realtime Clock</Description><StartTime><Timestamp dt:dt="int">0</Timestamp><DateUtc dt:dt="string">2016-03-22T22:35:22Z</DateUtc></StartTime><FrequencyChanges><FrequencyChange><Frequency dt:dt="r8">3507685</Frequency><Timestamp dt:dt="r8">1815016337727</Timestamp><Current dt:dt="r8">0</Current><DateUtc dt:dt="string">2016-03-22T22:35:22Z</DateUtc></FrequencyChange></FrequencyChanges></Clock>\n	Hungry_Donkey_bar_English_2-134-1	60.017	-120	1.0.0.18	1	-1754117044	Standard	2.0.10.353	2.0.10.353	03-22-2016		18:35:23	2.0.10.248	86	Bar50-50.bmp	44	4	?	12r_4g.bmp	0r_4g.bmp	3r_2g.bmp	0r_2g.bmp				0r_2g.bmp	TrialProc	TrialList	0	cvbn	-999999	16	275935	0	n	286	276221	300	-375	-75	-22	-92	19	20	5	9	86	-12	0	-3	0	4	4	2	2	0	2
Hungry_Donkey_bar_English_2	134	1	<?xml version="1.0"?>\n<Clock xmlns:dt="urn:schemas-microsoft-com:datatypes"><Description dt:dt="string">E-Prime Primary Realtime Clock</Description><StartTime><Timestamp dt:dt="int">0</Timestamp><DateUtc dt:dt="string">2016-03-22T22:35:22Z</DateUtc></StartTime><FrequencyChanges><FrequencyChange><Frequency dt:dt="r8">3507685</Frequency><Timestamp dt:dt="r8">1815016337727</Timestamp><Current dt:dt="r8">0</Current><DateUtc dt:dt="string">2016-03-22T22:35:22Z</DateUtc></FrequencyChange></FrequencyChanges></Clock>\n	Hungry_Donkey_bar_English_2-134-1	60.017	-120	1.0.0.18	1	-1754117044	Standard	2.0.10.353	2.0.10.353	03-22-2016		18:35:23	2.0.10.248	87	Bar50-50.bmp	45	2	?	0r_4g.bmp	0r_4g.bmp	0r_2g.bmp	0r_2g.bmp		0r_4g.bmp			TrialProc	TrialList	0	cvbn	-999999	16	278251	0	v	354	278605	304	-375	-71	-22	-88	19	20	10	9	87	0	0	0	0	4	4	2	2	0	4
Hungry_Donkey_bar_English_2	134	1	<?xml version="1.0"?>\n<Clock xmlns:dt="urn:schemas-microsoft-com:datatypes"><Description dt:dt="string">E-Prime Primary Realtime Clock</Description><StartTime><Timestamp dt:dt="int">0</Timestamp><DateUtc dt:dt="string">2016-03-22T22:35:22Z</DateUtc></StartTime><FrequencyChanges><FrequencyChange><Frequency dt:dt="r8">3507685</Frequency><Timestamp dt:dt="r8">1815016337727</Timestamp><Current dt:dt="r8">0</Current><DateUtc dt:dt="string">2016-03-22T22:35:22Z</DateUtc></FrequencyChange></FrequencyChanges></Clock>\n	Hungry_Donkey_bar_English_2-134-1	60.017	-120	1.0.0.18	1	-1754117044	Standard	2.0.10.353	2.0.10.353	03-22-2016		18:35:23	2.0.10.248	88	Bar50-50.bmp	45	3	?	10r_4g.bmp	0r_4g.bmp	2r_2g.bmp	0r_2g.bmp			2r_2g.bmp		TrialProc	TrialList	0	cvbn	-999999	16	280633	0	b	228	280861	306	-377	-71	-22	-88	19	20	3	9	88	-10	0	-2	0	4	4	2	2	-2	2
Hungry_Donkey_bar_English_2	134	1	<?xml version="1.0"?>\n<Clock xmlns:dt="urn:schemas-microsoft-com:datatypes"><Description dt:dt="string">E-Prime Primary Realtime Clock</Description><StartTime><Timestamp dt:dt="int">0</Timestamp><DateUtc dt:dt="string">2016-03-22T22:35:22Z</DateUtc></StartTime><FrequencyChanges><FrequencyChange><Frequency dt:dt="r8">3507685</Frequency><Timestamp dt:dt="r8">1815016337727</Timestamp><Current dt:dt="r8">0</Current><DateUtc dt:dt="string">2016-03-22T22:35:22Z</DateUtc></FrequencyChange></FrequencyChanges></Clock>\n	Hungry_Donkey_bar_English_2-134-1	60.017	-120	1.0.0.18	1	-1754117044	Standard	2.0.10.353	2.0.10.353	03-22-2016		18:35:23	2.0.10.248	89	Bar37-63.bmp	42	2	?	8r_4g.bmp	50r_4g.bmp	1r_2g.bmp	10r_2g.bmp		50r_4g.bmp			TrialProc	TrialList	0	cvbn	-999999	16	282899	0	v	298	283197	310	-427	-117	-22	-134	19	20	1	9	89	-8	-50	-1	-10	4	4	2	2	-50	4
Hungry_Donkey_bar_English_2	134	1	<?xml version="1.0"?>\n<Clock xmlns:dt="urn:schemas-microsoft-com:datatypes"><Description dt:dt="string">E-Prime Primary Realtime Clock</Description><StartTime><Timestamp dt:dt="int">0</Timestamp><DateUtc dt:dt="string">2016-03-22T22:35:22Z</DateUtc></StartTime><FrequencyChanges><FrequencyChange><Frequency dt:dt="r8">3507685</Frequency><Timestamp dt:dt="r8">1815016337727</Timestamp><Current dt:dt="r8">0</Current><DateUtc dt:dt="string">2016-03-22T22:35:22Z</DateUtc></FrequencyChange></FrequencyChanges></Clock>\n	Hungry_Donkey_bar_English_2-134-1	60.017	-120	1.0.0.18	1	-1754117044	Standard	2.0.10.353	2.0.10.353	03-22-2016		18:35:23	2.0.10.248	90	Bar37-63.bmp	42	2	?	0r_4g.bmp	0r_4g.bmp	0r_2g.bmp	0r_2g.bmp		0r_4g.bmp			TrialProc	TrialList	0	cvbn	-999999	16	285232	0	v	572	285804	314	-427	-113	-22	-130	19	20	8	9	90	0	0	0	0	4	4	2	2	0	4
Hungry_Donkey_bar_English_2	134	1	<?xml version="1.0"?>\n<Clock xmlns:dt="urn:schemas-microsoft-com:datatypes"><Description dt:dt="string">E-Prime Primary Realtime Clock</Description><StartTime><Timestamp dt:dt="int">0</Timestamp><DateUtc dt:dt="string">2016-03-22T22:35:22Z</DateUtc></StartTime><FrequencyChanges><FrequencyChange><Frequency dt:dt="r8">3507685</Frequency><Timestamp dt:dt="r8">1815016337727</Timestamp><Current dt:dt="r8">0</Current><DateUtc dt:dt="string">2016-03-22T22:35:22Z</DateUtc></FrequencyChange></FrequencyChanges></Clock>\n	Hungry_Donkey_bar_English_2-134-1	60.017	-120	1.0.0.18	1	-1754117044	Standard	2.0.10.353	2.0.10.353	03-22-2016		18:35:23	2.0.10.248	91	Bar37-63.bmp	42	1	?	10r_4g.bmp	0r_4g.bmp	2r_2g.bmp	0r_2g.bmp	10r_4g.bmp				TrialProc	TrialList	0	cvbn	-999999	16	287831	0	c	69	287900	318	-437	-119	-28	-130	19	20	4	10	91	-10	0	-2	0	4	4	2	2	-10	4
Hungry_Donkey_bar_English_2	134	1	<?xml version="1.0"?>\n<Clock xmlns:dt="urn:schemas-microsoft-com:datatypes"><Description dt:dt="string">E-Prime Primary Realtime Clock</Description><StartTime><Timestamp dt:dt="int">0</Timestamp><DateUtc dt:dt="string">2016-03-22T22:35:22Z</DateUtc></StartTime><FrequencyChanges><FrequencyChange><Frequency dt:dt="r8">3507685</Frequency><Timestamp dt:dt="r8">1815016337727</Timestamp><Current dt:dt="r8">0</Current><DateUtc dt:dt="string">2016-03-22T22:35:22Z</DateUtc></FrequencyChange></FrequencyChanges></Clock>\n	Hungry_Donkey_bar_English_2-134-1	60.017	-120	1.0.0.18	1	-1754117044	Standard	2.0.10.353	2.0.10.353	03-22-2016		18:35:23	2.0.10.248	92	Bar37-63.bmp	42	2	?	12r_4g.bmp	0r_4g.bmp	3r_2g.bmp	0r_2g.bmp		0r_4g.bmp			TrialProc	TrialList	0	cvbn	-999999	16	289931	0	v	177	290108	322	-437	-115	-28	-126	19	20	5	10	92	-12	0	-3	0	4	4	2	2	0	4
Hungry_Donkey_bar_English_2	134	1	<?xml version="1.0"?>\n<Clock xmlns:dt="urn:schemas-microsoft-com:datatypes"><Description dt:dt="string">E-Prime Primary Realtime Clock</Description><StartTime><Timestamp dt:dt="int">0</Timestamp><DateUtc dt:dt="string">2016-03-22T22:35:22Z</DateUtc></StartTime><FrequencyChanges><FrequencyChange><Frequency dt:dt="r8">3507685</Frequency><Timestamp dt:dt="r8">1815016337727</Timestamp><Current dt:dt="r8">0</Current><DateUtc dt:dt="string">2016-03-22T22:35:22Z</DateUtc></FrequencyChange></FrequencyChanges></Clock>\n	Hungry_Donkey_bar_English_2-134-1	60.017	-120	1.0.0.18	1	-1754117044	Standard	2.0.10.353	2.0.10.353	03-22-2016		18:35:23	2.0.10.248	93	Bar37-63.bmp	43	2	?	0r_4g.bmp	0r_4g.bmp	0r_2g.bmp	0r_2g.bmp		0r_4g.bmp			TrialProc	TrialList	0	cvbn	-999999	16	292147	0	v	809	292956	326	-437	-111	-28	-122	19	20	8	10	93	0	0	0	0	4	4	2	2	0	4
Hungry_Donkey_bar_English_2	134	1	<?xml version="1.0"?>\n<Clock xmlns:dt="urn:schemas-microsoft-com:datatypes"><Description dt:dt="string">E-Prime Primary Realtime Clock</Description><StartTime><Timestamp dt:dt="int">0</Timestamp><DateUtc dt:dt="string">2016-03-22T22:35:22Z</DateUtc></StartTime><FrequencyChanges><FrequencyChange><Frequency dt:dt="r8">3507685</Frequency><Timestamp dt:dt="r8">1815016337727</Timestamp><Current dt:dt="r8">0</Current><DateUtc dt:dt="string">2016-03-22T22:35:22Z</DateUtc></FrequencyChange></FrequencyChanges></Clock>\n	Hungry_Donkey_bar_English_2-134-1	60.017	-120	1.0.0.18	1	-1754117044	Standard	2.0.10.353	2.0.10.353	03-22-2016		18:35:23	2.0.10.248	94	Bar37-63.bmp	43	4	?	0r_4g.bmp	0r_4g.bmp	0r_2g.bmp	0r_2g.bmp				0r_2g.bmp	TrialProc	TrialList	0	cvbn	-999999	16	294979	0	n	2361	297340	328	-437	-109	-28	-122	19	22	7	10	94	0	0	0	0	4	4	2	2	0	2
Hungry_Donkey_bar_English_2	134	1	<?xml version="1.0"?>\n<Clock xmlns:dt="urn:schemas-microsoft-com:datatypes"><Description dt:dt="string">E-Prime Primary Realtime Clock</Description><StartTime><Timestamp dt:dt="int">0</Timestamp><DateUtc dt:dt="string">2016-03-22T22:35:22Z</DateUtc></StartTime><FrequencyChanges><FrequencyChange><Frequency dt:dt="r8">3507685</Frequency><Timestamp dt:dt="r8">1815016337727</Timestamp><Current dt:dt="r8">0</Current><DateUtc dt:dt="string">2016-03-22T22:35:22Z</DateUtc></FrequencyChange></FrequencyChanges></Clock>\n	Hungry_Donkey_bar_English_2-134-1	60.017	-120	1.0.0.18	1	-1754117044	Standard	2.0.10.353	2.0.10.353	03-22-2016		18:35:23	2.0.10.248	95	Bar37-63.bmp	43	4	?	10r_4g.bmp	0r_4g.bmp	2r_2g.bmp	0r_2g.bmp				0r_2g.bmp	TrialProc	TrialList	0	cvbn	-999999	16	299378	0	n	154	299532	330	-437	-107	-28	-122	19	24	3	10	95	-10	0	-2	0	4	4	2	2	0	2
Hungry_Donkey_bar_English_2	134	1	<?xml version="1.0"?>\n<Clock xmlns:dt="urn:schemas-microsoft-com:datatypes"><Description dt:dt="string">E-Prime Primary Realtime Clock</Description><StartTime><Timestamp dt:dt="int">0</Timestamp><DateUtc dt:dt="string">2016-03-22T22:35:22Z</DateUtc></StartTime><FrequencyChanges><FrequencyChange><Frequency dt:dt="r8">3507685</Frequency><Timestamp dt:dt="r8">1815016337727</Timestamp><Current dt:dt="r8">0</Current><DateUtc dt:dt="string">2016-03-22T22:35:22Z</DateUtc></FrequencyChange></FrequencyChanges></Clock>\n	Hungry_Donkey_bar_English_2-134-1	60.017	-120	1.0.0.18	1	-1754117044	Standard	2.0.10.353	2.0.10.353	03-22-2016		18:35:23	2.0.10.248	96	Bar37-63.bmp	43	3	?	8r_4g.bmp	50r_4g.bmp	1r_2g.bmp	10r_2g.bmp			1r_2g.bmp		TrialProc	TrialList	0	cvbn	-999999	16	301561	0	b	1363	302924	332	-438	-106	-28	-122	20	24	1	10	96	-8	-50	-1	-10	4	4	2	2	-1	2
Hungry_Donkey_bar_English_2	134	1	<?xml version="1.0"?>\n<Clock xmlns:dt="urn:schemas-microsoft-com:datatypes"><Description dt:dt="string">E-Prime Primary Realtime Clock</Description><StartTime><Timestamp dt:dt="int">0</Timestamp><DateUtc dt:dt="string">2016-03-22T22:35:22Z</DateUtc></StartTime><FrequencyChanges><FrequencyChange><Frequency dt:dt="r8">3507685</Frequency><Timestamp dt:dt="r8">1815016337727</Timestamp><Current dt:dt="r8">0</Current><DateUtc dt:dt="string">2016-03-22T22:35:22Z</DateUtc></FrequencyChange></FrequencyChanges></Clock>\n	Hungry_Donkey_bar_English_2-134-1	60.017	-120	1.0.0.18	1	-1754117044	Standard	2.0.10.353	2.0.10.353	03-22-2016		18:35:23	2.0.10.248	97	Bar37-63.bmp	43	2	?	0r_4g.bmp	0r_4g.bmp	0r_2g.bmp	0r_2g.bmp		0r_4g.bmp			TrialProc	TrialList	0	cvbn	-999999	16	304960	0	v	299	305259	336	-438	-102	-28	-118	20	24	6	10	97	0	0	0	0	4	4	2	2	0	4
Hungry_Donkey_bar_English_2	134	1	<?xml version="1.0"?>\n<Clock xmlns:dt="urn:schemas-microsoft-com:datatypes"><Description dt:dt="string">E-Prime Primary Realtime Clock</Description><StartTime><Timestamp dt:dt="int">0</Timestamp><DateUtc dt:dt="string">2016-03-22T22:35:22Z</DateUtc></StartTime><FrequencyChanges><FrequencyChange><Frequency dt:dt="r8">3507685</Frequency><Timestamp dt:dt="r8">1815016337727</Timestamp><Current dt:dt="r8">0</Current><DateUtc dt:dt="string">2016-03-22T22:35:22Z</DateUtc></FrequencyChange></FrequencyChanges></Clock>\n	Hungry_Donkey_bar_English_2-134-1	60.017	-120	1.0.0.18	1	-1754117044	Standard	2.0.10.353	2.0.10.353	03-22-2016		18:35:23	2.0.10.248	98	Bar50-50.bmp	44	4	?	10r_4g.bmp	0r_4g.bmp	2r_2g.bmp	0r_2g.bmp				0r_2g.bmp	TrialProc	TrialList	0	cvbn	-999999	16	307292	0	n	2223	309515	338	-438	-100	-28	-118	20	26	2	10	98	-10	0	-2	0	4	4	2	2	0	2
Hungry_Donkey_bar_English_2	134	1	<?xml version="1.0"?>\n<Clock xmlns:dt="urn:schemas-microsoft-com:datatypes"><Description dt:dt="string">E-Prime Primary Realtime Clock</Description><StartTime><Timestamp dt:dt="int">0</Timestamp><DateUtc dt:dt="string">2016-03-22T22:35:22Z</DateUtc></StartTime><FrequencyChanges><FrequencyChange><Frequency dt:dt="r8">3507685</Frequency><Timestamp dt:dt="r8">1815016337727</Timestamp><Current dt:dt="r8">0</Current><DateUtc dt:dt="string">2016-03-22T22:35:22Z</DateUtc></FrequencyChange></FrequencyChanges></Clock>\n	Hungry_Donkey_bar_English_2-134-1	60.017	-120	1.0.0.18	1	-1754117044	Standard	2.0.10.353	2.0.10.353	03-22-2016		18:35:23	2.0.10.248	99	Bar50-50.bmp	44	2	?	0r_4g.bmp	0r_4g.bmp	0r_2g.bmp	0r_2g.bmp		0r_4g.bmp			TrialProc	TrialList	0	cvbn	-999999	16	311541	0	v	70	311611	342	-438	-96	-28	-114	20	26	10	10	99	0	0	0	0	4	4	2	2	0	4
Hungry_Donkey_bar_English_2	134	1	<?xml version="1.0"?>\n<Clock xmlns:dt="urn:schemas-microsoft-com:datatypes"><Description dt:dt="string">E-Prime Primary Realtime Clock</Description><StartTime><Timestamp dt:dt="int">0</Timestamp><DateUtc dt:dt="string">2016-03-22T22:35:22Z</DateUtc></StartTime><FrequencyChanges><FrequencyChange><Frequency dt:dt="r8">3507685</Frequency><Timestamp dt:dt="r8">1815016337727</Timestamp><Current dt:dt="r8">0</Current><DateUtc dt:dt="string">2016-03-22T22:35:22Z</DateUtc></FrequencyChange></FrequencyChanges></Clock>\n	Hungry_Donkey_bar_English_2-134-1	60.017	-120	1.0.0.18	1	-1754117044	Standard	2.0.10.353	2.0.10.353	03-22-2016		18:35:23	2.0.10.248	100	Bar50-50.bmp	44	4	?	0r_4g.bmp	0r_4g.bmp	0r_2g.bmp	0r_2g.bmp				0r_2g.bmp	TrialProc	TrialList	0	cvbn	-999999	17	313641	0	n	1570	315211	344	-438	-94	-28	-114	20	28	9	10	100	0	0	0	0	4	4	2	2	0	2
Hungry_Donkey_bar_English_2	134	1	<?xml version="1.0"?>\n<Clock xmlns:dt="urn:schemas-microsoft-com:datatypes"><Description dt:dt="string">E-Prime Primary Realtime Clock</Description><StartTime><Timestamp dt:dt="int">0</Timestamp><DateUtc dt:dt="string">2016-03-22T22:35:22Z</DateUtc></StartTime><FrequencyChanges><FrequencyChange><Frequency dt:dt="r8">3507685</Frequency><Timestamp dt:dt="r8">1815016337727</Timestamp><Current dt:dt="r8">0</Current><DateUtc dt:dt="string">2016-03-22T22:35:22Z</DateUtc></FrequencyChange></FrequencyChanges></Clock>\n	Hungry_Donkey_bar_English_2-134-1	60.017	-120	1.0.0.18	1	-1754117044	Standard	2.0.10.353	2.0.10.353	03-22-2016		18:35:23	2.0.10.248	101	Bar50-50.bmp	44	2	?	0r_4g.bmp	0r_4g.bmp	0r_2g.bmp	0r_2g.bmp		0r_4g.bmp			TrialProc	TrialList	0	cvbn	-999999	17	317240	0	v	563	317803	348	-438	-90	-28	-110	20	28	6	11	101	0	0	0	0	4	4	2	2	0	4
Hungry_Donkey_bar_English_2	134	1	<?xml version="1.0"?>\n<Clock xmlns:dt="urn:schemas-microsoft-com:datatypes"><Description dt:dt="string">E-Prime Primary Realtime Clock</Description><StartTime><Timestamp dt:dt="int">0</Timestamp><DateUtc dt:dt="string">2016-03-22T22:35:22Z</DateUtc></StartTime><FrequencyChanges><FrequencyChange><Frequency dt:dt="r8">3507685</Frequency><Timestamp dt:dt="r8">1815016337727</Timestamp><Current dt:dt="r8">0</Current><DateUtc dt:dt="string">2016-03-22T22:35:22Z</DateUtc></FrequencyChange></FrequencyChanges></Clock>\n	Hungry_Donkey_bar_English_2-134-1	60.017	-120	1.0.0.18	1	-1754117044	Standard	2.0.10.353	2.0.10.353	03-22-2016		18:35:23	2.0.10.248	102	Bar50-50.bmp	44	4	?	10r_4g.bmp	0r_4g.bmp	2r_2g.bmp	0r_2g.bmp				0r_2g.bmp	TrialProc	TrialList	0	cvbn	-999999	16	319839	0	n	140	319979	350	-438	-88	-28	-110	20	30	3	11	102	-10	0	-2	0	4	4	2	2	0	2
Hungry_Donkey_bar_English_2	134	1	<?xml version="1.0"?>\n<Clock xmlns:dt="urn:schemas-microsoft-com:datatypes"><Description dt:dt="string">E-Prime Primary Realtime Clock</Description><StartTime><Timestamp dt:dt="int">0</Timestamp><DateUtc dt:dt="string">2016-03-22T22:35:22Z</DateUtc></StartTime><FrequencyChanges><FrequencyChange><Frequency dt:dt="r8">3507685</Frequency><Timestamp dt:dt="r8">1815016337727</Timestamp><Current dt:dt="r8">0</Current><DateUtc dt:dt="string">2016-03-22T22:35:22Z</DateUtc></FrequencyChange></FrequencyChanges></Clock>\n	Hungry_Donkey_bar_English_2-134-1	60.017	-120	1.0.0.18	1	-1754117044	Standard	2.0.10.353	2.0.10.353	03-22-2016		18:35:23	2.0.10.248	103	Bar50-50.bmp	45	4	?	10r_4g.bmp	0r_4g.bmp	2r_2g.bmp	0r_2g.bmp				0r_2g.bmp	TrialProc	TrialList	0	cvbn	-999999	16	322005	0	n	566	322571	352	-438	-86	-28	-110	20	32	4	11	103	-10	0	-2	0	4	4	2	2	0	2
Hungry_Donkey_bar_English_2	134	1	<?xml version="1.0"?>\n<Clock xmlns:dt="urn:schemas-microsoft-com:datatypes"><Description dt:dt="string">E-Prime Primary Realtime Clock</Description><StartTime><Timestamp dt:dt="int">0</Timestamp><DateUtc dt:dt="string">2016-03-22T22:35:22Z</DateUtc></StartTime><FrequencyChanges><FrequencyChange><Frequency dt:dt="r8">3507685</Frequency><Timestamp dt:dt="r8">1815016337727</Timestamp><Current dt:dt="r8">0</Current><DateUtc dt:dt="string">2016-03-22T22:35:22Z</DateUtc></FrequencyChange></FrequencyChanges></Clock>\n	Hungry_Donkey_bar_English_2-134-1	60.017	-120	1.0.0.18	1	-1754117044	Standard	2.0.10.353	2.0.10.353	03-22-2016		18:35:23	2.0.10.248	104	Bar50-50.bmp	45	2	?	0r_4g.bmp	0r_4g.bmp	0r_2g.bmp	0r_2g.bmp		0r_4g.bmp			TrialProc	TrialList	0	cvbn	-999999	16	324604	0	v	398	325002	356	-438	-82	-28	-106	20	32	7	11	104	0	0	0	0	4	4	2	2	0	4
Hungry_Donkey_bar_English_2	134	1	<?xml version="1.0"?>\n<Clock xmlns:dt="urn:schemas-microsoft-com:datatypes"><Description dt:dt="string">E-Prime Primary Realtime Clock</Description><StartTime><Timestamp dt:dt="int">0</Timestamp><DateUtc dt:dt="string">2016-03-22T22:35:22Z</DateUtc></StartTime><FrequencyChanges><FrequencyChange><Frequency dt:dt="r8">3507685</Frequency><Timestamp dt:dt="r8">1815016337727</Timestamp><Current dt:dt="r8">0</Current><DateUtc dt:dt="string">2016-03-22T22:35:22Z</DateUtc></FrequencyChange></FrequencyChanges></Clock>\n	Hungry_Donkey_bar_English_2-134-1	60.017	-120	1.0.0.18	1	-1754117044	Standard	2.0.10.353	2.0.10.353	03-22-2016		18:35:23	2.0.10.248	105	Bar50-50.bmp	45	4	?	0r_4g.bmp	0r_4g.bmp	0r_2g.bmp	0r_2g.bmp				0r_2g.bmp	TrialProc	TrialList	0	cvbn	-999999	16	327037	0	n	525	327562	358	-438	-80	-28	-106	20	34	9	11	105	0	0	0	0	4	4	2	2	0	2
Hungry_Donkey_bar_English_2	134	1	<?xml version="1.0"?>\n<Clock xmlns:dt="urn:schemas-microsoft-com:datatypes"><Description dt:dt="string">E-Prime Primary Realtime Clock</Description><StartTime><Timestamp dt:dt="int">0</Timestamp><DateUtc dt:dt="string">2016-03-22T22:35:22Z</DateUtc></StartTime><FrequencyChanges><FrequencyChange><Frequency dt:dt="r8">3507685</Frequency><Timestamp dt:dt="r8">1815016337727</Timestamp><Current dt:dt="r8">0</Current><DateUtc dt:dt="string">2016-03-22T22:35:22Z</DateUtc></FrequencyChange></FrequencyChanges></Clock>\n	Hungry_Donkey_bar_English_2-134-1	60.017	-120	1.0.0.18	1	-1754117044	Standard	2.0.10.353	2.0.10.353	03-22-2016		18:35:23	2.0.10.248	106	Bar50-50.bmp	45	4	?	10r_4g.bmp	0r_4g.bmp	2r_2g.bmp	0r_2g.bmp				0r_2g.bmp	TrialProc	TrialList	0	cvbn	-999999	15	329586	0	n	184	329770	360	-438	-78	-28	-106	20	36	2	11	106	-10	0	-2	0	4	4	2	2	0	2
Hungry_Donkey_bar_English_2	134	1	<?xml version="1.0"?>\n<Clock xmlns:dt="urn:schemas-microsoft-com:datatypes"><Description dt:dt="string">E-Prime Primary Realtime Clock</Description><StartTime><Timestamp dt:dt="int">0</Timestamp><DateUtc dt:dt="string">2016-03-22T22:35:22Z</DateUtc></StartTime><FrequencyChanges><FrequencyChange><Frequency dt:dt="r8">3507685</Frequency><Timestamp dt:dt="r8">1815016337727</Timestamp><Current dt:dt="r8">0</Current><DateUtc dt:dt="string">2016-03-22T22:35:22Z</DateUtc></FrequencyChange></FrequencyChanges></Clock>\n	Hungry_Donkey_bar_English_2-134-1	60.017	-120	1.0.0.18	1	-1754117044	Standard	2.0.10.353	2.0.10.353	03-22-2016		18:35:23	2.0.10.248	107	Bar50-50.bmp	45	4	?	8r_4g.bmp	50r_4g.bmp	1r_2g.bmp	10r_2g.bmp				10r_2g.bmp	TrialProc	TrialList	0	cvbn	-999999	16	331802	0	n	288	332090	362	-448	-86	-28	-106	20	28	1	11	107	-8	-50	-1	-10	4	4	2	2	-10	2
Hungry_Donkey_bar_English_2	134	1	<?xml version="1.0"?>\n<Clock xmlns:dt="urn:schemas-microsoft-com:datatypes"><Description dt:dt="string">E-Prime Primary Realtime Clock</Description><StartTime><Timestamp dt:dt="int">0</Timestamp><DateUtc dt:dt="string">2016-03-22T22:35:22Z</DateUtc></StartTime><FrequencyChanges><FrequencyChange><Frequency dt:dt="r8">3507685</Frequency><Timestamp dt:dt="r8">1815016337727</Timestamp><Current dt:dt="r8">0</Current><DateUtc dt:dt="string">2016-03-22T22:35:22Z</DateUtc></FrequencyChange></FrequencyChanges></Clock>\n	Hungry_Donkey_bar_English_2-134-1	60.017	-120	1.0.0.18	1	-1754117044	Standard	2.0.10.353	2.0.10.353	03-22-2016		18:35:23	2.0.10.248	108	Bar50-50.bmp	45	2	?	12r_4g.bmp	0r_4g.bmp	3r_2g.bmp	0r_2g.bmp		0r_4g.bmp			TrialProc	TrialList	0	cvbn	-999999	16	334118	0	v	388	334506	366	-448	-82	-28	-102	20	28	5	11	108	-12	0	-3	0	4	4	2	2	0	4
Hungry_Donkey_bar_English_2	134	1	<?xml version="1.0"?>\n<Clock xmlns:dt="urn:schemas-microsoft-com:datatypes"><Description dt:dt="string">E-Prime Primary Realtime Clock</Description><StartTime><Timestamp dt:dt="int">0</Timestamp><DateUtc dt:dt="string">2016-03-22T22:35:22Z</DateUtc></StartTime><FrequencyChanges><FrequencyChange><Frequency dt:dt="r8">3507685</Frequency><Timestamp dt:dt="r8">1815016337727</Timestamp><Current dt:dt="r8">0</Current><DateUtc dt:dt="string">2016-03-22T22:35:22Z</DateUtc></FrequencyChange></FrequencyChanges></Clock>\n	Hungry_Donkey_bar_English_2-134-1	60.017	-120	1.0.0.18	1	-1754117044	Standard	2.0.10.353	2.0.10.353	03-22-2016		18:35:23	2.0.10.248	109	Bar50-50.bmp	45	2	?	0r_4g.bmp	0r_4g.bmp	0r_2g.bmp	0r_2g.bmp		0r_4g.bmp			TrialProc	TrialList	0	cvbn	-999999	16	336534	0	v	324	336858	370	-448	-78	-28	-98	20	28	10	11	109	0	0	0	0	4	4	2	2	0	4
Hungry_Donkey_bar_English_2	134	1	<?xml version="1.0"?>\n<Clock xmlns:dt="urn:schemas-microsoft-com:datatypes"><Description dt:dt="string">E-Prime Primary Realtime Clock</Description><StartTime><Timestamp dt:dt="int">0</Timestamp><DateUtc dt:dt="string">2016-03-22T22:35:22Z</DateUtc></StartTime><FrequencyChanges><FrequencyChange><Frequency dt:dt="r8">3507685</Frequency><Timestamp dt:dt="r8">1815016337727</Timestamp><Current dt:dt="r8">0</Current><DateUtc dt:dt="string">2016-03-22T22:35:22Z</DateUtc></FrequencyChange></FrequencyChanges></Clock>\n	Hungry_Donkey_bar_English_2-134-1	60.017	-120	1.0.0.18	1	-1754117044	Standard	2.0.10.353	2.0.10.353	03-22-2016		18:35:23	2.0.10.248	110	Bar50-50.bmp	45	4	?	0r_4g.bmp	0r_4g.bmp	0r_2g.bmp	0r_2g.bmp				0r_2g.bmp	TrialProc	TrialList	0	cvbn	-999999	16	338883	0	n	87	338970	372	-448	-76	-28	-98	20	30	8	11	110	0	0	0	0	4	4	2	2	0	2
Hungry_Donkey_bar_English_2	134	1	<?xml version="1.0"?>\n<Clock xmlns:dt="urn:schemas-microsoft-com:datatypes"><Description dt:dt="string">E-Prime Primary Realtime Clock</Description><StartTime><Timestamp dt:dt="int">0</Timestamp><DateUtc dt:dt="string">2016-03-22T22:35:22Z</DateUtc></StartTime><FrequencyChanges><FrequencyChange><Frequency dt:dt="r8">3507685</Frequency><Timestamp dt:dt="r8">1815016337727</Timestamp><Current dt:dt="r8">0</Current><DateUtc dt:dt="string">2016-03-22T22:35:22Z</DateUtc></FrequencyChange></FrequencyChanges></Clock>\n	Hungry_Donkey_bar_English_2-134-1	60.017	-120	1.0.0.18	1	-1754117044	Standard	2.0.10.353	2.0.10.353	03-22-2016		18:35:23	2.0.10.248	111	Bar50-50.bmp	46	2	?	0r_4g.bmp	0r_4g.bmp	0r_2g.bmp	0r_2g.bmp		0r_4g.bmp			TrialProc	TrialList	0	cvbn	-999999	16	340999	0	v	131	341130	376	-448	-72	-28	-94	20	30	8	12	111	0	0	0	0	4	4	2	2	0	4
Hungry_Donkey_bar_English_2	134	1	<?xml version="1.0"?>\n<Clock xmlns:dt="urn:schemas-microsoft-com:datatypes"><Description dt:dt="string">E-Prime Primary Realtime Clock</Description><StartTime><Timestamp dt:dt="int">0</Timestamp><DateUtc dt:dt="string">2016-03-22T22:35:22Z</DateUtc></StartTime><FrequencyChanges><FrequencyChange><Frequency dt:dt="r8">3507685</Frequency><Timestamp dt:dt="r8">1815016337727</Timestamp><Current dt:dt="r8">0</Current><DateUtc dt:dt="string">2016-03-22T22:35:22Z</DateUtc></FrequencyChange></FrequencyChanges></Clock>\n	Hungry_Donkey_bar_English_2-134-1	60.017	-120	1.0.0.18	1	-1754117044	Standard	2.0.10.353	2.0.10.353	03-22-2016		18:35:23	2.0.10.248	112	Bar50-50.bmp	46	4	?	10r_4g.bmp	0r_4g.bmp	2r_2g.bmp	0r_2g.bmp				0r_2g.bmp	TrialProc	TrialList	0	cvbn	-999999	16	343165	0	n	284	343449	378	-448	-70	-28	-94	20	32	2	12	112	-10	0	-2	0	4	4	2	2	0	2
Hungry_Donkey_bar_English_2	134	1	<?xml version="1.0"?>\n<Clock xmlns:dt="urn:schemas-microsoft-com:datatypes"><Description dt:dt="string">E-Prime Primary Realtime Clock</Description><StartTime><Timestamp dt:dt="int">0</Timestamp><DateUtc dt:dt="string">2016-03-22T22:35:22Z</DateUtc></StartTime><FrequencyChanges><FrequencyChange><Frequency dt:dt="r8">3507685</Frequency><Timestamp dt:dt="r8">1815016337727</Timestamp><Current dt:dt="r8">0</Current><DateUtc dt:dt="string">2016-03-22T22:35:22Z</DateUtc></FrequencyChange></FrequencyChanges></Clock>\n	Hungry_Donkey_bar_English_2-134-1	60.017	-120	1.0.0.18	1	-1754117044	Standard	2.0.10.353	2.0.10.353	03-22-2016		18:35:23	2.0.10.248	113	Bar50-50.bmp	46	3	?	12r_4g.bmp	0r_4g.bmp	3r_2g.bmp	0r_2g.bmp			3r_2g.bmp		TrialProc	TrialList	0	cvbn	-999999	16	345481	0	b	256	345737	380	-451	-71	-28	-94	19	32	5	12	113	-12	0	-3	0	4	4	2	2	-3	2
