ExperimentName	Subject	Session	Clock.Information	DataFile.Basename	Display.RefreshRate	Eindtotaal[Session]	ExperimentVersion	Group	RandomSeed	RuntimeCapabilities	RuntimeVersion	RuntimeVersionExpected	SessionDate	SessionStartDateTimeUtc	SessionTime	StudioVersion	Block	BarImage	BarTotalWinst	DoorChoice	Eindtotaal[Block]	FBDoor1	FBDoor2	FBDoor3	FBDoor4	Image1	Image2	Image3	Image4	Procedure	Running	spel.ACC	spel.CRESP	spel.DurationError	spel.OnsetDelay	spel.OnsetTime	spel.OnsetToOnsetTime	spel.RESP	spel.RT	spel.RTTime	TotalGain	TotalLose	Totalsum	TotalsumD1	TotalsumD2	TotalsumD3	TotalsumD4	TrialList	TrialList.Cycle	TrialList.Sample	varV1	varV2	varV3	varV4	varW1	varW2	varW3	varW4	Verliesbedrag	Winstbedrag
Hungry_Donkey_bar_English_2	163	1	<?xml version="1.0"?>\n<Clock xmlns:dt="urn:schemas-microsoft-com:datatypes"><Description dt:dt="string">E-Prime Primary Realtime Clock</Description><StartTime><Timestamp dt:dt="int">0</Timestamp><DateUtc dt:dt="string">2016-08-03T17:37:31Z</DateUtc></StartTime><FrequencyChanges><FrequencyChange><Frequency dt:dt="r8">3507695</Frequency><Timestamp dt:dt="r8">1420089816069</Timestamp><Current dt:dt="r8">0</Current><DateUtc dt:dt="string">2016-08-03T17:37:31Z</DateUtc></FrequencyChange></FrequencyChanges></Clock>\n	Hungry_Donkey_bar_English_2-163-1	60.018	-105	1.0.0.18	1	-1543685080	Standard	2.0.10.353	2.0.10.353	08-03-2016	8/3/2016 5:37:31 PM	13:37:31	2.0.10.248	1	Bar50-50.bmp	50	3	?	10r_4g.bmp	0r_4g.bmp	2r_2g.bmp	0r_2g.bmp			2r_2g.bmp		TrialProc	TrialList	0	cvbn	-999999	30	51704	0	b	4034	55738	2	-2	0	0	0	0	0	3	1	1	-10	0	-2	0	4	4	2	2	-2	2
Hungry_Donkey_bar_English_2	163	1	<?xml version="1.0"?>\n<Clock xmlns:dt="urn:schemas-microsoft-com:datatypes"><Description dt:dt="string">E-Prime Primary Realtime Clock</Description><StartTime><Timestamp dt:dt="int">0</Timestamp><DateUtc dt:dt="string">2016-08-03T17:37:31Z</DateUtc></StartTime><FrequencyChanges><FrequencyChange><Frequency dt:dt="r8">3507695</Frequency><Timestamp dt:dt="r8">1420089816069</Timestamp><Current dt:dt="r8">0</Current><DateUtc dt:dt="string">2016-08-03T17:37:31Z</DateUtc></FrequencyChange></FrequencyChanges></Clock>\n	Hungry_Donkey_bar_English_2-163-1	60.018	-105	1.0.0.18	1	-1543685080	Standard	2.0.10.353	2.0.10.353	08-03-2016	8/3/2016 5:37:31 PM	13:37:31	2.0.10.248	2	Bar75-25.bmp	75	1	?	0r_4g.bmp	0r_4g.bmp	0r_2g.bmp	0r_2g.bmp	0r_4g.bmp				TrialProc	TrialList	0	cvbn	-999999	16	57769	0	c	1953	59722	6	-2	4	4	0	0	0	8	1	2	0	0	0	0	4	4	2	2	0	4
Hungry_Donkey_bar_English_2	163	1	<?xml version="1.0"?>\n<Clock xmlns:dt="urn:schemas-microsoft-com:datatypes"><Description dt:dt="string">E-Prime Primary Realtime Clock</Description><StartTime><Timestamp dt:dt="int">0</Timestamp><DateUtc dt:dt="string">2016-08-03T17:37:31Z</DateUtc></StartTime><FrequencyChanges><FrequencyChange><Frequency dt:dt="r8">3507695</Frequency><Timestamp dt:dt="r8">1420089816069</Timestamp><Current dt:dt="r8">0</Current><DateUtc dt:dt="string">2016-08-03T17:37:31Z</DateUtc></FrequencyChange></FrequencyChanges></Clock>\n	Hungry_Donkey_bar_English_2-163-1	60.018	-105	1.0.0.18	1	-1543685080	Standard	2.0.10.353	2.0.10.353	08-03-2016	8/3/2016 5:37:31 PM	13:37:31	2.0.10.248	3	Bar87-13.bmp	83	2	?	0r_4g.bmp	0r_4g.bmp	0r_2g.bmp	0r_2g.bmp		0r_4g.bmp			TrialProc	TrialList	0	cvbn	-999999	16	61751	0	v	354	62105	10	-2	8	4	4	0	0	6	1	3	0	0	0	0	4	4	2	2	0	4
Hungry_Donkey_bar_English_2	163	1	<?xml version="1.0"?>\n<Clock xmlns:dt="urn:schemas-microsoft-com:datatypes"><Description dt:dt="string">E-Prime Primary Realtime Clock</Description><StartTime><Timestamp dt:dt="int">0</Timestamp><DateUtc dt:dt="string">2016-08-03T17:37:31Z</DateUtc></StartTime><FrequencyChanges><FrequencyChange><Frequency dt:dt="r8">3507695</Frequency><Timestamp dt:dt="r8">1420089816069</Timestamp><Current dt:dt="r8">0</Current><DateUtc dt:dt="string">2016-08-03T17:37:31Z</DateUtc></FrequencyChange></FrequencyChanges></Clock>\n	Hungry_Donkey_bar_English_2-163-1	60.018	-105	1.0.0.18	1	-1543685080	Standard	2.0.10.353	2.0.10.353	08-03-2016	8/3/2016 5:37:31 PM	13:37:31	2.0.10.248	4	Bar87-13.bmp	86	4	?	0r_4g.bmp	0r_4g.bmp	0r_2g.bmp	0r_2g.bmp				0r_2g.bmp	TrialProc	TrialList	0	cvbn	-999999	16	64134	0	n	691	64825	12	-2	10	4	4	0	2	9	1	4	0	0	0	0	4	4	2	2	0	2
Hungry_Donkey_bar_English_2	163	1	<?xml version="1.0"?>\n<Clock xmlns:dt="urn:schemas-microsoft-com:datatypes"><Description dt:dt="string">E-Prime Primary Realtime Clock</Description><StartTime><Timestamp dt:dt="int">0</Timestamp><DateUtc dt:dt="string">2016-08-03T17:37:31Z</DateUtc></StartTime><FrequencyChanges><FrequencyChange><Frequency dt:dt="r8">3507695</Frequency><Timestamp dt:dt="r8">1420089816069</Timestamp><Current dt:dt="r8">0</Current><DateUtc dt:dt="string">2016-08-03T17:37:31Z</DateUtc></FrequencyChange></FrequencyChanges></Clock>\n	Hungry_Donkey_bar_English_2-163-1	60.018	-105	1.0.0.18	1	-1543685080	Standard	2.0.10.353	2.0.10.353	08-03-2016	8/3/2016 5:37:31 PM	13:37:31	2.0.10.248	5	Bar87-13.bmp	89	1	?	0r_4g.bmp	0r_4g.bmp	0r_2g.bmp	0r_2g.bmp	0r_4g.bmp				TrialProc	TrialList	0	cvbn	-999999	16	66866	0	c	119	66985	16	-2	14	8	4	0	2	7	1	5	0	0	0	0	4	4	2	2	0	4
Hungry_Donkey_bar_English_2	163	1	<?xml version="1.0"?>\n<Clock xmlns:dt="urn:schemas-microsoft-com:datatypes"><Description dt:dt="string">E-Prime Primary Realtime Clock</Description><StartTime><Timestamp dt:dt="int">0</Timestamp><DateUtc dt:dt="string">2016-08-03T17:37:31Z</DateUtc></StartTime><FrequencyChanges><FrequencyChange><Frequency dt:dt="r8">3507695</Frequency><Timestamp dt:dt="r8">1420089816069</Timestamp><Current dt:dt="r8">0</Current><DateUtc dt:dt="string">2016-08-03T17:37:31Z</DateUtc></FrequencyChange></FrequencyChanges></Clock>\n	Hungry_Donkey_bar_English_2-163-1	60.018	-105	1.0.0.18	1	-1543685080	Standard	2.0.10.353	2.0.10.353	08-03-2016	8/3/2016 5:37:31 PM	13:37:31	2.0.10.248	6	Bar87-13.bmp	91	2	?	12r_4g.bmp	0r_4g.bmp	3r_2g.bmp	0r_2g.bmp		0r_4g.bmp			TrialProc	TrialList	0	cvbn	-999999	16	69016	0	v	801	69817	20	-2	18	8	8	0	2	5	1	6	-12	0	-3	0	4	4	2	2	0	4
Hungry_Donkey_bar_English_2	163	1	<?xml version="1.0"?>\n<Clock xmlns:dt="urn:schemas-microsoft-com:datatypes"><Description dt:dt="string">E-Prime Primary Realtime Clock</Description><StartTime><Timestamp dt:dt="int">0</Timestamp><DateUtc dt:dt="string">2016-08-03T17:37:31Z</DateUtc></StartTime><FrequencyChanges><FrequencyChange><Frequency dt:dt="r8">3507695</Frequency><Timestamp dt:dt="r8">1420089816069</Timestamp><Current dt:dt="r8">0</Current><DateUtc dt:dt="string">2016-08-03T17:37:31Z</DateUtc></FrequencyChange></FrequencyChanges></Clock>\n	Hungry_Donkey_bar_English_2-163-1	60.018	-105	1.0.0.18	1	-1543685080	Standard	2.0.10.353	2.0.10.353	08-03-2016	8/3/2016 5:37:31 PM	13:37:31	2.0.10.248	7	Bar87-13.bmp	85	3	?	10r_4g.bmp	0r_4g.bmp	2r_2g.bmp	0r_2g.bmp			2r_2g.bmp		TrialProc	TrialList	0	cvbn	-999999	16	71848	0	b	321	72169	22	-4	18	8	8	0	2	4	1	7	-10	0	-2	0	4	4	2	2	-2	2
Hungry_Donkey_bar_English_2	163	1	<?xml version="1.0"?>\n<Clock xmlns:dt="urn:schemas-microsoft-com:datatypes"><Description dt:dt="string">E-Prime Primary Realtime Clock</Description><StartTime><Timestamp dt:dt="int">0</Timestamp><DateUtc dt:dt="string">2016-08-03T17:37:31Z</DateUtc></StartTime><FrequencyChanges><FrequencyChange><Frequency dt:dt="r8">3507695</Frequency><Timestamp dt:dt="r8">1420089816069</Timestamp><Current dt:dt="r8">0</Current><DateUtc dt:dt="string">2016-08-03T17:37:31Z</DateUtc></FrequencyChange></FrequencyChanges></Clock>\n	Hungry_Donkey_bar_English_2-163-1	60.018	-105	1.0.0.18	1	-1543685080	Standard	2.0.10.353	2.0.10.353	08-03-2016	8/3/2016 5:37:31 PM	13:37:31	2.0.10.248	8	Bar63-37.bmp	65	1	?	10r_4g.bmp	0r_4g.bmp	2r_2g.bmp	0r_2g.bmp	10r_4g.bmp				TrialProc	TrialList	0	cvbn	-999999	16	74198	0	c	371	74569	26	-14	12	2	8	0	2	2	1	8	-10	0	-2	0	4	4	2	2	-10	4
Hungry_Donkey_bar_English_2	163	1	<?xml version="1.0"?>\n<Clock xmlns:dt="urn:schemas-microsoft-com:datatypes"><Description dt:dt="string">E-Prime Primary Realtime Clock</Description><StartTime><Timestamp dt:dt="int">0</Timestamp><DateUtc dt:dt="string">2016-08-03T17:37:31Z</DateUtc></StartTime><FrequencyChanges><FrequencyChange><Frequency dt:dt="r8">3507695</Frequency><Timestamp dt:dt="r8">1420089816069</Timestamp><Current dt:dt="r8">0</Current><DateUtc dt:dt="string">2016-08-03T17:37:31Z</DateUtc></FrequencyChange></FrequencyChanges></Clock>\n	Hungry_Donkey_bar_English_2-163-1	60.018	-105	1.0.0.18	1	-1543685080	Standard	2.0.10.353	2.0.10.353	08-03-2016	8/3/2016 5:37:31 PM	13:37:31	2.0.10.248	9	Bar63-37.bmp	68	2	?	0r_4g.bmp	0r_4g.bmp	0r_2g.bmp	0r_2g.bmp		0r_4g.bmp			TrialProc	TrialList	0	cvbn	-999999	16	76597	0	v	260	76857	30	-14	16	2	12	0	2	10	1	9	0	0	0	0	4	4	2	2	0	4
Hungry_Donkey_bar_English_2	163	1	<?xml version="1.0"?>\n<Clock xmlns:dt="urn:schemas-microsoft-com:datatypes"><Description dt:dt="string">E-Prime Primary Realtime Clock</Description><StartTime><Timestamp dt:dt="int">0</Timestamp><DateUtc dt:dt="string">2016-08-03T17:37:31Z</DateUtc></StartTime><FrequencyChanges><FrequencyChange><Frequency dt:dt="r8">3507695</Frequency><Timestamp dt:dt="r8">1420089816069</Timestamp><Current dt:dt="r8">0</Current><DateUtc dt:dt="string">2016-08-03T17:37:31Z</DateUtc></FrequencyChange></FrequencyChanges></Clock>\n	Hungry_Donkey_bar_English_2-163-1	60.018	-105	1.0.0.18	1	-1543685080	Standard	2.0.10.353	2.0.10.353	08-03-2016	8/3/2016 5:37:31 PM	13:37:31	2.0.10.248	10	Bar63-37.bmp	57	4	?	8r_4g.bmp	50r_4g.bmp	1r_2g.bmp	10r_2g.bmp				10r_2g.bmp	TrialProc	TrialList	0	cvbn	-999999	16	78896	0	n	1016	79912	32	-24	8	2	12	0	-6	1	1	10	-8	-50	-1	-10	4	4	2	2	-10	2
Hungry_Donkey_bar_English_2	163	1	<?xml version="1.0"?>\n<Clock xmlns:dt="urn:schemas-microsoft-com:datatypes"><Description dt:dt="string">E-Prime Primary Realtime Clock</Description><StartTime><Timestamp dt:dt="int">0</Timestamp><DateUtc dt:dt="string">2016-08-03T17:37:31Z</DateUtc></StartTime><FrequencyChanges><FrequencyChange><Frequency dt:dt="r8">3507695</Frequency><Timestamp dt:dt="r8">1420089816069</Timestamp><Current dt:dt="r8">0</Current><DateUtc dt:dt="string">2016-08-03T17:37:31Z</DateUtc></FrequencyChange></FrequencyChanges></Clock>\n	Hungry_Donkey_bar_English_2-163-1	60.018	-105	1.0.0.18	1	-1543685080	Standard	2.0.10.353	2.0.10.353	08-03-2016	8/3/2016 5:37:31 PM	13:37:31	2.0.10.248	11	Bar63-37.bmp	57	3	?	10r_4g.bmp	0r_4g.bmp	2r_2g.bmp	0r_2g.bmp			2r_2g.bmp		TrialProc	TrialList	0	cvbn	-999999	16	81945	0	b	191	82136	34	-26	8	2	12	0	-6	3	2	11	-10	0	-2	0	4	4	2	2	-2	2
Hungry_Donkey_bar_English_2	163	1	<?xml version="1.0"?>\n<Clock xmlns:dt="urn:schemas-microsoft-com:datatypes"><Description dt:dt="string">E-Prime Primary Realtime Clock</Description><StartTime><Timestamp dt:dt="int">0</Timestamp><DateUtc dt:dt="string">2016-08-03T17:37:31Z</DateUtc></StartTime><FrequencyChanges><FrequencyChange><Frequency dt:dt="r8">3507695</Frequency><Timestamp dt:dt="r8">1420089816069</Timestamp><Current dt:dt="r8">0</Current><DateUtc dt:dt="string">2016-08-03T17:37:31Z</DateUtc></FrequencyChange></FrequencyChanges></Clock>\n	Hungry_Donkey_bar_English_2-163-1	60.018	-105	1.0.0.18	1	-1543685080	Standard	2.0.10.353	2.0.10.353	08-03-2016	8/3/2016 5:37:31 PM	13:37:31	2.0.10.248	12	Bar63-37.bmp	59	2	?	0r_4g.bmp	0r_4g.bmp	0r_2g.bmp	0r_2g.bmp		0r_4g.bmp			TrialProc	TrialList	0	cvbn	-999999	16	84161	0	v	103	84264	38	-26	12	2	16	0	-6	8	2	12	0	0	0	0	4	4	2	2	0	4
Hungry_Donkey_bar_English_2	163	1	<?xml version="1.0"?>\n<Clock xmlns:dt="urn:schemas-microsoft-com:datatypes"><Description dt:dt="string">E-Prime Primary Realtime Clock</Description><StartTime><Timestamp dt:dt="int">0</Timestamp><DateUtc dt:dt="string">2016-08-03T17:37:31Z</DateUtc></StartTime><FrequencyChanges><FrequencyChange><Frequency dt:dt="r8">3507695</Frequency><Timestamp dt:dt="r8">1420089816069</Timestamp><Current dt:dt="r8">0</Current><DateUtc dt:dt="string">2016-08-03T17:37:31Z</DateUtc></FrequencyChange></FrequencyChanges></Clock>\n	Hungry_Donkey_bar_English_2-163-1	60.018	-105	1.0.0.18	1	-1543685080	Standard	2.0.10.353	2.0.10.353	08-03-2016	8/3/2016 5:37:31 PM	13:37:31	2.0.10.248	13	Bar50-50.bmp	54	1	?	10r_4g.bmp	0r_4g.bmp	2r_2g.bmp	0r_2g.bmp	10r_4g.bmp				TrialProc	TrialList	0	cvbn	-999999	16	86294	0	c	418	86712	42	-36	6	-4	16	0	-6	4	2	13	-10	0	-2	0	4	4	2	2	-10	4
Hungry_Donkey_bar_English_2	163	1	<?xml version="1.0"?>\n<Clock xmlns:dt="urn:schemas-microsoft-com:datatypes"><Description dt:dt="string">E-Prime Primary Realtime Clock</Description><StartTime><Timestamp dt:dt="int">0</Timestamp><DateUtc dt:dt="string">2016-08-03T17:37:31Z</DateUtc></StartTime><FrequencyChanges><FrequencyChange><Frequency dt:dt="r8">3507695</Frequency><Timestamp dt:dt="r8">1420089816069</Timestamp><Current dt:dt="r8">0</Current><DateUtc dt:dt="string">2016-08-03T17:37:31Z</DateUtc></FrequencyChange></FrequencyChanges></Clock>\n	Hungry_Donkey_bar_English_2-163-1	60.018	-105	1.0.0.18	1	-1543685080	Standard	2.0.10.353	2.0.10.353	08-03-2016	8/3/2016 5:37:31 PM	13:37:31	2.0.10.248	14	Bar50-50.bmp	56	2	?	12r_4g.bmp	0r_4g.bmp	3r_2g.bmp	0r_2g.bmp		0r_4g.bmp			TrialProc	TrialList	0	cvbn	-999999	16	88743	0	v	753	89496	46	-36	10	-4	20	0	-6	5	2	14	-12	0	-3	0	4	4	2	2	0	4
Hungry_Donkey_bar_English_2	163	1	<?xml version="1.0"?>\n<Clock xmlns:dt="urn:schemas-microsoft-com:datatypes"><Description dt:dt="string">E-Prime Primary Realtime Clock</Description><StartTime><Timestamp dt:dt="int">0</Timestamp><DateUtc dt:dt="string">2016-08-03T17:37:31Z</DateUtc></StartTime><FrequencyChanges><FrequencyChange><Frequency dt:dt="r8">3507695</Frequency><Timestamp dt:dt="r8">1420089816069</Timestamp><Current dt:dt="r8">0</Current><DateUtc dt:dt="string">2016-08-03T17:37:31Z</DateUtc></FrequencyChange></FrequencyChanges></Clock>\n	Hungry_Donkey_bar_English_2-163-1	60.018	-105	1.0.0.18	1	-1543685080	Standard	2.0.10.353	2.0.10.353	08-03-2016	8/3/2016 5:37:31 PM	13:37:31	2.0.10.248	15	Bar63-37.bmp	58	1	?	0r_4g.bmp	0r_4g.bmp	0r_2g.bmp	0r_2g.bmp	0r_4g.bmp				TrialProc	TrialList	0	cvbn	-999999	16	91526	0	c	418	91944	50	-36	14	0	20	0	-6	6	2	15	0	0	0	0	4	4	2	2	0	4
Hungry_Donkey_bar_English_2	163	1	<?xml version="1.0"?>\n<Clock xmlns:dt="urn:schemas-microsoft-com:datatypes"><Description dt:dt="string">E-Prime Primary Realtime Clock</Description><StartTime><Timestamp dt:dt="int">0</Timestamp><DateUtc dt:dt="string">2016-08-03T17:37:31Z</DateUtc></StartTime><FrequencyChanges><FrequencyChange><Frequency dt:dt="r8">3507695</Frequency><Timestamp dt:dt="r8">1420089816069</Timestamp><Current dt:dt="r8">0</Current><DateUtc dt:dt="string">2016-08-03T17:37:31Z</DateUtc></FrequencyChange></FrequencyChanges></Clock>\n	Hungry_Donkey_bar_English_2-163-1	60.018	-105	1.0.0.18	1	-1543685080	Standard	2.0.10.353	2.0.10.353	08-03-2016	8/3/2016 5:37:31 PM	13:37:31	2.0.10.248	16	Bar63-37.bmp	60	1	?	0r_4g.bmp	0r_4g.bmp	0r_2g.bmp	0r_2g.bmp	0r_4g.bmp				TrialProc	TrialList	0	cvbn	-999999	16	93975	0	c	353	94328	54	-36	18	4	20	0	-6	9	2	16	0	0	0	0	4	4	2	2	0	4
Hungry_Donkey_bar_English_2	163	1	<?xml version="1.0"?>\n<Clock xmlns:dt="urn:schemas-microsoft-com:datatypes"><Description dt:dt="string">E-Prime Primary Realtime Clock</Description><StartTime><Timestamp dt:dt="int">0</Timestamp><DateUtc dt:dt="string">2016-08-03T17:37:31Z</DateUtc></StartTime><FrequencyChanges><FrequencyChange><Frequency dt:dt="r8">3507695</Frequency><Timestamp dt:dt="r8">1420089816069</Timestamp><Current dt:dt="r8">0</Current><DateUtc dt:dt="string">2016-08-03T17:37:31Z</DateUtc></FrequencyChange></FrequencyChanges></Clock>\n	Hungry_Donkey_bar_English_2-163-1	60.018	-105	1.0.0.18	1	-1543685080	Standard	2.0.10.353	2.0.10.353	08-03-2016	8/3/2016 5:37:31 PM	13:37:31	2.0.10.248	17	Bar63-37.bmp	61	4	?	0r_4g.bmp	0r_4g.bmp	0r_2g.bmp	0r_2g.bmp				0r_2g.bmp	TrialProc	TrialList	0	cvbn	-999999	16	96358	0	n	994	97352	56	-36	20	4	20	0	-4	7	2	17	0	0	0	0	4	4	2	2	0	2
Hungry_Donkey_bar_English_2	163	1	<?xml version="1.0"?>\n<Clock xmlns:dt="urn:schemas-microsoft-com:datatypes"><Description dt:dt="string">E-Prime Primary Realtime Clock</Description><StartTime><Timestamp dt:dt="int">0</Timestamp><DateUtc dt:dt="string">2016-08-03T17:37:31Z</DateUtc></StartTime><FrequencyChanges><FrequencyChange><Frequency dt:dt="r8">3507695</Frequency><Timestamp dt:dt="r8">1420089816069</Timestamp><Current dt:dt="r8">0</Current><DateUtc dt:dt="string">2016-08-03T17:37:31Z</DateUtc></FrequencyChange></FrequencyChanges></Clock>\n	Hungry_Donkey_bar_English_2-163-1	60.018	-105	1.0.0.18	1	-1543685080	Standard	2.0.10.353	2.0.10.353	08-03-2016	8/3/2016 5:37:31 PM	13:37:31	2.0.10.248	18	Bar63-37.bmp	62	4	?	0r_4g.bmp	0r_4g.bmp	0r_2g.bmp	0r_2g.bmp				0r_2g.bmp	TrialProc	TrialList	0	cvbn	-999999	16	99390	0	n	329	99719	58	-36	22	4	20	0	-2	10	2	18	0	0	0	0	4	4	2	2	0	2
Hungry_Donkey_bar_English_2	163	1	<?xml version="1.0"?>\n<Clock xmlns:dt="urn:schemas-microsoft-com:datatypes"><Description dt:dt="string">E-Prime Primary Realtime Clock</Description><StartTime><Timestamp dt:dt="int">0</Timestamp><DateUtc dt:dt="string">2016-08-03T17:37:31Z</DateUtc></StartTime><FrequencyChanges><FrequencyChange><Frequency dt:dt="r8">3507695</Frequency><Timestamp dt:dt="r8">1420089816069</Timestamp><Current dt:dt="r8">0</Current><DateUtc dt:dt="string">2016-08-03T17:37:31Z</DateUtc></FrequencyChange></FrequencyChanges></Clock>\n	Hungry_Donkey_bar_English_2-163-1	60.018	-105	1.0.0.18	1	-1543685080	Standard	2.0.10.353	2.0.10.353	08-03-2016	8/3/2016 5:37:31 PM	13:37:31	2.0.10.248	19	Bar63-37.bmp	62	4	?	10r_4g.bmp	0r_4g.bmp	2r_2g.bmp	0r_2g.bmp				0r_2g.bmp	TrialProc	TrialList	0	cvbn	-999999	16	101756	0	n	27	101783	60	-36	24	4	20	0	0	2	2	19	-10	0	-2	0	4	4	2	2	0	2
Hungry_Donkey_bar_English_2	163	1	<?xml version="1.0"?>\n<Clock xmlns:dt="urn:schemas-microsoft-com:datatypes"><Description dt:dt="string">E-Prime Primary Realtime Clock</Description><StartTime><Timestamp dt:dt="int">0</Timestamp><DateUtc dt:dt="string">2016-08-03T17:37:31Z</DateUtc></StartTime><FrequencyChanges><FrequencyChange><Frequency dt:dt="r8">3507695</Frequency><Timestamp dt:dt="r8">1420089816069</Timestamp><Current dt:dt="r8">0</Current><DateUtc dt:dt="string">2016-08-03T17:37:31Z</DateUtc></FrequencyChange></FrequencyChanges></Clock>\n	Hungry_Donkey_bar_English_2-163-1	60.018	-105	1.0.0.18	1	-1543685080	Standard	2.0.10.353	2.0.10.353	08-03-2016	8/3/2016 5:37:31 PM	13:37:31	2.0.10.248	20	Bar63-37.bmp	63	3	?	8r_4g.bmp	50r_4g.bmp	1r_2g.bmp	10r_2g.bmp			1r_2g.bmp		TrialProc	TrialList	0	cvbn	-999999	16	103822	0	b	409	104231	62	-37	25	4	20	1	0	1	2	20	-8	-50	-1	-10	4	4	2	2	-1	2
Hungry_Donkey_bar_English_2	163	1	<?xml version="1.0"?>\n<Clock xmlns:dt="urn:schemas-microsoft-com:datatypes"><Description dt:dt="string">E-Prime Primary Realtime Clock</Description><StartTime><Timestamp dt:dt="int">0</Timestamp><DateUtc dt:dt="string">2016-08-03T17:37:31Z</DateUtc></StartTime><FrequencyChanges><FrequencyChange><Frequency dt:dt="r8">3507695</Frequency><Timestamp dt:dt="r8">1420089816069</Timestamp><Current dt:dt="r8">0</Current><DateUtc dt:dt="string">2016-08-03T17:37:31Z</DateUtc></FrequencyChange></FrequencyChanges></Clock>\n	Hungry_Donkey_bar_English_2-163-1	60.018	-105	1.0.0.18	1	-1543685080	Standard	2.0.10.353	2.0.10.353	08-03-2016	8/3/2016 5:37:31 PM	13:37:31	2.0.10.248	21	Bar63-37.bmp	63	4	?	10r_4g.bmp	0r_4g.bmp	2r_2g.bmp	0r_2g.bmp				0r_2g.bmp	TrialProc	TrialList	0	cvbn	-999999	16	106255	0	n	824	107079	64	-37	27	4	20	1	2	3	3	21	-10	0	-2	0	4	4	2	2	0	2
Hungry_Donkey_bar_English_2	163	1	<?xml version="1.0"?>\n<Clock xmlns:dt="urn:schemas-microsoft-com:datatypes"><Description dt:dt="string">E-Prime Primary Realtime Clock</Description><StartTime><Timestamp dt:dt="int">0</Timestamp><DateUtc dt:dt="string">2016-08-03T17:37:31Z</DateUtc></StartTime><FrequencyChanges><FrequencyChange><Frequency dt:dt="r8">3507695</Frequency><Timestamp dt:dt="r8">1420089816069</Timestamp><Current dt:dt="r8">0</Current><DateUtc dt:dt="string">2016-08-03T17:37:31Z</DateUtc></FrequencyChange></FrequencyChanges></Clock>\n	Hungry_Donkey_bar_English_2-163-1	60.018	-105	1.0.0.18	1	-1543685080	Standard	2.0.10.353	2.0.10.353	08-03-2016	8/3/2016 5:37:31 PM	13:37:31	2.0.10.248	22	Bar63-37.bmp	64	4	?	10r_4g.bmp	0r_4g.bmp	2r_2g.bmp	0r_2g.bmp				0r_2g.bmp	TrialProc	TrialList	0	cvbn	-999999	16	109104	0	n	391	109495	66	-37	29	4	20	1	4	2	3	22	-10	0	-2	0	4	4	2	2	0	2
Hungry_Donkey_bar_English_2	163	1	<?xml version="1.0"?>\n<Clock xmlns:dt="urn:schemas-microsoft-com:datatypes"><Description dt:dt="string">E-Prime Primary Realtime Clock</Description><StartTime><Timestamp dt:dt="int">0</Timestamp><DateUtc dt:dt="string">2016-08-03T17:37:31Z</DateUtc></StartTime><FrequencyChanges><FrequencyChange><Frequency dt:dt="r8">3507695</Frequency><Timestamp dt:dt="r8">1420089816069</Timestamp><Current dt:dt="r8">0</Current><DateUtc dt:dt="string">2016-08-03T17:37:31Z</DateUtc></FrequencyChange></FrequencyChanges></Clock>\n	Hungry_Donkey_bar_English_2-163-1	60.018	-105	1.0.0.18	1	-1543685080	Standard	2.0.10.353	2.0.10.353	08-03-2016	8/3/2016 5:37:31 PM	13:37:31	2.0.10.248	23	Bar63-37.bmp	65	4	?	0r_4g.bmp	0r_4g.bmp	0r_2g.bmp	0r_2g.bmp				0r_2g.bmp	TrialProc	TrialList	0	cvbn	-999999	16	111520	0	n	247	111767	68	-37	31	4	20	1	6	7	3	23	0	0	0	0	4	4	2	2	0	2
Hungry_Donkey_bar_English_2	163	1	<?xml version="1.0"?>\n<Clock xmlns:dt="urn:schemas-microsoft-com:datatypes"><Description dt:dt="string">E-Prime Primary Realtime Clock</Description><StartTime><Timestamp dt:dt="int">0</Timestamp><DateUtc dt:dt="string">2016-08-03T17:37:31Z</DateUtc></StartTime><FrequencyChanges><FrequencyChange><Frequency dt:dt="r8">3507695</Frequency><Timestamp dt:dt="r8">1420089816069</Timestamp><Current dt:dt="r8">0</Current><DateUtc dt:dt="string">2016-08-03T17:37:31Z</DateUtc></FrequencyChange></FrequencyChanges></Clock>\n	Hungry_Donkey_bar_English_2-163-1	60.018	-105	1.0.0.18	1	-1543685080	Standard	2.0.10.353	2.0.10.353	08-03-2016	8/3/2016 5:37:31 PM	13:37:31	2.0.10.248	24	Bar63-37.bmp	62	1	?	8r_4g.bmp	50r_4g.bmp	1r_2g.bmp	10r_2g.bmp	8r_4g.bmp				TrialProc	TrialList	0	cvbn	-999999	16	113803	0	c	332	114135	72	-45	27	0	20	1	6	1	3	24	-8	-50	-1	-10	4	4	2	2	-8	4
Hungry_Donkey_bar_English_2	163	1	<?xml version="1.0"?>\n<Clock xmlns:dt="urn:schemas-microsoft-com:datatypes"><Description dt:dt="string">E-Prime Primary Realtime Clock</Description><StartTime><Timestamp dt:dt="int">0</Timestamp><DateUtc dt:dt="string">2016-08-03T17:37:31Z</DateUtc></StartTime><FrequencyChanges><FrequencyChange><Frequency dt:dt="r8">3507695</Frequency><Timestamp dt:dt="r8">1420089816069</Timestamp><Current dt:dt="r8">0</Current><DateUtc dt:dt="string">2016-08-03T17:37:31Z</DateUtc></FrequencyChange></FrequencyChanges></Clock>\n	Hungry_Donkey_bar_English_2-163-1	60.018	-105	1.0.0.18	1	-1543685080	Standard	2.0.10.353	2.0.10.353	08-03-2016	8/3/2016 5:37:31 PM	13:37:31	2.0.10.248	25	Bar63-37.bmp	63	1	?	0r_4g.bmp	0r_4g.bmp	0r_2g.bmp	0r_2g.bmp	0r_4g.bmp				TrialProc	TrialList	0	cvbn	-999999	16	116169	0	c	989	117158	76	-45	31	4	20	1	6	9	3	25	0	0	0	0	4	4	2	2	0	4
Hungry_Donkey_bar_English_2	163	1	<?xml version="1.0"?>\n<Clock xmlns:dt="urn:schemas-microsoft-com:datatypes"><Description dt:dt="string">E-Prime Primary Realtime Clock</Description><StartTime><Timestamp dt:dt="int">0</Timestamp><DateUtc dt:dt="string">2016-08-03T17:37:31Z</DateUtc></StartTime><FrequencyChanges><FrequencyChange><Frequency dt:dt="r8">3507695</Frequency><Timestamp dt:dt="r8">1420089816069</Timestamp><Current dt:dt="r8">0</Current><DateUtc dt:dt="string">2016-08-03T17:37:31Z</DateUtc></FrequencyChange></FrequencyChanges></Clock>\n	Hungry_Donkey_bar_English_2-163-1	60.018	-105	1.0.0.18	1	-1543685080	Standard	2.0.10.353	2.0.10.353	08-03-2016	8/3/2016 5:37:31 PM	13:37:31	2.0.10.248	26	Bar63-37.bmp	59	1	?	10r_4g.bmp	0r_4g.bmp	2r_2g.bmp	0r_2g.bmp	10r_4g.bmp				TrialProc	TrialList	0	cvbn	-999999	16	119184	0	c	822	120006	80	-55	25	-2	20	1	6	4	3	26	-10	0	-2	0	4	4	2	2	-10	4
Hungry_Donkey_bar_English_2	163	1	<?xml version="1.0"?>\n<Clock xmlns:dt="urn:schemas-microsoft-com:datatypes"><Description dt:dt="string">E-Prime Primary Realtime Clock</Description><StartTime><Timestamp dt:dt="int">0</Timestamp><DateUtc dt:dt="string">2016-08-03T17:37:31Z</DateUtc></StartTime><FrequencyChanges><FrequencyChange><Frequency dt:dt="r8">3507695</Frequency><Timestamp dt:dt="r8">1420089816069</Timestamp><Current dt:dt="r8">0</Current><DateUtc dt:dt="string">2016-08-03T17:37:31Z</DateUtc></FrequencyChange></FrequencyChanges></Clock>\n	Hungry_Donkey_bar_English_2-163-1	60.018	-105	1.0.0.18	1	-1543685080	Standard	2.0.10.353	2.0.10.353	08-03-2016	8/3/2016 5:37:31 PM	13:37:31	2.0.10.248	27	Bar63-37.bmp	60	2	?	0r_4g.bmp	0r_4g.bmp	0r_2g.bmp	0r_2g.bmp		0r_4g.bmp			TrialProc	TrialList	0	cvbn	-999999	16	122034	0	v	708	122742	84	-55	29	-2	24	1	6	10	3	27	0	0	0	0	4	4	2	2	0	4
Hungry_Donkey_bar_English_2	163	1	<?xml version="1.0"?>\n<Clock xmlns:dt="urn:schemas-microsoft-com:datatypes"><Description dt:dt="string">E-Prime Primary Realtime Clock</Description><StartTime><Timestamp dt:dt="int">0</Timestamp><DateUtc dt:dt="string">2016-08-03T17:37:31Z</DateUtc></StartTime><FrequencyChanges><FrequencyChange><Frequency dt:dt="r8">3507695</Frequency><Timestamp dt:dt="r8">1420089816069</Timestamp><Current dt:dt="r8">0</Current><DateUtc dt:dt="string">2016-08-03T17:37:31Z</DateUtc></FrequencyChange></FrequencyChanges></Clock>\n	Hungry_Donkey_bar_English_2-163-1	60.018	-105	1.0.0.18	1	-1543685080	Standard	2.0.10.353	2.0.10.353	08-03-2016	8/3/2016 5:37:31 PM	13:37:31	2.0.10.248	28	Bar63-37.bmp	62	2	?	12r_4g.bmp	0r_4g.bmp	3r_2g.bmp	0r_2g.bmp		0r_4g.bmp			TrialProc	TrialList	0	cvbn	-999999	15	124766	0	v	424	125190	88	-55	33	-2	28	1	6	5	3	28	-12	0	-3	0	4	4	2	2	0	4
Hungry_Donkey_bar_English_2	163	1	<?xml version="1.0"?>\n<Clock xmlns:dt="urn:schemas-microsoft-com:datatypes"><Description dt:dt="string">E-Prime Primary Realtime Clock</Description><StartTime><Timestamp dt:dt="int">0</Timestamp><DateUtc dt:dt="string">2016-08-03T17:37:31Z</DateUtc></StartTime><FrequencyChanges><FrequencyChange><Frequency dt:dt="r8">3507695</Frequency><Timestamp dt:dt="r8">1420089816069</Timestamp><Current dt:dt="r8">0</Current><DateUtc dt:dt="string">2016-08-03T17:37:31Z</DateUtc></FrequencyChange></FrequencyChanges></Clock>\n	Hungry_Donkey_bar_English_2-163-1	60.018	-105	1.0.0.18	1	-1543685080	Standard	2.0.10.353	2.0.10.353	08-03-2016	8/3/2016 5:37:31 PM	13:37:31	2.0.10.248	29	Bar63-37.bmp	63	2	?	0r_4g.bmp	0r_4g.bmp	0r_2g.bmp	0r_2g.bmp		0r_4g.bmp			TrialProc	TrialList	0	cvbn	-999999	16	127215	0	v	263	127478	92	-55	37	-2	32	1	6	6	3	29	0	0	0	0	4	4	2	2	0	4
Hungry_Donkey_bar_English_2	163	1	<?xml version="1.0"?>\n<Clock xmlns:dt="urn:schemas-microsoft-com:datatypes"><Description dt:dt="string">E-Prime Primary Realtime Clock</Description><StartTime><Timestamp dt:dt="int">0</Timestamp><DateUtc dt:dt="string">2016-08-03T17:37:31Z</DateUtc></StartTime><FrequencyChanges><FrequencyChange><Frequency dt:dt="r8">3507695</Frequency><Timestamp dt:dt="r8">1420089816069</Timestamp><Current dt:dt="r8">0</Current><DateUtc dt:dt="string">2016-08-03T17:37:31Z</DateUtc></FrequencyChange></FrequencyChanges></Clock>\n	Hungry_Donkey_bar_English_2-163-1	60.018	-105	1.0.0.18	1	-1543685080	Standard	2.0.10.353	2.0.10.353	08-03-2016	8/3/2016 5:37:31 PM	13:37:31	2.0.10.248	30	Bar63-37.bmp	64	2	?	0r_4g.bmp	0r_4g.bmp	0r_2g.bmp	0r_2g.bmp		0r_4g.bmp			TrialProc	TrialList	0	cvbn	-999999	16	129515	0	v	43	129558	96	-55	41	-2	36	1	6	8	3	30	0	0	0	0	4	4	2	2	0	4
Hungry_Donkey_bar_English_2	163	1	<?xml version="1.0"?>\n<Clock xmlns:dt="urn:schemas-microsoft-com:datatypes"><Description dt:dt="string">E-Prime Primary Realtime Clock</Description><StartTime><Timestamp dt:dt="int">0</Timestamp><DateUtc dt:dt="string">2016-08-03T17:37:31Z</DateUtc></StartTime><FrequencyChanges><FrequencyChange><Frequency dt:dt="r8">3507695</Frequency><Timestamp dt:dt="r8">1420089816069</Timestamp><Current dt:dt="r8">0</Current><DateUtc dt:dt="string">2016-08-03T17:37:31Z</DateUtc></FrequencyChange></FrequencyChanges></Clock>\n	Hungry_Donkey_bar_English_2-163-1	60.018	-105	1.0.0.18	1	-1543685080	Standard	2.0.10.353	2.0.10.353	08-03-2016	8/3/2016 5:37:31 PM	13:37:31	2.0.10.248	31	Bar63-37.bmp	64	3	?	0r_4g.bmp	0r_4g.bmp	0r_2g.bmp	0r_2g.bmp			0r_2g.bmp		TrialProc	TrialList	0	cvbn	-999999	16	131581	0	b	281	131862	98	-55	43	-2	36	3	6	7	4	31	0	0	0	0	4	4	2	2	0	2
Hungry_Donkey_bar_English_2	163	1	<?xml version="1.0"?>\n<Clock xmlns:dt="urn:schemas-microsoft-com:datatypes"><Description dt:dt="string">E-Prime Primary Realtime Clock</Description><StartTime><Timestamp dt:dt="int">0</Timestamp><DateUtc dt:dt="string">2016-08-03T17:37:31Z</DateUtc></StartTime><FrequencyChanges><FrequencyChange><Frequency dt:dt="r8">3507695</Frequency><Timestamp dt:dt="r8">1420089816069</Timestamp><Current dt:dt="r8">0</Current><DateUtc dt:dt="string">2016-08-03T17:37:31Z</DateUtc></FrequencyChange></FrequencyChanges></Clock>\n	Hungry_Donkey_bar_English_2-163-1	60.018	-105	1.0.0.18	1	-1543685080	Standard	2.0.10.353	2.0.10.353	08-03-2016	8/3/2016 5:37:31 PM	13:37:31	2.0.10.248	32	Bar63-37.bmp	65	2	?	0r_4g.bmp	0r_4g.bmp	0r_2g.bmp	0r_2g.bmp		0r_4g.bmp			TrialProc	TrialList	0	cvbn	-999999	16	133897	0	v	413	134310	102	-55	47	-2	40	3	6	8	4	32	0	0	0	0	4	4	2	2	0	4
Hungry_Donkey_bar_English_2	163	1	<?xml version="1.0"?>\n<Clock xmlns:dt="urn:schemas-microsoft-com:datatypes"><Description dt:dt="string">E-Prime Primary Realtime Clock</Description><StartTime><Timestamp dt:dt="int">0</Timestamp><DateUtc dt:dt="string">2016-08-03T17:37:31Z</DateUtc></StartTime><FrequencyChanges><FrequencyChange><Frequency dt:dt="r8">3507695</Frequency><Timestamp dt:dt="r8">1420089816069</Timestamp><Current dt:dt="r8">0</Current><DateUtc dt:dt="string">2016-08-03T17:37:31Z</DateUtc></FrequencyChange></FrequencyChanges></Clock>\n	Hungry_Donkey_bar_English_2-163-1	60.018	-105	1.0.0.18	1	-1543685080	Standard	2.0.10.353	2.0.10.353	08-03-2016	8/3/2016 5:37:31 PM	13:37:31	2.0.10.248	33	Bar63-37.bmp	66	2	?	0r_4g.bmp	0r_4g.bmp	0r_2g.bmp	0r_2g.bmp		0r_4g.bmp			TrialProc	TrialList	0	cvbn	-999999	16	136346	0	v	283	136629	106	-55	51	-2	44	3	6	10	4	33	0	0	0	0	4	4	2	2	0	4
Hungry_Donkey_bar_English_2	163	1	<?xml version="1.0"?>\n<Clock xmlns:dt="urn:schemas-microsoft-com:datatypes"><Description dt:dt="string">E-Prime Primary Realtime Clock</Description><StartTime><Timestamp dt:dt="int">0</Timestamp><DateUtc dt:dt="string">2016-08-03T17:37:31Z</DateUtc></StartTime><FrequencyChanges><FrequencyChange><Frequency dt:dt="r8">3507695</Frequency><Timestamp dt:dt="r8">1420089816069</Timestamp><Current dt:dt="r8">0</Current><DateUtc dt:dt="string">2016-08-03T17:37:31Z</DateUtc></FrequencyChange></FrequencyChanges></Clock>\n	Hungry_Donkey_bar_English_2-163-1	60.018	-105	1.0.0.18	1	-1543685080	Standard	2.0.10.353	2.0.10.353	08-03-2016	8/3/2016 5:37:31 PM	13:37:31	2.0.10.248	34	Bar63-37.bmp	67	2	?	10r_4g.bmp	0r_4g.bmp	2r_2g.bmp	0r_2g.bmp		0r_4g.bmp			TrialProc	TrialList	0	cvbn	-999999	16	138662	0	v	463	139125	110	-55	55	-2	48	3	6	2	4	34	-10	0	-2	0	4	4	2	2	0	4
Hungry_Donkey_bar_English_2	163	1	<?xml version="1.0"?>\n<Clock xmlns:dt="urn:schemas-microsoft-com:datatypes"><Description dt:dt="string">E-Prime Primary Realtime Clock</Description><StartTime><Timestamp dt:dt="int">0</Timestamp><DateUtc dt:dt="string">2016-08-03T17:37:31Z</DateUtc></StartTime><FrequencyChanges><FrequencyChange><Frequency dt:dt="r8">3507695</Frequency><Timestamp dt:dt="r8">1420089816069</Timestamp><Current dt:dt="r8">0</Current><DateUtc dt:dt="string">2016-08-03T17:37:31Z</DateUtc></FrequencyChange></FrequencyChanges></Clock>\n	Hungry_Donkey_bar_English_2-163-1	60.018	-105	1.0.0.18	1	-1543685080	Standard	2.0.10.353	2.0.10.353	08-03-2016	8/3/2016 5:37:31 PM	13:37:31	2.0.10.248	35	Bar63-37.bmp	64	1	?	8r_4g.bmp	50r_4g.bmp	1r_2g.bmp	10r_2g.bmp	8r_4g.bmp				TrialProc	TrialList	0	cvbn	-999999	16	141161	0	c	476	141637	114	-63	51	-6	48	3	6	1	4	35	-8	-50	-1	-10	4	4	2	2	-8	4
Hungry_Donkey_bar_English_2	163	1	<?xml version="1.0"?>\n<Clock xmlns:dt="urn:schemas-microsoft-com:datatypes"><Description dt:dt="string">E-Prime Primary Realtime Clock</Description><StartTime><Timestamp dt:dt="int">0</Timestamp><DateUtc dt:dt="string">2016-08-03T17:37:31Z</DateUtc></StartTime><FrequencyChanges><FrequencyChange><Frequency dt:dt="r8">3507695</Frequency><Timestamp dt:dt="r8">1420089816069</Timestamp><Current dt:dt="r8">0</Current><DateUtc dt:dt="string">2016-08-03T17:37:31Z</DateUtc></FrequencyChange></FrequencyChanges></Clock>\n	Hungry_Donkey_bar_English_2-163-1	60.018	-105	1.0.0.18	1	-1543685080	Standard	2.0.10.353	2.0.10.353	08-03-2016	8/3/2016 5:37:31 PM	13:37:31	2.0.10.248	36	Bar63-37.bmp	65	4	?	0r_4g.bmp	0r_4g.bmp	0r_2g.bmp	0r_2g.bmp				0r_2g.bmp	TrialProc	TrialList	0	cvbn	-999999	16	143661	0	n	648	144309	116	-63	53	-6	48	3	8	9	4	36	0	0	0	0	4	4	2	2	0	2
Hungry_Donkey_bar_English_2	163	1	<?xml version="1.0"?>\n<Clock xmlns:dt="urn:schemas-microsoft-com:datatypes"><Description dt:dt="string">E-Prime Primary Realtime Clock</Description><StartTime><Timestamp dt:dt="int">0</Timestamp><DateUtc dt:dt="string">2016-08-03T17:37:31Z</DateUtc></StartTime><FrequencyChanges><FrequencyChange><Frequency dt:dt="r8">3507695</Frequency><Timestamp dt:dt="r8">1420089816069</Timestamp><Current dt:dt="r8">0</Current><DateUtc dt:dt="string">2016-08-03T17:37:31Z</DateUtc></FrequencyChange></FrequencyChanges></Clock>\n	Hungry_Donkey_bar_English_2-163-1	60.018	-105	1.0.0.18	1	-1543685080	Standard	2.0.10.353	2.0.10.353	08-03-2016	8/3/2016 5:37:31 PM	13:37:31	2.0.10.248	37	Bar63-37.bmp	65	4	?	12r_4g.bmp	0r_4g.bmp	3r_2g.bmp	0r_2g.bmp				0r_2g.bmp	TrialProc	TrialList	0	cvbn	-999999	16	146343	0	n	334	146677	118	-63	55	-6	48	3	10	5	4	37	-12	0	-3	0	4	4	2	2	0	2
Hungry_Donkey_bar_English_2	163	1	<?xml version="1.0"?>\n<Clock xmlns:dt="urn:schemas-microsoft-com:datatypes"><Description dt:dt="string">E-Prime Primary Realtime Clock</Description><StartTime><Timestamp dt:dt="int">0</Timestamp><DateUtc dt:dt="string">2016-08-03T17:37:31Z</DateUtc></StartTime><FrequencyChanges><FrequencyChange><Frequency dt:dt="r8">3507695</Frequency><Timestamp dt:dt="r8">1420089816069</Timestamp><Current dt:dt="r8">0</Current><DateUtc dt:dt="string">2016-08-03T17:37:31Z</DateUtc></FrequencyChange></FrequencyChanges></Clock>\n	Hungry_Donkey_bar_English_2-163-1	60.018	-105	1.0.0.18	1	-1543685080	Standard	2.0.10.353	2.0.10.353	08-03-2016	8/3/2016 5:37:31 PM	13:37:31	2.0.10.248	38	Bar63-37.bmp	66	4	?	10r_4g.bmp	0r_4g.bmp	2r_2g.bmp	0r_2g.bmp				0r_2g.bmp	TrialProc	TrialList	0	cvbn	-999999	16	148709	0	n	528	149237	120	-63	57	-6	48	3	12	3	4	38	-10	0	-2	0	4	4	2	2	0	2
Hungry_Donkey_bar_English_2	163	1	<?xml version="1.0"?>\n<Clock xmlns:dt="urn:schemas-microsoft-com:datatypes"><Description dt:dt="string">E-Prime Primary Realtime Clock</Description><StartTime><Timestamp dt:dt="int">0</Timestamp><DateUtc dt:dt="string">2016-08-03T17:37:31Z</DateUtc></StartTime><FrequencyChanges><FrequencyChange><Frequency dt:dt="r8">3507695</Frequency><Timestamp dt:dt="r8">1420089816069</Timestamp><Current dt:dt="r8">0</Current><DateUtc dt:dt="string">2016-08-03T17:37:31Z</DateUtc></FrequencyChange></FrequencyChanges></Clock>\n	Hungry_Donkey_bar_English_2-163-1	60.018	-105	1.0.0.18	1	-1543685080	Standard	2.0.10.353	2.0.10.353	08-03-2016	8/3/2016 5:37:31 PM	13:37:31	2.0.10.248	39	Bar63-37.bmp	66	2	?	10r_4g.bmp	0r_4g.bmp	2r_2g.bmp	0r_2g.bmp		0r_4g.bmp			TrialProc	TrialList	0	cvbn	-999999	16	151275	0	v	378	151653	124	-63	61	-6	52	3	12	4	4	39	-10	0	-2	0	4	4	2	2	0	4
Hungry_Donkey_bar_English_2	163	1	<?xml version="1.0"?>\n<Clock xmlns:dt="urn:schemas-microsoft-com:datatypes"><Description dt:dt="string">E-Prime Primary Realtime Clock</Description><StartTime><Timestamp dt:dt="int">0</Timestamp><DateUtc dt:dt="string">2016-08-03T17:37:31Z</DateUtc></StartTime><FrequencyChanges><FrequencyChange><Frequency dt:dt="r8">3507695</Frequency><Timestamp dt:dt="r8">1420089816069</Timestamp><Current dt:dt="r8">0</Current><DateUtc dt:dt="string">2016-08-03T17:37:31Z</DateUtc></FrequencyChange></FrequencyChanges></Clock>\n	Hungry_Donkey_bar_English_2-163-1	60.018	-105	1.0.0.18	1	-1543685080	Standard	2.0.10.353	2.0.10.353	08-03-2016	8/3/2016 5:37:31 PM	13:37:31	2.0.10.248	40	Bar63-37.bmp	67	2	?	0r_4g.bmp	0r_4g.bmp	0r_2g.bmp	0r_2g.bmp		0r_4g.bmp			TrialProc	TrialList	0	cvbn	-999999	16	153691	0	v	329	154020	128	-63	65	-6	56	3	12	6	4	40	0	0	0	0	4	4	2	2	0	4
Hungry_Donkey_bar_English_2	163	1	<?xml version="1.0"?>\n<Clock xmlns:dt="urn:schemas-microsoft-com:datatypes"><Description dt:dt="string">E-Prime Primary Realtime Clock</Description><StartTime><Timestamp dt:dt="int">0</Timestamp><DateUtc dt:dt="string">2016-08-03T17:37:31Z</DateUtc></StartTime><FrequencyChanges><FrequencyChange><Frequency dt:dt="r8">3507695</Frequency><Timestamp dt:dt="r8">1420089816069</Timestamp><Current dt:dt="r8">0</Current><DateUtc dt:dt="string">2016-08-03T17:37:31Z</DateUtc></FrequencyChange></FrequencyChanges></Clock>\n	Hungry_Donkey_bar_English_2-163-1	60.018	-105	1.0.0.18	1	-1543685080	Standard	2.0.10.353	2.0.10.353	08-03-2016	8/3/2016 5:37:31 PM	13:37:31	2.0.10.248	41	Bar63-37.bmp	68	2	?	10r_4g.bmp	0r_4g.bmp	2r_2g.bmp	0r_2g.bmp		0r_4g.bmp			TrialProc	TrialList	0	cvbn	-999999	16	156057	0	v	299	156356	132	-63	69	-6	60	3	12	4	5	41	-10	0	-2	0	4	4	2	2	0	4
Hungry_Donkey_bar_English_2	163	1	<?xml version="1.0"?>\n<Clock xmlns:dt="urn:schemas-microsoft-com:datatypes"><Description dt:dt="string">E-Prime Primary Realtime Clock</Description><StartTime><Timestamp dt:dt="int">0</Timestamp><DateUtc dt:dt="string">2016-08-03T17:37:31Z</DateUtc></StartTime><FrequencyChanges><FrequencyChange><Frequency dt:dt="r8">3507695</Frequency><Timestamp dt:dt="r8">1420089816069</Timestamp><Current dt:dt="r8">0</Current><DateUtc dt:dt="string">2016-08-03T17:37:31Z</DateUtc></FrequencyChange></FrequencyChanges></Clock>\n	Hungry_Donkey_bar_English_2-163-1	60.018	-105	1.0.0.18	1	-1543685080	Standard	2.0.10.353	2.0.10.353	08-03-2016	8/3/2016 5:37:31 PM	13:37:31	2.0.10.248	42	Bar63-37.bmp	68	2	?	12r_4g.bmp	0r_4g.bmp	3r_2g.bmp	0r_2g.bmp		0r_4g.bmp			TrialProc	TrialList	0	cvbn	-999999	16	158390	0	v	334	158724	136	-63	73	-6	64	3	12	5	5	42	-12	0	-3	0	4	4	2	2	0	4
Hungry_Donkey_bar_English_2	163	1	<?xml version="1.0"?>\n<Clock xmlns:dt="urn:schemas-microsoft-com:datatypes"><Description dt:dt="string">E-Prime Primary Realtime Clock</Description><StartTime><Timestamp dt:dt="int">0</Timestamp><DateUtc dt:dt="string">2016-08-03T17:37:31Z</DateUtc></StartTime><FrequencyChanges><FrequencyChange><Frequency dt:dt="r8">3507695</Frequency><Timestamp dt:dt="r8">1420089816069</Timestamp><Current dt:dt="r8">0</Current><DateUtc dt:dt="string">2016-08-03T17:37:31Z</DateUtc></FrequencyChange></FrequencyChanges></Clock>\n	Hungry_Donkey_bar_English_2-163-1	60.018	-105	1.0.0.18	1	-1543685080	Standard	2.0.10.353	2.0.10.353	08-03-2016	8/3/2016 5:37:31 PM	13:37:31	2.0.10.248	43	Bar63-37.bmp	68	3	?	10r_4g.bmp	0r_4g.bmp	2r_2g.bmp	0r_2g.bmp			2r_2g.bmp		TrialProc	TrialList	0	cvbn	-999999	16	160756	0	b	320	161076	138	-65	73	-6	64	3	12	2	5	43	-10	0	-2	0	4	4	2	2	-2	2
Hungry_Donkey_bar_English_2	163	1	<?xml version="1.0"?>\n<Clock xmlns:dt="urn:schemas-microsoft-com:datatypes"><Description dt:dt="string">E-Prime Primary Realtime Clock</Description><StartTime><Timestamp dt:dt="int">0</Timestamp><DateUtc dt:dt="string">2016-08-03T17:37:31Z</DateUtc></StartTime><FrequencyChanges><FrequencyChange><Frequency dt:dt="r8">3507695</Frequency><Timestamp dt:dt="r8">1420089816069</Timestamp><Current dt:dt="r8">0</Current><DateUtc dt:dt="string">2016-08-03T17:37:31Z</DateUtc></FrequencyChange></FrequencyChanges></Clock>\n	Hungry_Donkey_bar_English_2-163-1	60.018	-105	1.0.0.18	1	-1543685080	Standard	2.0.10.353	2.0.10.353	08-03-2016	8/3/2016 5:37:31 PM	13:37:31	2.0.10.248	44	Bar63-37.bmp	68	3	?	0r_4g.bmp	0r_4g.bmp	0r_2g.bmp	0r_2g.bmp			0r_2g.bmp		TrialProc	TrialList	0	cvbn	-999999	16	163105	0	b	307	163412	140	-65	75	-6	64	5	12	10	5	44	0	0	0	0	4	4	2	2	0	2
Hungry_Donkey_bar_English_2	163	1	<?xml version="1.0"?>\n<Clock xmlns:dt="urn:schemas-microsoft-com:datatypes"><Description dt:dt="string">E-Prime Primary Realtime Clock</Description><StartTime><Timestamp dt:dt="int">0</Timestamp><DateUtc dt:dt="string">2016-08-03T17:37:31Z</DateUtc></StartTime><FrequencyChanges><FrequencyChange><Frequency dt:dt="r8">3507695</Frequency><Timestamp dt:dt="r8">1420089816069</Timestamp><Current dt:dt="r8">0</Current><DateUtc dt:dt="string">2016-08-03T17:37:31Z</DateUtc></FrequencyChange></FrequencyChanges></Clock>\n	Hungry_Donkey_bar_English_2-163-1	60.018	-105	1.0.0.18	1	-1543685080	Standard	2.0.10.353	2.0.10.353	08-03-2016	8/3/2016 5:37:31 PM	13:37:31	2.0.10.248	45	Bar63-37.bmp	69	3	?	0r_4g.bmp	0r_4g.bmp	0r_2g.bmp	0r_2g.bmp			0r_2g.bmp		TrialProc	TrialList	0	cvbn	-999999	16	165438	0	b	246	165684	142	-65	77	-6	64	7	12	9	5	45	0	0	0	0	4	4	2	2	0	2
Hungry_Donkey_bar_English_2	163	1	<?xml version="1.0"?>\n<Clock xmlns:dt="urn:schemas-microsoft-com:datatypes"><Description dt:dt="string">E-Prime Primary Realtime Clock</Description><StartTime><Timestamp dt:dt="int">0</Timestamp><DateUtc dt:dt="string">2016-08-03T17:37:31Z</DateUtc></StartTime><FrequencyChanges><FrequencyChange><Frequency dt:dt="r8">3507695</Frequency><Timestamp dt:dt="r8">1420089816069</Timestamp><Current dt:dt="r8">0</Current><DateUtc dt:dt="string">2016-08-03T17:37:31Z</DateUtc></FrequencyChange></FrequencyChanges></Clock>\n	Hungry_Donkey_bar_English_2-163-1	60.018	-105	1.0.0.18	1	-1543685080	Standard	2.0.10.353	2.0.10.353	08-03-2016	8/3/2016 5:37:31 PM	13:37:31	2.0.10.248	46	Bar63-37.bmp	69	3	?	0r_4g.bmp	0r_4g.bmp	0r_2g.bmp	0r_2g.bmp			0r_2g.bmp		TrialProc	TrialList	0	cvbn	-999999	16	167720	0	b	380	168100	144	-65	79	-6	64	9	12	8	5	46	0	0	0	0	4	4	2	2	0	2
Hungry_Donkey_bar_English_2	163	1	<?xml version="1.0"?>\n<Clock xmlns:dt="urn:schemas-microsoft-com:datatypes"><Description dt:dt="string">E-Prime Primary Realtime Clock</Description><StartTime><Timestamp dt:dt="int">0</Timestamp><DateUtc dt:dt="string">2016-08-03T17:37:31Z</DateUtc></StartTime><FrequencyChanges><FrequencyChange><Frequency dt:dt="r8">3507695</Frequency><Timestamp dt:dt="r8">1420089816069</Timestamp><Current dt:dt="r8">0</Current><DateUtc dt:dt="string">2016-08-03T17:37:31Z</DateUtc></FrequencyChange></FrequencyChanges></Clock>\n	Hungry_Donkey_bar_English_2-163-1	60.018	-105	1.0.0.18	1	-1543685080	Standard	2.0.10.353	2.0.10.353	08-03-2016	8/3/2016 5:37:31 PM	13:37:31	2.0.10.248	47	Bar63-37.bmp	69	1	?	0r_4g.bmp	0r_4g.bmp	0r_2g.bmp	0r_2g.bmp	0r_4g.bmp				TrialProc	TrialList	0	cvbn	-999999	16	170136	0	c	332	170468	148	-65	83	-2	64	9	12	6	5	47	0	0	0	0	4	4	2	2	0	4
Hungry_Donkey_bar_English_2	163	1	<?xml version="1.0"?>\n<Clock xmlns:dt="urn:schemas-microsoft-com:datatypes"><Description dt:dt="string">E-Prime Primary Realtime Clock</Description><StartTime><Timestamp dt:dt="int">0</Timestamp><DateUtc dt:dt="string">2016-08-03T17:37:31Z</DateUtc></StartTime><FrequencyChanges><FrequencyChange><Frequency dt:dt="r8">3507695</Frequency><Timestamp dt:dt="r8">1420089816069</Timestamp><Current dt:dt="r8">0</Current><DateUtc dt:dt="string">2016-08-03T17:37:31Z</DateUtc></FrequencyChange></FrequencyChanges></Clock>\n	Hungry_Donkey_bar_English_2-163-1	60.018	-105	1.0.0.18	1	-1543685080	Standard	2.0.10.353	2.0.10.353	08-03-2016	8/3/2016 5:37:31 PM	13:37:31	2.0.10.248	48	Bar63-37.bmp	68	1	?	8r_4g.bmp	50r_4g.bmp	1r_2g.bmp	10r_2g.bmp	8r_4g.bmp				TrialProc	TrialList	0	cvbn	-999999	16	172502	0	c	1069	173571	152	-73	79	-6	64	9	12	1	5	48	-8	-50	-1	-10	4	4	2	2	-8	4
Hungry_Donkey_bar_English_2	163	1	<?xml version="1.0"?>\n<Clock xmlns:dt="urn:schemas-microsoft-com:datatypes"><Description dt:dt="string">E-Prime Primary Realtime Clock</Description><StartTime><Timestamp dt:dt="int">0</Timestamp><DateUtc dt:dt="string">2016-08-03T17:37:31Z</DateUtc></StartTime><FrequencyChanges><FrequencyChange><Frequency dt:dt="r8">3507695</Frequency><Timestamp dt:dt="r8">1420089816069</Timestamp><Current dt:dt="r8">0</Current><DateUtc dt:dt="string">2016-08-03T17:37:31Z</DateUtc></FrequencyChange></FrequencyChanges></Clock>\n	Hungry_Donkey_bar_English_2-163-1	60.018	-105	1.0.0.18	1	-1543685080	Standard	2.0.10.353	2.0.10.353	08-03-2016	8/3/2016 5:37:31 PM	13:37:31	2.0.10.248	49	Bar63-37.bmp	68	2	?	0r_4g.bmp	0r_4g.bmp	0r_2g.bmp	0r_2g.bmp		0r_4g.bmp			TrialProc	TrialList	0	cvbn	-999999	16	175601	0	v	450	176051	156	-73	83	-6	68	9	12	7	5	49	0	0	0	0	4	4	2	2	0	4
Hungry_Donkey_bar_English_2	163	1	<?xml version="1.0"?>\n<Clock xmlns:dt="urn:schemas-microsoft-com:datatypes"><Description dt:dt="string">E-Prime Primary Realtime Clock</Description><StartTime><Timestamp dt:dt="int">0</Timestamp><DateUtc dt:dt="string">2016-08-03T17:37:31Z</DateUtc></StartTime><FrequencyChanges><FrequencyChange><Frequency dt:dt="r8">3507695</Frequency><Timestamp dt:dt="r8">1420089816069</Timestamp><Current dt:dt="r8">0</Current><DateUtc dt:dt="string">2016-08-03T17:37:31Z</DateUtc></FrequencyChange></FrequencyChanges></Clock>\n	Hungry_Donkey_bar_English_2-163-1	60.018	-105	1.0.0.18	1	-1543685080	Standard	2.0.10.353	2.0.10.353	08-03-2016	8/3/2016 5:37:31 PM	13:37:31	2.0.10.248	50	Bar63-37.bmp	69	2	?	10r_4g.bmp	0r_4g.bmp	2r_2g.bmp	0r_2g.bmp		0r_4g.bmp			TrialProc	TrialList	0	cvbn	-999999	16	178084	0	v	319	178403	160	-73	87	-6	72	9	12	3	5	50	-10	0	-2	0	4	4	2	2	0	4
Hungry_Donkey_bar_English_2	163	1	<?xml version="1.0"?>\n<Clock xmlns:dt="urn:schemas-microsoft-com:datatypes"><Description dt:dt="string">E-Prime Primary Realtime Clock</Description><StartTime><Timestamp dt:dt="int">0</Timestamp><DateUtc dt:dt="string">2016-08-03T17:37:31Z</DateUtc></StartTime><FrequencyChanges><FrequencyChange><Frequency dt:dt="r8">3507695</Frequency><Timestamp dt:dt="r8">1420089816069</Timestamp><Current dt:dt="r8">0</Current><DateUtc dt:dt="string">2016-08-03T17:37:31Z</DateUtc></FrequencyChange></FrequencyChanges></Clock>\n	Hungry_Donkey_bar_English_2-163-1	60.018	-105	1.0.0.18	1	-1543685080	Standard	2.0.10.353	2.0.10.353	08-03-2016	8/3/2016 5:37:31 PM	13:37:31	2.0.10.248	51	Bar63-37.bmp	69	2	?	0r_4g.bmp	0r_4g.bmp	0r_2g.bmp	0r_2g.bmp		0r_4g.bmp			TrialProc	TrialList	0	cvbn	-999999	16	180433	0	v	434	180867	164	-73	91	-6	76	9	12	9	6	51	0	0	0	0	4	4	2	2	0	4
Hungry_Donkey_bar_English_2	163	1	<?xml version="1.0"?>\n<Clock xmlns:dt="urn:schemas-microsoft-com:datatypes"><Description dt:dt="string">E-Prime Primary Realtime Clock</Description><StartTime><Timestamp dt:dt="int">0</Timestamp><DateUtc dt:dt="string">2016-08-03T17:37:31Z</DateUtc></StartTime><FrequencyChanges><FrequencyChange><Frequency dt:dt="r8">3507695</Frequency><Timestamp dt:dt="r8">1420089816069</Timestamp><Current dt:dt="r8">0</Current><DateUtc dt:dt="string">2016-08-03T17:37:31Z</DateUtc></FrequencyChange></FrequencyChanges></Clock>\n	Hungry_Donkey_bar_English_2-163-1	60.018	-105	1.0.0.18	1	-1543685080	Standard	2.0.10.353	2.0.10.353	08-03-2016	8/3/2016 5:37:31 PM	13:37:31	2.0.10.248	52	Bar75-25.bmp	70	2	?	0r_4g.bmp	0r_4g.bmp	0r_2g.bmp	0r_2g.bmp		0r_4g.bmp			TrialProc	TrialList	0	cvbn	-999999	16	182899	0	v	272	183171	168	-73	95	-6	80	9	12	10	6	52	0	0	0	0	4	4	2	2	0	4
Hungry_Donkey_bar_English_2	163	1	<?xml version="1.0"?>\n<Clock xmlns:dt="urn:schemas-microsoft-com:datatypes"><Description dt:dt="string">E-Prime Primary Realtime Clock</Description><StartTime><Timestamp dt:dt="int">0</Timestamp><DateUtc dt:dt="string">2016-08-03T17:37:31Z</DateUtc></StartTime><FrequencyChanges><FrequencyChange><Frequency dt:dt="r8">3507695</Frequency><Timestamp dt:dt="r8">1420089816069</Timestamp><Current dt:dt="r8">0</Current><DateUtc dt:dt="string">2016-08-03T17:37:31Z</DateUtc></FrequencyChange></FrequencyChanges></Clock>\n	Hungry_Donkey_bar_English_2-163-1	60.018	-105	1.0.0.18	1	-1543685080	Standard	2.0.10.353	2.0.10.353	08-03-2016	8/3/2016 5:37:31 PM	13:37:31	2.0.10.248	53	Bar75-25.bmp	70	2	?	10r_4g.bmp	0r_4g.bmp	2r_2g.bmp	0r_2g.bmp		0r_4g.bmp			TrialProc	TrialList	0	cvbn	-999999	17	185199	0	v	292	185491	172	-73	99	-6	84	9	12	3	6	53	-10	0	-2	0	4	4	2	2	0	4
Hungry_Donkey_bar_English_2	163	1	<?xml version="1.0"?>\n<Clock xmlns:dt="urn:schemas-microsoft-com:datatypes"><Description dt:dt="string">E-Prime Primary Realtime Clock</Description><StartTime><Timestamp dt:dt="int">0</Timestamp><DateUtc dt:dt="string">2016-08-03T17:37:31Z</DateUtc></StartTime><FrequencyChanges><FrequencyChange><Frequency dt:dt="r8">3507695</Frequency><Timestamp dt:dt="r8">1420089816069</Timestamp><Current dt:dt="r8">0</Current><DateUtc dt:dt="string">2016-08-03T17:37:31Z</DateUtc></FrequencyChange></FrequencyChanges></Clock>\n	Hungry_Donkey_bar_English_2-163-1	60.018	-105	1.0.0.18	1	-1543685080	Standard	2.0.10.353	2.0.10.353	08-03-2016	8/3/2016 5:37:31 PM	13:37:31	2.0.10.248	54	Bar75-25.bmp	71	2	?	10r_4g.bmp	0r_4g.bmp	2r_2g.bmp	0r_2g.bmp		0r_4g.bmp			TrialProc	TrialList	0	cvbn	-999999	17	187515	0	v	376	187891	176	-73	103	-6	88	9	12	4	6	54	-10	0	-2	0	4	4	2	2	0	4
Hungry_Donkey_bar_English_2	163	1	<?xml version="1.0"?>\n<Clock xmlns:dt="urn:schemas-microsoft-com:datatypes"><Description dt:dt="string">E-Prime Primary Realtime Clock</Description><StartTime><Timestamp dt:dt="int">0</Timestamp><DateUtc dt:dt="string">2016-08-03T17:37:31Z</DateUtc></StartTime><FrequencyChanges><FrequencyChange><Frequency dt:dt="r8">3507695</Frequency><Timestamp dt:dt="r8">1420089816069</Timestamp><Current dt:dt="r8">0</Current><DateUtc dt:dt="string">2016-08-03T17:37:31Z</DateUtc></FrequencyChange></FrequencyChanges></Clock>\n	Hungry_Donkey_bar_English_2-163-1	60.018	-105	1.0.0.18	1	-1543685080	Standard	2.0.10.353	2.0.10.353	08-03-2016	8/3/2016 5:37:31 PM	13:37:31	2.0.10.248	55	Bar75-25.bmp	71	2	?	10r_4g.bmp	0r_4g.bmp	2r_2g.bmp	0r_2g.bmp		0r_4g.bmp			TrialProc	TrialList	0	cvbn	-999999	17	189931	0	v	280	190211	180	-73	107	-6	92	9	12	2	6	55	-10	0	-2	0	4	4	2	2	0	4
Hungry_Donkey_bar_English_2	163	1	<?xml version="1.0"?>\n<Clock xmlns:dt="urn:schemas-microsoft-com:datatypes"><Description dt:dt="string">E-Prime Primary Realtime Clock</Description><StartTime><Timestamp dt:dt="int">0</Timestamp><DateUtc dt:dt="string">2016-08-03T17:37:31Z</DateUtc></StartTime><FrequencyChanges><FrequencyChange><Frequency dt:dt="r8">3507695</Frequency><Timestamp dt:dt="r8">1420089816069</Timestamp><Current dt:dt="r8">0</Current><DateUtc dt:dt="string">2016-08-03T17:37:31Z</DateUtc></FrequencyChange></FrequencyChanges></Clock>\n	Hungry_Donkey_bar_English_2-163-1	60.018	-105	1.0.0.18	1	-1543685080	Standard	2.0.10.353	2.0.10.353	08-03-2016	8/3/2016 5:37:31 PM	13:37:31	2.0.10.248	56	Bar75-25.bmp	72	2	?	0r_4g.bmp	0r_4g.bmp	0r_2g.bmp	0r_2g.bmp		0r_4g.bmp			TrialProc	TrialList	0	cvbn	-999999	16	192246	0	v	348	192594	184	-73	111	-6	96	9	12	7	6	56	0	0	0	0	4	4	2	2	0	4
Hungry_Donkey_bar_English_2	163	1	<?xml version="1.0"?>\n<Clock xmlns:dt="urn:schemas-microsoft-com:datatypes"><Description dt:dt="string">E-Prime Primary Realtime Clock</Description><StartTime><Timestamp dt:dt="int">0</Timestamp><DateUtc dt:dt="string">2016-08-03T17:37:31Z</DateUtc></StartTime><FrequencyChanges><FrequencyChange><Frequency dt:dt="r8">3507695</Frequency><Timestamp dt:dt="r8">1420089816069</Timestamp><Current dt:dt="r8">0</Current><DateUtc dt:dt="string">2016-08-03T17:37:31Z</DateUtc></FrequencyChange></FrequencyChanges></Clock>\n	Hungry_Donkey_bar_English_2-163-1	60.018	-105	1.0.0.18	1	-1543685080	Standard	2.0.10.353	2.0.10.353	08-03-2016	8/3/2016 5:37:31 PM	13:37:31	2.0.10.248	57	Bar75-25.bmp	72	2	?	12r_4g.bmp	0r_4g.bmp	3r_2g.bmp	0r_2g.bmp		0r_4g.bmp			TrialProc	TrialList	0	cvbn	-999999	16	194629	0	v	141	194770	188	-73	115	-6	100	9	12	5	6	57	-12	0	-3	0	4	4	2	2	0	4
Hungry_Donkey_bar_English_2	163	1	<?xml version="1.0"?>\n<Clock xmlns:dt="urn:schemas-microsoft-com:datatypes"><Description dt:dt="string">E-Prime Primary Realtime Clock</Description><StartTime><Timestamp dt:dt="int">0</Timestamp><DateUtc dt:dt="string">2016-08-03T17:37:31Z</DateUtc></StartTime><FrequencyChanges><FrequencyChange><Frequency dt:dt="r8">3507695</Frequency><Timestamp dt:dt="r8">1420089816069</Timestamp><Current dt:dt="r8">0</Current><DateUtc dt:dt="string">2016-08-03T17:37:31Z</DateUtc></FrequencyChange></FrequencyChanges></Clock>\n	Hungry_Donkey_bar_English_2-163-1	60.018	-105	1.0.0.18	1	-1543685080	Standard	2.0.10.353	2.0.10.353	08-03-2016	8/3/2016 5:37:31 PM	13:37:31	2.0.10.248	58	Bar75-25.bmp	72	2	?	0r_4g.bmp	0r_4g.bmp	0r_2g.bmp	0r_2g.bmp		0r_4g.bmp			TrialProc	TrialList	0	cvbn	-999999	16	196795	0	v	471	197266	192	-73	119	-6	104	9	12	6	6	58	0	0	0	0	4	4	2	2	0	4
Hungry_Donkey_bar_English_2	163	1	<?xml version="1.0"?>\n<Clock xmlns:dt="urn:schemas-microsoft-com:datatypes"><Description dt:dt="string">E-Prime Primary Realtime Clock</Description><StartTime><Timestamp dt:dt="int">0</Timestamp><DateUtc dt:dt="string">2016-08-03T17:37:31Z</DateUtc></StartTime><FrequencyChanges><FrequencyChange><Frequency dt:dt="r8">3507695</Frequency><Timestamp dt:dt="r8">1420089816069</Timestamp><Current dt:dt="r8">0</Current><DateUtc dt:dt="string">2016-08-03T17:37:31Z</DateUtc></FrequencyChange></FrequencyChanges></Clock>\n	Hungry_Donkey_bar_English_2-163-1	60.018	-105	1.0.0.18	1	-1543685080	Standard	2.0.10.353	2.0.10.353	08-03-2016	8/3/2016 5:37:31 PM	13:37:31	2.0.10.248	59	Bar75-25.bmp	73	2	?	0r_4g.bmp	0r_4g.bmp	0r_2g.bmp	0r_2g.bmp		0r_4g.bmp			TrialProc	TrialList	0	cvbn	-999999	16	199294	0	v	788	200082	196	-73	123	-6	108	9	12	8	6	59	0	0	0	0	4	4	2	2	0	4
Hungry_Donkey_bar_English_2	163	1	<?xml version="1.0"?>\n<Clock xmlns:dt="urn:schemas-microsoft-com:datatypes"><Description dt:dt="string">E-Prime Primary Realtime Clock</Description><StartTime><Timestamp dt:dt="int">0</Timestamp><DateUtc dt:dt="string">2016-08-03T17:37:31Z</DateUtc></StartTime><FrequencyChanges><FrequencyChange><Frequency dt:dt="r8">3507695</Frequency><Timestamp dt:dt="r8">1420089816069</Timestamp><Current dt:dt="r8">0</Current><DateUtc dt:dt="string">2016-08-03T17:37:31Z</DateUtc></FrequencyChange></FrequencyChanges></Clock>\n	Hungry_Donkey_bar_English_2-163-1	60.018	-105	1.0.0.18	1	-1543685080	Standard	2.0.10.353	2.0.10.353	08-03-2016	8/3/2016 5:37:31 PM	13:37:31	2.0.10.248	60	Bar63-37.bmp	62	2	?	8r_4g.bmp	50r_4g.bmp	1r_2g.bmp	10r_2g.bmp		50r_4g.bmp			TrialProc	TrialList	0	cvbn	-999999	16	202110	0	v	564	202674	200	-123	77	-6	62	9	12	1	6	60	-8	-50	-1	-10	4	4	2	2	-50	4
Hungry_Donkey_bar_English_2	163	1	<?xml version="1.0"?>\n<Clock xmlns:dt="urn:schemas-microsoft-com:datatypes"><Description dt:dt="string">E-Prime Primary Realtime Clock</Description><StartTime><Timestamp dt:dt="int">0</Timestamp><DateUtc dt:dt="string">2016-08-03T17:37:31Z</DateUtc></StartTime><FrequencyChanges><FrequencyChange><Frequency dt:dt="r8">3507695</Frequency><Timestamp dt:dt="r8">1420089816069</Timestamp><Current dt:dt="r8">0</Current><DateUtc dt:dt="string">2016-08-03T17:37:31Z</DateUtc></FrequencyChange></FrequencyChanges></Clock>\n	Hungry_Donkey_bar_English_2-163-1	60.018	-105	1.0.0.18	1	-1543685080	Standard	2.0.10.353	2.0.10.353	08-03-2016	8/3/2016 5:37:31 PM	13:37:31	2.0.10.248	61	Bar63-37.bmp	62	3	?	0r_4g.bmp	0r_4g.bmp	0r_2g.bmp	0r_2g.bmp			0r_2g.bmp		TrialProc	TrialList	0	cvbn	-999999	17	204710	0	b	4028	208738	202	-123	79	-6	62	11	12	10	7	61	0	0	0	0	4	4	2	2	0	2
Hungry_Donkey_bar_English_2	163	1	<?xml version="1.0"?>\n<Clock xmlns:dt="urn:schemas-microsoft-com:datatypes"><Description dt:dt="string">E-Prime Primary Realtime Clock</Description><StartTime><Timestamp dt:dt="int">0</Timestamp><DateUtc dt:dt="string">2016-08-03T17:37:31Z</DateUtc></StartTime><FrequencyChanges><FrequencyChange><Frequency dt:dt="r8">3507695</Frequency><Timestamp dt:dt="r8">1420089816069</Timestamp><Current dt:dt="r8">0</Current><DateUtc dt:dt="string">2016-08-03T17:37:31Z</DateUtc></FrequencyChange></FrequencyChanges></Clock>\n	Hungry_Donkey_bar_English_2-163-1	60.018	-105	1.0.0.18	1	-1543685080	Standard	2.0.10.353	2.0.10.353	08-03-2016	8/3/2016 5:37:31 PM	13:37:31	2.0.10.248	62	Bar63-37.bmp	62	3	?	0r_4g.bmp	0r_4g.bmp	0r_2g.bmp	0r_2g.bmp			0r_2g.bmp		TrialProc	TrialList	0	cvbn	-999999	16	210774	0	b	443	211217	204	-123	81	-6	62	13	12	8	7	62	0	0	0	0	4	4	2	2	0	2
Hungry_Donkey_bar_English_2	163	1	<?xml version="1.0"?>\n<Clock xmlns:dt="urn:schemas-microsoft-com:datatypes"><Description dt:dt="string">E-Prime Primary Realtime Clock</Description><StartTime><Timestamp dt:dt="int">0</Timestamp><DateUtc dt:dt="string">2016-08-03T17:37:31Z</DateUtc></StartTime><FrequencyChanges><FrequencyChange><Frequency dt:dt="r8">3507695</Frequency><Timestamp dt:dt="r8">1420089816069</Timestamp><Current dt:dt="r8">0</Current><DateUtc dt:dt="string">2016-08-03T17:37:31Z</DateUtc></FrequencyChange></FrequencyChanges></Clock>\n	Hungry_Donkey_bar_English_2-163-1	60.018	-105	1.0.0.18	1	-1543685080	Standard	2.0.10.353	2.0.10.353	08-03-2016	8/3/2016 5:37:31 PM	13:37:31	2.0.10.248	63	Bar63-37.bmp	62	3	?	12r_4g.bmp	0r_4g.bmp	3r_2g.bmp	0r_2g.bmp			3r_2g.bmp		TrialProc	TrialList	0	cvbn	-999999	15	213240	0	b	345	213585	206	-126	80	-6	62	12	12	5	7	63	-12	0	-3	0	4	4	2	2	-3	2
Hungry_Donkey_bar_English_2	163	1	<?xml version="1.0"?>\n<Clock xmlns:dt="urn:schemas-microsoft-com:datatypes"><Description dt:dt="string">E-Prime Primary Realtime Clock</Description><StartTime><Timestamp dt:dt="int">0</Timestamp><DateUtc dt:dt="string">2016-08-03T17:37:31Z</DateUtc></StartTime><FrequencyChanges><FrequencyChange><Frequency dt:dt="r8">3507695</Frequency><Timestamp dt:dt="r8">1420089816069</Timestamp><Current dt:dt="r8">0</Current><DateUtc dt:dt="string">2016-08-03T17:37:31Z</DateUtc></FrequencyChange></FrequencyChanges></Clock>\n	Hungry_Donkey_bar_English_2-163-1	60.018	-105	1.0.0.18	1	-1543685080	Standard	2.0.10.353	2.0.10.353	08-03-2016	8/3/2016 5:37:31 PM	13:37:31	2.0.10.248	64	Bar63-37.bmp	62	2	?	10r_4g.bmp	0r_4g.bmp	2r_2g.bmp	0r_2g.bmp		0r_4g.bmp			TrialProc	TrialList	0	cvbn	-999999	16	215623	0	v	666	216289	210	-126	84	-6	66	12	12	4	7	64	-10	0	-2	0	4	4	2	2	0	4
Hungry_Donkey_bar_English_2	163	1	<?xml version="1.0"?>\n<Clock xmlns:dt="urn:schemas-microsoft-com:datatypes"><Description dt:dt="string">E-Prime Primary Realtime Clock</Description><StartTime><Timestamp dt:dt="int">0</Timestamp><DateUtc dt:dt="string">2016-08-03T17:37:31Z</DateUtc></StartTime><FrequencyChanges><FrequencyChange><Frequency dt:dt="r8">3507695</Frequency><Timestamp dt:dt="r8">1420089816069</Timestamp><Current dt:dt="r8">0</Current><DateUtc dt:dt="string">2016-08-03T17:37:31Z</DateUtc></FrequencyChange></FrequencyChanges></Clock>\n	Hungry_Donkey_bar_English_2-163-1	60.018	-105	1.0.0.18	1	-1543685080	Standard	2.0.10.353	2.0.10.353	08-03-2016	8/3/2016 5:37:31 PM	13:37:31	2.0.10.248	65	Bar63-37.bmp	63	2	?	0r_4g.bmp	0r_4g.bmp	0r_2g.bmp	0r_2g.bmp		0r_4g.bmp			TrialProc	TrialList	0	cvbn	-999999	16	218322	0	v	15	218337	214	-126	88	-6	70	12	12	9	7	65	0	0	0	0	4	4	2	2	0	4
Hungry_Donkey_bar_English_2	163	1	<?xml version="1.0"?>\n<Clock xmlns:dt="urn:schemas-microsoft-com:datatypes"><Description dt:dt="string">E-Prime Primary Realtime Clock</Description><StartTime><Timestamp dt:dt="int">0</Timestamp><DateUtc dt:dt="string">2016-08-03T17:37:31Z</DateUtc></StartTime><FrequencyChanges><FrequencyChange><Frequency dt:dt="r8">3507695</Frequency><Timestamp dt:dt="r8">1420089816069</Timestamp><Current dt:dt="r8">0</Current><DateUtc dt:dt="string">2016-08-03T17:37:31Z</DateUtc></FrequencyChange></FrequencyChanges></Clock>\n	Hungry_Donkey_bar_English_2-163-1	60.018	-105	1.0.0.18	1	-1543685080	Standard	2.0.10.353	2.0.10.353	08-03-2016	8/3/2016 5:37:31 PM	13:37:31	2.0.10.248	66	Bar63-37.bmp	63	2	?	10r_4g.bmp	0r_4g.bmp	2r_2g.bmp	0r_2g.bmp		0r_4g.bmp			TrialProc	TrialList	0	cvbn	-999999	16	220372	0	v	429	220801	218	-126	92	-6	74	12	12	2	7	66	-10	0	-2	0	4	4	2	2	0	4
Hungry_Donkey_bar_English_2	163	1	<?xml version="1.0"?>\n<Clock xmlns:dt="urn:schemas-microsoft-com:datatypes"><Description dt:dt="string">E-Prime Primary Realtime Clock</Description><StartTime><Timestamp dt:dt="int">0</Timestamp><DateUtc dt:dt="string">2016-08-03T17:37:31Z</DateUtc></StartTime><FrequencyChanges><FrequencyChange><Frequency dt:dt="r8">3507695</Frequency><Timestamp dt:dt="r8">1420089816069</Timestamp><Current dt:dt="r8">0</Current><DateUtc dt:dt="string">2016-08-03T17:37:31Z</DateUtc></FrequencyChange></FrequencyChanges></Clock>\n	Hungry_Donkey_bar_English_2-163-1	60.018	-105	1.0.0.18	1	-1543685080	Standard	2.0.10.353	2.0.10.353	08-03-2016	8/3/2016 5:37:31 PM	13:37:31	2.0.10.248	67	Bar63-37.bmp	64	2	?	0r_4g.bmp	0r_4g.bmp	0r_2g.bmp	0r_2g.bmp		0r_4g.bmp			TrialProc	TrialList	0	cvbn	-999999	17	222838	0	v	443	223281	222	-126	96	-6	78	12	12	7	7	67	0	0	0	0	4	4	2	2	0	4
Hungry_Donkey_bar_English_2	163	1	<?xml version="1.0"?>\n<Clock xmlns:dt="urn:schemas-microsoft-com:datatypes"><Description dt:dt="string">E-Prime Primary Realtime Clock</Description><StartTime><Timestamp dt:dt="int">0</Timestamp><DateUtc dt:dt="string">2016-08-03T17:37:31Z</DateUtc></StartTime><FrequencyChanges><FrequencyChange><Frequency dt:dt="r8">3507695</Frequency><Timestamp dt:dt="r8">1420089816069</Timestamp><Current dt:dt="r8">0</Current><DateUtc dt:dt="string">2016-08-03T17:37:31Z</DateUtc></FrequencyChange></FrequencyChanges></Clock>\n	Hungry_Donkey_bar_English_2-163-1	60.018	-105	1.0.0.18	1	-1543685080	Standard	2.0.10.353	2.0.10.353	08-03-2016	8/3/2016 5:37:31 PM	13:37:31	2.0.10.248	68	Bar63-37.bmp	64	2	?	0r_4g.bmp	0r_4g.bmp	0r_2g.bmp	0r_2g.bmp		0r_4g.bmp			TrialProc	TrialList	0	cvbn	-999999	16	225304	0	v	377	225681	226	-126	100	-6	82	12	12	6	7	68	0	0	0	0	4	4	2	2	0	4
Hungry_Donkey_bar_English_2	163	1	<?xml version="1.0"?>\n<Clock xmlns:dt="urn:schemas-microsoft-com:datatypes"><Description dt:dt="string">E-Prime Primary Realtime Clock</Description><StartTime><Timestamp dt:dt="int">0</Timestamp><DateUtc dt:dt="string">2016-08-03T17:37:31Z</DateUtc></StartTime><FrequencyChanges><FrequencyChange><Frequency dt:dt="r8">3507695</Frequency><Timestamp dt:dt="r8">1420089816069</Timestamp><Current dt:dt="r8">0</Current><DateUtc dt:dt="string">2016-08-03T17:37:31Z</DateUtc></FrequencyChange></FrequencyChanges></Clock>\n	Hungry_Donkey_bar_English_2-163-1	60.018	-105	1.0.0.18	1	-1543685080	Standard	2.0.10.353	2.0.10.353	08-03-2016	8/3/2016 5:37:31 PM	13:37:31	2.0.10.248	69	Bar63-37.bmp	63	1	?	10r_4g.bmp	0r_4g.bmp	2r_2g.bmp	0r_2g.bmp	10r_4g.bmp				TrialProc	TrialList	0	cvbn	-999999	16	227719	0	c	537	228256	230	-136	94	-12	82	12	12	3	7	69	-10	0	-2	0	4	4	2	2	-10	4
Hungry_Donkey_bar_English_2	163	1	<?xml version="1.0"?>\n<Clock xmlns:dt="urn:schemas-microsoft-com:datatypes"><Description dt:dt="string">E-Prime Primary Realtime Clock</Description><StartTime><Timestamp dt:dt="int">0</Timestamp><DateUtc dt:dt="string">2016-08-03T17:37:31Z</DateUtc></StartTime><FrequencyChanges><FrequencyChange><Frequency dt:dt="r8">3507695</Frequency><Timestamp dt:dt="r8">1420089816069</Timestamp><Current dt:dt="r8">0</Current><DateUtc dt:dt="string">2016-08-03T17:37:31Z</DateUtc></FrequencyChange></FrequencyChanges></Clock>\n	Hungry_Donkey_bar_English_2-163-1	60.018	-105	1.0.0.18	1	-1543685080	Standard	2.0.10.353	2.0.10.353	08-03-2016	8/3/2016 5:37:31 PM	13:37:31	2.0.10.248	70	Bar50-50.bmp	56	2	?	8r_4g.bmp	50r_4g.bmp	1r_2g.bmp	10r_2g.bmp		50r_4g.bmp			TrialProc	TrialList	0	cvbn	-999999	16	230285	0	v	1411	231696	234	-186	48	-12	36	12	12	1	7	70	-8	-50	-1	-10	4	4	2	2	-50	4
Hungry_Donkey_bar_English_2	163	1	<?xml version="1.0"?>\n<Clock xmlns:dt="urn:schemas-microsoft-com:datatypes"><Description dt:dt="string">E-Prime Primary Realtime Clock</Description><StartTime><Timestamp dt:dt="int">0</Timestamp><DateUtc dt:dt="string">2016-08-03T17:37:31Z</DateUtc></StartTime><FrequencyChanges><FrequencyChange><Frequency dt:dt="r8">3507695</Frequency><Timestamp dt:dt="r8">1420089816069</Timestamp><Current dt:dt="r8">0</Current><DateUtc dt:dt="string">2016-08-03T17:37:31Z</DateUtc></FrequencyChange></FrequencyChanges></Clock>\n	Hungry_Donkey_bar_English_2-163-1	60.018	-105	1.0.0.18	1	-1543685080	Standard	2.0.10.353	2.0.10.353	08-03-2016	8/3/2016 5:37:31 PM	13:37:31	2.0.10.248	71	Bar50-50.bmp	56	3	?	0r_4g.bmp	0r_4g.bmp	0r_2g.bmp	0r_2g.bmp			0r_2g.bmp		TrialProc	TrialList	0	cvbn	-999999	16	233734	0	b	3818	237552	236	-186	50	-12	36	14	12	8	8	71	0	0	0	0	4	4	2	2	0	2
Hungry_Donkey_bar_English_2	163	1	<?xml version="1.0"?>\n<Clock xmlns:dt="urn:schemas-microsoft-com:datatypes"><Description dt:dt="string">E-Prime Primary Realtime Clock</Description><StartTime><Timestamp dt:dt="int">0</Timestamp><DateUtc dt:dt="string">2016-08-03T17:37:31Z</DateUtc></StartTime><FrequencyChanges><FrequencyChange><Frequency dt:dt="r8">3507695</Frequency><Timestamp dt:dt="r8">1420089816069</Timestamp><Current dt:dt="r8">0</Current><DateUtc dt:dt="string">2016-08-03T17:37:31Z</DateUtc></FrequencyChange></FrequencyChanges></Clock>\n	Hungry_Donkey_bar_English_2-163-1	60.018	-105	1.0.0.18	1	-1543685080	Standard	2.0.10.353	2.0.10.353	08-03-2016	8/3/2016 5:37:31 PM	13:37:31	2.0.10.248	72	Bar50-50.bmp	56	4	?	10r_4g.bmp	0r_4g.bmp	2r_2g.bmp	0r_2g.bmp				0r_2g.bmp	TrialProc	TrialList	0	cvbn	-999999	16	239583	0	n	449	240032	238	-186	52	-12	36	14	14	2	8	72	-10	0	-2	0	4	4	2	2	0	2
Hungry_Donkey_bar_English_2	163	1	<?xml version="1.0"?>\n<Clock xmlns:dt="urn:schemas-microsoft-com:datatypes"><Description dt:dt="string">E-Prime Primary Realtime Clock</Description><StartTime><Timestamp dt:dt="int">0</Timestamp><DateUtc dt:dt="string">2016-08-03T17:37:31Z</DateUtc></StartTime><FrequencyChanges><FrequencyChange><Frequency dt:dt="r8">3507695</Frequency><Timestamp dt:dt="r8">1420089816069</Timestamp><Current dt:dt="r8">0</Current><DateUtc dt:dt="string">2016-08-03T17:37:31Z</DateUtc></FrequencyChange></FrequencyChanges></Clock>\n	Hungry_Donkey_bar_English_2-163-1	60.018	-105	1.0.0.18	1	-1543685080	Standard	2.0.10.353	2.0.10.353	08-03-2016	8/3/2016 5:37:31 PM	13:37:31	2.0.10.248	73	Bar50-50.bmp	56	4	?	10r_4g.bmp	0r_4g.bmp	2r_2g.bmp	0r_2g.bmp				0r_2g.bmp	TrialProc	TrialList	0	cvbn	-999999	16	242065	0	n	447	242512	240	-186	54	-12	36	14	16	3	8	73	-10	0	-2	0	4	4	2	2	0	2
Hungry_Donkey_bar_English_2	163	1	<?xml version="1.0"?>\n<Clock xmlns:dt="urn:schemas-microsoft-com:datatypes"><Description dt:dt="string">E-Prime Primary Realtime Clock</Description><StartTime><Timestamp dt:dt="int">0</Timestamp><DateUtc dt:dt="string">2016-08-03T17:37:31Z</DateUtc></StartTime><FrequencyChanges><FrequencyChange><Frequency dt:dt="r8">3507695</Frequency><Timestamp dt:dt="r8">1420089816069</Timestamp><Current dt:dt="r8">0</Current><DateUtc dt:dt="string">2016-08-03T17:37:31Z</DateUtc></FrequencyChange></FrequencyChanges></Clock>\n	Hungry_Donkey_bar_English_2-163-1	60.018	-105	1.0.0.18	1	-1543685080	Standard	2.0.10.353	2.0.10.353	08-03-2016	8/3/2016 5:37:31 PM	13:37:31	2.0.10.248	74	Bar63-37.bmp	57	4	?	0r_4g.bmp	0r_4g.bmp	0r_2g.bmp	0r_2g.bmp				0r_2g.bmp	TrialProc	TrialList	0	cvbn	-999999	16	244548	0	n	476	245024	242	-186	56	-12	36	14	18	10	8	74	0	0	0	0	4	4	2	2	0	2
Hungry_Donkey_bar_English_2	163	1	<?xml version="1.0"?>\n<Clock xmlns:dt="urn:schemas-microsoft-com:datatypes"><Description dt:dt="string">E-Prime Primary Realtime Clock</Description><StartTime><Timestamp dt:dt="int">0</Timestamp><DateUtc dt:dt="string">2016-08-03T17:37:31Z</DateUtc></StartTime><FrequencyChanges><FrequencyChange><Frequency dt:dt="r8">3507695</Frequency><Timestamp dt:dt="r8">1420089816069</Timestamp><Current dt:dt="r8">0</Current><DateUtc dt:dt="string">2016-08-03T17:37:31Z</DateUtc></FrequencyChange></FrequencyChanges></Clock>\n	Hungry_Donkey_bar_English_2-163-1	60.018	-105	1.0.0.18	1	-1543685080	Standard	2.0.10.353	2.0.10.353	08-03-2016	8/3/2016 5:37:31 PM	13:37:31	2.0.10.248	75	Bar63-37.bmp	57	4	?	12r_4g.bmp	0r_4g.bmp	3r_2g.bmp	0r_2g.bmp				0r_2g.bmp	TrialProc	TrialList	0	cvbn	-999999	16	247064	0	n	359	247423	244	-186	58	-12	36	14	20	5	8	75	-12	0	-3	0	4	4	2	2	0	2
Hungry_Donkey_bar_English_2	163	1	<?xml version="1.0"?>\n<Clock xmlns:dt="urn:schemas-microsoft-com:datatypes"><Description dt:dt="string">E-Prime Primary Realtime Clock</Description><StartTime><Timestamp dt:dt="int">0</Timestamp><DateUtc dt:dt="string">2016-08-03T17:37:31Z</DateUtc></StartTime><FrequencyChanges><FrequencyChange><Frequency dt:dt="r8">3507695</Frequency><Timestamp dt:dt="r8">1420089816069</Timestamp><Current dt:dt="r8">0</Current><DateUtc dt:dt="string">2016-08-03T17:37:31Z</DateUtc></FrequencyChange></FrequencyChanges></Clock>\n	Hungry_Donkey_bar_English_2-163-1	60.018	-105	1.0.0.18	1	-1543685080	Standard	2.0.10.353	2.0.10.353	08-03-2016	8/3/2016 5:37:31 PM	13:37:31	2.0.10.248	76	Bar63-37.bmp	57	4	?	0r_4g.bmp	0r_4g.bmp	0r_2g.bmp	0r_2g.bmp				0r_2g.bmp	TrialProc	TrialList	0	cvbn	-999999	15	249446	0	n	537	249983	246	-186	60	-12	36	14	22	7	8	76	0	0	0	0	4	4	2	2	0	2
Hungry_Donkey_bar_English_2	163	1	<?xml version="1.0"?>\n<Clock xmlns:dt="urn:schemas-microsoft-com:datatypes"><Description dt:dt="string">E-Prime Primary Realtime Clock</Description><StartTime><Timestamp dt:dt="int">0</Timestamp><DateUtc dt:dt="string">2016-08-03T17:37:31Z</DateUtc></StartTime><FrequencyChanges><FrequencyChange><Frequency dt:dt="r8">3507695</Frequency><Timestamp dt:dt="r8">1420089816069</Timestamp><Current dt:dt="r8">0</Current><DateUtc dt:dt="string">2016-08-03T17:37:31Z</DateUtc></FrequencyChange></FrequencyChanges></Clock>\n	Hungry_Donkey_bar_English_2-163-1	60.018	-105	1.0.0.18	1	-1543685080	Standard	2.0.10.353	2.0.10.353	08-03-2016	8/3/2016 5:37:31 PM	13:37:31	2.0.10.248	77	Bar63-37.bmp	57	4	?	10r_4g.bmp	0r_4g.bmp	2r_2g.bmp	0r_2g.bmp				0r_2g.bmp	TrialProc	TrialList	0	cvbn	-999999	16	252012	0	n	355	252367	248	-186	62	-12	36	14	24	4	8	77	-10	0	-2	0	4	4	2	2	0	2
Hungry_Donkey_bar_English_2	163	1	<?xml version="1.0"?>\n<Clock xmlns:dt="urn:schemas-microsoft-com:datatypes"><Description dt:dt="string">E-Prime Primary Realtime Clock</Description><StartTime><Timestamp dt:dt="int">0</Timestamp><DateUtc dt:dt="string">2016-08-03T17:37:31Z</DateUtc></StartTime><FrequencyChanges><FrequencyChange><Frequency dt:dt="r8">3507695</Frequency><Timestamp dt:dt="r8">1420089816069</Timestamp><Current dt:dt="r8">0</Current><DateUtc dt:dt="string">2016-08-03T17:37:31Z</DateUtc></FrequencyChange></FrequencyChanges></Clock>\n	Hungry_Donkey_bar_English_2-163-1	60.018	-105	1.0.0.18	1	-1543685080	Standard	2.0.10.353	2.0.10.353	08-03-2016	8/3/2016 5:37:31 PM	13:37:31	2.0.10.248	78	Bar63-37.bmp	57	4	?	0r_4g.bmp	0r_4g.bmp	0r_2g.bmp	0r_2g.bmp				0r_2g.bmp	TrialProc	TrialList	0	cvbn	-999999	16	254395	0	n	388	254783	250	-186	64	-12	36	14	26	9	8	78	0	0	0	0	4	4	2	2	0	2
Hungry_Donkey_bar_English_2	163	1	<?xml version="1.0"?>\n<Clock xmlns:dt="urn:schemas-microsoft-com:datatypes"><Description dt:dt="string">E-Prime Primary Realtime Clock</Description><StartTime><Timestamp dt:dt="int">0</Timestamp><DateUtc dt:dt="string">2016-08-03T17:37:31Z</DateUtc></StartTime><FrequencyChanges><FrequencyChange><Frequency dt:dt="r8">3507695</Frequency><Timestamp dt:dt="r8">1420089816069</Timestamp><Current dt:dt="r8">0</Current><DateUtc dt:dt="string">2016-08-03T17:37:31Z</DateUtc></FrequencyChange></FrequencyChanges></Clock>\n	Hungry_Donkey_bar_English_2-163-1	60.018	-105	1.0.0.18	1	-1543685080	Standard	2.0.10.353	2.0.10.353	08-03-2016	8/3/2016 5:37:31 PM	13:37:31	2.0.10.248	79	Bar63-37.bmp	58	4	?	0r_4g.bmp	0r_4g.bmp	0r_2g.bmp	0r_2g.bmp				0r_2g.bmp	TrialProc	TrialList	0	cvbn	-999999	16	256811	0	n	356	257167	252	-186	66	-12	36	14	28	6	8	79	0	0	0	0	4	4	2	2	0	2
Hungry_Donkey_bar_English_2	163	1	<?xml version="1.0"?>\n<Clock xmlns:dt="urn:schemas-microsoft-com:datatypes"><Description dt:dt="string">E-Prime Primary Realtime Clock</Description><StartTime><Timestamp dt:dt="int">0</Timestamp><DateUtc dt:dt="string">2016-08-03T17:37:31Z</DateUtc></StartTime><FrequencyChanges><FrequencyChange><Frequency dt:dt="r8">3507695</Frequency><Timestamp dt:dt="r8">1420089816069</Timestamp><Current dt:dt="r8">0</Current><DateUtc dt:dt="string">2016-08-03T17:37:31Z</DateUtc></FrequencyChange></FrequencyChanges></Clock>\n	Hungry_Donkey_bar_English_2-163-1	60.018	-105	1.0.0.18	1	-1543685080	Standard	2.0.10.353	2.0.10.353	08-03-2016	8/3/2016 5:37:31 PM	13:37:31	2.0.10.248	80	Bar63-37.bmp	58	3	?	8r_4g.bmp	50r_4g.bmp	1r_2g.bmp	10r_2g.bmp			1r_2g.bmp		TrialProc	TrialList	0	cvbn	-999999	16	259194	0	b	389	259583	254	-187	67	-12	36	15	28	1	8	80	-8	-50	-1	-10	4	4	2	2	-1	2
Hungry_Donkey_bar_English_2	163	1	<?xml version="1.0"?>\n<Clock xmlns:dt="urn:schemas-microsoft-com:datatypes"><Description dt:dt="string">E-Prime Primary Realtime Clock</Description><StartTime><Timestamp dt:dt="int">0</Timestamp><DateUtc dt:dt="string">2016-08-03T17:37:31Z</DateUtc></StartTime><FrequencyChanges><FrequencyChange><Frequency dt:dt="r8">3507695</Frequency><Timestamp dt:dt="r8">1420089816069</Timestamp><Current dt:dt="r8">0</Current><DateUtc dt:dt="string">2016-08-03T17:37:31Z</DateUtc></FrequencyChange></FrequencyChanges></Clock>\n	Hungry_Donkey_bar_English_2-163-1	60.018	-105	1.0.0.18	1	-1543685080	Standard	2.0.10.353	2.0.10.353	08-03-2016	8/3/2016 5:37:31 PM	13:37:31	2.0.10.248	81	Bar50-50.bmp	52	2	?	8r_4g.bmp	50r_4g.bmp	1r_2g.bmp	10r_2g.bmp		50r_4g.bmp			TrialProc	TrialList	0	cvbn	-999999	16	261610	0	v	1109	262719	258	-237	21	-12	-10	15	28	1	9	81	-8	-50	-1	-10	4	4	2	2	-50	4
Hungry_Donkey_bar_English_2	163	1	<?xml version="1.0"?>\n<Clock xmlns:dt="urn:schemas-microsoft-com:datatypes"><Description dt:dt="string">E-Prime Primary Realtime Clock</Description><StartTime><Timestamp dt:dt="int">0</Timestamp><DateUtc dt:dt="string">2016-08-03T17:37:31Z</DateUtc></StartTime><FrequencyChanges><FrequencyChange><Frequency dt:dt="r8">3507695</Frequency><Timestamp dt:dt="r8">1420089816069</Timestamp><Current dt:dt="r8">0</Current><DateUtc dt:dt="string">2016-08-03T17:37:31Z</DateUtc></FrequencyChange></FrequencyChanges></Clock>\n	Hungry_Donkey_bar_English_2-163-1	60.018	-105	1.0.0.18	1	-1543685080	Standard	2.0.10.353	2.0.10.353	08-03-2016	8/3/2016 5:37:31 PM	13:37:31	2.0.10.248	82	Bar50-50.bmp	51	1	?	12r_4g.bmp	0r_4g.bmp	3r_2g.bmp	0r_2g.bmp	12r_4g.bmp				TrialProc	TrialList	0	cvbn	-999999	16	264759	0	c	1463	266222	262	-249	13	-20	-10	15	28	5	9	82	-12	0	-3	0	4	4	2	2	-12	4
Hungry_Donkey_bar_English_2	163	1	<?xml version="1.0"?>\n<Clock xmlns:dt="urn:schemas-microsoft-com:datatypes"><Description dt:dt="string">E-Prime Primary Realtime Clock</Description><StartTime><Timestamp dt:dt="int">0</Timestamp><DateUtc dt:dt="string">2016-08-03T17:37:31Z</DateUtc></StartTime><FrequencyChanges><FrequencyChange><Frequency dt:dt="r8">3507695</Frequency><Timestamp dt:dt="r8">1420089816069</Timestamp><Current dt:dt="r8">0</Current><DateUtc dt:dt="string">2016-08-03T17:37:31Z</DateUtc></FrequencyChange></FrequencyChanges></Clock>\n	Hungry_Donkey_bar_English_2-163-1	60.018	-105	1.0.0.18	1	-1543685080	Standard	2.0.10.353	2.0.10.353	08-03-2016	8/3/2016 5:37:31 PM	13:37:31	2.0.10.248	83	Bar50-50.bmp	51	4	?	10r_4g.bmp	0r_4g.bmp	2r_2g.bmp	0r_2g.bmp				0r_2g.bmp	TrialProc	TrialList	0	cvbn	-999999	16	268258	0	n	1740	269998	264	-249	15	-20	-10	15	30	3	9	83	-10	0	-2	0	4	4	2	2	0	2
Hungry_Donkey_bar_English_2	163	1	<?xml version="1.0"?>\n<Clock xmlns:dt="urn:schemas-microsoft-com:datatypes"><Description dt:dt="string">E-Prime Primary Realtime Clock</Description><StartTime><Timestamp dt:dt="int">0</Timestamp><DateUtc dt:dt="string">2016-08-03T17:37:31Z</DateUtc></StartTime><FrequencyChanges><FrequencyChange><Frequency dt:dt="r8">3507695</Frequency><Timestamp dt:dt="r8">1420089816069</Timestamp><Current dt:dt="r8">0</Current><DateUtc dt:dt="string">2016-08-03T17:37:31Z</DateUtc></FrequencyChange></FrequencyChanges></Clock>\n	Hungry_Donkey_bar_English_2-163-1	60.018	-105	1.0.0.18	1	-1543685080	Standard	2.0.10.353	2.0.10.353	08-03-2016	8/3/2016 5:37:31 PM	13:37:31	2.0.10.248	84	Bar50-50.bmp	52	4	?	10r_4g.bmp	0r_4g.bmp	2r_2g.bmp	0r_2g.bmp				0r_2g.bmp	TrialProc	TrialList	0	cvbn	-999999	16	272023	0	n	503	272526	266	-249	17	-20	-10	15	32	4	9	84	-10	0	-2	0	4	4	2	2	0	2
Hungry_Donkey_bar_English_2	163	1	<?xml version="1.0"?>\n<Clock xmlns:dt="urn:schemas-microsoft-com:datatypes"><Description dt:dt="string">E-Prime Primary Realtime Clock</Description><StartTime><Timestamp dt:dt="int">0</Timestamp><DateUtc dt:dt="string">2016-08-03T17:37:31Z</DateUtc></StartTime><FrequencyChanges><FrequencyChange><Frequency dt:dt="r8">3507695</Frequency><Timestamp dt:dt="r8">1420089816069</Timestamp><Current dt:dt="r8">0</Current><DateUtc dt:dt="string">2016-08-03T17:37:31Z</DateUtc></FrequencyChange></FrequencyChanges></Clock>\n	Hungry_Donkey_bar_English_2-163-1	60.018	-105	1.0.0.18	1	-1543685080	Standard	2.0.10.353	2.0.10.353	08-03-2016	8/3/2016 5:37:31 PM	13:37:31	2.0.10.248	85	Bar50-50.bmp	52	4	?	0r_4g.bmp	0r_4g.bmp	0r_2g.bmp	0r_2g.bmp				0r_2g.bmp	TrialProc	TrialList	0	cvbn	-999999	16	274556	0	n	66	274622	268	-249	19	-20	-10	15	34	7	9	85	0	0	0	0	4	4	2	2	0	2
Hungry_Donkey_bar_English_2	163	1	<?xml version="1.0"?>\n<Clock xmlns:dt="urn:schemas-microsoft-com:datatypes"><Description dt:dt="string">E-Prime Primary Realtime Clock</Description><StartTime><Timestamp dt:dt="int">0</Timestamp><DateUtc dt:dt="string">2016-08-03T17:37:31Z</DateUtc></StartTime><FrequencyChanges><FrequencyChange><Frequency dt:dt="r8">3507695</Frequency><Timestamp dt:dt="r8">1420089816069</Timestamp><Current dt:dt="r8">0</Current><DateUtc dt:dt="string">2016-08-03T17:37:31Z</DateUtc></FrequencyChange></FrequencyChanges></Clock>\n	Hungry_Donkey_bar_English_2-163-1	60.018	-105	1.0.0.18	1	-1543685080	Standard	2.0.10.353	2.0.10.353	08-03-2016	8/3/2016 5:37:31 PM	13:37:31	2.0.10.248	86	Bar50-50.bmp	52	4	?	0r_4g.bmp	0r_4g.bmp	0r_2g.bmp	0r_2g.bmp				0r_2g.bmp	TrialProc	TrialList	0	cvbn	-999999	16	276655	0	n	175	276830	270	-249	21	-20	-10	15	36	6	9	86	0	0	0	0	4	4	2	2	0	2
Hungry_Donkey_bar_English_2	163	1	<?xml version="1.0"?>\n<Clock xmlns:dt="urn:schemas-microsoft-com:datatypes"><Description dt:dt="string">E-Prime Primary Realtime Clock</Description><StartTime><Timestamp dt:dt="int">0</Timestamp><DateUtc dt:dt="string">2016-08-03T17:37:31Z</DateUtc></StartTime><FrequencyChanges><FrequencyChange><Frequency dt:dt="r8">3507695</Frequency><Timestamp dt:dt="r8">1420089816069</Timestamp><Current dt:dt="r8">0</Current><DateUtc dt:dt="string">2016-08-03T17:37:31Z</DateUtc></FrequencyChange></FrequencyChanges></Clock>\n	Hungry_Donkey_bar_English_2-163-1	60.018	-105	1.0.0.18	1	-1543685080	Standard	2.0.10.353	2.0.10.353	08-03-2016	8/3/2016 5:37:31 PM	13:37:31	2.0.10.248	87	Bar50-50.bmp	52	4	?	0r_4g.bmp	0r_4g.bmp	0r_2g.bmp	0r_2g.bmp				0r_2g.bmp	TrialProc	TrialList	0	cvbn	-999999	17	278855	0	n	199	279054	272	-249	23	-20	-10	15	38	10	9	87	0	0	0	0	4	4	2	2	0	2
Hungry_Donkey_bar_English_2	163	1	<?xml version="1.0"?>\n<Clock xmlns:dt="urn:schemas-microsoft-com:datatypes"><Description dt:dt="string">E-Prime Primary Realtime Clock</Description><StartTime><Timestamp dt:dt="int">0</Timestamp><DateUtc dt:dt="string">2016-08-03T17:37:31Z</DateUtc></StartTime><FrequencyChanges><FrequencyChange><Frequency dt:dt="r8">3507695</Frequency><Timestamp dt:dt="r8">1420089816069</Timestamp><Current dt:dt="r8">0</Current><DateUtc dt:dt="string">2016-08-03T17:37:31Z</DateUtc></FrequencyChange></FrequencyChanges></Clock>\n	Hungry_Donkey_bar_English_2-163-1	60.018	-105	1.0.0.18	1	-1543685080	Standard	2.0.10.353	2.0.10.353	08-03-2016	8/3/2016 5:37:31 PM	13:37:31	2.0.10.248	88	Bar50-50.bmp	52	4	?	0r_4g.bmp	0r_4g.bmp	0r_2g.bmp	0r_2g.bmp				0r_2g.bmp	TrialProc	TrialList	0	cvbn	-999999	16	281087	0	n	287	281374	274	-249	25	-20	-10	15	40	9	9	88	0	0	0	0	4	4	2	2	0	2
Hungry_Donkey_bar_English_2	163	1	<?xml version="1.0"?>\n<Clock xmlns:dt="urn:schemas-microsoft-com:datatypes"><Description dt:dt="string">E-Prime Primary Realtime Clock</Description><StartTime><Timestamp dt:dt="int">0</Timestamp><DateUtc dt:dt="string">2016-08-03T17:37:31Z</DateUtc></StartTime><FrequencyChanges><FrequencyChange><Frequency dt:dt="r8">3507695</Frequency><Timestamp dt:dt="r8">1420089816069</Timestamp><Current dt:dt="r8">0</Current><DateUtc dt:dt="string">2016-08-03T17:37:31Z</DateUtc></FrequencyChange></FrequencyChanges></Clock>\n	Hungry_Donkey_bar_English_2-163-1	60.018	-105	1.0.0.18	1	-1543685080	Standard	2.0.10.353	2.0.10.353	08-03-2016	8/3/2016 5:37:31 PM	13:37:31	2.0.10.248	89	Bar50-50.bmp	53	4	?	10r_4g.bmp	0r_4g.bmp	2r_2g.bmp	0r_2g.bmp				0r_2g.bmp	TrialProc	TrialList	0	cvbn	-999999	16	283403	0	n	626	284029	276	-249	27	-20	-10	15	42	2	9	89	-10	0	-2	0	4	4	2	2	0	2
Hungry_Donkey_bar_English_2	163	1	<?xml version="1.0"?>\n<Clock xmlns:dt="urn:schemas-microsoft-com:datatypes"><Description dt:dt="string">E-Prime Primary Realtime Clock</Description><StartTime><Timestamp dt:dt="int">0</Timestamp><DateUtc dt:dt="string">2016-08-03T17:37:31Z</DateUtc></StartTime><FrequencyChanges><FrequencyChange><Frequency dt:dt="r8">3507695</Frequency><Timestamp dt:dt="r8">1420089816069</Timestamp><Current dt:dt="r8">0</Current><DateUtc dt:dt="string">2016-08-03T17:37:31Z</DateUtc></FrequencyChange></FrequencyChanges></Clock>\n	Hungry_Donkey_bar_English_2-163-1	60.018	-105	1.0.0.18	1	-1543685080	Standard	2.0.10.353	2.0.10.353	08-03-2016	8/3/2016 5:37:31 PM	13:37:31	2.0.10.248	90	Bar50-50.bmp	53	3	?	0r_4g.bmp	0r_4g.bmp	0r_2g.bmp	0r_2g.bmp			0r_2g.bmp		TrialProc	TrialList	0	cvbn	-999999	15	286052	0	b	2009	288061	278	-249	29	-20	-10	17	42	8	9	90	0	0	0	0	4	4	2	2	0	2
Hungry_Donkey_bar_English_2	163	1	<?xml version="1.0"?>\n<Clock xmlns:dt="urn:schemas-microsoft-com:datatypes"><Description dt:dt="string">E-Prime Primary Realtime Clock</Description><StartTime><Timestamp dt:dt="int">0</Timestamp><DateUtc dt:dt="string">2016-08-03T17:37:31Z</DateUtc></StartTime><FrequencyChanges><FrequencyChange><Frequency dt:dt="r8">3507695</Frequency><Timestamp dt:dt="r8">1420089816069</Timestamp><Current dt:dt="r8">0</Current><DateUtc dt:dt="string">2016-08-03T17:37:31Z</DateUtc></FrequencyChange></FrequencyChanges></Clock>\n	Hungry_Donkey_bar_English_2-163-1	60.018	-105	1.0.0.18	1	-1543685080	Standard	2.0.10.353	2.0.10.353	08-03-2016	8/3/2016 5:37:31 PM	13:37:31	2.0.10.248	91	Bar50-50.bmp	53	3	?	8r_4g.bmp	50r_4g.bmp	1r_2g.bmp	10r_2g.bmp			1r_2g.bmp		TrialProc	TrialList	0	cvbn	-999999	16	290085	0	b	248	290333	280	-250	30	-20	-10	18	42	1	10	91	-8	-50	-1	-10	4	4	2	2	-1	2
Hungry_Donkey_bar_English_2	163	1	<?xml version="1.0"?>\n<Clock xmlns:dt="urn:schemas-microsoft-com:datatypes"><Description dt:dt="string">E-Prime Primary Realtime Clock</Description><StartTime><Timestamp dt:dt="int">0</Timestamp><DateUtc dt:dt="string">2016-08-03T17:37:31Z</DateUtc></StartTime><FrequencyChanges><FrequencyChange><Frequency dt:dt="r8">3507695</Frequency><Timestamp dt:dt="r8">1420089816069</Timestamp><Current dt:dt="r8">0</Current><DateUtc dt:dt="string">2016-08-03T17:37:31Z</DateUtc></FrequencyChange></FrequencyChanges></Clock>\n	Hungry_Donkey_bar_English_2-163-1	60.018	-105	1.0.0.18	1	-1543685080	Standard	2.0.10.353	2.0.10.353	08-03-2016	8/3/2016 5:37:31 PM	13:37:31	2.0.10.248	92	Bar50-50.bmp	53	3	?	10r_4g.bmp	0r_4g.bmp	2r_2g.bmp	0r_2g.bmp			2r_2g.bmp		TrialProc	TrialList	0	cvbn	-999999	16	292367	0	b	286	292653	282	-252	30	-20	-10	18	42	4	10	92	-10	0	-2	0	4	4	2	2	-2	2
Hungry_Donkey_bar_English_2	163	1	<?xml version="1.0"?>\n<Clock xmlns:dt="urn:schemas-microsoft-com:datatypes"><Description dt:dt="string">E-Prime Primary Realtime Clock</Description><StartTime><Timestamp dt:dt="int">0</Timestamp><DateUtc dt:dt="string">2016-08-03T17:37:31Z</DateUtc></StartTime><FrequencyChanges><FrequencyChange><Frequency dt:dt="r8">3507695</Frequency><Timestamp dt:dt="r8">1420089816069</Timestamp><Current dt:dt="r8">0</Current><DateUtc dt:dt="string">2016-08-03T17:37:31Z</DateUtc></FrequencyChange></FrequencyChanges></Clock>\n	Hungry_Donkey_bar_English_2-163-1	60.018	-105	1.0.0.18	1	-1543685080	Standard	2.0.10.353	2.0.10.353	08-03-2016	8/3/2016 5:37:31 PM	13:37:31	2.0.10.248	93	Bar50-50.bmp	53	3	?	0r_4g.bmp	0r_4g.bmp	0r_2g.bmp	0r_2g.bmp			0r_2g.bmp		TrialProc	TrialList	0	cvbn	-999999	16	294683	0	b	162	294845	284	-252	32	-20	-10	20	42	6	10	93	0	0	0	0	4	4	2	2	0	2
Hungry_Donkey_bar_English_2	163	1	<?xml version="1.0"?>\n<Clock xmlns:dt="urn:schemas-microsoft-com:datatypes"><Description dt:dt="string">E-Prime Primary Realtime Clock</Description><StartTime><Timestamp dt:dt="int">0</Timestamp><DateUtc dt:dt="string">2016-08-03T17:37:31Z</DateUtc></StartTime><FrequencyChanges><FrequencyChange><Frequency dt:dt="r8">3507695</Frequency><Timestamp dt:dt="r8">1420089816069</Timestamp><Current dt:dt="r8">0</Current><DateUtc dt:dt="string">2016-08-03T17:37:31Z</DateUtc></FrequencyChange></FrequencyChanges></Clock>\n	Hungry_Donkey_bar_English_2-163-1	60.018	-105	1.0.0.18	1	-1543685080	Standard	2.0.10.353	2.0.10.353	08-03-2016	8/3/2016 5:37:31 PM	13:37:31	2.0.10.248	94	Bar50-50.bmp	53	3	?	0r_4g.bmp	0r_4g.bmp	0r_2g.bmp	0r_2g.bmp			0r_2g.bmp		TrialProc	TrialList	0	cvbn	-999999	16	296883	0	b	90	296973	286	-252	34	-20	-10	22	42	8	10	94	0	0	0	0	4	4	2	2	0	2
Hungry_Donkey_bar_English_2	163	1	<?xml version="1.0"?>\n<Clock xmlns:dt="urn:schemas-microsoft-com:datatypes"><Description dt:dt="string">E-Prime Primary Realtime Clock</Description><StartTime><Timestamp dt:dt="int">0</Timestamp><DateUtc dt:dt="string">2016-08-03T17:37:31Z</DateUtc></StartTime><FrequencyChanges><FrequencyChange><Frequency dt:dt="r8">3507695</Frequency><Timestamp dt:dt="r8">1420089816069</Timestamp><Current dt:dt="r8">0</Current><DateUtc dt:dt="string">2016-08-03T17:37:31Z</DateUtc></FrequencyChange></FrequencyChanges></Clock>\n	Hungry_Donkey_bar_English_2-163-1	60.018	-105	1.0.0.18	1	-1543685080	Standard	2.0.10.353	2.0.10.353	08-03-2016	8/3/2016 5:37:31 PM	13:37:31	2.0.10.248	95	Bar50-50.bmp	53	3	?	0r_4g.bmp	0r_4g.bmp	0r_2g.bmp	0r_2g.bmp			0r_2g.bmp		TrialProc	TrialList	0	cvbn	-999999	16	298999	0	b	486	299485	288	-252	36	-20	-10	24	42	9	10	95	0	0	0	0	4	4	2	2	0	2
Hungry_Donkey_bar_English_2	163	1	<?xml version="1.0"?>\n<Clock xmlns:dt="urn:schemas-microsoft-com:datatypes"><Description dt:dt="string">E-Prime Primary Realtime Clock</Description><StartTime><Timestamp dt:dt="int">0</Timestamp><DateUtc dt:dt="string">2016-08-03T17:37:31Z</DateUtc></StartTime><FrequencyChanges><FrequencyChange><Frequency dt:dt="r8">3507695</Frequency><Timestamp dt:dt="r8">1420089816069</Timestamp><Current dt:dt="r8">0</Current><DateUtc dt:dt="string">2016-08-03T17:37:31Z</DateUtc></FrequencyChange></FrequencyChanges></Clock>\n	Hungry_Donkey_bar_English_2-163-1	60.018	-105	1.0.0.18	1	-1543685080	Standard	2.0.10.353	2.0.10.353	08-03-2016	8/3/2016 5:37:31 PM	13:37:31	2.0.10.248	96	Bar50-50.bmp	53	3	?	10r_4g.bmp	0r_4g.bmp	2r_2g.bmp	0r_2g.bmp			2r_2g.bmp		TrialProc	TrialList	0	cvbn	-999999	16	301515	0	b	354	301869	290	-254	36	-20	-10	24	42	2	10	96	-10	0	-2	0	4	4	2	2	-2	2
Hungry_Donkey_bar_English_2	163	1	<?xml version="1.0"?>\n<Clock xmlns:dt="urn:schemas-microsoft-com:datatypes"><Description dt:dt="string">E-Prime Primary Realtime Clock</Description><StartTime><Timestamp dt:dt="int">0</Timestamp><DateUtc dt:dt="string">2016-08-03T17:37:31Z</DateUtc></StartTime><FrequencyChanges><FrequencyChange><Frequency dt:dt="r8">3507695</Frequency><Timestamp dt:dt="r8">1420089816069</Timestamp><Current dt:dt="r8">0</Current><DateUtc dt:dt="string">2016-08-03T17:37:31Z</DateUtc></FrequencyChange></FrequencyChanges></Clock>\n	Hungry_Donkey_bar_English_2-163-1	60.018	-105	1.0.0.18	1	-1543685080	Standard	2.0.10.353	2.0.10.353	08-03-2016	8/3/2016 5:37:31 PM	13:37:31	2.0.10.248	97	Bar50-50.bmp	53	3	?	0r_4g.bmp	0r_4g.bmp	0r_2g.bmp	0r_2g.bmp			0r_2g.bmp		TrialProc	TrialList	0	cvbn	-999999	16	303897	0	b	1699	305596	292	-254	38	-20	-10	26	42	10	10	97	0	0	0	0	4	4	2	2	0	2
Hungry_Donkey_bar_English_2	163	1	<?xml version="1.0"?>\n<Clock xmlns:dt="urn:schemas-microsoft-com:datatypes"><Description dt:dt="string">E-Prime Primary Realtime Clock</Description><StartTime><Timestamp dt:dt="int">0</Timestamp><DateUtc dt:dt="string">2016-08-03T17:37:31Z</DateUtc></StartTime><FrequencyChanges><FrequencyChange><Frequency dt:dt="r8">3507695</Frequency><Timestamp dt:dt="r8">1420089816069</Timestamp><Current dt:dt="r8">0</Current><DateUtc dt:dt="string">2016-08-03T17:37:31Z</DateUtc></FrequencyChange></FrequencyChanges></Clock>\n	Hungry_Donkey_bar_English_2-163-1	60.018	-105	1.0.0.18	1	-1543685080	Standard	2.0.10.353	2.0.10.353	08-03-2016	8/3/2016 5:37:31 PM	13:37:31	2.0.10.248	98	Bar50-50.bmp	54	3	?	0r_4g.bmp	0r_4g.bmp	0r_2g.bmp	0r_2g.bmp			0r_2g.bmp		TrialProc	TrialList	0	cvbn	-999999	17	307630	0	b	734	308364	294	-254	40	-20	-10	28	42	7	10	98	0	0	0	0	4	4	2	2	0	2
Hungry_Donkey_bar_English_2	163	1	<?xml version="1.0"?>\n<Clock xmlns:dt="urn:schemas-microsoft-com:datatypes"><Description dt:dt="string">E-Prime Primary Realtime Clock</Description><StartTime><Timestamp dt:dt="int">0</Timestamp><DateUtc dt:dt="string">2016-08-03T17:37:31Z</DateUtc></StartTime><FrequencyChanges><FrequencyChange><Frequency dt:dt="r8">3507695</Frequency><Timestamp dt:dt="r8">1420089816069</Timestamp><Current dt:dt="r8">0</Current><DateUtc dt:dt="string">2016-08-03T17:37:31Z</DateUtc></FrequencyChange></FrequencyChanges></Clock>\n	Hungry_Donkey_bar_English_2-163-1	60.018	-105	1.0.0.18	1	-1543685080	Standard	2.0.10.353	2.0.10.353	08-03-2016	8/3/2016 5:37:31 PM	13:37:31	2.0.10.248	99	Bar50-50.bmp	54	2	?	10r_4g.bmp	0r_4g.bmp	2r_2g.bmp	0r_2g.bmp		0r_4g.bmp			TrialProc	TrialList	0	cvbn	-999999	16	310395	0	v	353	310748	298	-254	44	-20	-6	28	42	3	10	99	-10	0	-2	0	4	4	2	2	0	4
Hungry_Donkey_bar_English_2	163	1	<?xml version="1.0"?>\n<Clock xmlns:dt="urn:schemas-microsoft-com:datatypes"><Description dt:dt="string">E-Prime Primary Realtime Clock</Description><StartTime><Timestamp dt:dt="int">0</Timestamp><DateUtc dt:dt="string">2016-08-03T17:37:31Z</DateUtc></StartTime><FrequencyChanges><FrequencyChange><Frequency dt:dt="r8">3507695</Frequency><Timestamp dt:dt="r8">1420089816069</Timestamp><Current dt:dt="r8">0</Current><DateUtc dt:dt="string">2016-08-03T17:37:31Z</DateUtc></FrequencyChange></FrequencyChanges></Clock>\n	Hungry_Donkey_bar_English_2-163-1	60.018	-105	1.0.0.18	1	-1543685080	Standard	2.0.10.353	2.0.10.353	08-03-2016	8/3/2016 5:37:31 PM	13:37:31	2.0.10.248	100	Bar50-50.bmp	54	2	?	12r_4g.bmp	0r_4g.bmp	3r_2g.bmp	0r_2g.bmp		0r_4g.bmp			TrialProc	TrialList	0	cvbn	-999999	16	312778	0	v	338	313116	302	-254	48	-20	-2	28	42	5	10	100	-12	0	-3	0	4	4	2	2	0	4
Hungry_Donkey_bar_English_2	163	1	<?xml version="1.0"?>\n<Clock xmlns:dt="urn:schemas-microsoft-com:datatypes"><Description dt:dt="string">E-Prime Primary Realtime Clock</Description><StartTime><Timestamp dt:dt="int">0</Timestamp><DateUtc dt:dt="string">2016-08-03T17:37:31Z</DateUtc></StartTime><FrequencyChanges><FrequencyChange><Frequency dt:dt="r8">3507695</Frequency><Timestamp dt:dt="r8">1420089816069</Timestamp><Current dt:dt="r8">0</Current><DateUtc dt:dt="string">2016-08-03T17:37:31Z</DateUtc></FrequencyChange></FrequencyChanges></Clock>\n	Hungry_Donkey_bar_English_2-163-1	60.018	-105	1.0.0.18	1	-1543685080	Standard	2.0.10.353	2.0.10.353	08-03-2016	8/3/2016 5:37:31 PM	13:37:31	2.0.10.248	101	Bar50-50.bmp	55	2	?	0r_4g.bmp	0r_4g.bmp	0r_2g.bmp	0r_2g.bmp		0r_4g.bmp			TrialProc	TrialList	0	cvbn	-999999	16	315144	0	v	372	315516	306	-254	52	-20	2	28	42	9	11	101	0	0	0	0	4	4	2	2	0	4
Hungry_Donkey_bar_English_2	163	1	<?xml version="1.0"?>\n<Clock xmlns:dt="urn:schemas-microsoft-com:datatypes"><Description dt:dt="string">E-Prime Primary Realtime Clock</Description><StartTime><Timestamp dt:dt="int">0</Timestamp><DateUtc dt:dt="string">2016-08-03T17:37:31Z</DateUtc></StartTime><FrequencyChanges><FrequencyChange><Frequency dt:dt="r8">3507695</Frequency><Timestamp dt:dt="r8">1420089816069</Timestamp><Current dt:dt="r8">0</Current><DateUtc dt:dt="string">2016-08-03T17:37:31Z</DateUtc></FrequencyChange></FrequencyChanges></Clock>\n	Hungry_Donkey_bar_English_2-163-1	60.018	-105	1.0.0.18	1	-1543685080	Standard	2.0.10.353	2.0.10.353	08-03-2016	8/3/2016 5:37:31 PM	13:37:31	2.0.10.248	102	Bar50-50.bmp	55	2	?	10r_4g.bmp	0r_4g.bmp	2r_2g.bmp	0r_2g.bmp		0r_4g.bmp			TrialProc	TrialList	0	cvbn	-999999	16	317543	0	v	341	317884	310	-254	56	-20	6	28	42	3	11	102	-10	0	-2	0	4	4	2	2	0	4
Hungry_Donkey_bar_English_2	163	1	<?xml version="1.0"?>\n<Clock xmlns:dt="urn:schemas-microsoft-com:datatypes"><Description dt:dt="string">E-Prime Primary Realtime Clock</Description><StartTime><Timestamp dt:dt="int">0</Timestamp><DateUtc dt:dt="string">2016-08-03T17:37:31Z</DateUtc></StartTime><FrequencyChanges><FrequencyChange><Frequency dt:dt="r8">3507695</Frequency><Timestamp dt:dt="r8">1420089816069</Timestamp><Current dt:dt="r8">0</Current><DateUtc dt:dt="string">2016-08-03T17:37:31Z</DateUtc></FrequencyChange></FrequencyChanges></Clock>\n	Hungry_Donkey_bar_English_2-163-1	60.018	-105	1.0.0.18	1	-1543685080	Standard	2.0.10.353	2.0.10.353	08-03-2016	8/3/2016 5:37:31 PM	13:37:31	2.0.10.248	103	Bar50-50.bmp	55	2	?	10r_4g.bmp	0r_4g.bmp	2r_2g.bmp	0r_2g.bmp		0r_4g.bmp			TrialProc	TrialList	0	cvbn	-999999	16	319909	0	v	391	320300	314	-254	60	-20	10	28	42	2	11	103	-10	0	-2	0	4	4	2	2	0	4
Hungry_Donkey_bar_English_2	163	1	<?xml version="1.0"?>\n<Clock xmlns:dt="urn:schemas-microsoft-com:datatypes"><Description dt:dt="string">E-Prime Primary Realtime Clock</Description><StartTime><Timestamp dt:dt="int">0</Timestamp><DateUtc dt:dt="string">2016-08-03T17:37:31Z</DateUtc></StartTime><FrequencyChanges><FrequencyChange><Frequency dt:dt="r8">3507695</Frequency><Timestamp dt:dt="r8">1420089816069</Timestamp><Current dt:dt="r8">0</Current><DateUtc dt:dt="string">2016-08-03T17:37:31Z</DateUtc></FrequencyChange></FrequencyChanges></Clock>\n	Hungry_Donkey_bar_English_2-163-1	60.018	-105	1.0.0.18	1	-1543685080	Standard	2.0.10.353	2.0.10.353	08-03-2016	8/3/2016 5:37:31 PM	13:37:31	2.0.10.248	104	Bar50-50.bmp	51	2	?	8r_4g.bmp	50r_4g.bmp	1r_2g.bmp	10r_2g.bmp		50r_4g.bmp			TrialProc	TrialList	0	cvbn	-999999	16	322325	0	v	374	322699	318	-304	14	-20	-36	28	42	1	11	104	-8	-50	-1	-10	4	4	2	2	-50	4
Hungry_Donkey_bar_English_2	163	1	<?xml version="1.0"?>\n<Clock xmlns:dt="urn:schemas-microsoft-com:datatypes"><Description dt:dt="string">E-Prime Primary Realtime Clock</Description><StartTime><Timestamp dt:dt="int">0</Timestamp><DateUtc dt:dt="string">2016-08-03T17:37:31Z</DateUtc></StartTime><FrequencyChanges><FrequencyChange><Frequency dt:dt="r8">3507695</Frequency><Timestamp dt:dt="r8">1420089816069</Timestamp><Current dt:dt="r8">0</Current><DateUtc dt:dt="string">2016-08-03T17:37:31Z</DateUtc></FrequencyChange></FrequencyChanges></Clock>\n	Hungry_Donkey_bar_English_2-163-1	60.018	-105	1.0.0.18	1	-1543685080	Standard	2.0.10.353	2.0.10.353	08-03-2016	8/3/2016 5:37:31 PM	13:37:31	2.0.10.248	105	Bar50-50.bmp	51	2	?	0r_4g.bmp	0r_4g.bmp	0r_2g.bmp	0r_2g.bmp		0r_4g.bmp			TrialProc	TrialList	0	cvbn	-999999	17	324725	0	v	3478	328203	322	-304	18	-20	-32	28	42	6	11	105	0	0	0	0	4	4	2	2	0	4
Hungry_Donkey_bar_English_2	163	1	<?xml version="1.0"?>\n<Clock xmlns:dt="urn:schemas-microsoft-com:datatypes"><Description dt:dt="string">E-Prime Primary Realtime Clock</Description><StartTime><Timestamp dt:dt="int">0</Timestamp><DateUtc dt:dt="string">2016-08-03T17:37:31Z</DateUtc></StartTime><FrequencyChanges><FrequencyChange><Frequency dt:dt="r8">3507695</Frequency><Timestamp dt:dt="r8">1420089816069</Timestamp><Current dt:dt="r8">0</Current><DateUtc dt:dt="string">2016-08-03T17:37:31Z</DateUtc></FrequencyChange></FrequencyChanges></Clock>\n	Hungry_Donkey_bar_English_2-163-1	60.018	-105	1.0.0.18	1	-1543685080	Standard	2.0.10.353	2.0.10.353	08-03-2016	8/3/2016 5:37:31 PM	13:37:31	2.0.10.248	106	Bar50-50.bmp	52	2	?	0r_4g.bmp	0r_4g.bmp	0r_2g.bmp	0r_2g.bmp		0r_4g.bmp			TrialProc	TrialList	0	cvbn	-999999	16	330240	0	v	363	330603	326	-304	22	-20	-28	28	42	10	11	106	0	0	0	0	4	4	2	2	0	4
Hungry_Donkey_bar_English_2	163	1	<?xml version="1.0"?>\n<Clock xmlns:dt="urn:schemas-microsoft-com:datatypes"><Description dt:dt="string">E-Prime Primary Realtime Clock</Description><StartTime><Timestamp dt:dt="int">0</Timestamp><DateUtc dt:dt="string">2016-08-03T17:37:31Z</DateUtc></StartTime><FrequencyChanges><FrequencyChange><Frequency dt:dt="r8">3507695</Frequency><Timestamp dt:dt="r8">1420089816069</Timestamp><Current dt:dt="r8">0</Current><DateUtc dt:dt="string">2016-08-03T17:37:31Z</DateUtc></FrequencyChange></FrequencyChanges></Clock>\n	Hungry_Donkey_bar_English_2-163-1	60.018	-105	1.0.0.18	1	-1543685080	Standard	2.0.10.353	2.0.10.353	08-03-2016	8/3/2016 5:37:31 PM	13:37:31	2.0.10.248	107	Bar50-50.bmp	51	1	?	12r_4g.bmp	0r_4g.bmp	3r_2g.bmp	0r_2g.bmp	12r_4g.bmp				TrialProc	TrialList	0	cvbn	-999999	16	332639	0	c	348	332987	330	-316	14	-28	-28	28	42	5	11	107	-12	0	-3	0	4	4	2	2	-12	4
Hungry_Donkey_bar_English_2	163	1	<?xml version="1.0"?>\n<Clock xmlns:dt="urn:schemas-microsoft-com:datatypes"><Description dt:dt="string">E-Prime Primary Realtime Clock</Description><StartTime><Timestamp dt:dt="int">0</Timestamp><DateUtc dt:dt="string">2016-08-03T17:37:31Z</DateUtc></StartTime><FrequencyChanges><FrequencyChange><Frequency dt:dt="r8">3507695</Frequency><Timestamp dt:dt="r8">1420089816069</Timestamp><Current dt:dt="r8">0</Current><DateUtc dt:dt="string">2016-08-03T17:37:31Z</DateUtc></FrequencyChange></FrequencyChanges></Clock>\n	Hungry_Donkey_bar_English_2-163-1	60.018	-105	1.0.0.18	1	-1543685080	Standard	2.0.10.353	2.0.10.353	08-03-2016	8/3/2016 5:37:31 PM	13:37:31	2.0.10.248	108	Bar50-50.bmp	51	4	?	10r_4g.bmp	0r_4g.bmp	2r_2g.bmp	0r_2g.bmp				0r_2g.bmp	TrialProc	TrialList	0	cvbn	-999999	17	335022	0	n	1901	336923	332	-316	16	-28	-28	28	44	4	11	108	-10	0	-2	0	4	4	2	2	0	2
Hungry_Donkey_bar_English_2	163	1	<?xml version="1.0"?>\n<Clock xmlns:dt="urn:schemas-microsoft-com:datatypes"><Description dt:dt="string">E-Prime Primary Realtime Clock</Description><StartTime><Timestamp dt:dt="int">0</Timestamp><DateUtc dt:dt="string">2016-08-03T17:37:31Z</DateUtc></StartTime><FrequencyChanges><FrequencyChange><Frequency dt:dt="r8">3507695</Frequency><Timestamp dt:dt="r8">1420089816069</Timestamp><Current dt:dt="r8">0</Current><DateUtc dt:dt="string">2016-08-03T17:37:31Z</DateUtc></FrequencyChange></FrequencyChanges></Clock>\n	Hungry_Donkey_bar_English_2-163-1	60.018	-105	1.0.0.18	1	-1543685080	Standard	2.0.10.353	2.0.10.353	08-03-2016	8/3/2016 5:37:31 PM	13:37:31	2.0.10.248	109	Bar50-50.bmp	51	3	?	0r_4g.bmp	0r_4g.bmp	0r_2g.bmp	0r_2g.bmp			0r_2g.bmp		TrialProc	TrialList	0	cvbn	-999999	16	338954	0	b	1792	340746	334	-316	18	-28	-28	30	44	8	11	109	0	0	0	0	4	4	2	2	0	2
Hungry_Donkey_bar_English_2	163	1	<?xml version="1.0"?>\n<Clock xmlns:dt="urn:schemas-microsoft-com:datatypes"><Description dt:dt="string">E-Prime Primary Realtime Clock</Description><StartTime><Timestamp dt:dt="int">0</Timestamp><DateUtc dt:dt="string">2016-08-03T17:37:31Z</DateUtc></StartTime><FrequencyChanges><FrequencyChange><Frequency dt:dt="r8">3507695</Frequency><Timestamp dt:dt="r8">1420089816069</Timestamp><Current dt:dt="r8">0</Current><DateUtc dt:dt="string">2016-08-03T17:37:31Z</DateUtc></FrequencyChange></FrequencyChanges></Clock>\n	Hungry_Donkey_bar_English_2-163-1	60.018	-105	1.0.0.18	1	-1543685080	Standard	2.0.10.353	2.0.10.353	08-03-2016	8/3/2016 5:37:31 PM	13:37:31	2.0.10.248	110	Bar50-50.bmp	52	4	?	0r_4g.bmp	0r_4g.bmp	0r_2g.bmp	0r_2g.bmp				0r_2g.bmp	TrialProc	TrialList	0	cvbn	-999999	16	342786	0	n	392	343178	336	-316	20	-28	-28	30	46	7	11	110	0	0	0	0	4	4	2	2	0	2
Hungry_Donkey_bar_English_2	163	1	<?xml version="1.0"?>\n<Clock xmlns:dt="urn:schemas-microsoft-com:datatypes"><Description dt:dt="string">E-Prime Primary Realtime Clock</Description><StartTime><Timestamp dt:dt="int">0</Timestamp><DateUtc dt:dt="string">2016-08-03T17:37:31Z</DateUtc></StartTime><FrequencyChanges><FrequencyChange><Frequency dt:dt="r8">3507695</Frequency><Timestamp dt:dt="r8">1420089816069</Timestamp><Current dt:dt="r8">0</Current><DateUtc dt:dt="string">2016-08-03T17:37:31Z</DateUtc></FrequencyChange></FrequencyChanges></Clock>\n	Hungry_Donkey_bar_English_2-163-1	60.018	-105	1.0.0.18	1	-1543685080	Standard	2.0.10.353	2.0.10.353	08-03-2016	8/3/2016 5:37:31 PM	13:37:31	2.0.10.248	111	Bar50-50.bmp	52	3	?	10r_4g.bmp	0r_4g.bmp	2r_2g.bmp	0r_2g.bmp			2r_2g.bmp		TrialProc	TrialList	0	cvbn	-999999	16	345202	0	b	328	345530	338	-318	20	-28	-28	30	46	2	12	111	-10	0	-2	0	4	4	2	2	-2	2
