ExperimentName	Subject	Session	Clock.Information	DataFile.Basename	Display.RefreshRate	Eindtotaal[Session]	ExperimentVersion	Group	RandomSeed	RuntimeCapabilities	RuntimeVersion	RuntimeVersionExpected	SessionDate	SessionStartDateTimeUtc	SessionTime	StudioVersion	Block	BarImage	BarTotalWinst	DoorChoice	Eindtotaal[Block]	FBDoor1	FBDoor2	FBDoor3	FBDoor4	Image1	Image2	Image3	Image4	Procedure	Running	spel.ACC	spel.CRESP	spel.DurationError	spel.OnsetDelay	spel.OnsetTime	spel.OnsetToOnsetTime	spel.RESP	spel.RT	spel.RTTime	TotalGain	TotalLose	Totalsum	TotalsumD1	TotalsumD2	TotalsumD3	TotalsumD4	TrialList	TrialList.Cycle	TrialList.Sample	varV1	varV2	varV3	varV4	varW1	varW2	varW3	varW4	Verliesbedrag	Winstbedrag
Hungry_Donkey_bar_English_2	170	1	<?xml version="1.0"?>\n<Clock xmlns:dt="urn:schemas-microsoft-com:datatypes"><Description dt:dt="string">E-Prime Primary Realtime Clock</Description><StartTime><Timestamp dt:dt="int">0</Timestamp><DateUtc dt:dt="string">2016-08-29T22:05:52Z</DateUtc></StartTime><FrequencyChanges><FrequencyChange><Frequency dt:dt="r8">3507685</Frequency><Timestamp dt:dt="r8">1218673656108</Timestamp><Current dt:dt="r8">0</Current><DateUtc dt:dt="string">2016-08-29T22:05:52Z</DateUtc></FrequencyChange></FrequencyChanges></Clock>\n	Hungry_Donkey_bar_English_2-170-1	60.017	118	1.0.0.18	1	-1096352572	Standard	2.0.10.353	2.0.10.353	08-29-2016		18:05:52	2.0.10.248	1	Bar37-63.bmp	33	1	?	8r_4g.bmp	50r_4g.bmp	1r_2g.bmp	10r_2g.bmp	8r_4g.bmp				TrialProc	TrialList	0	cvbn	-999999	13	61860	0	c	4210	66070	4	-8	-4	-4	0	0	0	1	1	1	-8	-50	-1	-10	4	4	2	2	-8	4
Hungry_Donkey_bar_English_2	170	1	<?xml version="1.0"?>\n<Clock xmlns:dt="urn:schemas-microsoft-com:datatypes"><Description dt:dt="string">E-Prime Primary Realtime Clock</Description><StartTime><Timestamp dt:dt="int">0</Timestamp><DateUtc dt:dt="string">2016-08-29T22:05:52Z</DateUtc></StartTime><FrequencyChanges><FrequencyChange><Frequency dt:dt="r8">3507685</Frequency><Timestamp dt:dt="r8">1218673656108</Timestamp><Current dt:dt="r8">0</Current><DateUtc dt:dt="string">2016-08-29T22:05:52Z</DateUtc></FrequencyChange></FrequencyChanges></Clock>\n	Hungry_Donkey_bar_English_2-170-1	60.017	118	1.0.0.18	1	-1096352572	Standard	2.0.10.353	2.0.10.353	08-29-2016		18:05:52	2.0.10.248	2	Bar37-63.bmp	43	3	?	0r_4g.bmp	0r_4g.bmp	0r_2g.bmp	0r_2g.bmp			0r_2g.bmp		TrialProc	TrialList	0	cvbn	-999999	16	68108	0	b	6154	74262	6	-8	-2	-4	0	2	0	9	1	2	0	0	0	0	4	4	2	2	0	2
Hungry_Donkey_bar_English_2	170	1	<?xml version="1.0"?>\n<Clock xmlns:dt="urn:schemas-microsoft-com:datatypes"><Description dt:dt="string">E-Prime Primary Realtime Clock</Description><StartTime><Timestamp dt:dt="int">0</Timestamp><DateUtc dt:dt="string">2016-08-29T22:05:52Z</DateUtc></StartTime><FrequencyChanges><FrequencyChange><Frequency dt:dt="r8">3507685</Frequency><Timestamp dt:dt="r8">1218673656108</Timestamp><Current dt:dt="r8">0</Current><DateUtc dt:dt="string">2016-08-29T22:05:52Z</DateUtc></FrequencyChange></FrequencyChanges></Clock>\n	Hungry_Donkey_bar_English_2-170-1	60.017	118	1.0.0.18	1	-1096352572	Standard	2.0.10.353	2.0.10.353	08-29-2016		18:05:52	2.0.10.248	3	Bar50-50.bmp	56	2	?	10r_4g.bmp	0r_4g.bmp	2r_2g.bmp	0r_2g.bmp		0r_4g.bmp			TrialProc	TrialList	0	cvbn	-999999	17	76306	0	v	1524	77830	10	-8	2	-4	4	2	0	2	1	3	-10	0	-2	0	4	4	2	2	0	4
Hungry_Donkey_bar_English_2	170	1	<?xml version="1.0"?>\n<Clock xmlns:dt="urn:schemas-microsoft-com:datatypes"><Description dt:dt="string">E-Prime Primary Realtime Clock</Description><StartTime><Timestamp dt:dt="int">0</Timestamp><DateUtc dt:dt="string">2016-08-29T22:05:52Z</DateUtc></StartTime><FrequencyChanges><FrequencyChange><Frequency dt:dt="r8">3507685</Frequency><Timestamp dt:dt="r8">1218673656108</Timestamp><Current dt:dt="r8">0</Current><DateUtc dt:dt="string">2016-08-29T22:05:52Z</DateUtc></FrequencyChange></FrequencyChanges></Clock>\n	Hungry_Donkey_bar_English_2-170-1	60.017	118	1.0.0.18	1	-1096352572	Standard	2.0.10.353	2.0.10.353	08-29-2016		18:05:52	2.0.10.248	4	Bar63-37.bmp	60	4	?	0r_4g.bmp	0r_4g.bmp	0r_2g.bmp	0r_2g.bmp				0r_2g.bmp	TrialProc	TrialList	0	cvbn	-999999	16	79871	0	n	1335	81206	12	-8	4	-4	4	2	2	7	1	4	0	0	0	0	4	4	2	2	0	2
Hungry_Donkey_bar_English_2	170	1	<?xml version="1.0"?>\n<Clock xmlns:dt="urn:schemas-microsoft-com:datatypes"><Description dt:dt="string">E-Prime Primary Realtime Clock</Description><StartTime><Timestamp dt:dt="int">0</Timestamp><DateUtc dt:dt="string">2016-08-29T22:05:52Z</DateUtc></StartTime><FrequencyChanges><FrequencyChange><Frequency dt:dt="r8">3507685</Frequency><Timestamp dt:dt="r8">1218673656108</Timestamp><Current dt:dt="r8">0</Current><DateUtc dt:dt="string">2016-08-29T22:05:52Z</DateUtc></FrequencyChange></FrequencyChanges></Clock>\n	Hungry_Donkey_bar_English_2-170-1	60.017	118	1.0.0.18	1	-1096352572	Standard	2.0.10.353	2.0.10.353	08-29-2016		18:05:52	2.0.10.248	5	Bar63-37.bmp	58	3	?	10r_4g.bmp	0r_4g.bmp	2r_2g.bmp	0r_2g.bmp			2r_2g.bmp		TrialProc	TrialList	0	cvbn	-999999	16	83237	0	b	656	83893	14	-10	4	-4	4	2	2	3	1	5	-10	0	-2	0	4	4	2	2	-2	2
Hungry_Donkey_bar_English_2	170	1	<?xml version="1.0"?>\n<Clock xmlns:dt="urn:schemas-microsoft-com:datatypes"><Description dt:dt="string">E-Prime Primary Realtime Clock</Description><StartTime><Timestamp dt:dt="int">0</Timestamp><DateUtc dt:dt="string">2016-08-29T22:05:52Z</DateUtc></StartTime><FrequencyChanges><FrequencyChange><Frequency dt:dt="r8">3507685</Frequency><Timestamp dt:dt="r8">1218673656108</Timestamp><Current dt:dt="r8">0</Current><DateUtc dt:dt="string">2016-08-29T22:05:52Z</DateUtc></FrequencyChange></FrequencyChanges></Clock>\n	Hungry_Donkey_bar_English_2-170-1	60.017	118	1.0.0.18	1	-1096352572	Standard	2.0.10.353	2.0.10.353	08-29-2016		18:05:52	2.0.10.248	6	Bar63-37.bmp	64	2	?	0r_4g.bmp	0r_4g.bmp	0r_2g.bmp	0r_2g.bmp		0r_4g.bmp			TrialProc	TrialList	0	cvbn	-999999	16	85936	0	v	597	86533	18	-10	8	-4	8	2	2	8	1	6	0	0	0	0	4	4	2	2	0	4
Hungry_Donkey_bar_English_2	170	1	<?xml version="1.0"?>\n<Clock xmlns:dt="urn:schemas-microsoft-com:datatypes"><Description dt:dt="string">E-Prime Primary Realtime Clock</Description><StartTime><Timestamp dt:dt="int">0</Timestamp><DateUtc dt:dt="string">2016-08-29T22:05:52Z</DateUtc></StartTime><FrequencyChanges><FrequencyChange><Frequency dt:dt="r8">3507685</Frequency><Timestamp dt:dt="r8">1218673656108</Timestamp><Current dt:dt="r8">0</Current><DateUtc dt:dt="string">2016-08-29T22:05:52Z</DateUtc></FrequencyChange></FrequencyChanges></Clock>\n	Hungry_Donkey_bar_English_2-170-1	60.017	118	1.0.0.18	1	-1096352572	Standard	2.0.10.353	2.0.10.353	08-29-2016		18:05:52	2.0.10.248	7	Bar63-37.bmp	69	2	?	0r_4g.bmp	0r_4g.bmp	0r_2g.bmp	0r_2g.bmp		0r_4g.bmp			TrialProc	TrialList	0	cvbn	-999999	16	88569	0	v	444	89013	22	-10	12	-4	12	2	2	10	1	7	0	0	0	0	4	4	2	2	0	4
Hungry_Donkey_bar_English_2	170	1	<?xml version="1.0"?>\n<Clock xmlns:dt="urn:schemas-microsoft-com:datatypes"><Description dt:dt="string">E-Prime Primary Realtime Clock</Description><StartTime><Timestamp dt:dt="int">0</Timestamp><DateUtc dt:dt="string">2016-08-29T22:05:52Z</DateUtc></StartTime><FrequencyChanges><FrequencyChange><Frequency dt:dt="r8">3507685</Frequency><Timestamp dt:dt="r8">1218673656108</Timestamp><Current dt:dt="r8">0</Current><DateUtc dt:dt="string">2016-08-29T22:05:52Z</DateUtc></FrequencyChange></FrequencyChanges></Clock>\n	Hungry_Donkey_bar_English_2-170-1	60.017	118	1.0.0.18	1	-1096352572	Standard	2.0.10.353	2.0.10.353	08-29-2016		18:05:52	2.0.10.248	8	Bar75-25.bmp	72	2	?	12r_4g.bmp	0r_4g.bmp	3r_2g.bmp	0r_2g.bmp		0r_4g.bmp			TrialProc	TrialList	0	cvbn	-999999	16	91051	0	v	58	91109	26	-10	16	-4	16	2	2	5	1	8	-12	0	-3	0	4	4	2	2	0	4
Hungry_Donkey_bar_English_2	170	1	<?xml version="1.0"?>\n<Clock xmlns:dt="urn:schemas-microsoft-com:datatypes"><Description dt:dt="string">E-Prime Primary Realtime Clock</Description><StartTime><Timestamp dt:dt="int">0</Timestamp><DateUtc dt:dt="string">2016-08-29T22:05:52Z</DateUtc></StartTime><FrequencyChanges><FrequencyChange><Frequency dt:dt="r8">3507685</Frequency><Timestamp dt:dt="r8">1218673656108</Timestamp><Current dt:dt="r8">0</Current><DateUtc dt:dt="string">2016-08-29T22:05:52Z</DateUtc></FrequencyChange></FrequencyChanges></Clock>\n	Hungry_Donkey_bar_English_2-170-1	60.017	118	1.0.0.18	1	-1096352572	Standard	2.0.10.353	2.0.10.353	08-29-2016		18:05:52	2.0.10.248	9	Bar75-25.bmp	75	2	?	0r_4g.bmp	0r_4g.bmp	0r_2g.bmp	0r_2g.bmp		0r_4g.bmp			TrialProc	TrialList	0	cvbn	-999999	16	93151	0	v	678	93829	30	-10	20	-4	20	2	2	6	1	9	0	0	0	0	4	4	2	2	0	4
Hungry_Donkey_bar_English_2	170	1	<?xml version="1.0"?>\n<Clock xmlns:dt="urn:schemas-microsoft-com:datatypes"><Description dt:dt="string">E-Prime Primary Realtime Clock</Description><StartTime><Timestamp dt:dt="int">0</Timestamp><DateUtc dt:dt="string">2016-08-29T22:05:52Z</DateUtc></StartTime><FrequencyChanges><FrequencyChange><Frequency dt:dt="r8">3507685</Frequency><Timestamp dt:dt="r8">1218673656108</Timestamp><Current dt:dt="r8">0</Current><DateUtc dt:dt="string">2016-08-29T22:05:52Z</DateUtc></FrequencyChange></FrequencyChanges></Clock>\n	Hungry_Donkey_bar_English_2-170-1	60.017	118	1.0.0.18	1	-1096352572	Standard	2.0.10.353	2.0.10.353	08-29-2016		18:05:52	2.0.10.248	10	Bar63-37.bmp	63	1	?	10r_4g.bmp	0r_4g.bmp	2r_2g.bmp	0r_2g.bmp	10r_4g.bmp				TrialProc	TrialList	0	cvbn	-999999	17	95867	0	c	922	96789	34	-20	14	-10	20	2	2	4	1	10	-10	0	-2	0	4	4	2	2	-10	4
Hungry_Donkey_bar_English_2	170	1	<?xml version="1.0"?>\n<Clock xmlns:dt="urn:schemas-microsoft-com:datatypes"><Description dt:dt="string">E-Prime Primary Realtime Clock</Description><StartTime><Timestamp dt:dt="int">0</Timestamp><DateUtc dt:dt="string">2016-08-29T22:05:52Z</DateUtc></StartTime><FrequencyChanges><FrequencyChange><Frequency dt:dt="r8">3507685</Frequency><Timestamp dt:dt="r8">1218673656108</Timestamp><Current dt:dt="r8">0</Current><DateUtc dt:dt="string">2016-08-29T22:05:52Z</DateUtc></FrequencyChange></FrequencyChanges></Clock>\n	Hungry_Donkey_bar_English_2-170-1	60.017	118	1.0.0.18	1	-1096352572	Standard	2.0.10.353	2.0.10.353	08-29-2016		18:05:52	2.0.10.248	11	Bar63-37.bmp	66	2	?	0r_4g.bmp	0r_4g.bmp	0r_2g.bmp	0r_2g.bmp		0r_4g.bmp			TrialProc	TrialList	0	cvbn	-999999	16	98832	0	v	2116	100948	38	-20	18	-10	24	2	2	7	2	11	0	0	0	0	4	4	2	2	0	4
Hungry_Donkey_bar_English_2	170	1	<?xml version="1.0"?>\n<Clock xmlns:dt="urn:schemas-microsoft-com:datatypes"><Description dt:dt="string">E-Prime Primary Realtime Clock</Description><StartTime><Timestamp dt:dt="int">0</Timestamp><DateUtc dt:dt="string">2016-08-29T22:05:52Z</DateUtc></StartTime><FrequencyChanges><FrequencyChange><Frequency dt:dt="r8">3507685</Frequency><Timestamp dt:dt="r8">1218673656108</Timestamp><Current dt:dt="r8">0</Current><DateUtc dt:dt="string">2016-08-29T22:05:52Z</DateUtc></FrequencyChange></FrequencyChanges></Clock>\n	Hungry_Donkey_bar_English_2-170-1	60.017	118	1.0.0.18	1	-1096352572	Standard	2.0.10.353	2.0.10.353	08-29-2016		18:05:52	2.0.10.248	12	Bar63-37.bmp	68	2	?	0r_4g.bmp	0r_4g.bmp	0r_2g.bmp	0r_2g.bmp		0r_4g.bmp			TrialProc	TrialList	0	cvbn	-999999	16	102981	0	v	431	103412	42	-20	22	-10	28	2	2	9	2	12	0	0	0	0	4	4	2	2	0	4
Hungry_Donkey_bar_English_2	170	1	<?xml version="1.0"?>\n<Clock xmlns:dt="urn:schemas-microsoft-com:datatypes"><Description dt:dt="string">E-Prime Primary Realtime Clock</Description><StartTime><Timestamp dt:dt="int">0</Timestamp><DateUtc dt:dt="string">2016-08-29T22:05:52Z</DateUtc></StartTime><FrequencyChanges><FrequencyChange><Frequency dt:dt="r8">3507685</Frequency><Timestamp dt:dt="r8">1218673656108</Timestamp><Current dt:dt="r8">0</Current><DateUtc dt:dt="string">2016-08-29T22:05:52Z</DateUtc></FrequencyChange></FrequencyChanges></Clock>\n	Hungry_Donkey_bar_English_2-170-1	60.017	118	1.0.0.18	1	-1096352572	Standard	2.0.10.353	2.0.10.353	08-29-2016		18:05:52	2.0.10.248	13	Bar75-25.bmp	70	2	?	10r_4g.bmp	0r_4g.bmp	2r_2g.bmp	0r_2g.bmp		0r_4g.bmp			TrialProc	TrialList	0	cvbn	-999999	16	105447	0	v	653	106100	46	-20	26	-10	32	2	2	2	2	13	-10	0	-2	0	4	4	2	2	0	4
Hungry_Donkey_bar_English_2	170	1	<?xml version="1.0"?>\n<Clock xmlns:dt="urn:schemas-microsoft-com:datatypes"><Description dt:dt="string">E-Prime Primary Realtime Clock</Description><StartTime><Timestamp dt:dt="int">0</Timestamp><DateUtc dt:dt="string">2016-08-29T22:05:52Z</DateUtc></StartTime><FrequencyChanges><FrequencyChange><Frequency dt:dt="r8">3507685</Frequency><Timestamp dt:dt="r8">1218673656108</Timestamp><Current dt:dt="r8">0</Current><DateUtc dt:dt="string">2016-08-29T22:05:52Z</DateUtc></FrequencyChange></FrequencyChanges></Clock>\n	Hungry_Donkey_bar_English_2-170-1	60.017	118	1.0.0.18	1	-1096352572	Standard	2.0.10.353	2.0.10.353	08-29-2016		18:05:52	2.0.10.248	14	Bar63-37.bmp	62	4	?	8r_4g.bmp	50r_4g.bmp	1r_2g.bmp	10r_2g.bmp				10r_2g.bmp	TrialProc	TrialList	0	cvbn	-999999	16	108130	0	n	466	108596	48	-30	18	-10	32	2	-6	1	2	14	-8	-50	-1	-10	4	4	2	2	-10	2
Hungry_Donkey_bar_English_2	170	1	<?xml version="1.0"?>\n<Clock xmlns:dt="urn:schemas-microsoft-com:datatypes"><Description dt:dt="string">E-Prime Primary Realtime Clock</Description><StartTime><Timestamp dt:dt="int">0</Timestamp><DateUtc dt:dt="string">2016-08-29T22:05:52Z</DateUtc></StartTime><FrequencyChanges><FrequencyChange><Frequency dt:dt="r8">3507685</Frequency><Timestamp dt:dt="r8">1218673656108</Timestamp><Current dt:dt="r8">0</Current><DateUtc dt:dt="string">2016-08-29T22:05:52Z</DateUtc></FrequencyChange></FrequencyChanges></Clock>\n	Hungry_Donkey_bar_English_2-170-1	60.017	118	1.0.0.18	1	-1096352572	Standard	2.0.10.353	2.0.10.353	08-29-2016		18:05:52	2.0.10.248	15	Bar63-37.bmp	63	2	?	0r_4g.bmp	0r_4g.bmp	0r_2g.bmp	0r_2g.bmp		0r_4g.bmp			TrialProc	TrialList	0	cvbn	-999999	16	110629	0	v	463	111092	52	-30	22	-10	36	2	-6	6	2	15	0	0	0	0	4	4	2	2	0	4
Hungry_Donkey_bar_English_2	170	1	<?xml version="1.0"?>\n<Clock xmlns:dt="urn:schemas-microsoft-com:datatypes"><Description dt:dt="string">E-Prime Primary Realtime Clock</Description><StartTime><Timestamp dt:dt="int">0</Timestamp><DateUtc dt:dt="string">2016-08-29T22:05:52Z</DateUtc></StartTime><FrequencyChanges><FrequencyChange><Frequency dt:dt="r8">3507685</Frequency><Timestamp dt:dt="r8">1218673656108</Timestamp><Current dt:dt="r8">0</Current><DateUtc dt:dt="string">2016-08-29T22:05:52Z</DateUtc></FrequencyChange></FrequencyChanges></Clock>\n	Hungry_Donkey_bar_English_2-170-1	60.017	118	1.0.0.18	1	-1096352572	Standard	2.0.10.353	2.0.10.353	08-29-2016		18:05:52	2.0.10.248	16	Bar63-37.bmp	65	2	?	0r_4g.bmp	0r_4g.bmp	0r_2g.bmp	0r_2g.bmp		0r_4g.bmp			TrialProc	TrialList	0	cvbn	-999999	16	113128	0	v	540	113668	56	-30	26	-10	40	2	-6	10	2	16	0	0	0	0	4	4	2	2	0	4
Hungry_Donkey_bar_English_2	170	1	<?xml version="1.0"?>\n<Clock xmlns:dt="urn:schemas-microsoft-com:datatypes"><Description dt:dt="string">E-Prime Primary Realtime Clock</Description><StartTime><Timestamp dt:dt="int">0</Timestamp><DateUtc dt:dt="string">2016-08-29T22:05:52Z</DateUtc></StartTime><FrequencyChanges><FrequencyChange><Frequency dt:dt="r8">3507685</Frequency><Timestamp dt:dt="r8">1218673656108</Timestamp><Current dt:dt="r8">0</Current><DateUtc dt:dt="string">2016-08-29T22:05:52Z</DateUtc></FrequencyChange></FrequencyChanges></Clock>\n	Hungry_Donkey_bar_English_2-170-1	60.017	118	1.0.0.18	1	-1096352572	Standard	2.0.10.353	2.0.10.353	08-29-2016		18:05:52	2.0.10.248	17	Bar63-37.bmp	67	2	?	0r_4g.bmp	0r_4g.bmp	0r_2g.bmp	0r_2g.bmp		0r_4g.bmp			TrialProc	TrialList	0	cvbn	-999999	16	115694	0	v	822	116516	60	-30	30	-10	44	2	-6	8	2	17	0	0	0	0	4	4	2	2	0	4
Hungry_Donkey_bar_English_2	170	1	<?xml version="1.0"?>\n<Clock xmlns:dt="urn:schemas-microsoft-com:datatypes"><Description dt:dt="string">E-Prime Primary Realtime Clock</Description><StartTime><Timestamp dt:dt="int">0</Timestamp><DateUtc dt:dt="string">2016-08-29T22:05:52Z</DateUtc></StartTime><FrequencyChanges><FrequencyChange><Frequency dt:dt="r8">3507685</Frequency><Timestamp dt:dt="r8">1218673656108</Timestamp><Current dt:dt="r8">0</Current><DateUtc dt:dt="string">2016-08-29T22:05:52Z</DateUtc></FrequencyChange></FrequencyChanges></Clock>\n	Hungry_Donkey_bar_English_2-170-1	60.017	118	1.0.0.18	1	-1096352572	Standard	2.0.10.353	2.0.10.353	08-29-2016		18:05:52	2.0.10.248	18	Bar63-37.bmp	68	2	?	12r_4g.bmp	0r_4g.bmp	3r_2g.bmp	0r_2g.bmp		0r_4g.bmp			TrialProc	TrialList	0	cvbn	-999999	16	118543	0	v	565	119108	64	-30	34	-10	48	2	-6	5	2	18	-12	0	-3	0	4	4	2	2	0	4
Hungry_Donkey_bar_English_2	170	1	<?xml version="1.0"?>\n<Clock xmlns:dt="urn:schemas-microsoft-com:datatypes"><Description dt:dt="string">E-Prime Primary Realtime Clock</Description><StartTime><Timestamp dt:dt="int">0</Timestamp><DateUtc dt:dt="string">2016-08-29T22:05:52Z</DateUtc></StartTime><FrequencyChanges><FrequencyChange><Frequency dt:dt="r8">3507685</Frequency><Timestamp dt:dt="r8">1218673656108</Timestamp><Current dt:dt="r8">0</Current><DateUtc dt:dt="string">2016-08-29T22:05:52Z</DateUtc></FrequencyChange></FrequencyChanges></Clock>\n	Hungry_Donkey_bar_English_2-170-1	60.017	118	1.0.0.18	1	-1096352572	Standard	2.0.10.353	2.0.10.353	08-29-2016		18:05:52	2.0.10.248	19	Bar63-37.bmp	69	2	?	10r_4g.bmp	0r_4g.bmp	2r_2g.bmp	0r_2g.bmp		0r_4g.bmp			TrialProc	TrialList	0	cvbn	-999999	16	121143	0	v	620	121763	68	-30	38	-10	52	2	-6	3	2	19	-10	0	-2	0	4	4	2	2	0	4
Hungry_Donkey_bar_English_2	170	1	<?xml version="1.0"?>\n<Clock xmlns:dt="urn:schemas-microsoft-com:datatypes"><Description dt:dt="string">E-Prime Primary Realtime Clock</Description><StartTime><Timestamp dt:dt="int">0</Timestamp><DateUtc dt:dt="string">2016-08-29T22:05:52Z</DateUtc></StartTime><FrequencyChanges><FrequencyChange><Frequency dt:dt="r8">3507685</Frequency><Timestamp dt:dt="r8">1218673656108</Timestamp><Current dt:dt="r8">0</Current><DateUtc dt:dt="string">2016-08-29T22:05:52Z</DateUtc></FrequencyChange></FrequencyChanges></Clock>\n	Hungry_Donkey_bar_English_2-170-1	60.017	118	1.0.0.18	1	-1096352572	Standard	2.0.10.353	2.0.10.353	08-29-2016		18:05:52	2.0.10.248	20	Bar75-25.bmp	71	2	?	10r_4g.bmp	0r_4g.bmp	2r_2g.bmp	0r_2g.bmp		0r_4g.bmp			TrialProc	TrialList	0	cvbn	-999999	16	123792	0	v	531	124323	72	-30	42	-10	56	2	-6	4	2	20	-10	0	-2	0	4	4	2	2	0	4
Hungry_Donkey_bar_English_2	170	1	<?xml version="1.0"?>\n<Clock xmlns:dt="urn:schemas-microsoft-com:datatypes"><Description dt:dt="string">E-Prime Primary Realtime Clock</Description><StartTime><Timestamp dt:dt="int">0</Timestamp><DateUtc dt:dt="string">2016-08-29T22:05:52Z</DateUtc></StartTime><FrequencyChanges><FrequencyChange><Frequency dt:dt="r8">3507685</Frequency><Timestamp dt:dt="r8">1218673656108</Timestamp><Current dt:dt="r8">0</Current><DateUtc dt:dt="string">2016-08-29T22:05:52Z</DateUtc></FrequencyChange></FrequencyChanges></Clock>\n	Hungry_Donkey_bar_English_2-170-1	60.017	118	1.0.0.18	1	-1096352572	Standard	2.0.10.353	2.0.10.353	08-29-2016		18:05:52	2.0.10.248	21	Bar50-50.bmp	49	2	?	8r_4g.bmp	50r_4g.bmp	1r_2g.bmp	10r_2g.bmp		50r_4g.bmp			TrialProc	TrialList	0	cvbn	-999999	16	126358	0	v	61	126419	76	-80	-4	-10	10	2	-6	1	3	21	-8	-50	-1	-10	4	4	2	2	-50	4
Hungry_Donkey_bar_English_2	170	1	<?xml version="1.0"?>\n<Clock xmlns:dt="urn:schemas-microsoft-com:datatypes"><Description dt:dt="string">E-Prime Primary Realtime Clock</Description><StartTime><Timestamp dt:dt="int">0</Timestamp><DateUtc dt:dt="string">2016-08-29T22:05:52Z</DateUtc></StartTime><FrequencyChanges><FrequencyChange><Frequency dt:dt="r8">3507685</Frequency><Timestamp dt:dt="r8">1218673656108</Timestamp><Current dt:dt="r8">0</Current><DateUtc dt:dt="string">2016-08-29T22:05:52Z</DateUtc></FrequencyChange></FrequencyChanges></Clock>\n	Hungry_Donkey_bar_English_2-170-1	60.017	118	1.0.0.18	1	-1096352572	Standard	2.0.10.353	2.0.10.353	08-29-2016		18:05:52	2.0.10.248	22	Bar50-50.bmp	50	1	?	0r_4g.bmp	0r_4g.bmp	0r_2g.bmp	0r_2g.bmp	0r_4g.bmp				TrialProc	TrialList	0	cvbn	-999999	16	128457	0	c	762	129219	80	-80	0	-6	10	2	-6	6	3	22	0	0	0	0	4	4	2	2	0	4
Hungry_Donkey_bar_English_2	170	1	<?xml version="1.0"?>\n<Clock xmlns:dt="urn:schemas-microsoft-com:datatypes"><Description dt:dt="string">E-Prime Primary Realtime Clock</Description><StartTime><Timestamp dt:dt="int">0</Timestamp><DateUtc dt:dt="string">2016-08-29T22:05:52Z</DateUtc></StartTime><FrequencyChanges><FrequencyChange><Frequency dt:dt="r8">3507685</Frequency><Timestamp dt:dt="r8">1218673656108</Timestamp><Current dt:dt="r8">0</Current><DateUtc dt:dt="string">2016-08-29T22:05:52Z</DateUtc></FrequencyChange></FrequencyChanges></Clock>\n	Hungry_Donkey_bar_English_2-170-1	60.017	118	1.0.0.18	1	-1096352572	Standard	2.0.10.353	2.0.10.353	08-29-2016		18:05:52	2.0.10.248	23	Bar50-50.bmp	48	1	?	10r_4g.bmp	0r_4g.bmp	2r_2g.bmp	0r_2g.bmp	10r_4g.bmp				TrialProc	TrialList	0	cvbn	-999999	16	131256	0	c	667	131923	84	-90	-6	-12	10	2	-6	2	3	23	-10	0	-2	0	4	4	2	2	-10	4
Hungry_Donkey_bar_English_2	170	1	<?xml version="1.0"?>\n<Clock xmlns:dt="urn:schemas-microsoft-com:datatypes"><Description dt:dt="string">E-Prime Primary Realtime Clock</Description><StartTime><Timestamp dt:dt="int">0</Timestamp><DateUtc dt:dt="string">2016-08-29T22:05:52Z</DateUtc></StartTime><FrequencyChanges><FrequencyChange><Frequency dt:dt="r8">3507685</Frequency><Timestamp dt:dt="r8">1218673656108</Timestamp><Current dt:dt="r8">0</Current><DateUtc dt:dt="string">2016-08-29T22:05:52Z</DateUtc></FrequencyChange></FrequencyChanges></Clock>\n	Hungry_Donkey_bar_English_2-170-1	60.017	118	1.0.0.18	1	-1096352572	Standard	2.0.10.353	2.0.10.353	08-29-2016		18:05:52	2.0.10.248	24	Bar50-50.bmp	49	2	?	10r_4g.bmp	0r_4g.bmp	2r_2g.bmp	0r_2g.bmp		0r_4g.bmp			TrialProc	TrialList	0	cvbn	-999999	17	133956	0	v	223	134179	88	-90	-2	-12	14	2	-6	4	3	24	-10	0	-2	0	4	4	2	2	0	4
Hungry_Donkey_bar_English_2	170	1	<?xml version="1.0"?>\n<Clock xmlns:dt="urn:schemas-microsoft-com:datatypes"><Description dt:dt="string">E-Prime Primary Realtime Clock</Description><StartTime><Timestamp dt:dt="int">0</Timestamp><DateUtc dt:dt="string">2016-08-29T22:05:52Z</DateUtc></StartTime><FrequencyChanges><FrequencyChange><Frequency dt:dt="r8">3507685</Frequency><Timestamp dt:dt="r8">1218673656108</Timestamp><Current dt:dt="r8">0</Current><DateUtc dt:dt="string">2016-08-29T22:05:52Z</DateUtc></FrequencyChange></FrequencyChanges></Clock>\n	Hungry_Donkey_bar_English_2-170-1	60.017	118	1.0.0.18	1	-1096352572	Standard	2.0.10.353	2.0.10.353	08-29-2016		18:05:52	2.0.10.248	25	Bar50-50.bmp	51	2	?	0r_4g.bmp	0r_4g.bmp	0r_2g.bmp	0r_2g.bmp		0r_4g.bmp			TrialProc	TrialList	0	cvbn	-999999	16	136205	0	v	534	136739	92	-90	2	-12	18	2	-6	10	3	25	0	0	0	0	4	4	2	2	0	4
Hungry_Donkey_bar_English_2	170	1	<?xml version="1.0"?>\n<Clock xmlns:dt="urn:schemas-microsoft-com:datatypes"><Description dt:dt="string">E-Prime Primary Realtime Clock</Description><StartTime><Timestamp dt:dt="int">0</Timestamp><DateUtc dt:dt="string">2016-08-29T22:05:52Z</DateUtc></StartTime><FrequencyChanges><FrequencyChange><Frequency dt:dt="r8">3507685</Frequency><Timestamp dt:dt="r8">1218673656108</Timestamp><Current dt:dt="r8">0</Current><DateUtc dt:dt="string">2016-08-29T22:05:52Z</DateUtc></FrequencyChange></FrequencyChanges></Clock>\n	Hungry_Donkey_bar_English_2-170-1	60.017	118	1.0.0.18	1	-1096352572	Standard	2.0.10.353	2.0.10.353	08-29-2016		18:05:52	2.0.10.248	26	Bar50-50.bmp	51	3	?	0r_4g.bmp	0r_4g.bmp	0r_2g.bmp	0r_2g.bmp			0r_2g.bmp		TrialProc	TrialList	0	cvbn	-999999	16	138771	0	b	1375	140146	94	-90	4	-12	18	4	-6	9	3	26	0	0	0	0	4	4	2	2	0	2
Hungry_Donkey_bar_English_2	170	1	<?xml version="1.0"?>\n<Clock xmlns:dt="urn:schemas-microsoft-com:datatypes"><Description dt:dt="string">E-Prime Primary Realtime Clock</Description><StartTime><Timestamp dt:dt="int">0</Timestamp><DateUtc dt:dt="string">2016-08-29T22:05:52Z</DateUtc></StartTime><FrequencyChanges><FrequencyChange><Frequency dt:dt="r8">3507685</Frequency><Timestamp dt:dt="r8">1218673656108</Timestamp><Current dt:dt="r8">0</Current><DateUtc dt:dt="string">2016-08-29T22:05:52Z</DateUtc></FrequencyChange></FrequencyChanges></Clock>\n	Hungry_Donkey_bar_English_2-170-1	60.017	118	1.0.0.18	1	-1096352572	Standard	2.0.10.353	2.0.10.353	08-29-2016		18:05:52	2.0.10.248	27	Bar50-50.bmp	52	4	?	12r_4g.bmp	0r_4g.bmp	3r_2g.bmp	0r_2g.bmp				0r_2g.bmp	TrialProc	TrialList	0	cvbn	-999999	16	142170	0	n	2056	144226	96	-90	6	-12	18	4	-4	5	3	27	-12	0	-3	0	4	4	2	2	0	2
Hungry_Donkey_bar_English_2	170	1	<?xml version="1.0"?>\n<Clock xmlns:dt="urn:schemas-microsoft-com:datatypes"><Description dt:dt="string">E-Prime Primary Realtime Clock</Description><StartTime><Timestamp dt:dt="int">0</Timestamp><DateUtc dt:dt="string">2016-08-29T22:05:52Z</DateUtc></StartTime><FrequencyChanges><FrequencyChange><Frequency dt:dt="r8">3507685</Frequency><Timestamp dt:dt="r8">1218673656108</Timestamp><Current dt:dt="r8">0</Current><DateUtc dt:dt="string">2016-08-29T22:05:52Z</DateUtc></FrequencyChange></FrequencyChanges></Clock>\n	Hungry_Donkey_bar_English_2-170-1	60.017	118	1.0.0.18	1	-1096352572	Standard	2.0.10.353	2.0.10.353	08-29-2016		18:05:52	2.0.10.248	28	Bar50-50.bmp	53	1	?	0r_4g.bmp	0r_4g.bmp	0r_2g.bmp	0r_2g.bmp	0r_4g.bmp				TrialProc	TrialList	0	cvbn	-999999	16	146252	0	c	934	147186	100	-90	10	-8	18	4	-4	8	3	28	0	0	0	0	4	4	2	2	0	4
Hungry_Donkey_bar_English_2	170	1	<?xml version="1.0"?>\n<Clock xmlns:dt="urn:schemas-microsoft-com:datatypes"><Description dt:dt="string">E-Prime Primary Realtime Clock</Description><StartTime><Timestamp dt:dt="int">0</Timestamp><DateUtc dt:dt="string">2016-08-29T22:05:52Z</DateUtc></StartTime><FrequencyChanges><FrequencyChange><Frequency dt:dt="r8">3507685</Frequency><Timestamp dt:dt="r8">1218673656108</Timestamp><Current dt:dt="r8">0</Current><DateUtc dt:dt="string">2016-08-29T22:05:52Z</DateUtc></FrequencyChange></FrequencyChanges></Clock>\n	Hungry_Donkey_bar_English_2-170-1	60.017	118	1.0.0.18	1	-1096352572	Standard	2.0.10.353	2.0.10.353	08-29-2016		18:05:52	2.0.10.248	29	Bar50-50.bmp	53	3	?	0r_4g.bmp	0r_4g.bmp	0r_2g.bmp	0r_2g.bmp			0r_2g.bmp		TrialProc	TrialList	0	cvbn	-999999	16	149218	0	b	48	149266	102	-90	12	-8	18	6	-4	7	3	29	0	0	0	0	4	4	2	2	0	2
Hungry_Donkey_bar_English_2	170	1	<?xml version="1.0"?>\n<Clock xmlns:dt="urn:schemas-microsoft-com:datatypes"><Description dt:dt="string">E-Prime Primary Realtime Clock</Description><StartTime><Timestamp dt:dt="int">0</Timestamp><DateUtc dt:dt="string">2016-08-29T22:05:52Z</DateUtc></StartTime><FrequencyChanges><FrequencyChange><Frequency dt:dt="r8">3507685</Frequency><Timestamp dt:dt="r8">1218673656108</Timestamp><Current dt:dt="r8">0</Current><DateUtc dt:dt="string">2016-08-29T22:05:52Z</DateUtc></FrequencyChange></FrequencyChanges></Clock>\n	Hungry_Donkey_bar_English_2-170-1	60.017	118	1.0.0.18	1	-1096352572	Standard	2.0.10.353	2.0.10.353	08-29-2016		18:05:52	2.0.10.248	30	Bar50-50.bmp	54	2	?	10r_4g.bmp	0r_4g.bmp	2r_2g.bmp	0r_2g.bmp		0r_4g.bmp			TrialProc	TrialList	0	cvbn	-999999	17	151301	0	v	621	151922	106	-90	16	-8	22	6	-4	3	3	30	-10	0	-2	0	4	4	2	2	0	4
Hungry_Donkey_bar_English_2	170	1	<?xml version="1.0"?>\n<Clock xmlns:dt="urn:schemas-microsoft-com:datatypes"><Description dt:dt="string">E-Prime Primary Realtime Clock</Description><StartTime><Timestamp dt:dt="int">0</Timestamp><DateUtc dt:dt="string">2016-08-29T22:05:52Z</DateUtc></StartTime><FrequencyChanges><FrequencyChange><Frequency dt:dt="r8">3507685</Frequency><Timestamp dt:dt="r8">1218673656108</Timestamp><Current dt:dt="r8">0</Current><DateUtc dt:dt="string">2016-08-29T22:05:52Z</DateUtc></FrequencyChange></FrequencyChanges></Clock>\n	Hungry_Donkey_bar_English_2-170-1	60.017	118	1.0.0.18	1	-1096352572	Standard	2.0.10.353	2.0.10.353	08-29-2016		18:05:52	2.0.10.248	31	Bar50-50.bmp	55	2	?	0r_4g.bmp	0r_4g.bmp	0r_2g.bmp	0r_2g.bmp		0r_4g.bmp			TrialProc	TrialList	0	cvbn	-999999	16	153950	0	v	100	154050	110	-90	20	-8	26	6	-4	9	4	31	0	0	0	0	4	4	2	2	0	4
Hungry_Donkey_bar_English_2	170	1	<?xml version="1.0"?>\n<Clock xmlns:dt="urn:schemas-microsoft-com:datatypes"><Description dt:dt="string">E-Prime Primary Realtime Clock</Description><StartTime><Timestamp dt:dt="int">0</Timestamp><DateUtc dt:dt="string">2016-08-29T22:05:52Z</DateUtc></StartTime><FrequencyChanges><FrequencyChange><Frequency dt:dt="r8">3507685</Frequency><Timestamp dt:dt="r8">1218673656108</Timestamp><Current dt:dt="r8">0</Current><DateUtc dt:dt="string">2016-08-29T22:05:52Z</DateUtc></FrequencyChange></FrequencyChanges></Clock>\n	Hungry_Donkey_bar_English_2-170-1	60.017	118	1.0.0.18	1	-1096352572	Standard	2.0.10.353	2.0.10.353	08-29-2016		18:05:52	2.0.10.248	32	Bar50-50.bmp	56	2	?	10r_4g.bmp	0r_4g.bmp	2r_2g.bmp	0r_2g.bmp		0r_4g.bmp			TrialProc	TrialList	0	cvbn	-999999	17	156083	0	v	239	156322	114	-90	24	-8	30	6	-4	2	4	32	-10	0	-2	0	4	4	2	2	0	4
Hungry_Donkey_bar_English_2	170	1	<?xml version="1.0"?>\n<Clock xmlns:dt="urn:schemas-microsoft-com:datatypes"><Description dt:dt="string">E-Prime Primary Realtime Clock</Description><StartTime><Timestamp dt:dt="int">0</Timestamp><DateUtc dt:dt="string">2016-08-29T22:05:52Z</DateUtc></StartTime><FrequencyChanges><FrequencyChange><Frequency dt:dt="r8">3507685</Frequency><Timestamp dt:dt="r8">1218673656108</Timestamp><Current dt:dt="r8">0</Current><DateUtc dt:dt="string">2016-08-29T22:05:52Z</DateUtc></FrequencyChange></FrequencyChanges></Clock>\n	Hungry_Donkey_bar_English_2-170-1	60.017	118	1.0.0.18	1	-1096352572	Standard	2.0.10.353	2.0.10.353	08-29-2016		18:05:52	2.0.10.248	33	Bar50-50.bmp	56	3	?	10r_4g.bmp	0r_4g.bmp	2r_2g.bmp	0r_2g.bmp			2r_2g.bmp		TrialProc	TrialList	0	cvbn	-999999	17	158349	0	b	533	158882	116	-92	24	-8	30	6	-4	3	4	33	-10	0	-2	0	4	4	2	2	-2	2
Hungry_Donkey_bar_English_2	170	1	<?xml version="1.0"?>\n<Clock xmlns:dt="urn:schemas-microsoft-com:datatypes"><Description dt:dt="string">E-Prime Primary Realtime Clock</Description><StartTime><Timestamp dt:dt="int">0</Timestamp><DateUtc dt:dt="string">2016-08-29T22:05:52Z</DateUtc></StartTime><FrequencyChanges><FrequencyChange><Frequency dt:dt="r8">3507685</Frequency><Timestamp dt:dt="r8">1218673656108</Timestamp><Current dt:dt="r8">0</Current><DateUtc dt:dt="string">2016-08-29T22:05:52Z</DateUtc></FrequencyChange></FrequencyChanges></Clock>\n	Hungry_Donkey_bar_English_2-170-1	60.017	118	1.0.0.18	1	-1096352572	Standard	2.0.10.353	2.0.10.353	08-29-2016		18:05:52	2.0.10.248	34	Bar50-50.bmp	54	4	?	8r_4g.bmp	50r_4g.bmp	1r_2g.bmp	10r_2g.bmp				10r_2g.bmp	TrialProc	TrialList	0	cvbn	-999999	16	160914	0	n	383	161297	118	-102	16	-8	30	6	-12	1	4	34	-8	-50	-1	-10	4	4	2	2	-10	2
Hungry_Donkey_bar_English_2	170	1	<?xml version="1.0"?>\n<Clock xmlns:dt="urn:schemas-microsoft-com:datatypes"><Description dt:dt="string">E-Prime Primary Realtime Clock</Description><StartTime><Timestamp dt:dt="int">0</Timestamp><DateUtc dt:dt="string">2016-08-29T22:05:52Z</DateUtc></StartTime><FrequencyChanges><FrequencyChange><Frequency dt:dt="r8">3507685</Frequency><Timestamp dt:dt="r8">1218673656108</Timestamp><Current dt:dt="r8">0</Current><DateUtc dt:dt="string">2016-08-29T22:05:52Z</DateUtc></FrequencyChange></FrequencyChanges></Clock>\n	Hungry_Donkey_bar_English_2-170-1	60.017	118	1.0.0.18	1	-1096352572	Standard	2.0.10.353	2.0.10.353	08-29-2016		18:05:52	2.0.10.248	35	Bar50-50.bmp	54	4	?	0r_4g.bmp	0r_4g.bmp	0r_2g.bmp	0r_2g.bmp				0r_2g.bmp	TrialProc	TrialList	0	cvbn	-999999	16	163330	0	n	399	163729	120	-102	18	-8	30	6	-10	7	4	35	0	0	0	0	4	4	2	2	0	2
Hungry_Donkey_bar_English_2	170	1	<?xml version="1.0"?>\n<Clock xmlns:dt="urn:schemas-microsoft-com:datatypes"><Description dt:dt="string">E-Prime Primary Realtime Clock</Description><StartTime><Timestamp dt:dt="int">0</Timestamp><DateUtc dt:dt="string">2016-08-29T22:05:52Z</DateUtc></StartTime><FrequencyChanges><FrequencyChange><Frequency dt:dt="r8">3507685</Frequency><Timestamp dt:dt="r8">1218673656108</Timestamp><Current dt:dt="r8">0</Current><DateUtc dt:dt="string">2016-08-29T22:05:52Z</DateUtc></FrequencyChange></FrequencyChanges></Clock>\n	Hungry_Donkey_bar_English_2-170-1	60.017	118	1.0.0.18	1	-1096352572	Standard	2.0.10.353	2.0.10.353	08-29-2016		18:05:52	2.0.10.248	36	Bar50-50.bmp	52	1	?	12r_4g.bmp	0r_4g.bmp	3r_2g.bmp	0r_2g.bmp	12r_4g.bmp				TrialProc	TrialList	0	cvbn	-999999	16	165763	0	c	526	166289	124	-114	10	-16	30	6	-10	5	4	36	-12	0	-3	0	4	4	2	2	-12	4
Hungry_Donkey_bar_English_2	170	1	<?xml version="1.0"?>\n<Clock xmlns:dt="urn:schemas-microsoft-com:datatypes"><Description dt:dt="string">E-Prime Primary Realtime Clock</Description><StartTime><Timestamp dt:dt="int">0</Timestamp><DateUtc dt:dt="string">2016-08-29T22:05:52Z</DateUtc></StartTime><FrequencyChanges><FrequencyChange><Frequency dt:dt="r8">3507685</Frequency><Timestamp dt:dt="r8">1218673656108</Timestamp><Current dt:dt="r8">0</Current><DateUtc dt:dt="string">2016-08-29T22:05:52Z</DateUtc></FrequencyChange></FrequencyChanges></Clock>\n	Hungry_Donkey_bar_English_2-170-1	60.017	118	1.0.0.18	1	-1096352572	Standard	2.0.10.353	2.0.10.353	08-29-2016		18:05:52	2.0.10.248	37	Bar50-50.bmp	53	2	?	0r_4g.bmp	0r_4g.bmp	0r_2g.bmp	0r_2g.bmp		0r_4g.bmp			TrialProc	TrialList	0	cvbn	-999999	16	168329	0	v	408	168737	128	-114	14	-16	34	6	-10	10	4	37	0	0	0	0	4	4	2	2	0	4
Hungry_Donkey_bar_English_2	170	1	<?xml version="1.0"?>\n<Clock xmlns:dt="urn:schemas-microsoft-com:datatypes"><Description dt:dt="string">E-Prime Primary Realtime Clock</Description><StartTime><Timestamp dt:dt="int">0</Timestamp><DateUtc dt:dt="string">2016-08-29T22:05:52Z</DateUtc></StartTime><FrequencyChanges><FrequencyChange><Frequency dt:dt="r8">3507685</Frequency><Timestamp dt:dt="r8">1218673656108</Timestamp><Current dt:dt="r8">0</Current><DateUtc dt:dt="string">2016-08-29T22:05:52Z</DateUtc></FrequencyChange></FrequencyChanges></Clock>\n	Hungry_Donkey_bar_English_2-170-1	60.017	118	1.0.0.18	1	-1096352572	Standard	2.0.10.353	2.0.10.353	08-29-2016		18:05:52	2.0.10.248	38	Bar50-50.bmp	54	2	?	10r_4g.bmp	0r_4g.bmp	2r_2g.bmp	0r_2g.bmp		0r_4g.bmp			TrialProc	TrialList	0	cvbn	-999999	16	170762	0	v	279	171041	132	-114	18	-16	38	6	-10	4	4	38	-10	0	-2	0	4	4	2	2	0	4
Hungry_Donkey_bar_English_2	170	1	<?xml version="1.0"?>\n<Clock xmlns:dt="urn:schemas-microsoft-com:datatypes"><Description dt:dt="string">E-Prime Primary Realtime Clock</Description><StartTime><Timestamp dt:dt="int">0</Timestamp><DateUtc dt:dt="string">2016-08-29T22:05:52Z</DateUtc></StartTime><FrequencyChanges><FrequencyChange><Frequency dt:dt="r8">3507685</Frequency><Timestamp dt:dt="r8">1218673656108</Timestamp><Current dt:dt="r8">0</Current><DateUtc dt:dt="string">2016-08-29T22:05:52Z</DateUtc></FrequencyChange></FrequencyChanges></Clock>\n	Hungry_Donkey_bar_English_2-170-1	60.017	118	1.0.0.18	1	-1096352572	Standard	2.0.10.353	2.0.10.353	08-29-2016		18:05:52	2.0.10.248	39	Bar50-50.bmp	54	2	?	0r_4g.bmp	0r_4g.bmp	0r_2g.bmp	0r_2g.bmp		0r_4g.bmp			TrialProc	TrialList	0	cvbn	-999999	16	173078	0	v	75	173153	136	-114	22	-16	42	6	-10	8	4	39	0	0	0	0	4	4	2	2	0	4
Hungry_Donkey_bar_English_2	170	1	<?xml version="1.0"?>\n<Clock xmlns:dt="urn:schemas-microsoft-com:datatypes"><Description dt:dt="string">E-Prime Primary Realtime Clock</Description><StartTime><Timestamp dt:dt="int">0</Timestamp><DateUtc dt:dt="string">2016-08-29T22:05:52Z</DateUtc></StartTime><FrequencyChanges><FrequencyChange><Frequency dt:dt="r8">3507685</Frequency><Timestamp dt:dt="r8">1218673656108</Timestamp><Current dt:dt="r8">0</Current><DateUtc dt:dt="string">2016-08-29T22:05:52Z</DateUtc></FrequencyChange></FrequencyChanges></Clock>\n	Hungry_Donkey_bar_English_2-170-1	60.017	118	1.0.0.18	1	-1096352572	Standard	2.0.10.353	2.0.10.353	08-29-2016		18:05:52	2.0.10.248	40	Bar50-50.bmp	55	2	?	0r_4g.bmp	0r_4g.bmp	0r_2g.bmp	0r_2g.bmp		0r_4g.bmp			TrialProc	TrialList	0	cvbn	-999999	16	175177	0	v	56	175233	140	-114	26	-16	46	6	-10	6	4	40	0	0	0	0	4	4	2	2	0	4
Hungry_Donkey_bar_English_2	170	1	<?xml version="1.0"?>\n<Clock xmlns:dt="urn:schemas-microsoft-com:datatypes"><Description dt:dt="string">E-Prime Primary Realtime Clock</Description><StartTime><Timestamp dt:dt="int">0</Timestamp><DateUtc dt:dt="string">2016-08-29T22:05:52Z</DateUtc></StartTime><FrequencyChanges><FrequencyChange><Frequency dt:dt="r8">3507685</Frequency><Timestamp dt:dt="r8">1218673656108</Timestamp><Current dt:dt="r8">0</Current><DateUtc dt:dt="string">2016-08-29T22:05:52Z</DateUtc></FrequencyChange></FrequencyChanges></Clock>\n	Hungry_Donkey_bar_English_2-170-1	60.017	118	1.0.0.18	1	-1096352572	Standard	2.0.10.353	2.0.10.353	08-29-2016		18:05:52	2.0.10.248	41	Bar50-50.bmp	56	2	?	12r_4g.bmp	0r_4g.bmp	3r_2g.bmp	0r_2g.bmp		0r_4g.bmp			TrialProc	TrialList	0	cvbn	-999999	16	177260	0	v	741	178001	144	-114	30	-16	50	6	-10	5	5	41	-12	0	-3	0	4	4	2	2	0	4
Hungry_Donkey_bar_English_2	170	1	<?xml version="1.0"?>\n<Clock xmlns:dt="urn:schemas-microsoft-com:datatypes"><Description dt:dt="string">E-Prime Primary Realtime Clock</Description><StartTime><Timestamp dt:dt="int">0</Timestamp><DateUtc dt:dt="string">2016-08-29T22:05:52Z</DateUtc></StartTime><FrequencyChanges><FrequencyChange><Frequency dt:dt="r8">3507685</Frequency><Timestamp dt:dt="r8">1218673656108</Timestamp><Current dt:dt="r8">0</Current><DateUtc dt:dt="string">2016-08-29T22:05:52Z</DateUtc></FrequencyChange></FrequencyChanges></Clock>\n	Hungry_Donkey_bar_English_2-170-1	60.017	118	1.0.0.18	1	-1096352572	Standard	2.0.10.353	2.0.10.353	08-29-2016		18:05:52	2.0.10.248	42	Bar50-50.bmp	56	2	?	10r_4g.bmp	0r_4g.bmp	2r_2g.bmp	0r_2g.bmp		0r_4g.bmp			TrialProc	TrialList	0	cvbn	-999999	16	180026	0	v	390	180416	148	-114	34	-16	54	6	-10	4	5	42	-10	0	-2	0	4	4	2	2	0	4
Hungry_Donkey_bar_English_2	170	1	<?xml version="1.0"?>\n<Clock xmlns:dt="urn:schemas-microsoft-com:datatypes"><Description dt:dt="string">E-Prime Primary Realtime Clock</Description><StartTime><Timestamp dt:dt="int">0</Timestamp><DateUtc dt:dt="string">2016-08-29T22:05:52Z</DateUtc></StartTime><FrequencyChanges><FrequencyChange><Frequency dt:dt="r8">3507685</Frequency><Timestamp dt:dt="r8">1218673656108</Timestamp><Current dt:dt="r8">0</Current><DateUtc dt:dt="string">2016-08-29T22:05:52Z</DateUtc></FrequencyChange></FrequencyChanges></Clock>\n	Hungry_Donkey_bar_English_2-170-1	60.017	118	1.0.0.18	1	-1096352572	Standard	2.0.10.353	2.0.10.353	08-29-2016		18:05:52	2.0.10.248	43	Bar63-37.bmp	57	2	?	0r_4g.bmp	0r_4g.bmp	0r_2g.bmp	0r_2g.bmp		0r_4g.bmp			TrialProc	TrialList	0	cvbn	-999999	17	182442	0	v	566	183008	152	-114	38	-16	58	6	-10	8	5	43	0	0	0	0	4	4	2	2	0	4
Hungry_Donkey_bar_English_2	170	1	<?xml version="1.0"?>\n<Clock xmlns:dt="urn:schemas-microsoft-com:datatypes"><Description dt:dt="string">E-Prime Primary Realtime Clock</Description><StartTime><Timestamp dt:dt="int">0</Timestamp><DateUtc dt:dt="string">2016-08-29T22:05:52Z</DateUtc></StartTime><FrequencyChanges><FrequencyChange><Frequency dt:dt="r8">3507685</Frequency><Timestamp dt:dt="r8">1218673656108</Timestamp><Current dt:dt="r8">0</Current><DateUtc dt:dt="string">2016-08-29T22:05:52Z</DateUtc></FrequencyChange></FrequencyChanges></Clock>\n	Hungry_Donkey_bar_English_2-170-1	60.017	118	1.0.0.18	1	-1096352572	Standard	2.0.10.353	2.0.10.353	08-29-2016		18:05:52	2.0.10.248	44	Bar63-37.bmp	58	2	?	10r_4g.bmp	0r_4g.bmp	2r_2g.bmp	0r_2g.bmp		0r_4g.bmp			TrialProc	TrialList	0	cvbn	-999999	16	185041	0	v	751	185792	156	-114	42	-16	62	6	-10	3	5	44	-10	0	-2	0	4	4	2	2	0	4
Hungry_Donkey_bar_English_2	170	1	<?xml version="1.0"?>\n<Clock xmlns:dt="urn:schemas-microsoft-com:datatypes"><Description dt:dt="string">E-Prime Primary Realtime Clock</Description><StartTime><Timestamp dt:dt="int">0</Timestamp><DateUtc dt:dt="string">2016-08-29T22:05:52Z</DateUtc></StartTime><FrequencyChanges><FrequencyChange><Frequency dt:dt="r8">3507685</Frequency><Timestamp dt:dt="r8">1218673656108</Timestamp><Current dt:dt="r8">0</Current><DateUtc dt:dt="string">2016-08-29T22:05:52Z</DateUtc></FrequencyChange></FrequencyChanges></Clock>\n	Hungry_Donkey_bar_English_2-170-1	60.017	118	1.0.0.18	1	-1096352572	Standard	2.0.10.353	2.0.10.353	08-29-2016		18:05:52	2.0.10.248	45	Bar63-37.bmp	58	2	?	0r_4g.bmp	0r_4g.bmp	0r_2g.bmp	0r_2g.bmp		0r_4g.bmp			TrialProc	TrialList	0	cvbn	-999999	16	187823	0	v	673	188496	160	-114	46	-16	66	6	-10	10	5	45	0	0	0	0	4	4	2	2	0	4
Hungry_Donkey_bar_English_2	170	1	<?xml version="1.0"?>\n<Clock xmlns:dt="urn:schemas-microsoft-com:datatypes"><Description dt:dt="string">E-Prime Primary Realtime Clock</Description><StartTime><Timestamp dt:dt="int">0</Timestamp><DateUtc dt:dt="string">2016-08-29T22:05:52Z</DateUtc></StartTime><FrequencyChanges><FrequencyChange><Frequency dt:dt="r8">3507685</Frequency><Timestamp dt:dt="r8">1218673656108</Timestamp><Current dt:dt="r8">0</Current><DateUtc dt:dt="string">2016-08-29T22:05:52Z</DateUtc></FrequencyChange></FrequencyChanges></Clock>\n	Hungry_Donkey_bar_English_2-170-1	60.017	118	1.0.0.18	1	-1096352572	Standard	2.0.10.353	2.0.10.353	08-29-2016		18:05:52	2.0.10.248	46	Bar63-37.bmp	59	3	?	0r_4g.bmp	0r_4g.bmp	0r_2g.bmp	0r_2g.bmp			0r_2g.bmp		TrialProc	TrialList	0	cvbn	-999999	17	190523	0	b	21	190544	162	-114	48	-16	66	8	-10	6	5	46	0	0	0	0	4	4	2	2	0	2
Hungry_Donkey_bar_English_2	170	1	<?xml version="1.0"?>\n<Clock xmlns:dt="urn:schemas-microsoft-com:datatypes"><Description dt:dt="string">E-Prime Primary Realtime Clock</Description><StartTime><Timestamp dt:dt="int">0</Timestamp><DateUtc dt:dt="string">2016-08-29T22:05:52Z</DateUtc></StartTime><FrequencyChanges><FrequencyChange><Frequency dt:dt="r8">3507685</Frequency><Timestamp dt:dt="r8">1218673656108</Timestamp><Current dt:dt="r8">0</Current><DateUtc dt:dt="string">2016-08-29T22:05:52Z</DateUtc></FrequencyChange></FrequencyChanges></Clock>\n	Hungry_Donkey_bar_English_2-170-1	60.017	118	1.0.0.18	1	-1096352572	Standard	2.0.10.353	2.0.10.353	08-29-2016		18:05:52	2.0.10.248	47	Bar63-37.bmp	59	2	?	0r_4g.bmp	0r_4g.bmp	0r_2g.bmp	0r_2g.bmp		0r_4g.bmp			TrialProc	TrialList	0	cvbn	-999999	16	192572	0	v	36	192608	166	-114	52	-16	70	8	-10	7	5	47	0	0	0	0	4	4	2	2	0	4
Hungry_Donkey_bar_English_2	170	1	<?xml version="1.0"?>\n<Clock xmlns:dt="urn:schemas-microsoft-com:datatypes"><Description dt:dt="string">E-Prime Primary Realtime Clock</Description><StartTime><Timestamp dt:dt="int">0</Timestamp><DateUtc dt:dt="string">2016-08-29T22:05:52Z</DateUtc></StartTime><FrequencyChanges><FrequencyChange><Frequency dt:dt="r8">3507685</Frequency><Timestamp dt:dt="r8">1218673656108</Timestamp><Current dt:dt="r8">0</Current><DateUtc dt:dt="string">2016-08-29T22:05:52Z</DateUtc></FrequencyChange></FrequencyChanges></Clock>\n	Hungry_Donkey_bar_English_2-170-1	60.017	118	1.0.0.18	1	-1096352572	Standard	2.0.10.353	2.0.10.353	08-29-2016		18:05:52	2.0.10.248	48	Bar63-37.bmp	60	2	?	10r_4g.bmp	0r_4g.bmp	2r_2g.bmp	0r_2g.bmp		0r_4g.bmp			TrialProc	TrialList	0	cvbn	-999999	16	194638	0	v	658	195296	170	-114	56	-16	74	8	-10	2	5	48	-10	0	-2	0	4	4	2	2	0	4
Hungry_Donkey_bar_English_2	170	1	<?xml version="1.0"?>\n<Clock xmlns:dt="urn:schemas-microsoft-com:datatypes"><Description dt:dt="string">E-Prime Primary Realtime Clock</Description><StartTime><Timestamp dt:dt="int">0</Timestamp><DateUtc dt:dt="string">2016-08-29T22:05:52Z</DateUtc></StartTime><FrequencyChanges><FrequencyChange><Frequency dt:dt="r8">3507685</Frequency><Timestamp dt:dt="r8">1218673656108</Timestamp><Current dt:dt="r8">0</Current><DateUtc dt:dt="string">2016-08-29T22:05:52Z</DateUtc></FrequencyChange></FrequencyChanges></Clock>\n	Hungry_Donkey_bar_English_2-170-1	60.017	118	1.0.0.18	1	-1096352572	Standard	2.0.10.353	2.0.10.353	08-29-2016		18:05:52	2.0.10.248	49	Bar63-37.bmp	60	3	?	8r_4g.bmp	50r_4g.bmp	1r_2g.bmp	10r_2g.bmp			1r_2g.bmp		TrialProc	TrialList	0	cvbn	-999999	16	197321	0	b	567	197888	172	-115	57	-16	74	9	-10	1	5	49	-8	-50	-1	-10	4	4	2	2	-1	2
Hungry_Donkey_bar_English_2	170	1	<?xml version="1.0"?>\n<Clock xmlns:dt="urn:schemas-microsoft-com:datatypes"><Description dt:dt="string">E-Prime Primary Realtime Clock</Description><StartTime><Timestamp dt:dt="int">0</Timestamp><DateUtc dt:dt="string">2016-08-29T22:05:52Z</DateUtc></StartTime><FrequencyChanges><FrequencyChange><Frequency dt:dt="r8">3507685</Frequency><Timestamp dt:dt="r8">1218673656108</Timestamp><Current dt:dt="r8">0</Current><DateUtc dt:dt="string">2016-08-29T22:05:52Z</DateUtc></FrequencyChange></FrequencyChanges></Clock>\n	Hungry_Donkey_bar_English_2-170-1	60.017	118	1.0.0.18	1	-1096352572	Standard	2.0.10.353	2.0.10.353	08-29-2016		18:05:52	2.0.10.248	50	Bar63-37.bmp	60	2	?	0r_4g.bmp	0r_4g.bmp	0r_2g.bmp	0r_2g.bmp		0r_4g.bmp			TrialProc	TrialList	0	cvbn	-999999	16	199920	0	v	495	200415	176	-115	61	-16	78	9	-10	9	5	50	0	0	0	0	4	4	2	2	0	4
Hungry_Donkey_bar_English_2	170	1	<?xml version="1.0"?>\n<Clock xmlns:dt="urn:schemas-microsoft-com:datatypes"><Description dt:dt="string">E-Prime Primary Realtime Clock</Description><StartTime><Timestamp dt:dt="int">0</Timestamp><DateUtc dt:dt="string">2016-08-29T22:05:52Z</DateUtc></StartTime><FrequencyChanges><FrequencyChange><Frequency dt:dt="r8">3507685</Frequency><Timestamp dt:dt="r8">1218673656108</Timestamp><Current dt:dt="r8">0</Current><DateUtc dt:dt="string">2016-08-29T22:05:52Z</DateUtc></FrequencyChange></FrequencyChanges></Clock>\n	Hungry_Donkey_bar_English_2-170-1	60.017	118	1.0.0.18	1	-1096352572	Standard	2.0.10.353	2.0.10.353	08-29-2016		18:05:52	2.0.10.248	51	Bar63-37.bmp	61	2	?	10r_4g.bmp	0r_4g.bmp	2r_2g.bmp	0r_2g.bmp		0r_4g.bmp			TrialProc	TrialList	0	cvbn	-999999	16	202452	0	v	523	202975	180	-115	65	-16	82	9	-10	3	6	51	-10	0	-2	0	4	4	2	2	0	4
Hungry_Donkey_bar_English_2	170	1	<?xml version="1.0"?>\n<Clock xmlns:dt="urn:schemas-microsoft-com:datatypes"><Description dt:dt="string">E-Prime Primary Realtime Clock</Description><StartTime><Timestamp dt:dt="int">0</Timestamp><DateUtc dt:dt="string">2016-08-29T22:05:52Z</DateUtc></StartTime><FrequencyChanges><FrequencyChange><Frequency dt:dt="r8">3507685</Frequency><Timestamp dt:dt="r8">1218673656108</Timestamp><Current dt:dt="r8">0</Current><DateUtc dt:dt="string">2016-08-29T22:05:52Z</DateUtc></FrequencyChange></FrequencyChanges></Clock>\n	Hungry_Donkey_bar_English_2-170-1	60.017	118	1.0.0.18	1	-1096352572	Standard	2.0.10.353	2.0.10.353	08-29-2016		18:05:52	2.0.10.248	52	Bar63-37.bmp	62	2	?	0r_4g.bmp	0r_4g.bmp	0r_2g.bmp	0r_2g.bmp		0r_4g.bmp			TrialProc	TrialList	0	cvbn	-999999	16	205002	0	v	469	205471	184	-115	69	-16	86	9	-10	10	6	52	0	0	0	0	4	4	2	2	0	4
Hungry_Donkey_bar_English_2	170	1	<?xml version="1.0"?>\n<Clock xmlns:dt="urn:schemas-microsoft-com:datatypes"><Description dt:dt="string">E-Prime Primary Realtime Clock</Description><StartTime><Timestamp dt:dt="int">0</Timestamp><DateUtc dt:dt="string">2016-08-29T22:05:52Z</DateUtc></StartTime><FrequencyChanges><FrequencyChange><Frequency dt:dt="r8">3507685</Frequency><Timestamp dt:dt="r8">1218673656108</Timestamp><Current dt:dt="r8">0</Current><DateUtc dt:dt="string">2016-08-29T22:05:52Z</DateUtc></FrequencyChange></FrequencyChanges></Clock>\n	Hungry_Donkey_bar_English_2-170-1	60.017	118	1.0.0.18	1	-1096352572	Standard	2.0.10.353	2.0.10.353	08-29-2016		18:05:52	2.0.10.248	53	Bar63-37.bmp	62	2	?	0r_4g.bmp	0r_4g.bmp	0r_2g.bmp	0r_2g.bmp		0r_4g.bmp			TrialProc	TrialList	0	cvbn	-999999	16	207501	0	v	450	207951	188	-115	73	-16	90	9	-10	6	6	53	0	0	0	0	4	4	2	2	0	4
Hungry_Donkey_bar_English_2	170	1	<?xml version="1.0"?>\n<Clock xmlns:dt="urn:schemas-microsoft-com:datatypes"><Description dt:dt="string">E-Prime Primary Realtime Clock</Description><StartTime><Timestamp dt:dt="int">0</Timestamp><DateUtc dt:dt="string">2016-08-29T22:05:52Z</DateUtc></StartTime><FrequencyChanges><FrequencyChange><Frequency dt:dt="r8">3507685</Frequency><Timestamp dt:dt="r8">1218673656108</Timestamp><Current dt:dt="r8">0</Current><DateUtc dt:dt="string">2016-08-29T22:05:52Z</DateUtc></FrequencyChange></FrequencyChanges></Clock>\n	Hungry_Donkey_bar_English_2-170-1	60.017	118	1.0.0.18	1	-1096352572	Standard	2.0.10.353	2.0.10.353	08-29-2016		18:05:52	2.0.10.248	54	Bar63-37.bmp	63	2	?	10r_4g.bmp	0r_4g.bmp	2r_2g.bmp	0r_2g.bmp		0r_4g.bmp			TrialProc	TrialList	0	cvbn	-999999	16	209984	0	v	559	210543	192	-115	77	-16	94	9	-10	4	6	54	-10	0	-2	0	4	4	2	2	0	4
Hungry_Donkey_bar_English_2	170	1	<?xml version="1.0"?>\n<Clock xmlns:dt="urn:schemas-microsoft-com:datatypes"><Description dt:dt="string">E-Prime Primary Realtime Clock</Description><StartTime><Timestamp dt:dt="int">0</Timestamp><DateUtc dt:dt="string">2016-08-29T22:05:52Z</DateUtc></StartTime><FrequencyChanges><FrequencyChange><Frequency dt:dt="r8">3507685</Frequency><Timestamp dt:dt="r8">1218673656108</Timestamp><Current dt:dt="r8">0</Current><DateUtc dt:dt="string">2016-08-29T22:05:52Z</DateUtc></FrequencyChange></FrequencyChanges></Clock>\n	Hungry_Donkey_bar_English_2-170-1	60.017	118	1.0.0.18	1	-1096352572	Standard	2.0.10.353	2.0.10.353	08-29-2016		18:05:52	2.0.10.248	55	Bar63-37.bmp	63	1	?	0r_4g.bmp	0r_4g.bmp	0r_2g.bmp	0r_2g.bmp	0r_4g.bmp				TrialProc	TrialList	0	cvbn	-999999	16	212566	0	c	633	213199	196	-115	81	-12	94	9	-10	9	6	55	0	0	0	0	4	4	2	2	0	4
Hungry_Donkey_bar_English_2	170	1	<?xml version="1.0"?>\n<Clock xmlns:dt="urn:schemas-microsoft-com:datatypes"><Description dt:dt="string">E-Prime Primary Realtime Clock</Description><StartTime><Timestamp dt:dt="int">0</Timestamp><DateUtc dt:dt="string">2016-08-29T22:05:52Z</DateUtc></StartTime><FrequencyChanges><FrequencyChange><Frequency dt:dt="r8">3507685</Frequency><Timestamp dt:dt="r8">1218673656108</Timestamp><Current dt:dt="r8">0</Current><DateUtc dt:dt="string">2016-08-29T22:05:52Z</DateUtc></FrequencyChange></FrequencyChanges></Clock>\n	Hungry_Donkey_bar_English_2-170-1	60.017	118	1.0.0.18	1	-1096352572	Standard	2.0.10.353	2.0.10.353	08-29-2016		18:05:52	2.0.10.248	56	Bar63-37.bmp	63	2	?	10r_4g.bmp	0r_4g.bmp	2r_2g.bmp	0r_2g.bmp		0r_4g.bmp			TrialProc	TrialList	0	cvbn	-999999	16	215232	0	v	399	215631	200	-115	85	-12	98	9	-10	2	6	56	-10	0	-2	0	4	4	2	2	0	4
Hungry_Donkey_bar_English_2	170	1	<?xml version="1.0"?>\n<Clock xmlns:dt="urn:schemas-microsoft-com:datatypes"><Description dt:dt="string">E-Prime Primary Realtime Clock</Description><StartTime><Timestamp dt:dt="int">0</Timestamp><DateUtc dt:dt="string">2016-08-29T22:05:52Z</DateUtc></StartTime><FrequencyChanges><FrequencyChange><Frequency dt:dt="r8">3507685</Frequency><Timestamp dt:dt="r8">1218673656108</Timestamp><Current dt:dt="r8">0</Current><DateUtc dt:dt="string">2016-08-29T22:05:52Z</DateUtc></FrequencyChange></FrequencyChanges></Clock>\n	Hungry_Donkey_bar_English_2-170-1	60.017	118	1.0.0.18	1	-1096352572	Standard	2.0.10.353	2.0.10.353	08-29-2016		18:05:52	2.0.10.248	57	Bar63-37.bmp	62	1	?	8r_4g.bmp	50r_4g.bmp	1r_2g.bmp	10r_2g.bmp	8r_4g.bmp				TrialProc	TrialList	0	cvbn	-999999	16	217665	0	c	478	218143	204	-123	81	-16	98	9	-10	1	6	57	-8	-50	-1	-10	4	4	2	2	-8	4
Hungry_Donkey_bar_English_2	170	1	<?xml version="1.0"?>\n<Clock xmlns:dt="urn:schemas-microsoft-com:datatypes"><Description dt:dt="string">E-Prime Primary Realtime Clock</Description><StartTime><Timestamp dt:dt="int">0</Timestamp><DateUtc dt:dt="string">2016-08-29T22:05:52Z</DateUtc></StartTime><FrequencyChanges><FrequencyChange><Frequency dt:dt="r8">3507685</Frequency><Timestamp dt:dt="r8">1218673656108</Timestamp><Current dt:dt="r8">0</Current><DateUtc dt:dt="string">2016-08-29T22:05:52Z</DateUtc></FrequencyChange></FrequencyChanges></Clock>\n	Hungry_Donkey_bar_English_2-170-1	60.017	118	1.0.0.18	1	-1096352572	Standard	2.0.10.353	2.0.10.353	08-29-2016		18:05:52	2.0.10.248	58	Bar63-37.bmp	63	2	?	0r_4g.bmp	0r_4g.bmp	0r_2g.bmp	0r_2g.bmp		0r_4g.bmp			TrialProc	TrialList	0	cvbn	-999999	16	220181	0	v	457	220638	208	-123	85	-16	102	9	-10	7	6	58	0	0	0	0	4	4	2	2	0	4
Hungry_Donkey_bar_English_2	170	1	<?xml version="1.0"?>\n<Clock xmlns:dt="urn:schemas-microsoft-com:datatypes"><Description dt:dt="string">E-Prime Primary Realtime Clock</Description><StartTime><Timestamp dt:dt="int">0</Timestamp><DateUtc dt:dt="string">2016-08-29T22:05:52Z</DateUtc></StartTime><FrequencyChanges><FrequencyChange><Frequency dt:dt="r8">3507685</Frequency><Timestamp dt:dt="r8">1218673656108</Timestamp><Current dt:dt="r8">0</Current><DateUtc dt:dt="string">2016-08-29T22:05:52Z</DateUtc></FrequencyChange></FrequencyChanges></Clock>\n	Hungry_Donkey_bar_English_2-170-1	60.017	118	1.0.0.18	1	-1096352572	Standard	2.0.10.353	2.0.10.353	08-29-2016		18:05:52	2.0.10.248	59	Bar63-37.bmp	63	2	?	0r_4g.bmp	0r_4g.bmp	0r_2g.bmp	0r_2g.bmp		0r_4g.bmp			TrialProc	TrialList	0	cvbn	-999999	16	222663	0	v	823	223486	212	-123	89	-16	106	9	-10	8	6	59	0	0	0	0	4	4	2	2	0	4
Hungry_Donkey_bar_English_2	170	1	<?xml version="1.0"?>\n<Clock xmlns:dt="urn:schemas-microsoft-com:datatypes"><Description dt:dt="string">E-Prime Primary Realtime Clock</Description><StartTime><Timestamp dt:dt="int">0</Timestamp><DateUtc dt:dt="string">2016-08-29T22:05:52Z</DateUtc></StartTime><FrequencyChanges><FrequencyChange><Frequency dt:dt="r8">3507685</Frequency><Timestamp dt:dt="r8">1218673656108</Timestamp><Current dt:dt="r8">0</Current><DateUtc dt:dt="string">2016-08-29T22:05:52Z</DateUtc></FrequencyChange></FrequencyChanges></Clock>\n	Hungry_Donkey_bar_English_2-170-1	60.017	118	1.0.0.18	1	-1096352572	Standard	2.0.10.353	2.0.10.353	08-29-2016		18:05:52	2.0.10.248	60	Bar63-37.bmp	64	2	?	12r_4g.bmp	0r_4g.bmp	3r_2g.bmp	0r_2g.bmp		0r_4g.bmp			TrialProc	TrialList	0	cvbn	-999999	16	225512	0	v	582	226094	216	-123	93	-16	110	9	-10	5	6	60	-12	0	-3	0	4	4	2	2	0	4
Hungry_Donkey_bar_English_2	170	1	<?xml version="1.0"?>\n<Clock xmlns:dt="urn:schemas-microsoft-com:datatypes"><Description dt:dt="string">E-Prime Primary Realtime Clock</Description><StartTime><Timestamp dt:dt="int">0</Timestamp><DateUtc dt:dt="string">2016-08-29T22:05:52Z</DateUtc></StartTime><FrequencyChanges><FrequencyChange><Frequency dt:dt="r8">3507685</Frequency><Timestamp dt:dt="r8">1218673656108</Timestamp><Current dt:dt="r8">0</Current><DateUtc dt:dt="string">2016-08-29T22:05:52Z</DateUtc></FrequencyChange></FrequencyChanges></Clock>\n	Hungry_Donkey_bar_English_2-170-1	60.017	118	1.0.0.18	1	-1096352572	Standard	2.0.10.353	2.0.10.353	08-29-2016		18:05:52	2.0.10.248	61	Bar63-37.bmp	64	2	?	10r_4g.bmp	0r_4g.bmp	2r_2g.bmp	0r_2g.bmp		0r_4g.bmp			TrialProc	TrialList	0	cvbn	-999999	16	228128	0	v	478	228606	220	-123	97	-16	114	9	-10	2	7	61	-10	0	-2	0	4	4	2	2	0	4
Hungry_Donkey_bar_English_2	170	1	<?xml version="1.0"?>\n<Clock xmlns:dt="urn:schemas-microsoft-com:datatypes"><Description dt:dt="string">E-Prime Primary Realtime Clock</Description><StartTime><Timestamp dt:dt="int">0</Timestamp><DateUtc dt:dt="string">2016-08-29T22:05:52Z</DateUtc></StartTime><FrequencyChanges><FrequencyChange><Frequency dt:dt="r8">3507685</Frequency><Timestamp dt:dt="r8">1218673656108</Timestamp><Current dt:dt="r8">0</Current><DateUtc dt:dt="string">2016-08-29T22:05:52Z</DateUtc></FrequencyChange></FrequencyChanges></Clock>\n	Hungry_Donkey_bar_English_2-170-1	60.017	118	1.0.0.18	1	-1096352572	Standard	2.0.10.353	2.0.10.353	08-29-2016		18:05:52	2.0.10.248	62	Bar63-37.bmp	65	2	?	0r_4g.bmp	0r_4g.bmp	0r_2g.bmp	0r_2g.bmp		0r_4g.bmp			TrialProc	TrialList	0	cvbn	-999999	16	230644	0	v	474	231118	224	-123	101	-16	118	9	-10	10	7	62	0	0	0	0	4	4	2	2	0	4
Hungry_Donkey_bar_English_2	170	1	<?xml version="1.0"?>\n<Clock xmlns:dt="urn:schemas-microsoft-com:datatypes"><Description dt:dt="string">E-Prime Primary Realtime Clock</Description><StartTime><Timestamp dt:dt="int">0</Timestamp><DateUtc dt:dt="string">2016-08-29T22:05:52Z</DateUtc></StartTime><FrequencyChanges><FrequencyChange><Frequency dt:dt="r8">3507685</Frequency><Timestamp dt:dt="r8">1218673656108</Timestamp><Current dt:dt="r8">0</Current><DateUtc dt:dt="string">2016-08-29T22:05:52Z</DateUtc></FrequencyChange></FrequencyChanges></Clock>\n	Hungry_Donkey_bar_English_2-170-1	60.017	118	1.0.0.18	1	-1096352572	Standard	2.0.10.353	2.0.10.353	08-29-2016		18:05:52	2.0.10.248	63	Bar63-37.bmp	65	2	?	0r_4g.bmp	0r_4g.bmp	0r_2g.bmp	0r_2g.bmp		0r_4g.bmp			TrialProc	TrialList	0	cvbn	-999999	16	233144	0	v	134	233278	228	-123	105	-16	122	9	-10	9	7	63	0	0	0	0	4	4	2	2	0	4
Hungry_Donkey_bar_English_2	170	1	<?xml version="1.0"?>\n<Clock xmlns:dt="urn:schemas-microsoft-com:datatypes"><Description dt:dt="string">E-Prime Primary Realtime Clock</Description><StartTime><Timestamp dt:dt="int">0</Timestamp><DateUtc dt:dt="string">2016-08-29T22:05:52Z</DateUtc></StartTime><FrequencyChanges><FrequencyChange><Frequency dt:dt="r8">3507685</Frequency><Timestamp dt:dt="r8">1218673656108</Timestamp><Current dt:dt="r8">0</Current><DateUtc dt:dt="string">2016-08-29T22:05:52Z</DateUtc></FrequencyChange></FrequencyChanges></Clock>\n	Hungry_Donkey_bar_English_2-170-1	60.017	118	1.0.0.18	1	-1096352572	Standard	2.0.10.353	2.0.10.353	08-29-2016		18:05:52	2.0.10.248	64	Bar63-37.bmp	57	2	?	8r_4g.bmp	50r_4g.bmp	1r_2g.bmp	10r_2g.bmp		50r_4g.bmp			TrialProc	TrialList	0	cvbn	-999999	16	235310	0	v	528	235838	232	-173	59	-16	76	9	-10	1	7	64	-8	-50	-1	-10	4	4	2	2	-50	4
Hungry_Donkey_bar_English_2	170	1	<?xml version="1.0"?>\n<Clock xmlns:dt="urn:schemas-microsoft-com:datatypes"><Description dt:dt="string">E-Prime Primary Realtime Clock</Description><StartTime><Timestamp dt:dt="int">0</Timestamp><DateUtc dt:dt="string">2016-08-29T22:05:52Z</DateUtc></StartTime><FrequencyChanges><FrequencyChange><Frequency dt:dt="r8">3507685</Frequency><Timestamp dt:dt="r8">1218673656108</Timestamp><Current dt:dt="r8">0</Current><DateUtc dt:dt="string">2016-08-29T22:05:52Z</DateUtc></FrequencyChange></FrequencyChanges></Clock>\n	Hungry_Donkey_bar_English_2-170-1	60.017	118	1.0.0.18	1	-1096352572	Standard	2.0.10.353	2.0.10.353	08-29-2016		18:05:52	2.0.10.248	65	Bar63-37.bmp	58	2	?	0r_4g.bmp	0r_4g.bmp	0r_2g.bmp	0r_2g.bmp		0r_4g.bmp			TrialProc	TrialList	0	cvbn	-999999	17	237876	0	v	10	237886	236	-173	63	-16	80	9	-10	8	7	65	0	0	0	0	4	4	2	2	0	4
Hungry_Donkey_bar_English_2	170	1	<?xml version="1.0"?>\n<Clock xmlns:dt="urn:schemas-microsoft-com:datatypes"><Description dt:dt="string">E-Prime Primary Realtime Clock</Description><StartTime><Timestamp dt:dt="int">0</Timestamp><DateUtc dt:dt="string">2016-08-29T22:05:52Z</DateUtc></StartTime><FrequencyChanges><FrequencyChange><Frequency dt:dt="r8">3507685</Frequency><Timestamp dt:dt="r8">1218673656108</Timestamp><Current dt:dt="r8">0</Current><DateUtc dt:dt="string">2016-08-29T22:05:52Z</DateUtc></FrequencyChange></FrequencyChanges></Clock>\n	Hungry_Donkey_bar_English_2-170-1	60.017	118	1.0.0.18	1	-1096352572	Standard	2.0.10.353	2.0.10.353	08-29-2016		18:05:52	2.0.10.248	66	Bar63-37.bmp	58	3	?	10r_4g.bmp	0r_4g.bmp	2r_2g.bmp	0r_2g.bmp			2r_2g.bmp		TrialProc	TrialList	0	cvbn	-999999	16	239925	0	b	696	240621	238	-175	63	-16	80	9	-10	3	7	66	-10	0	-2	0	4	4	2	2	-2	2
Hungry_Donkey_bar_English_2	170	1	<?xml version="1.0"?>\n<Clock xmlns:dt="urn:schemas-microsoft-com:datatypes"><Description dt:dt="string">E-Prime Primary Realtime Clock</Description><StartTime><Timestamp dt:dt="int">0</Timestamp><DateUtc dt:dt="string">2016-08-29T22:05:52Z</DateUtc></StartTime><FrequencyChanges><FrequencyChange><Frequency dt:dt="r8">3507685</Frequency><Timestamp dt:dt="r8">1218673656108</Timestamp><Current dt:dt="r8">0</Current><DateUtc dt:dt="string">2016-08-29T22:05:52Z</DateUtc></FrequencyChange></FrequencyChanges></Clock>\n	Hungry_Donkey_bar_English_2-170-1	60.017	118	1.0.0.18	1	-1096352572	Standard	2.0.10.353	2.0.10.353	08-29-2016		18:05:52	2.0.10.248	67	Bar50-50.bmp	56	1	?	12r_4g.bmp	0r_4g.bmp	3r_2g.bmp	0r_2g.bmp	12r_4g.bmp				TrialProc	TrialList	0	cvbn	-999999	17	242658	0	c	491	243149	242	-187	55	-24	80	9	-10	5	7	67	-12	0	-3	0	4	4	2	2	-12	4
Hungry_Donkey_bar_English_2	170	1	<?xml version="1.0"?>\n<Clock xmlns:dt="urn:schemas-microsoft-com:datatypes"><Description dt:dt="string">E-Prime Primary Realtime Clock</Description><StartTime><Timestamp dt:dt="int">0</Timestamp><DateUtc dt:dt="string">2016-08-29T22:05:52Z</DateUtc></StartTime><FrequencyChanges><FrequencyChange><Frequency dt:dt="r8">3507685</Frequency><Timestamp dt:dt="r8">1218673656108</Timestamp><Current dt:dt="r8">0</Current><DateUtc dt:dt="string">2016-08-29T22:05:52Z</DateUtc></FrequencyChange></FrequencyChanges></Clock>\n	Hungry_Donkey_bar_English_2-170-1	60.017	118	1.0.0.18	1	-1096352572	Standard	2.0.10.353	2.0.10.353	08-29-2016		18:05:52	2.0.10.248	68	Bar63-37.bmp	57	2	?	0r_4g.bmp	0r_4g.bmp	0r_2g.bmp	0r_2g.bmp		0r_4g.bmp			TrialProc	TrialList	0	cvbn	-999999	16	245173	0	v	424	245597	246	-187	59	-24	84	9	-10	7	7	68	0	0	0	0	4	4	2	2	0	4
Hungry_Donkey_bar_English_2	170	1	<?xml version="1.0"?>\n<Clock xmlns:dt="urn:schemas-microsoft-com:datatypes"><Description dt:dt="string">E-Prime Primary Realtime Clock</Description><StartTime><Timestamp dt:dt="int">0</Timestamp><DateUtc dt:dt="string">2016-08-29T22:05:52Z</DateUtc></StartTime><FrequencyChanges><FrequencyChange><Frequency dt:dt="r8">3507685</Frequency><Timestamp dt:dt="r8">1218673656108</Timestamp><Current dt:dt="r8">0</Current><DateUtc dt:dt="string">2016-08-29T22:05:52Z</DateUtc></FrequencyChange></FrequencyChanges></Clock>\n	Hungry_Donkey_bar_English_2-170-1	60.017	118	1.0.0.18	1	-1096352572	Standard	2.0.10.353	2.0.10.353	08-29-2016		18:05:52	2.0.10.248	69	Bar63-37.bmp	57	2	?	0r_4g.bmp	0r_4g.bmp	0r_2g.bmp	0r_2g.bmp		0r_4g.bmp			TrialProc	TrialList	0	cvbn	-999999	16	247623	0	v	438	248061	250	-187	63	-24	88	9	-10	6	7	69	0	0	0	0	4	4	2	2	0	4
Hungry_Donkey_bar_English_2	170	1	<?xml version="1.0"?>\n<Clock xmlns:dt="urn:schemas-microsoft-com:datatypes"><Description dt:dt="string">E-Prime Primary Realtime Clock</Description><StartTime><Timestamp dt:dt="int">0</Timestamp><DateUtc dt:dt="string">2016-08-29T22:05:52Z</DateUtc></StartTime><FrequencyChanges><FrequencyChange><Frequency dt:dt="r8">3507685</Frequency><Timestamp dt:dt="r8">1218673656108</Timestamp><Current dt:dt="r8">0</Current><DateUtc dt:dt="string">2016-08-29T22:05:52Z</DateUtc></FrequencyChange></FrequencyChanges></Clock>\n	Hungry_Donkey_bar_English_2-170-1	60.017	118	1.0.0.18	1	-1096352572	Standard	2.0.10.353	2.0.10.353	08-29-2016		18:05:52	2.0.10.248	70	Bar63-37.bmp	58	2	?	10r_4g.bmp	0r_4g.bmp	2r_2g.bmp	0r_2g.bmp		0r_4g.bmp			TrialProc	TrialList	0	cvbn	-999999	16	250089	0	v	404	250493	254	-187	67	-24	92	9	-10	4	7	70	-10	0	-2	0	4	4	2	2	0	4
Hungry_Donkey_bar_English_2	170	1	<?xml version="1.0"?>\n<Clock xmlns:dt="urn:schemas-microsoft-com:datatypes"><Description dt:dt="string">E-Prime Primary Realtime Clock</Description><StartTime><Timestamp dt:dt="int">0</Timestamp><DateUtc dt:dt="string">2016-08-29T22:05:52Z</DateUtc></StartTime><FrequencyChanges><FrequencyChange><Frequency dt:dt="r8">3507685</Frequency><Timestamp dt:dt="r8">1218673656108</Timestamp><Current dt:dt="r8">0</Current><DateUtc dt:dt="string">2016-08-29T22:05:52Z</DateUtc></FrequencyChange></FrequencyChanges></Clock>\n	Hungry_Donkey_bar_English_2-170-1	60.017	118	1.0.0.18	1	-1096352572	Standard	2.0.10.353	2.0.10.353	08-29-2016		18:05:52	2.0.10.248	71	Bar63-37.bmp	58	2	?	12r_4g.bmp	0r_4g.bmp	3r_2g.bmp	0r_2g.bmp		0r_4g.bmp			TrialProc	TrialList	0	cvbn	-999999	16	252521	0	v	324	252845	258	-187	71	-24	96	9	-10	5	8	71	-12	0	-3	0	4	4	2	2	0	4
Hungry_Donkey_bar_English_2	170	1	<?xml version="1.0"?>\n<Clock xmlns:dt="urn:schemas-microsoft-com:datatypes"><Description dt:dt="string">E-Prime Primary Realtime Clock</Description><StartTime><Timestamp dt:dt="int">0</Timestamp><DateUtc dt:dt="string">2016-08-29T22:05:52Z</DateUtc></StartTime><FrequencyChanges><FrequencyChange><Frequency dt:dt="r8">3507685</Frequency><Timestamp dt:dt="r8">1218673656108</Timestamp><Current dt:dt="r8">0</Current><DateUtc dt:dt="string">2016-08-29T22:05:52Z</DateUtc></FrequencyChange></FrequencyChanges></Clock>\n	Hungry_Donkey_bar_English_2-170-1	60.017	118	1.0.0.18	1	-1096352572	Standard	2.0.10.353	2.0.10.353	08-29-2016		18:05:52	2.0.10.248	72	Bar50-50.bmp	53	2	?	8r_4g.bmp	50r_4g.bmp	1r_2g.bmp	10r_2g.bmp		50r_4g.bmp			TrialProc	TrialList	0	cvbn	-999999	16	254871	0	v	406	255277	262	-237	25	-24	50	9	-10	1	8	72	-8	-50	-1	-10	4	4	2	2	-50	4
Hungry_Donkey_bar_English_2	170	1	<?xml version="1.0"?>\n<Clock xmlns:dt="urn:schemas-microsoft-com:datatypes"><Description dt:dt="string">E-Prime Primary Realtime Clock</Description><StartTime><Timestamp dt:dt="int">0</Timestamp><DateUtc dt:dt="string">2016-08-29T22:05:52Z</DateUtc></StartTime><FrequencyChanges><FrequencyChange><Frequency dt:dt="r8">3507685</Frequency><Timestamp dt:dt="r8">1218673656108</Timestamp><Current dt:dt="r8">0</Current><DateUtc dt:dt="string">2016-08-29T22:05:52Z</DateUtc></FrequencyChange></FrequencyChanges></Clock>\n	Hungry_Donkey_bar_English_2-170-1	60.017	118	1.0.0.18	1	-1096352572	Standard	2.0.10.353	2.0.10.353	08-29-2016		18:05:52	2.0.10.248	73	Bar50-50.bmp	53	2	?	10r_4g.bmp	0r_4g.bmp	2r_2g.bmp	0r_2g.bmp		0r_4g.bmp			TrialProc	TrialList	0	cvbn	-999999	16	257303	0	v	1285	258588	266	-237	29	-24	54	9	-10	2	8	73	-10	0	-2	0	4	4	2	2	0	4
Hungry_Donkey_bar_English_2	170	1	<?xml version="1.0"?>\n<Clock xmlns:dt="urn:schemas-microsoft-com:datatypes"><Description dt:dt="string">E-Prime Primary Realtime Clock</Description><StartTime><Timestamp dt:dt="int">0</Timestamp><DateUtc dt:dt="string">2016-08-29T22:05:52Z</DateUtc></StartTime><FrequencyChanges><FrequencyChange><Frequency dt:dt="r8">3507685</Frequency><Timestamp dt:dt="r8">1218673656108</Timestamp><Current dt:dt="r8">0</Current><DateUtc dt:dt="string">2016-08-29T22:05:52Z</DateUtc></FrequencyChange></FrequencyChanges></Clock>\n	Hungry_Donkey_bar_English_2-170-1	60.017	118	1.0.0.18	1	-1096352572	Standard	2.0.10.353	2.0.10.353	08-29-2016		18:05:52	2.0.10.248	74	Bar50-50.bmp	53	2	?	0r_4g.bmp	0r_4g.bmp	0r_2g.bmp	0r_2g.bmp		0r_4g.bmp			TrialProc	TrialList	0	cvbn	-999999	16	260619	0	v	1649	262268	270	-237	33	-24	58	9	-10	9	8	74	0	0	0	0	4	4	2	2	0	4
Hungry_Donkey_bar_English_2	170	1	<?xml version="1.0"?>\n<Clock xmlns:dt="urn:schemas-microsoft-com:datatypes"><Description dt:dt="string">E-Prime Primary Realtime Clock</Description><StartTime><Timestamp dt:dt="int">0</Timestamp><DateUtc dt:dt="string">2016-08-29T22:05:52Z</DateUtc></StartTime><FrequencyChanges><FrequencyChange><Frequency dt:dt="r8">3507685</Frequency><Timestamp dt:dt="r8">1218673656108</Timestamp><Current dt:dt="r8">0</Current><DateUtc dt:dt="string">2016-08-29T22:05:52Z</DateUtc></FrequencyChange></FrequencyChanges></Clock>\n	Hungry_Donkey_bar_English_2-170-1	60.017	118	1.0.0.18	1	-1096352572	Standard	2.0.10.353	2.0.10.353	08-29-2016		18:05:52	2.0.10.248	75	Bar50-50.bmp	54	2	?	0r_4g.bmp	0r_4g.bmp	0r_2g.bmp	0r_2g.bmp		0r_4g.bmp			TrialProc	TrialList	0	cvbn	-999999	16	264301	0	v	575	264876	274	-237	37	-24	62	9	-10	8	8	75	0	0	0	0	4	4	2	2	0	4
Hungry_Donkey_bar_English_2	170	1	<?xml version="1.0"?>\n<Clock xmlns:dt="urn:schemas-microsoft-com:datatypes"><Description dt:dt="string">E-Prime Primary Realtime Clock</Description><StartTime><Timestamp dt:dt="int">0</Timestamp><DateUtc dt:dt="string">2016-08-29T22:05:52Z</DateUtc></StartTime><FrequencyChanges><FrequencyChange><Frequency dt:dt="r8">3507685</Frequency><Timestamp dt:dt="r8">1218673656108</Timestamp><Current dt:dt="r8">0</Current><DateUtc dt:dt="string">2016-08-29T22:05:52Z</DateUtc></FrequencyChange></FrequencyChanges></Clock>\n	Hungry_Donkey_bar_English_2-170-1	60.017	118	1.0.0.18	1	-1096352572	Standard	2.0.10.353	2.0.10.353	08-29-2016		18:05:52	2.0.10.248	76	Bar50-50.bmp	54	4	?	10r_4g.bmp	0r_4g.bmp	2r_2g.bmp	0r_2g.bmp				0r_2g.bmp	TrialProc	TrialList	0	cvbn	-999999	16	266901	0	n	183	267084	276	-237	39	-24	62	9	-8	4	8	76	-10	0	-2	0	4	4	2	2	0	2
Hungry_Donkey_bar_English_2	170	1	<?xml version="1.0"?>\n<Clock xmlns:dt="urn:schemas-microsoft-com:datatypes"><Description dt:dt="string">E-Prime Primary Realtime Clock</Description><StartTime><Timestamp dt:dt="int">0</Timestamp><DateUtc dt:dt="string">2016-08-29T22:05:52Z</DateUtc></StartTime><FrequencyChanges><FrequencyChange><Frequency dt:dt="r8">3507685</Frequency><Timestamp dt:dt="r8">1218673656108</Timestamp><Current dt:dt="r8">0</Current><DateUtc dt:dt="string">2016-08-29T22:05:52Z</DateUtc></FrequencyChange></FrequencyChanges></Clock>\n	Hungry_Donkey_bar_English_2-170-1	60.017	118	1.0.0.18	1	-1096352572	Standard	2.0.10.353	2.0.10.353	08-29-2016		18:05:52	2.0.10.248	77	Bar50-50.bmp	54	2	?	0r_4g.bmp	0r_4g.bmp	0r_2g.bmp	0r_2g.bmp		0r_4g.bmp			TrialProc	TrialList	0	cvbn	-999999	17	269117	0	v	1359	270476	280	-237	43	-24	66	9	-8	7	8	77	0	0	0	0	4	4	2	2	0	4
Hungry_Donkey_bar_English_2	170	1	<?xml version="1.0"?>\n<Clock xmlns:dt="urn:schemas-microsoft-com:datatypes"><Description dt:dt="string">E-Prime Primary Realtime Clock</Description><StartTime><Timestamp dt:dt="int">0</Timestamp><DateUtc dt:dt="string">2016-08-29T22:05:52Z</DateUtc></StartTime><FrequencyChanges><FrequencyChange><Frequency dt:dt="r8">3507685</Frequency><Timestamp dt:dt="r8">1218673656108</Timestamp><Current dt:dt="r8">0</Current><DateUtc dt:dt="string">2016-08-29T22:05:52Z</DateUtc></FrequencyChange></FrequencyChanges></Clock>\n	Hungry_Donkey_bar_English_2-170-1	60.017	118	1.0.0.18	1	-1096352572	Standard	2.0.10.353	2.0.10.353	08-29-2016		18:05:52	2.0.10.248	78	Bar50-50.bmp	54	4	?	0r_4g.bmp	0r_4g.bmp	0r_2g.bmp	0r_2g.bmp				0r_2g.bmp	TrialProc	TrialList	0	cvbn	-999999	15	272499	0	n	153	272652	282	-237	45	-24	66	9	-6	10	8	78	0	0	0	0	4	4	2	2	0	2
Hungry_Donkey_bar_English_2	170	1	<?xml version="1.0"?>\n<Clock xmlns:dt="urn:schemas-microsoft-com:datatypes"><Description dt:dt="string">E-Prime Primary Realtime Clock</Description><StartTime><Timestamp dt:dt="int">0</Timestamp><DateUtc dt:dt="string">2016-08-29T22:05:52Z</DateUtc></StartTime><FrequencyChanges><FrequencyChange><Frequency dt:dt="r8">3507685</Frequency><Timestamp dt:dt="r8">1218673656108</Timestamp><Current dt:dt="r8">0</Current><DateUtc dt:dt="string">2016-08-29T22:05:52Z</DateUtc></FrequencyChange></FrequencyChanges></Clock>\n	Hungry_Donkey_bar_English_2-170-1	60.017	118	1.0.0.18	1	-1096352572	Standard	2.0.10.353	2.0.10.353	08-29-2016		18:05:52	2.0.10.248	79	Bar50-50.bmp	54	3	?	10r_4g.bmp	0r_4g.bmp	2r_2g.bmp	0r_2g.bmp			2r_2g.bmp		TrialProc	TrialList	0	cvbn	-999999	16	274682	0	b	434	275116	284	-239	45	-24	66	9	-6	3	8	79	-10	0	-2	0	4	4	2	2	-2	2
Hungry_Donkey_bar_English_2	170	1	<?xml version="1.0"?>\n<Clock xmlns:dt="urn:schemas-microsoft-com:datatypes"><Description dt:dt="string">E-Prime Primary Realtime Clock</Description><StartTime><Timestamp dt:dt="int">0</Timestamp><DateUtc dt:dt="string">2016-08-29T22:05:52Z</DateUtc></StartTime><FrequencyChanges><FrequencyChange><Frequency dt:dt="r8">3507685</Frequency><Timestamp dt:dt="r8">1218673656108</Timestamp><Current dt:dt="r8">0</Current><DateUtc dt:dt="string">2016-08-29T22:05:52Z</DateUtc></FrequencyChange></FrequencyChanges></Clock>\n	Hungry_Donkey_bar_English_2-170-1	60.017	118	1.0.0.18	1	-1096352572	Standard	2.0.10.353	2.0.10.353	08-29-2016		18:05:52	2.0.10.248	80	Bar50-50.bmp	54	4	?	0r_4g.bmp	0r_4g.bmp	0r_2g.bmp	0r_2g.bmp				0r_2g.bmp	TrialProc	TrialList	0	cvbn	-999999	17	277148	0	n	1967	279115	286	-239	47	-24	66	9	-4	6	8	80	0	0	0	0	4	4	2	2	0	2
Hungry_Donkey_bar_English_2	170	1	<?xml version="1.0"?>\n<Clock xmlns:dt="urn:schemas-microsoft-com:datatypes"><Description dt:dt="string">E-Prime Primary Realtime Clock</Description><StartTime><Timestamp dt:dt="int">0</Timestamp><DateUtc dt:dt="string">2016-08-29T22:05:52Z</DateUtc></StartTime><FrequencyChanges><FrequencyChange><Frequency dt:dt="r8">3507685</Frequency><Timestamp dt:dt="r8">1218673656108</Timestamp><Current dt:dt="r8">0</Current><DateUtc dt:dt="string">2016-08-29T22:05:52Z</DateUtc></FrequencyChange></FrequencyChanges></Clock>\n	Hungry_Donkey_bar_English_2-170-1	60.017	118	1.0.0.18	1	-1096352572	Standard	2.0.10.353	2.0.10.353	08-29-2016		18:05:52	2.0.10.248	81	Bar50-50.bmp	55	1	?	0r_4g.bmp	0r_4g.bmp	0r_2g.bmp	0r_2g.bmp	0r_4g.bmp				TrialProc	TrialList	0	cvbn	-999999	16	281146	0	c	417	281563	290	-239	51	-20	66	9	-4	9	9	81	0	0	0	0	4	4	2	2	0	4
Hungry_Donkey_bar_English_2	170	1	<?xml version="1.0"?>\n<Clock xmlns:dt="urn:schemas-microsoft-com:datatypes"><Description dt:dt="string">E-Prime Primary Realtime Clock</Description><StartTime><Timestamp dt:dt="int">0</Timestamp><DateUtc dt:dt="string">2016-08-29T22:05:52Z</DateUtc></StartTime><FrequencyChanges><FrequencyChange><Frequency dt:dt="r8">3507685</Frequency><Timestamp dt:dt="r8">1218673656108</Timestamp><Current dt:dt="r8">0</Current><DateUtc dt:dt="string">2016-08-29T22:05:52Z</DateUtc></FrequencyChange></FrequencyChanges></Clock>\n	Hungry_Donkey_bar_English_2-170-1	60.017	118	1.0.0.18	1	-1096352572	Standard	2.0.10.353	2.0.10.353	08-29-2016		18:05:52	2.0.10.248	82	Bar50-50.bmp	55	2	?	0r_4g.bmp	0r_4g.bmp	0r_2g.bmp	0r_2g.bmp		0r_4g.bmp			TrialProc	TrialList	0	cvbn	-999999	16	283596	0	v	351	283947	294	-239	55	-20	70	9	-4	6	9	82	0	0	0	0	4	4	2	2	0	4
Hungry_Donkey_bar_English_2	170	1	<?xml version="1.0"?>\n<Clock xmlns:dt="urn:schemas-microsoft-com:datatypes"><Description dt:dt="string">E-Prime Primary Realtime Clock</Description><StartTime><Timestamp dt:dt="int">0</Timestamp><DateUtc dt:dt="string">2016-08-29T22:05:52Z</DateUtc></StartTime><FrequencyChanges><FrequencyChange><Frequency dt:dt="r8">3507685</Frequency><Timestamp dt:dt="r8">1218673656108</Timestamp><Current dt:dt="r8">0</Current><DateUtc dt:dt="string">2016-08-29T22:05:52Z</DateUtc></FrequencyChange></FrequencyChanges></Clock>\n	Hungry_Donkey_bar_English_2-170-1	60.017	118	1.0.0.18	1	-1096352572	Standard	2.0.10.353	2.0.10.353	08-29-2016		18:05:52	2.0.10.248	83	Bar50-50.bmp	55	4	?	0r_4g.bmp	0r_4g.bmp	0r_2g.bmp	0r_2g.bmp				0r_2g.bmp	TrialProc	TrialList	0	cvbn	-999999	16	285978	0	n	193	286171	296	-239	57	-20	70	9	-2	7	9	83	0	0	0	0	4	4	2	2	0	2
Hungry_Donkey_bar_English_2	170	1	<?xml version="1.0"?>\n<Clock xmlns:dt="urn:schemas-microsoft-com:datatypes"><Description dt:dt="string">E-Prime Primary Realtime Clock</Description><StartTime><Timestamp dt:dt="int">0</Timestamp><DateUtc dt:dt="string">2016-08-29T22:05:52Z</DateUtc></StartTime><FrequencyChanges><FrequencyChange><Frequency dt:dt="r8">3507685</Frequency><Timestamp dt:dt="r8">1218673656108</Timestamp><Current dt:dt="r8">0</Current><DateUtc dt:dt="string">2016-08-29T22:05:52Z</DateUtc></FrequencyChange></FrequencyChanges></Clock>\n	Hungry_Donkey_bar_English_2-170-1	60.017	118	1.0.0.18	1	-1096352572	Standard	2.0.10.353	2.0.10.353	08-29-2016		18:05:52	2.0.10.248	84	Bar50-50.bmp	55	1	?	8r_4g.bmp	50r_4g.bmp	1r_2g.bmp	10r_2g.bmp	8r_4g.bmp				TrialProc	TrialList	0	cvbn	-999999	15	288194	0	c	185	288379	300	-247	53	-24	70	9	-2	1	9	84	-8	-50	-1	-10	4	4	2	2	-8	4
Hungry_Donkey_bar_English_2	170	1	<?xml version="1.0"?>\n<Clock xmlns:dt="urn:schemas-microsoft-com:datatypes"><Description dt:dt="string">E-Prime Primary Realtime Clock</Description><StartTime><Timestamp dt:dt="int">0</Timestamp><DateUtc dt:dt="string">2016-08-29T22:05:52Z</DateUtc></StartTime><FrequencyChanges><FrequencyChange><Frequency dt:dt="r8">3507685</Frequency><Timestamp dt:dt="r8">1218673656108</Timestamp><Current dt:dt="r8">0</Current><DateUtc dt:dt="string">2016-08-29T22:05:52Z</DateUtc></FrequencyChange></FrequencyChanges></Clock>\n	Hungry_Donkey_bar_English_2-170-1	60.017	118	1.0.0.18	1	-1096352572	Standard	2.0.10.353	2.0.10.353	08-29-2016		18:05:52	2.0.10.248	85	Bar50-50.bmp	55	3	?	0r_4g.bmp	0r_4g.bmp	0r_2g.bmp	0r_2g.bmp			0r_2g.bmp		TrialProc	TrialList	0	cvbn	-999999	16	290410	0	b	481	290891	302	-247	55	-24	70	11	-2	10	9	85	0	0	0	0	4	4	2	2	0	2
Hungry_Donkey_bar_English_2	170	1	<?xml version="1.0"?>\n<Clock xmlns:dt="urn:schemas-microsoft-com:datatypes"><Description dt:dt="string">E-Prime Primary Realtime Clock</Description><StartTime><Timestamp dt:dt="int">0</Timestamp><DateUtc dt:dt="string">2016-08-29T22:05:52Z</DateUtc></StartTime><FrequencyChanges><FrequencyChange><Frequency dt:dt="r8">3507685</Frequency><Timestamp dt:dt="r8">1218673656108</Timestamp><Current dt:dt="r8">0</Current><DateUtc dt:dt="string">2016-08-29T22:05:52Z</DateUtc></FrequencyChange></FrequencyChanges></Clock>\n	Hungry_Donkey_bar_English_2-170-1	60.017	118	1.0.0.18	1	-1096352572	Standard	2.0.10.353	2.0.10.353	08-29-2016		18:05:52	2.0.10.248	86	Bar50-50.bmp	55	4	?	12r_4g.bmp	0r_4g.bmp	3r_2g.bmp	0r_2g.bmp				0r_2g.bmp	TrialProc	TrialList	0	cvbn	-999999	16	292926	0	n	829	293755	304	-247	57	-24	70	11	0	5	9	86	-12	0	-3	0	4	4	2	2	0	2
Hungry_Donkey_bar_English_2	170	1	<?xml version="1.0"?>\n<Clock xmlns:dt="urn:schemas-microsoft-com:datatypes"><Description dt:dt="string">E-Prime Primary Realtime Clock</Description><StartTime><Timestamp dt:dt="int">0</Timestamp><DateUtc dt:dt="string">2016-08-29T22:05:52Z</DateUtc></StartTime><FrequencyChanges><FrequencyChange><Frequency dt:dt="r8">3507685</Frequency><Timestamp dt:dt="r8">1218673656108</Timestamp><Current dt:dt="r8">0</Current><DateUtc dt:dt="string">2016-08-29T22:05:52Z</DateUtc></FrequencyChange></FrequencyChanges></Clock>\n	Hungry_Donkey_bar_English_2-170-1	60.017	118	1.0.0.18	1	-1096352572	Standard	2.0.10.353	2.0.10.353	08-29-2016		18:05:52	2.0.10.248	87	Bar50-50.bmp	55	2	?	10r_4g.bmp	0r_4g.bmp	2r_2g.bmp	0r_2g.bmp		0r_4g.bmp			TrialProc	TrialList	0	cvbn	-999999	16	295792	0	v	427	296219	308	-247	61	-24	74	11	0	2	9	87	-10	0	-2	0	4	4	2	2	0	4
Hungry_Donkey_bar_English_2	170	1	<?xml version="1.0"?>\n<Clock xmlns:dt="urn:schemas-microsoft-com:datatypes"><Description dt:dt="string">E-Prime Primary Realtime Clock</Description><StartTime><Timestamp dt:dt="int">0</Timestamp><DateUtc dt:dt="string">2016-08-29T22:05:52Z</DateUtc></StartTime><FrequencyChanges><FrequencyChange><Frequency dt:dt="r8">3507685</Frequency><Timestamp dt:dt="r8">1218673656108</Timestamp><Current dt:dt="r8">0</Current><DateUtc dt:dt="string">2016-08-29T22:05:52Z</DateUtc></FrequencyChange></FrequencyChanges></Clock>\n	Hungry_Donkey_bar_English_2-170-1	60.017	118	1.0.0.18	1	-1096352572	Standard	2.0.10.353	2.0.10.353	08-29-2016		18:05:52	2.0.10.248	88	Bar50-50.bmp	56	2	?	0r_4g.bmp	0r_4g.bmp	0r_2g.bmp	0r_2g.bmp		0r_4g.bmp			TrialProc	TrialList	0	cvbn	-999999	16	298258	0	v	488	298746	312	-247	65	-24	78	11	0	8	9	88	0	0	0	0	4	4	2	2	0	4
Hungry_Donkey_bar_English_2	170	1	<?xml version="1.0"?>\n<Clock xmlns:dt="urn:schemas-microsoft-com:datatypes"><Description dt:dt="string">E-Prime Primary Realtime Clock</Description><StartTime><Timestamp dt:dt="int">0</Timestamp><DateUtc dt:dt="string">2016-08-29T22:05:52Z</DateUtc></StartTime><FrequencyChanges><FrequencyChange><Frequency dt:dt="r8">3507685</Frequency><Timestamp dt:dt="r8">1218673656108</Timestamp><Current dt:dt="r8">0</Current><DateUtc dt:dt="string">2016-08-29T22:05:52Z</DateUtc></FrequencyChange></FrequencyChanges></Clock>\n	Hungry_Donkey_bar_English_2-170-1	60.017	118	1.0.0.18	1	-1096352572	Standard	2.0.10.353	2.0.10.353	08-29-2016		18:05:52	2.0.10.248	89	Bar50-50.bmp	56	2	?	10r_4g.bmp	0r_4g.bmp	2r_2g.bmp	0r_2g.bmp		0r_4g.bmp			TrialProc	TrialList	0	cvbn	-999999	16	300774	0	v	1508	302282	316	-247	69	-24	82	11	0	3	9	89	-10	0	-2	0	4	4	2	2	0	4
Hungry_Donkey_bar_English_2	170	1	<?xml version="1.0"?>\n<Clock xmlns:dt="urn:schemas-microsoft-com:datatypes"><Description dt:dt="string">E-Prime Primary Realtime Clock</Description><StartTime><Timestamp dt:dt="int">0</Timestamp><DateUtc dt:dt="string">2016-08-29T22:05:52Z</DateUtc></StartTime><FrequencyChanges><FrequencyChange><Frequency dt:dt="r8">3507685</Frequency><Timestamp dt:dt="r8">1218673656108</Timestamp><Current dt:dt="r8">0</Current><DateUtc dt:dt="string">2016-08-29T22:05:52Z</DateUtc></FrequencyChange></FrequencyChanges></Clock>\n	Hungry_Donkey_bar_English_2-170-1	60.017	118	1.0.0.18	1	-1096352572	Standard	2.0.10.353	2.0.10.353	08-29-2016		18:05:52	2.0.10.248	90	Bar50-50.bmp	56	2	?	10r_4g.bmp	0r_4g.bmp	2r_2g.bmp	0r_2g.bmp		0r_4g.bmp			TrialProc	TrialList	0	cvbn	-999999	16	304306	0	v	1288	305594	320	-247	73	-24	86	11	0	4	9	90	-10	0	-2	0	4	4	2	2	0	4
Hungry_Donkey_bar_English_2	170	1	<?xml version="1.0"?>\n<Clock xmlns:dt="urn:schemas-microsoft-com:datatypes"><Description dt:dt="string">E-Prime Primary Realtime Clock</Description><StartTime><Timestamp dt:dt="int">0</Timestamp><DateUtc dt:dt="string">2016-08-29T22:05:52Z</DateUtc></StartTime><FrequencyChanges><FrequencyChange><Frequency dt:dt="r8">3507685</Frequency><Timestamp dt:dt="r8">1218673656108</Timestamp><Current dt:dt="r8">0</Current><DateUtc dt:dt="string">2016-08-29T22:05:52Z</DateUtc></FrequencyChange></FrequencyChanges></Clock>\n	Hungry_Donkey_bar_English_2-170-1	60.017	118	1.0.0.18	1	-1096352572	Standard	2.0.10.353	2.0.10.353	08-29-2016		18:05:52	2.0.10.248	91	Bar63-37.bmp	57	2	?	0r_4g.bmp	0r_4g.bmp	0r_2g.bmp	0r_2g.bmp		0r_4g.bmp			TrialProc	TrialList	0	cvbn	-999999	16	307622	0	v	1236	308858	324	-247	77	-24	90	11	0	6	10	91	0	0	0	0	4	4	2	2	0	4
Hungry_Donkey_bar_English_2	170	1	<?xml version="1.0"?>\n<Clock xmlns:dt="urn:schemas-microsoft-com:datatypes"><Description dt:dt="string">E-Prime Primary Realtime Clock</Description><StartTime><Timestamp dt:dt="int">0</Timestamp><DateUtc dt:dt="string">2016-08-29T22:05:52Z</DateUtc></StartTime><FrequencyChanges><FrequencyChange><Frequency dt:dt="r8">3507685</Frequency><Timestamp dt:dt="r8">1218673656108</Timestamp><Current dt:dt="r8">0</Current><DateUtc dt:dt="string">2016-08-29T22:05:52Z</DateUtc></FrequencyChange></FrequencyChanges></Clock>\n	Hungry_Donkey_bar_English_2-170-1	60.017	118	1.0.0.18	1	-1096352572	Standard	2.0.10.353	2.0.10.353	08-29-2016		18:05:52	2.0.10.248	92	Bar63-37.bmp	57	2	?	10r_4g.bmp	0r_4g.bmp	2r_2g.bmp	0r_2g.bmp		0r_4g.bmp			TrialProc	TrialList	0	cvbn	-999999	16	310888	0	v	722	311610	328	-247	81	-24	94	11	0	4	10	92	-10	0	-2	0	4	4	2	2	0	4
Hungry_Donkey_bar_English_2	170	1	<?xml version="1.0"?>\n<Clock xmlns:dt="urn:schemas-microsoft-com:datatypes"><Description dt:dt="string">E-Prime Primary Realtime Clock</Description><StartTime><Timestamp dt:dt="int">0</Timestamp><DateUtc dt:dt="string">2016-08-29T22:05:52Z</DateUtc></StartTime><FrequencyChanges><FrequencyChange><Frequency dt:dt="r8">3507685</Frequency><Timestamp dt:dt="r8">1218673656108</Timestamp><Current dt:dt="r8">0</Current><DateUtc dt:dt="string">2016-08-29T22:05:52Z</DateUtc></FrequencyChange></FrequencyChanges></Clock>\n	Hungry_Donkey_bar_English_2-170-1	60.017	118	1.0.0.18	1	-1096352572	Standard	2.0.10.353	2.0.10.353	08-29-2016		18:05:52	2.0.10.248	93	Bar63-37.bmp	57	2	?	12r_4g.bmp	0r_4g.bmp	3r_2g.bmp	0r_2g.bmp		0r_4g.bmp			TrialProc	TrialList	0	cvbn	-999999	16	313637	0	v	805	314442	332	-247	85	-24	98	11	0	5	10	93	-12	0	-3	0	4	4	2	2	0	4
Hungry_Donkey_bar_English_2	170	1	<?xml version="1.0"?>\n<Clock xmlns:dt="urn:schemas-microsoft-com:datatypes"><Description dt:dt="string">E-Prime Primary Realtime Clock</Description><StartTime><Timestamp dt:dt="int">0</Timestamp><DateUtc dt:dt="string">2016-08-29T22:05:52Z</DateUtc></StartTime><FrequencyChanges><FrequencyChange><Frequency dt:dt="r8">3507685</Frequency><Timestamp dt:dt="r8">1218673656108</Timestamp><Current dt:dt="r8">0</Current><DateUtc dt:dt="string">2016-08-29T22:05:52Z</DateUtc></FrequencyChange></FrequencyChanges></Clock>\n	Hungry_Donkey_bar_English_2-170-1	60.017	118	1.0.0.18	1	-1096352572	Standard	2.0.10.353	2.0.10.353	08-29-2016		18:05:52	2.0.10.248	94	Bar50-50.bmp	53	2	?	8r_4g.bmp	50r_4g.bmp	1r_2g.bmp	10r_2g.bmp		50r_4g.bmp			TrialProc	TrialList	0	cvbn	-999999	17	316470	0	v	883	317353	336	-297	39	-24	52	11	0	1	10	94	-8	-50	-1	-10	4	4	2	2	-50	4
Hungry_Donkey_bar_English_2	170	1	<?xml version="1.0"?>\n<Clock xmlns:dt="urn:schemas-microsoft-com:datatypes"><Description dt:dt="string">E-Prime Primary Realtime Clock</Description><StartTime><Timestamp dt:dt="int">0</Timestamp><DateUtc dt:dt="string">2016-08-29T22:05:52Z</DateUtc></StartTime><FrequencyChanges><FrequencyChange><Frequency dt:dt="r8">3507685</Frequency><Timestamp dt:dt="r8">1218673656108</Timestamp><Current dt:dt="r8">0</Current><DateUtc dt:dt="string">2016-08-29T22:05:52Z</DateUtc></FrequencyChange></FrequencyChanges></Clock>\n	Hungry_Donkey_bar_English_2-170-1	60.017	118	1.0.0.18	1	-1096352572	Standard	2.0.10.353	2.0.10.353	08-29-2016		18:05:52	2.0.10.248	95	Bar50-50.bmp	53	3	?	10r_4g.bmp	0r_4g.bmp	2r_2g.bmp	0r_2g.bmp			2r_2g.bmp		TrialProc	TrialList	0	cvbn	-999999	16	319385	0	b	848	320233	338	-299	39	-24	52	11	0	3	10	95	-10	0	-2	0	4	4	2	2	-2	2
Hungry_Donkey_bar_English_2	170	1	<?xml version="1.0"?>\n<Clock xmlns:dt="urn:schemas-microsoft-com:datatypes"><Description dt:dt="string">E-Prime Primary Realtime Clock</Description><StartTime><Timestamp dt:dt="int">0</Timestamp><DateUtc dt:dt="string">2016-08-29T22:05:52Z</DateUtc></StartTime><FrequencyChanges><FrequencyChange><Frequency dt:dt="r8">3507685</Frequency><Timestamp dt:dt="r8">1218673656108</Timestamp><Current dt:dt="r8">0</Current><DateUtc dt:dt="string">2016-08-29T22:05:52Z</DateUtc></FrequencyChange></FrequencyChanges></Clock>\n	Hungry_Donkey_bar_English_2-170-1	60.017	118	1.0.0.18	1	-1096352572	Standard	2.0.10.353	2.0.10.353	08-29-2016		18:05:52	2.0.10.248	96	Bar50-50.bmp	53	2	?	0r_4g.bmp	0r_4g.bmp	0r_2g.bmp	0r_2g.bmp		0r_4g.bmp			TrialProc	TrialList	0	cvbn	-999999	16	322268	0	v	77	322345	342	-299	43	-24	56	11	0	8	10	96	0	0	0	0	4	4	2	2	0	4
Hungry_Donkey_bar_English_2	170	1	<?xml version="1.0"?>\n<Clock xmlns:dt="urn:schemas-microsoft-com:datatypes"><Description dt:dt="string">E-Prime Primary Realtime Clock</Description><StartTime><Timestamp dt:dt="int">0</Timestamp><DateUtc dt:dt="string">2016-08-29T22:05:52Z</DateUtc></StartTime><FrequencyChanges><FrequencyChange><Frequency dt:dt="r8">3507685</Frequency><Timestamp dt:dt="r8">1218673656108</Timestamp><Current dt:dt="r8">0</Current><DateUtc dt:dt="string">2016-08-29T22:05:52Z</DateUtc></FrequencyChange></FrequencyChanges></Clock>\n	Hungry_Donkey_bar_English_2-170-1	60.017	118	1.0.0.18	1	-1096352572	Standard	2.0.10.353	2.0.10.353	08-29-2016		18:05:52	2.0.10.248	97	Bar50-50.bmp	54	2	?	0r_4g.bmp	0r_4g.bmp	0r_2g.bmp	0r_2g.bmp		0r_4g.bmp			TrialProc	TrialList	0	cvbn	-999999	16	324384	0	v	553	324937	346	-299	47	-24	60	11	0	10	10	97	0	0	0	0	4	4	2	2	0	4
Hungry_Donkey_bar_English_2	170	1	<?xml version="1.0"?>\n<Clock xmlns:dt="urn:schemas-microsoft-com:datatypes"><Description dt:dt="string">E-Prime Primary Realtime Clock</Description><StartTime><Timestamp dt:dt="int">0</Timestamp><DateUtc dt:dt="string">2016-08-29T22:05:52Z</DateUtc></StartTime><FrequencyChanges><FrequencyChange><Frequency dt:dt="r8">3507685</Frequency><Timestamp dt:dt="r8">1218673656108</Timestamp><Current dt:dt="r8">0</Current><DateUtc dt:dt="string">2016-08-29T22:05:52Z</DateUtc></FrequencyChange></FrequencyChanges></Clock>\n	Hungry_Donkey_bar_English_2-170-1	60.017	118	1.0.0.18	1	-1096352572	Standard	2.0.10.353	2.0.10.353	08-29-2016		18:05:52	2.0.10.248	98	Bar50-50.bmp	54	4	?	0r_4g.bmp	0r_4g.bmp	0r_2g.bmp	0r_2g.bmp				0r_2g.bmp	TrialProc	TrialList	0	cvbn	-999999	17	326967	0	n	1634	328601	348	-299	49	-24	60	11	2	9	10	98	0	0	0	0	4	4	2	2	0	2
Hungry_Donkey_bar_English_2	170	1	<?xml version="1.0"?>\n<Clock xmlns:dt="urn:schemas-microsoft-com:datatypes"><Description dt:dt="string">E-Prime Primary Realtime Clock</Description><StartTime><Timestamp dt:dt="int">0</Timestamp><DateUtc dt:dt="string">2016-08-29T22:05:52Z</DateUtc></StartTime><FrequencyChanges><FrequencyChange><Frequency dt:dt="r8">3507685</Frequency><Timestamp dt:dt="r8">1218673656108</Timestamp><Current dt:dt="r8">0</Current><DateUtc dt:dt="string">2016-08-29T22:05:52Z</DateUtc></FrequencyChange></FrequencyChanges></Clock>\n	Hungry_Donkey_bar_English_2-170-1	60.017	118	1.0.0.18	1	-1096352572	Standard	2.0.10.353	2.0.10.353	08-29-2016		18:05:52	2.0.10.248	99	Bar50-50.bmp	54	2	?	0r_4g.bmp	0r_4g.bmp	0r_2g.bmp	0r_2g.bmp		0r_4g.bmp			TrialProc	TrialList	0	cvbn	-999999	16	330632	0	v	433	331065	352	-299	53	-24	64	11	2	7	10	99	0	0	0	0	4	4	2	2	0	4
Hungry_Donkey_bar_English_2	170	1	<?xml version="1.0"?>\n<Clock xmlns:dt="urn:schemas-microsoft-com:datatypes"><Description dt:dt="string">E-Prime Primary Realtime Clock</Description><StartTime><Timestamp dt:dt="int">0</Timestamp><DateUtc dt:dt="string">2016-08-29T22:05:52Z</DateUtc></StartTime><FrequencyChanges><FrequencyChange><Frequency dt:dt="r8">3507685</Frequency><Timestamp dt:dt="r8">1218673656108</Timestamp><Current dt:dt="r8">0</Current><DateUtc dt:dt="string">2016-08-29T22:05:52Z</DateUtc></FrequencyChange></FrequencyChanges></Clock>\n	Hungry_Donkey_bar_English_2-170-1	60.017	118	1.0.0.18	1	-1096352572	Standard	2.0.10.353	2.0.10.353	08-29-2016		18:05:52	2.0.10.248	100	Bar50-50.bmp	54	2	?	10r_4g.bmp	0r_4g.bmp	2r_2g.bmp	0r_2g.bmp		0r_4g.bmp			TrialProc	TrialList	0	cvbn	-999999	16	333098	0	v	479	333577	356	-299	57	-24	68	11	2	2	10	100	-10	0	-2	0	4	4	2	2	0	4
Hungry_Donkey_bar_English_2	170	1	<?xml version="1.0"?>\n<Clock xmlns:dt="urn:schemas-microsoft-com:datatypes"><Description dt:dt="string">E-Prime Primary Realtime Clock</Description><StartTime><Timestamp dt:dt="int">0</Timestamp><DateUtc dt:dt="string">2016-08-29T22:05:52Z</DateUtc></StartTime><FrequencyChanges><FrequencyChange><Frequency dt:dt="r8">3507685</Frequency><Timestamp dt:dt="r8">1218673656108</Timestamp><Current dt:dt="r8">0</Current><DateUtc dt:dt="string">2016-08-29T22:05:52Z</DateUtc></FrequencyChange></FrequencyChanges></Clock>\n	Hungry_Donkey_bar_English_2-170-1	60.017	118	1.0.0.18	1	-1096352572	Standard	2.0.10.353	2.0.10.353	08-29-2016		18:05:52	2.0.10.248	101	Bar50-50.bmp	55	1	?	0r_4g.bmp	0r_4g.bmp	0r_2g.bmp	0r_2g.bmp	0r_4g.bmp				TrialProc	TrialList	0	cvbn	-999999	16	335614	0	c	474	336088	360	-299	61	-20	68	11	2	7	11	101	0	0	0	0	4	4	2	2	0	4
Hungry_Donkey_bar_English_2	170	1	<?xml version="1.0"?>\n<Clock xmlns:dt="urn:schemas-microsoft-com:datatypes"><Description dt:dt="string">E-Prime Primary Realtime Clock</Description><StartTime><Timestamp dt:dt="int">0</Timestamp><DateUtc dt:dt="string">2016-08-29T22:05:52Z</DateUtc></StartTime><FrequencyChanges><FrequencyChange><Frequency dt:dt="r8">3507685</Frequency><Timestamp dt:dt="r8">1218673656108</Timestamp><Current dt:dt="r8">0</Current><DateUtc dt:dt="string">2016-08-29T22:05:52Z</DateUtc></FrequencyChange></FrequencyChanges></Clock>\n	Hungry_Donkey_bar_English_2-170-1	60.017	118	1.0.0.18	1	-1096352572	Standard	2.0.10.353	2.0.10.353	08-29-2016		18:05:52	2.0.10.248	102	Bar50-50.bmp	55	2	?	10r_4g.bmp	0r_4g.bmp	2r_2g.bmp	0r_2g.bmp		0r_4g.bmp			TrialProc	TrialList	0	cvbn	-999999	16	338113	0	v	503	338616	364	-299	65	-20	72	11	2	3	11	102	-10	0	-2	0	4	4	2	2	0	4
Hungry_Donkey_bar_English_2	170	1	<?xml version="1.0"?>\n<Clock xmlns:dt="urn:schemas-microsoft-com:datatypes"><Description dt:dt="string">E-Prime Primary Realtime Clock</Description><StartTime><Timestamp dt:dt="int">0</Timestamp><DateUtc dt:dt="string">2016-08-29T22:05:52Z</DateUtc></StartTime><FrequencyChanges><FrequencyChange><Frequency dt:dt="r8">3507685</Frequency><Timestamp dt:dt="r8">1218673656108</Timestamp><Current dt:dt="r8">0</Current><DateUtc dt:dt="string">2016-08-29T22:05:52Z</DateUtc></FrequencyChange></FrequencyChanges></Clock>\n	Hungry_Donkey_bar_English_2-170-1	60.017	118	1.0.0.18	1	-1096352572	Standard	2.0.10.353	2.0.10.353	08-29-2016		18:05:52	2.0.10.248	103	Bar50-50.bmp	51	2	?	8r_4g.bmp	50r_4g.bmp	1r_2g.bmp	10r_2g.bmp		50r_4g.bmp			TrialProc	TrialList	0	cvbn	-999999	16	340646	0	v	482	341128	368	-349	19	-20	26	11	2	1	11	103	-8	-50	-1	-10	4	4	2	2	-50	4
Hungry_Donkey_bar_English_2	170	1	<?xml version="1.0"?>\n<Clock xmlns:dt="urn:schemas-microsoft-com:datatypes"><Description dt:dt="string">E-Prime Primary Realtime Clock</Description><StartTime><Timestamp dt:dt="int">0</Timestamp><DateUtc dt:dt="string">2016-08-29T22:05:52Z</DateUtc></StartTime><FrequencyChanges><FrequencyChange><Frequency dt:dt="r8">3507685</Frequency><Timestamp dt:dt="r8">1218673656108</Timestamp><Current dt:dt="r8">0</Current><DateUtc dt:dt="string">2016-08-29T22:05:52Z</DateUtc></FrequencyChange></FrequencyChanges></Clock>\n	Hungry_Donkey_bar_English_2-170-1	60.017	118	1.0.0.18	1	-1096352572	Standard	2.0.10.353	2.0.10.353	08-29-2016		18:05:52	2.0.10.248	104	Bar50-50.bmp	52	2	?	0r_4g.bmp	0r_4g.bmp	0r_2g.bmp	0r_2g.bmp		0r_4g.bmp			TrialProc	TrialList	0	cvbn	-999999	16	343162	0	v	606	343768	372	-349	23	-20	30	11	2	8	11	104	0	0	0	0	4	4	2	2	0	4
Hungry_Donkey_bar_English_2	170	1	<?xml version="1.0"?>\n<Clock xmlns:dt="urn:schemas-microsoft-com:datatypes"><Description dt:dt="string">E-Prime Primary Realtime Clock</Description><StartTime><Timestamp dt:dt="int">0</Timestamp><DateUtc dt:dt="string">2016-08-29T22:05:52Z</DateUtc></StartTime><FrequencyChanges><FrequencyChange><Frequency dt:dt="r8">3507685</Frequency><Timestamp dt:dt="r8">1218673656108</Timestamp><Current dt:dt="r8">0</Current><DateUtc dt:dt="string">2016-08-29T22:05:52Z</DateUtc></FrequencyChange></FrequencyChanges></Clock>\n	Hungry_Donkey_bar_English_2-170-1	60.017	118	1.0.0.18	1	-1096352572	Standard	2.0.10.353	2.0.10.353	08-29-2016		18:05:52	2.0.10.248	105	Bar50-50.bmp	52	1	?	0r_4g.bmp	0r_4g.bmp	0r_2g.bmp	0r_2g.bmp	0r_4g.bmp				TrialProc	TrialList	0	cvbn	-999999	16	345794	0	c	150	345944	376	-349	27	-16	30	11	2	6	11	105	0	0	0	0	4	4	2	2	0	4
Hungry_Donkey_bar_English_2	170	1	<?xml version="1.0"?>\n<Clock xmlns:dt="urn:schemas-microsoft-com:datatypes"><Description dt:dt="string">E-Prime Primary Realtime Clock</Description><StartTime><Timestamp dt:dt="int">0</Timestamp><DateUtc dt:dt="string">2016-08-29T22:05:52Z</DateUtc></StartTime><FrequencyChanges><FrequencyChange><Frequency dt:dt="r8">3507685</Frequency><Timestamp dt:dt="r8">1218673656108</Timestamp><Current dt:dt="r8">0</Current><DateUtc dt:dt="string">2016-08-29T22:05:52Z</DateUtc></FrequencyChange></FrequencyChanges></Clock>\n	Hungry_Donkey_bar_English_2-170-1	60.017	118	1.0.0.18	1	-1096352572	Standard	2.0.10.353	2.0.10.353	08-29-2016		18:05:52	2.0.10.248	106	Bar50-50.bmp	52	2	?	10r_4g.bmp	0r_4g.bmp	2r_2g.bmp	0r_2g.bmp		0r_4g.bmp			TrialProc	TrialList	0	cvbn	-999999	16	347977	0	v	751	348728	380	-349	31	-16	34	11	2	4	11	106	-10	0	-2	0	4	4	2	2	0	4
Hungry_Donkey_bar_English_2	170	1	<?xml version="1.0"?>\n<Clock xmlns:dt="urn:schemas-microsoft-com:datatypes"><Description dt:dt="string">E-Prime Primary Realtime Clock</Description><StartTime><Timestamp dt:dt="int">0</Timestamp><DateUtc dt:dt="string">2016-08-29T22:05:52Z</DateUtc></StartTime><FrequencyChanges><FrequencyChange><Frequency dt:dt="r8">3507685</Frequency><Timestamp dt:dt="r8">1218673656108</Timestamp><Current dt:dt="r8">0</Current><DateUtc dt:dt="string">2016-08-29T22:05:52Z</DateUtc></FrequencyChange></FrequencyChanges></Clock>\n	Hungry_Donkey_bar_English_2-170-1	60.017	118	1.0.0.18	1	-1096352572	Standard	2.0.10.353	2.0.10.353	08-29-2016		18:05:52	2.0.10.248	107	Bar50-50.bmp	52	2	?	12r_4g.bmp	0r_4g.bmp	3r_2g.bmp	0r_2g.bmp		0r_4g.bmp			TrialProc	TrialList	0	cvbn	-999999	16	350760	0	v	832	351592	384	-349	35	-16	38	11	2	5	11	107	-12	0	-3	0	4	4	2	2	0	4
Hungry_Donkey_bar_English_2	170	1	<?xml version="1.0"?>\n<Clock xmlns:dt="urn:schemas-microsoft-com:datatypes"><Description dt:dt="string">E-Prime Primary Realtime Clock</Description><StartTime><Timestamp dt:dt="int">0</Timestamp><DateUtc dt:dt="string">2016-08-29T22:05:52Z</DateUtc></StartTime><FrequencyChanges><FrequencyChange><Frequency dt:dt="r8">3507685</Frequency><Timestamp dt:dt="r8">1218673656108</Timestamp><Current dt:dt="r8">0</Current><DateUtc dt:dt="string">2016-08-29T22:05:52Z</DateUtc></FrequencyChange></FrequencyChanges></Clock>\n	Hungry_Donkey_bar_English_2-170-1	60.017	118	1.0.0.18	1	-1096352572	Standard	2.0.10.353	2.0.10.353	08-29-2016		18:05:52	2.0.10.248	108	Bar50-50.bmp	53	2	?	0r_4g.bmp	0r_4g.bmp	0r_2g.bmp	0r_2g.bmp		0r_4g.bmp			TrialProc	TrialList	0	cvbn	-999999	16	353625	0	v	2174	355799	388	-349	39	-16	42	11	2	9	11	108	0	0	0	0	4	4	2	2	0	4
Hungry_Donkey_bar_English_2	170	1	<?xml version="1.0"?>\n<Clock xmlns:dt="urn:schemas-microsoft-com:datatypes"><Description dt:dt="string">E-Prime Primary Realtime Clock</Description><StartTime><Timestamp dt:dt="int">0</Timestamp><DateUtc dt:dt="string">2016-08-29T22:05:52Z</DateUtc></StartTime><FrequencyChanges><FrequencyChange><Frequency dt:dt="r8">3507685</Frequency><Timestamp dt:dt="r8">1218673656108</Timestamp><Current dt:dt="r8">0</Current><DateUtc dt:dt="string">2016-08-29T22:05:52Z</DateUtc></FrequencyChange></FrequencyChanges></Clock>\n	Hungry_Donkey_bar_English_2-170-1	60.017	118	1.0.0.18	1	-1096352572	Standard	2.0.10.353	2.0.10.353	08-29-2016		18:05:52	2.0.10.248	109	Bar50-50.bmp	53	2	?	10r_4g.bmp	0r_4g.bmp	2r_2g.bmp	0r_2g.bmp		0r_4g.bmp			TrialProc	TrialList	0	cvbn	-999999	16	357824	0	v	599	358423	392	-349	43	-16	46	11	2	2	11	109	-10	0	-2	0	4	4	2	2	0	4
Hungry_Donkey_bar_English_2	170	1	<?xml version="1.0"?>\n<Clock xmlns:dt="urn:schemas-microsoft-com:datatypes"><Description dt:dt="string">E-Prime Primary Realtime Clock</Description><StartTime><Timestamp dt:dt="int">0</Timestamp><DateUtc dt:dt="string">2016-08-29T22:05:52Z</DateUtc></StartTime><FrequencyChanges><FrequencyChange><Frequency dt:dt="r8">3507685</Frequency><Timestamp dt:dt="r8">1218673656108</Timestamp><Current dt:dt="r8">0</Current><DateUtc dt:dt="string">2016-08-29T22:05:52Z</DateUtc></FrequencyChange></FrequencyChanges></Clock>\n	Hungry_Donkey_bar_English_2-170-1	60.017	118	1.0.0.18	1	-1096352572	Standard	2.0.10.353	2.0.10.353	08-29-2016		18:05:52	2.0.10.248	110	Bar50-50.bmp	53	2	?	0r_4g.bmp	0r_4g.bmp	0r_2g.bmp	0r_2g.bmp		0r_4g.bmp			TrialProc	TrialList	0	cvbn	-999999	16	360457	0	v	750	361207	396	-349	47	-16	50	11	2	10	11	110	0	0	0	0	4	4	2	2	0	4
Hungry_Donkey_bar_English_2	170	1	<?xml version="1.0"?>\n<Clock xmlns:dt="urn:schemas-microsoft-com:datatypes"><Description dt:dt="string">E-Prime Primary Realtime Clock</Description><StartTime><Timestamp dt:dt="int">0</Timestamp><DateUtc dt:dt="string">2016-08-29T22:05:52Z</DateUtc></StartTime><FrequencyChanges><FrequencyChange><Frequency dt:dt="r8">3507685</Frequency><Timestamp dt:dt="r8">1218673656108</Timestamp><Current dt:dt="r8">0</Current><DateUtc dt:dt="string">2016-08-29T22:05:52Z</DateUtc></FrequencyChange></FrequencyChanges></Clock>\n	Hungry_Donkey_bar_English_2-170-1	60.017	118	1.0.0.18	1	-1096352572	Standard	2.0.10.353	2.0.10.353	08-29-2016		18:05:52	2.0.10.248	111	Bar50-50.bmp	53	2	?	0r_4g.bmp	0r_4g.bmp	0r_2g.bmp	0r_2g.bmp		0r_4g.bmp			TrialProc	TrialList	0	cvbn	-999999	16	363239	0	v	768	364007	400	-349	51	-16	54	11	2	10	12	111	0	0	0	0	4	4	2	2	0	4
Hungry_Donkey_bar_English_2	170	1	<?xml version="1.0"?>\n<Clock xmlns:dt="urn:schemas-microsoft-com:datatypes"><Description dt:dt="string">E-Prime Primary Realtime Clock</Description><StartTime><Timestamp dt:dt="int">0</Timestamp><DateUtc dt:dt="string">2016-08-29T22:05:52Z</DateUtc></StartTime><FrequencyChanges><FrequencyChange><Frequency dt:dt="r8">3507685</Frequency><Timestamp dt:dt="r8">1218673656108</Timestamp><Current dt:dt="r8">0</Current><DateUtc dt:dt="string">2016-08-29T22:05:52Z</DateUtc></FrequencyChange></FrequencyChanges></Clock>\n	Hungry_Donkey_bar_English_2-170-1	60.017	118	1.0.0.18	1	-1096352572	Standard	2.0.10.353	2.0.10.353	08-29-2016		18:05:52	2.0.10.248	112	Bar50-50.bmp	54	2	?	10r_4g.bmp	0r_4g.bmp	2r_2g.bmp	0r_2g.bmp		0r_4g.bmp			TrialProc	TrialList	0	cvbn	-999999	17	366039	0	v	464	366503	404	-349	55	-16	58	11	2	3	12	112	-10	0	-2	0	4	4	2	2	0	4
Hungry_Donkey_bar_English_2	170	1	<?xml version="1.0"?>\n<Clock xmlns:dt="urn:schemas-microsoft-com:datatypes"><Description dt:dt="string">E-Prime Primary Realtime Clock</Description><StartTime><Timestamp dt:dt="int">0</Timestamp><DateUtc dt:dt="string">2016-08-29T22:05:52Z</DateUtc></StartTime><FrequencyChanges><FrequencyChange><Frequency dt:dt="r8">3507685</Frequency><Timestamp dt:dt="r8">1218673656108</Timestamp><Current dt:dt="r8">0</Current><DateUtc dt:dt="string">2016-08-29T22:05:52Z</DateUtc></FrequencyChange></FrequencyChanges></Clock>\n	Hungry_Donkey_bar_English_2-170-1	60.017	118	1.0.0.18	1	-1096352572	Standard	2.0.10.353	2.0.10.353	08-29-2016		18:05:52	2.0.10.248	113	Bar50-50.bmp	54	2	?	0r_4g.bmp	0r_4g.bmp	0r_2g.bmp	0r_2g.bmp		0r_4g.bmp			TrialProc	TrialList	0	cvbn	-999999	16	368538	0	v	397	368935	408	-349	59	-16	62	11	2	8	12	113	0	0	0	0	4	4	2	2	0	4
