ExperimentName	Subject	Session	Clock.Information	DataFile.Basename	Display.RefreshRate	Eindtotaal[Session]	ExperimentVersion	Group	RandomSeed	RuntimeCapabilities	RuntimeVersion	RuntimeVersionExpected	SessionDate	SessionStartDateTimeUtc	SessionTime	StudioVersion	Block	BarImage	BarTotalWinst	DoorChoice	Eindtotaal[Block]	FBDoor1	FBDoor2	FBDoor3	FBDoor4	Image1	Image2	Image3	Image4	Procedure	Running	spel.ACC	spel.CRESP	spel.DurationError	spel.OnsetDelay	spel.OnsetTime	spel.OnsetToOnsetTime	spel.RESP	spel.RT	spel.RTTime	TotalGain	TotalLose	Totalsum	TotalsumD1	TotalsumD2	TotalsumD3	TotalsumD4	TrialList	TrialList.Cycle	TrialList.Sample	varV1	varV2	varV3	varV4	varW1	varW2	varW3	varW4	Verliesbedrag	Winstbedrag
Hungry_Donkey_bar_English_2	101	1	<?xml version="1.0"?>\n<Clock xmlns:dt="urn:schemas-microsoft-com:datatypes"><Description dt:dt="string">E-Prime Primary Realtime Clock</Description><StartTime><Timestamp dt:dt="int">0</Timestamp><DateUtc dt:dt="string">2015-04-29T21:08:11Z</DateUtc></StartTime><FrequencyChanges><FrequencyChange><Frequency dt:dt="r8">2597695</Frequency><Timestamp dt:dt="r8">11788943016</Timestamp><Current dt:dt="r8">0</Current><DateUtc dt:dt="string">2015-04-29T21:08:11Z</DateUtc></FrequencyChange></FrequencyChanges></Clock>\n	Hungry_Donkey_bar_English_2-101-1	59.973	18	1.0.0.17	1	-1095464730	Standard	2.0.10.353	2.0.10.353	04-29-2015	4/29/2015 9:08:11 PM	17:08:11	2.0.10.248	1	Bar100-0.bmp	100	2	?	10r_4g.bmp	0r_4g.bmp	2r_2g.bmp	0r_2g.bmp		0r_4g.bmp			TrialProc	TrialList	0	cvbn	-999999	94	66680	0	v	3074	69754	4	0	4	0	4	0	0	2	1	1	-10	0	-2	0	4	4	2	2	0	4
Hungry_Donkey_bar_English_2	101	1	<?xml version="1.0"?>\n<Clock xmlns:dt="urn:schemas-microsoft-com:datatypes"><Description dt:dt="string">E-Prime Primary Realtime Clock</Description><StartTime><Timestamp dt:dt="int">0</Timestamp><DateUtc dt:dt="string">2015-04-29T21:08:11Z</DateUtc></StartTime><FrequencyChanges><FrequencyChange><Frequency dt:dt="r8">2597695</Frequency><Timestamp dt:dt="r8">11788943016</Timestamp><Current dt:dt="r8">0</Current><DateUtc dt:dt="string">2015-04-29T21:08:11Z</DateUtc></FrequencyChange></FrequencyChanges></Clock>\n	Hungry_Donkey_bar_English_2-101-1	59.973	18	1.0.0.17	1	-1095464730	Standard	2.0.10.353	2.0.10.353	04-29-2015	4/29/2015 9:08:11 PM	17:08:11	2.0.10.248	2	Bar37-63.bmp	38	4	?	8r_4g.bmp	50r_4g.bmp	1r_2g.bmp	10r_2g.bmp				10r_2g.bmp	TrialProc	TrialList	0	cvbn	-999999	17	71832	0	n	3906	75738	6	-10	-4	0	4	0	-8	1	1	2	-8	-50	-1	-10	4	4	2	2	-10	2
Hungry_Donkey_bar_English_2	101	1	<?xml version="1.0"?>\n<Clock xmlns:dt="urn:schemas-microsoft-com:datatypes"><Description dt:dt="string">E-Prime Primary Realtime Clock</Description><StartTime><Timestamp dt:dt="int">0</Timestamp><DateUtc dt:dt="string">2015-04-29T21:08:11Z</DateUtc></StartTime><FrequencyChanges><FrequencyChange><Frequency dt:dt="r8">2597695</Frequency><Timestamp dt:dt="r8">11788943016</Timestamp><Current dt:dt="r8">0</Current><DateUtc dt:dt="string">2015-04-29T21:08:11Z</DateUtc></FrequencyChange></FrequencyChanges></Clock>\n	Hungry_Donkey_bar_English_2-101-1	59.973	18	1.0.0.17	1	-1095464730	Standard	2.0.10.353	2.0.10.353	04-29-2015	4/29/2015 9:08:11 PM	17:08:11	2.0.10.248	3	Bar50-50.bmp	50	1	?	0r_4g.bmp	0r_4g.bmp	0r_2g.bmp	0r_2g.bmp	0r_4g.bmp				TrialProc	TrialList	0	cvbn	-999999	17	77818	0	c	1024	78842	10	-10	0	4	4	0	-8	6	1	3	0	0	0	0	4	4	2	2	0	4
Hungry_Donkey_bar_English_2	101	1	<?xml version="1.0"?>\n<Clock xmlns:dt="urn:schemas-microsoft-com:datatypes"><Description dt:dt="string">E-Prime Primary Realtime Clock</Description><StartTime><Timestamp dt:dt="int">0</Timestamp><DateUtc dt:dt="string">2015-04-29T21:08:11Z</DateUtc></StartTime><FrequencyChanges><FrequencyChange><Frequency dt:dt="r8">2597695</Frequency><Timestamp dt:dt="r8">11788943016</Timestamp><Current dt:dt="r8">0</Current><DateUtc dt:dt="string">2015-04-29T21:08:11Z</DateUtc></FrequencyChange></FrequencyChanges></Clock>\n	Hungry_Donkey_bar_English_2-101-1	59.973	18	1.0.0.17	1	-1095464730	Standard	2.0.10.353	2.0.10.353	04-29-2015	4/29/2015 9:08:11 PM	17:08:11	2.0.10.248	4	Bar63-37.bmp	58	2	?	10r_4g.bmp	0r_4g.bmp	2r_2g.bmp	0r_2g.bmp		0r_4g.bmp			TrialProc	TrialList	0	cvbn	-999999	17	80886	0	v	948	81834	14	-10	4	4	8	0	-8	4	1	4	-10	0	-2	0	4	4	2	2	0	4
Hungry_Donkey_bar_English_2	101	1	<?xml version="1.0"?>\n<Clock xmlns:dt="urn:schemas-microsoft-com:datatypes"><Description dt:dt="string">E-Prime Primary Realtime Clock</Description><StartTime><Timestamp dt:dt="int">0</Timestamp><DateUtc dt:dt="string">2015-04-29T21:08:11Z</DateUtc></StartTime><FrequencyChanges><FrequencyChange><Frequency dt:dt="r8">2597695</Frequency><Timestamp dt:dt="r8">11788943016</Timestamp><Current dt:dt="r8">0</Current><DateUtc dt:dt="string">2015-04-29T21:08:11Z</DateUtc></FrequencyChange></FrequencyChanges></Clock>\n	Hungry_Donkey_bar_English_2-101-1	59.973	18	1.0.0.17	1	-1095464730	Standard	2.0.10.353	2.0.10.353	04-29-2015	4/29/2015 9:08:11 PM	17:08:11	2.0.10.248	5	Bar63-37.bmp	64	2	?	0r_4g.bmp	0r_4g.bmp	0r_2g.bmp	0r_2g.bmp		0r_4g.bmp			TrialProc	TrialList	0	cvbn	-999999	18	83888	0	v	570	84458	18	-10	8	4	12	0	-8	9	1	5	0	0	0	0	4	4	2	2	0	4
Hungry_Donkey_bar_English_2	101	1	<?xml version="1.0"?>\n<Clock xmlns:dt="urn:schemas-microsoft-com:datatypes"><Description dt:dt="string">E-Prime Primary Realtime Clock</Description><StartTime><Timestamp dt:dt="int">0</Timestamp><DateUtc dt:dt="string">2015-04-29T21:08:11Z</DateUtc></StartTime><FrequencyChanges><FrequencyChange><Frequency dt:dt="r8">2597695</Frequency><Timestamp dt:dt="r8">11788943016</Timestamp><Current dt:dt="r8">0</Current><DateUtc dt:dt="string">2015-04-29T21:08:11Z</DateUtc></FrequencyChange></FrequencyChanges></Clock>\n	Hungry_Donkey_bar_English_2-101-1	59.973	18	1.0.0.17	1	-1095464730	Standard	2.0.10.353	2.0.10.353	04-29-2015	4/29/2015 9:08:11 PM	17:08:11	2.0.10.248	6	Bar63-37.bmp	69	2	?	0r_4g.bmp	0r_4g.bmp	0r_2g.bmp	0r_2g.bmp		0r_4g.bmp			TrialProc	TrialList	0	cvbn	-999999	18	86489	0	v	481	86970	22	-10	12	4	16	0	-8	7	1	6	0	0	0	0	4	4	2	2	0	4
Hungry_Donkey_bar_English_2	101	1	<?xml version="1.0"?>\n<Clock xmlns:dt="urn:schemas-microsoft-com:datatypes"><Description dt:dt="string">E-Prime Primary Realtime Clock</Description><StartTime><Timestamp dt:dt="int">0</Timestamp><DateUtc dt:dt="string">2015-04-29T21:08:11Z</DateUtc></StartTime><FrequencyChanges><FrequencyChange><Frequency dt:dt="r8">2597695</Frequency><Timestamp dt:dt="r8">11788943016</Timestamp><Current dt:dt="r8">0</Current><DateUtc dt:dt="string">2015-04-29T21:08:11Z</DateUtc></FrequencyChange></FrequencyChanges></Clock>\n	Hungry_Donkey_bar_English_2-101-1	59.973	18	1.0.0.17	1	-1095464730	Standard	2.0.10.353	2.0.10.353	04-29-2015	4/29/2015 9:08:11 PM	17:08:11	2.0.10.248	7	Bar75-25.bmp	72	2	?	10r_4g.bmp	0r_4g.bmp	2r_2g.bmp	0r_2g.bmp		0r_4g.bmp			TrialProc	TrialList	0	cvbn	-999999	17	89006	0	v	364	89370	26	-10	16	4	20	0	-8	3	1	7	-10	0	-2	0	4	4	2	2	0	4
Hungry_Donkey_bar_English_2	101	1	<?xml version="1.0"?>\n<Clock xmlns:dt="urn:schemas-microsoft-com:datatypes"><Description dt:dt="string">E-Prime Primary Realtime Clock</Description><StartTime><Timestamp dt:dt="int">0</Timestamp><DateUtc dt:dt="string">2015-04-29T21:08:11Z</DateUtc></StartTime><FrequencyChanges><FrequencyChange><Frequency dt:dt="r8">2597695</Frequency><Timestamp dt:dt="r8">11788943016</Timestamp><Current dt:dt="r8">0</Current><DateUtc dt:dt="string">2015-04-29T21:08:11Z</DateUtc></FrequencyChange></FrequencyChanges></Clock>\n	Hungry_Donkey_bar_English_2-101-1	59.973	18	1.0.0.17	1	-1095464730	Standard	2.0.10.353	2.0.10.353	04-29-2015	4/29/2015 9:08:11 PM	17:08:11	2.0.10.248	8	Bar75-25.bmp	74	3	?	0r_4g.bmp	0r_4g.bmp	0r_2g.bmp	0r_2g.bmp			0r_2g.bmp		TrialProc	TrialList	0	cvbn	-999999	17	91424	0	b	810	92234	28	-10	18	4	20	2	-8	8	1	8	0	0	0	0	4	4	2	2	0	2
Hungry_Donkey_bar_English_2	101	1	<?xml version="1.0"?>\n<Clock xmlns:dt="urn:schemas-microsoft-com:datatypes"><Description dt:dt="string">E-Prime Primary Realtime Clock</Description><StartTime><Timestamp dt:dt="int">0</Timestamp><DateUtc dt:dt="string">2015-04-29T21:08:11Z</DateUtc></StartTime><FrequencyChanges><FrequencyChange><Frequency dt:dt="r8">2597695</Frequency><Timestamp dt:dt="r8">11788943016</Timestamp><Current dt:dt="r8">0</Current><DateUtc dt:dt="string">2015-04-29T21:08:11Z</DateUtc></FrequencyChange></FrequencyChanges></Clock>\n	Hungry_Donkey_bar_English_2-101-1	59.973	18	1.0.0.17	1	-1095464730	Standard	2.0.10.353	2.0.10.353	04-29-2015	4/29/2015 9:08:11 PM	17:08:11	2.0.10.248	9	Bar75-25.bmp	76	2	?	0r_4g.bmp	0r_4g.bmp	0r_2g.bmp	0r_2g.bmp		0r_4g.bmp			TrialProc	TrialList	0	cvbn	-999999	17	94292	0	v	454	94746	32	-10	22	4	24	2	-8	10	1	9	0	0	0	0	4	4	2	2	0	4
Hungry_Donkey_bar_English_2	101	1	<?xml version="1.0"?>\n<Clock xmlns:dt="urn:schemas-microsoft-com:datatypes"><Description dt:dt="string">E-Prime Primary Realtime Clock</Description><StartTime><Timestamp dt:dt="int">0</Timestamp><DateUtc dt:dt="string">2015-04-29T21:08:11Z</DateUtc></StartTime><FrequencyChanges><FrequencyChange><Frequency dt:dt="r8">2597695</Frequency><Timestamp dt:dt="r8">11788943016</Timestamp><Current dt:dt="r8">0</Current><DateUtc dt:dt="string">2015-04-29T21:08:11Z</DateUtc></FrequencyChange></FrequencyChanges></Clock>\n	Hungry_Donkey_bar_English_2-101-1	59.973	18	1.0.0.17	1	-1095464730	Standard	2.0.10.353	2.0.10.353	04-29-2015	4/29/2015 9:08:11 PM	17:08:11	2.0.10.248	10	Bar75-25.bmp	78	2	?	12r_4g.bmp	0r_4g.bmp	3r_2g.bmp	0r_2g.bmp		0r_4g.bmp			TrialProc	TrialList	0	cvbn	-999999	18	96777	0	v	385	97162	36	-10	26	4	28	2	-8	5	1	10	-12	0	-3	0	4	4	2	2	0	4
Hungry_Donkey_bar_English_2	101	1	<?xml version="1.0"?>\n<Clock xmlns:dt="urn:schemas-microsoft-com:datatypes"><Description dt:dt="string">E-Prime Primary Realtime Clock</Description><StartTime><Timestamp dt:dt="int">0</Timestamp><DateUtc dt:dt="string">2015-04-29T21:08:11Z</DateUtc></StartTime><FrequencyChanges><FrequencyChange><Frequency dt:dt="r8">2597695</Frequency><Timestamp dt:dt="r8">11788943016</Timestamp><Current dt:dt="r8">0</Current><DateUtc dt:dt="string">2015-04-29T21:08:11Z</DateUtc></FrequencyChange></FrequencyChanges></Clock>\n	Hungry_Donkey_bar_English_2-101-1	59.973	18	1.0.0.17	1	-1095464730	Standard	2.0.10.353	2.0.10.353	04-29-2015	4/29/2015 9:08:11 PM	17:08:11	2.0.10.248	11	Bar75-25.bmp	80	2	?	0r_4g.bmp	0r_4g.bmp	0r_2g.bmp	0r_2g.bmp		0r_4g.bmp			TrialProc	TrialList	0	cvbn	-999999	17	99194	0	v	400	99594	40	-10	30	4	32	2	-8	8	2	11	0	0	0	0	4	4	2	2	0	4
Hungry_Donkey_bar_English_2	101	1	<?xml version="1.0"?>\n<Clock xmlns:dt="urn:schemas-microsoft-com:datatypes"><Description dt:dt="string">E-Prime Primary Realtime Clock</Description><StartTime><Timestamp dt:dt="int">0</Timestamp><DateUtc dt:dt="string">2015-04-29T21:08:11Z</DateUtc></StartTime><FrequencyChanges><FrequencyChange><Frequency dt:dt="r8">2597695</Frequency><Timestamp dt:dt="r8">11788943016</Timestamp><Current dt:dt="r8">0</Current><DateUtc dt:dt="string">2015-04-29T21:08:11Z</DateUtc></FrequencyChange></FrequencyChanges></Clock>\n	Hungry_Donkey_bar_English_2-101-1	59.973	18	1.0.0.17	1	-1095464730	Standard	2.0.10.353	2.0.10.353	04-29-2015	4/29/2015 9:08:11 PM	17:08:11	2.0.10.248	12	Bar75-25.bmp	81	2	?	0r_4g.bmp	0r_4g.bmp	0r_2g.bmp	0r_2g.bmp		0r_4g.bmp			TrialProc	TrialList	0	cvbn	-999999	18	101629	0	v	380	102009	44	-10	34	4	36	2	-8	9	2	12	0	0	0	0	4	4	2	2	0	4
Hungry_Donkey_bar_English_2	101	1	<?xml version="1.0"?>\n<Clock xmlns:dt="urn:schemas-microsoft-com:datatypes"><Description dt:dt="string">E-Prime Primary Realtime Clock</Description><StartTime><Timestamp dt:dt="int">0</Timestamp><DateUtc dt:dt="string">2015-04-29T21:08:11Z</DateUtc></StartTime><FrequencyChanges><FrequencyChange><Frequency dt:dt="r8">2597695</Frequency><Timestamp dt:dt="r8">11788943016</Timestamp><Current dt:dt="r8">0</Current><DateUtc dt:dt="string">2015-04-29T21:08:11Z</DateUtc></FrequencyChange></FrequencyChanges></Clock>\n	Hungry_Donkey_bar_English_2-101-1	59.973	18	1.0.0.17	1	-1095464730	Standard	2.0.10.353	2.0.10.353	04-29-2015	4/29/2015 9:08:11 PM	17:08:11	2.0.10.248	13	Bar87-13.bmp	83	2	?	0r_4g.bmp	0r_4g.bmp	0r_2g.bmp	0r_2g.bmp		0r_4g.bmp			TrialProc	TrialList	0	cvbn	-999999	17	104046	0	v	331	104377	48	-10	38	4	40	2	-8	7	2	13	0	0	0	0	4	4	2	2	0	4
Hungry_Donkey_bar_English_2	101	1	<?xml version="1.0"?>\n<Clock xmlns:dt="urn:schemas-microsoft-com:datatypes"><Description dt:dt="string">E-Prime Primary Realtime Clock</Description><StartTime><Timestamp dt:dt="int">0</Timestamp><DateUtc dt:dt="string">2015-04-29T21:08:11Z</DateUtc></StartTime><FrequencyChanges><FrequencyChange><Frequency dt:dt="r8">2597695</Frequency><Timestamp dt:dt="r8">11788943016</Timestamp><Current dt:dt="r8">0</Current><DateUtc dt:dt="string">2015-04-29T21:08:11Z</DateUtc></FrequencyChange></FrequencyChanges></Clock>\n	Hungry_Donkey_bar_English_2-101-1	59.973	18	1.0.0.17	1	-1095464730	Standard	2.0.10.353	2.0.10.353	04-29-2015	4/29/2015 9:08:11 PM	17:08:11	2.0.10.248	14	Bar87-13.bmp	84	2	?	0r_4g.bmp	0r_4g.bmp	0r_2g.bmp	0r_2g.bmp		0r_4g.bmp			TrialProc	TrialList	0	cvbn	-999999	18	106431	0	v	442	106873	52	-10	42	4	44	2	-8	6	2	14	0	0	0	0	4	4	2	2	0	4
Hungry_Donkey_bar_English_2	101	1	<?xml version="1.0"?>\n<Clock xmlns:dt="urn:schemas-microsoft-com:datatypes"><Description dt:dt="string">E-Prime Primary Realtime Clock</Description><StartTime><Timestamp dt:dt="int">0</Timestamp><DateUtc dt:dt="string">2015-04-29T21:08:11Z</DateUtc></StartTime><FrequencyChanges><FrequencyChange><Frequency dt:dt="r8">2597695</Frequency><Timestamp dt:dt="r8">11788943016</Timestamp><Current dt:dt="r8">0</Current><DateUtc dt:dt="string">2015-04-29T21:08:11Z</DateUtc></FrequencyChange></FrequencyChanges></Clock>\n	Hungry_Donkey_bar_English_2-101-1	59.973	18	1.0.0.17	1	-1095464730	Standard	2.0.10.353	2.0.10.353	04-29-2015	4/29/2015 9:08:11 PM	17:08:11	2.0.10.248	15	Bar87-13.bmp	85	2	?	10r_4g.bmp	0r_4g.bmp	2r_2g.bmp	0r_2g.bmp		0r_4g.bmp			TrialProc	TrialList	0	cvbn	-999999	17	108915	0	v	358	109273	56	-10	46	4	48	2	-8	2	2	15	-10	0	-2	0	4	4	2	2	0	4
Hungry_Donkey_bar_English_2	101	1	<?xml version="1.0"?>\n<Clock xmlns:dt="urn:schemas-microsoft-com:datatypes"><Description dt:dt="string">E-Prime Primary Realtime Clock</Description><StartTime><Timestamp dt:dt="int">0</Timestamp><DateUtc dt:dt="string">2015-04-29T21:08:11Z</DateUtc></StartTime><FrequencyChanges><FrequencyChange><Frequency dt:dt="r8">2597695</Frequency><Timestamp dt:dt="r8">11788943016</Timestamp><Current dt:dt="r8">0</Current><DateUtc dt:dt="string">2015-04-29T21:08:11Z</DateUtc></FrequencyChange></FrequencyChanges></Clock>\n	Hungry_Donkey_bar_English_2-101-1	59.973	18	1.0.0.17	1	-1095464730	Standard	2.0.10.353	2.0.10.353	04-29-2015	4/29/2015 9:08:11 PM	17:08:11	2.0.10.248	16	Bar87-13.bmp	86	2	?	0r_4g.bmp	0r_4g.bmp	0r_2g.bmp	0r_2g.bmp		0r_4g.bmp			TrialProc	TrialList	0	cvbn	-999999	17	111316	0	v	373	111689	60	-10	50	4	52	2	-8	10	2	16	0	0	0	0	4	4	2	2	0	4
Hungry_Donkey_bar_English_2	101	1	<?xml version="1.0"?>\n<Clock xmlns:dt="urn:schemas-microsoft-com:datatypes"><Description dt:dt="string">E-Prime Primary Realtime Clock</Description><StartTime><Timestamp dt:dt="int">0</Timestamp><DateUtc dt:dt="string">2015-04-29T21:08:11Z</DateUtc></StartTime><FrequencyChanges><FrequencyChange><Frequency dt:dt="r8">2597695</Frequency><Timestamp dt:dt="r8">11788943016</Timestamp><Current dt:dt="r8">0</Current><DateUtc dt:dt="string">2015-04-29T21:08:11Z</DateUtc></FrequencyChange></FrequencyChanges></Clock>\n	Hungry_Donkey_bar_English_2-101-1	59.973	18	1.0.0.17	1	-1095464730	Standard	2.0.10.353	2.0.10.353	04-29-2015	4/29/2015 9:08:11 PM	17:08:11	2.0.10.248	17	Bar75-25.bmp	78	1	?	8r_4g.bmp	50r_4g.bmp	1r_2g.bmp	10r_2g.bmp	8r_4g.bmp				TrialProc	TrialList	0	cvbn	-999999	16	113717	0	c	7700	121417	64	-18	46	0	52	2	-8	1	2	17	-8	-50	-1	-10	4	4	2	2	-8	4
Hungry_Donkey_bar_English_2	101	1	<?xml version="1.0"?>\n<Clock xmlns:dt="urn:schemas-microsoft-com:datatypes"><Description dt:dt="string">E-Prime Primary Realtime Clock</Description><StartTime><Timestamp dt:dt="int">0</Timestamp><DateUtc dt:dt="string">2015-04-29T21:08:11Z</DateUtc></StartTime><FrequencyChanges><FrequencyChange><Frequency dt:dt="r8">2597695</Frequency><Timestamp dt:dt="r8">11788943016</Timestamp><Current dt:dt="r8">0</Current><DateUtc dt:dt="string">2015-04-29T21:08:11Z</DateUtc></FrequencyChange></FrequencyChanges></Clock>\n	Hungry_Donkey_bar_English_2-101-1	59.973	18	1.0.0.17	1	-1095464730	Standard	2.0.10.353	2.0.10.353	04-29-2015	4/29/2015 9:08:11 PM	17:08:11	2.0.10.248	18	Bar75-25.bmp	79	2	?	10r_4g.bmp	0r_4g.bmp	2r_2g.bmp	0r_2g.bmp		0r_4g.bmp			TrialProc	TrialList	0	cvbn	-999999	18	123472	0	v	1401	124873	68	-18	50	0	56	2	-8	3	2	18	-10	0	-2	0	4	4	2	2	0	4
Hungry_Donkey_bar_English_2	101	1	<?xml version="1.0"?>\n<Clock xmlns:dt="urn:schemas-microsoft-com:datatypes"><Description dt:dt="string">E-Prime Primary Realtime Clock</Description><StartTime><Timestamp dt:dt="int">0</Timestamp><DateUtc dt:dt="string">2015-04-29T21:08:11Z</DateUtc></StartTime><FrequencyChanges><FrequencyChange><Frequency dt:dt="r8">2597695</Frequency><Timestamp dt:dt="r8">11788943016</Timestamp><Current dt:dt="r8">0</Current><DateUtc dt:dt="string">2015-04-29T21:08:11Z</DateUtc></FrequencyChange></FrequencyChanges></Clock>\n	Hungry_Donkey_bar_English_2-101-1	59.973	18	1.0.0.17	1	-1095464730	Standard	2.0.10.353	2.0.10.353	04-29-2015	4/29/2015 9:08:11 PM	17:08:11	2.0.10.248	19	Bar75-25.bmp	80	2	?	12r_4g.bmp	0r_4g.bmp	3r_2g.bmp	0r_2g.bmp		0r_4g.bmp			TrialProc	TrialList	0	cvbn	-999999	18	126907	0	v	430	127337	72	-18	54	0	60	2	-8	5	2	19	-12	0	-3	0	4	4	2	2	0	4
Hungry_Donkey_bar_English_2	101	1	<?xml version="1.0"?>\n<Clock xmlns:dt="urn:schemas-microsoft-com:datatypes"><Description dt:dt="string">E-Prime Primary Realtime Clock</Description><StartTime><Timestamp dt:dt="int">0</Timestamp><DateUtc dt:dt="string">2015-04-29T21:08:11Z</DateUtc></StartTime><FrequencyChanges><FrequencyChange><Frequency dt:dt="r8">2597695</Frequency><Timestamp dt:dt="r8">11788943016</Timestamp><Current dt:dt="r8">0</Current><DateUtc dt:dt="string">2015-04-29T21:08:11Z</DateUtc></FrequencyChange></FrequencyChanges></Clock>\n	Hungry_Donkey_bar_English_2-101-1	59.973	18	1.0.0.17	1	-1095464730	Standard	2.0.10.353	2.0.10.353	04-29-2015	4/29/2015 9:08:11 PM	17:08:11	2.0.10.248	20	Bar75-25.bmp	79	3	?	10r_4g.bmp	0r_4g.bmp	2r_2g.bmp	0r_2g.bmp			2r_2g.bmp		TrialProc	TrialList	0	cvbn	-999999	17	129374	0	b	683	130057	74	-20	54	0	60	2	-8	4	2	20	-10	0	-2	0	4	4	2	2	-2	2
Hungry_Donkey_bar_English_2	101	1	<?xml version="1.0"?>\n<Clock xmlns:dt="urn:schemas-microsoft-com:datatypes"><Description dt:dt="string">E-Prime Primary Realtime Clock</Description><StartTime><Timestamp dt:dt="int">0</Timestamp><DateUtc dt:dt="string">2015-04-29T21:08:11Z</DateUtc></StartTime><FrequencyChanges><FrequencyChange><Frequency dt:dt="r8">2597695</Frequency><Timestamp dt:dt="r8">11788943016</Timestamp><Current dt:dt="r8">0</Current><DateUtc dt:dt="string">2015-04-29T21:08:11Z</DateUtc></FrequencyChange></FrequencyChanges></Clock>\n	Hungry_Donkey_bar_English_2-101-1	59.973	18	1.0.0.17	1	-1095464730	Standard	2.0.10.353	2.0.10.353	04-29-2015	4/29/2015 9:08:11 PM	17:08:11	2.0.10.248	21	Bar75-25.bmp	79	4	?	0r_4g.bmp	0r_4g.bmp	0r_2g.bmp	0r_2g.bmp				0r_2g.bmp	TrialProc	TrialList	0	cvbn	-999999	18	132109	0	n	1084	133193	76	-20	56	0	60	2	-6	7	3	21	0	0	0	0	4	4	2	2	0	2
Hungry_Donkey_bar_English_2	101	1	<?xml version="1.0"?>\n<Clock xmlns:dt="urn:schemas-microsoft-com:datatypes"><Description dt:dt="string">E-Prime Primary Realtime Clock</Description><StartTime><Timestamp dt:dt="int">0</Timestamp><DateUtc dt:dt="string">2015-04-29T21:08:11Z</DateUtc></StartTime><FrequencyChanges><FrequencyChange><Frequency dt:dt="r8">2597695</Frequency><Timestamp dt:dt="r8">11788943016</Timestamp><Current dt:dt="r8">0</Current><DateUtc dt:dt="string">2015-04-29T21:08:11Z</DateUtc></FrequencyChange></FrequencyChanges></Clock>\n	Hungry_Donkey_bar_English_2-101-1	59.973	18	1.0.0.17	1	-1095464730	Standard	2.0.10.353	2.0.10.353	04-29-2015	4/29/2015 9:08:11 PM	17:08:11	2.0.10.248	22	Bar75-25.bmp	80	4	?	0r_4g.bmp	0r_4g.bmp	0r_2g.bmp	0r_2g.bmp				0r_2g.bmp	TrialProc	TrialList	0	cvbn	-999999	18	135227	0	n	526	135753	78	-20	58	0	60	2	-4	9	3	22	0	0	0	0	4	4	2	2	0	2
Hungry_Donkey_bar_English_2	101	1	<?xml version="1.0"?>\n<Clock xmlns:dt="urn:schemas-microsoft-com:datatypes"><Description dt:dt="string">E-Prime Primary Realtime Clock</Description><StartTime><Timestamp dt:dt="int">0</Timestamp><DateUtc dt:dt="string">2015-04-29T21:08:11Z</DateUtc></StartTime><FrequencyChanges><FrequencyChange><Frequency dt:dt="r8">2597695</Frequency><Timestamp dt:dt="r8">11788943016</Timestamp><Current dt:dt="r8">0</Current><DateUtc dt:dt="string">2015-04-29T21:08:11Z</DateUtc></FrequencyChange></FrequencyChanges></Clock>\n	Hungry_Donkey_bar_English_2-101-1	59.973	18	1.0.0.17	1	-1095464730	Standard	2.0.10.353	2.0.10.353	04-29-2015	4/29/2015 9:08:11 PM	17:08:11	2.0.10.248	23	Bar75-25.bmp	80	4	?	0r_4g.bmp	0r_4g.bmp	0r_2g.bmp	0r_2g.bmp				0r_2g.bmp	TrialProc	TrialList	0	cvbn	-999999	18	137795	0	n	342	138137	80	-20	60	0	60	2	-2	10	3	23	0	0	0	0	4	4	2	2	0	2
Hungry_Donkey_bar_English_2	101	1	<?xml version="1.0"?>\n<Clock xmlns:dt="urn:schemas-microsoft-com:datatypes"><Description dt:dt="string">E-Prime Primary Realtime Clock</Description><StartTime><Timestamp dt:dt="int">0</Timestamp><DateUtc dt:dt="string">2015-04-29T21:08:11Z</DateUtc></StartTime><FrequencyChanges><FrequencyChange><Frequency dt:dt="r8">2597695</Frequency><Timestamp dt:dt="r8">11788943016</Timestamp><Current dt:dt="r8">0</Current><DateUtc dt:dt="string">2015-04-29T21:08:11Z</DateUtc></FrequencyChange></FrequencyChanges></Clock>\n	Hungry_Donkey_bar_English_2-101-1	59.973	18	1.0.0.17	1	-1095464730	Standard	2.0.10.353	2.0.10.353	04-29-2015	4/29/2015 9:08:11 PM	17:08:11	2.0.10.248	24	Bar75-25.bmp	81	2	?	10r_4g.bmp	0r_4g.bmp	2r_2g.bmp	0r_2g.bmp		0r_4g.bmp			TrialProc	TrialList	0	cvbn	-999999	17	140179	0	v	470	140649	84	-20	64	0	64	2	-2	3	3	24	-10	0	-2	0	4	4	2	2	0	4
Hungry_Donkey_bar_English_2	101	1	<?xml version="1.0"?>\n<Clock xmlns:dt="urn:schemas-microsoft-com:datatypes"><Description dt:dt="string">E-Prime Primary Realtime Clock</Description><StartTime><Timestamp dt:dt="int">0</Timestamp><DateUtc dt:dt="string">2015-04-29T21:08:11Z</DateUtc></StartTime><FrequencyChanges><FrequencyChange><Frequency dt:dt="r8">2597695</Frequency><Timestamp dt:dt="r8">11788943016</Timestamp><Current dt:dt="r8">0</Current><DateUtc dt:dt="string">2015-04-29T21:08:11Z</DateUtc></FrequencyChange></FrequencyChanges></Clock>\n	Hungry_Donkey_bar_English_2-101-1	59.973	18	1.0.0.17	1	-1095464730	Standard	2.0.10.353	2.0.10.353	04-29-2015	4/29/2015 9:08:11 PM	17:08:11	2.0.10.248	25	Bar75-25.bmp	81	2	?	10r_4g.bmp	0r_4g.bmp	2r_2g.bmp	0r_2g.bmp		0r_4g.bmp			TrialProc	TrialList	0	cvbn	-999999	17	142680	0	v	417	143097	88	-20	68	0	68	2	-2	4	3	25	-10	0	-2	0	4	4	2	2	0	4
Hungry_Donkey_bar_English_2	101	1	<?xml version="1.0"?>\n<Clock xmlns:dt="urn:schemas-microsoft-com:datatypes"><Description dt:dt="string">E-Prime Primary Realtime Clock</Description><StartTime><Timestamp dt:dt="int">0</Timestamp><DateUtc dt:dt="string">2015-04-29T21:08:11Z</DateUtc></StartTime><FrequencyChanges><FrequencyChange><Frequency dt:dt="r8">2597695</Frequency><Timestamp dt:dt="r8">11788943016</Timestamp><Current dt:dt="r8">0</Current><DateUtc dt:dt="string">2015-04-29T21:08:11Z</DateUtc></FrequencyChange></FrequencyChanges></Clock>\n	Hungry_Donkey_bar_English_2-101-1	59.973	18	1.0.0.17	1	-1095464730	Standard	2.0.10.353	2.0.10.353	04-29-2015	4/29/2015 9:08:11 PM	17:08:11	2.0.10.248	26	Bar87-13.bmp	82	2	?	12r_4g.bmp	0r_4g.bmp	3r_2g.bmp	0r_2g.bmp		0r_4g.bmp			TrialProc	TrialList	0	cvbn	-999999	17	145131	0	v	286	145417	92	-20	72	0	72	2	-2	5	3	26	-12	0	-3	0	4	4	2	2	0	4
Hungry_Donkey_bar_English_2	101	1	<?xml version="1.0"?>\n<Clock xmlns:dt="urn:schemas-microsoft-com:datatypes"><Description dt:dt="string">E-Prime Primary Realtime Clock</Description><StartTime><Timestamp dt:dt="int">0</Timestamp><DateUtc dt:dt="string">2015-04-29T21:08:11Z</DateUtc></StartTime><FrequencyChanges><FrequencyChange><Frequency dt:dt="r8">2597695</Frequency><Timestamp dt:dt="r8">11788943016</Timestamp><Current dt:dt="r8">0</Current><DateUtc dt:dt="string">2015-04-29T21:08:11Z</DateUtc></FrequencyChange></FrequencyChanges></Clock>\n	Hungry_Donkey_bar_English_2-101-1	59.973	18	1.0.0.17	1	-1095464730	Standard	2.0.10.353	2.0.10.353	04-29-2015	4/29/2015 9:08:11 PM	17:08:11	2.0.10.248	27	Bar87-13.bmp	83	2	?	0r_4g.bmp	0r_4g.bmp	0r_2g.bmp	0r_2g.bmp		0r_4g.bmp			TrialProc	TrialList	0	cvbn	-999999	18	147449	0	v	383	147832	96	-20	76	0	76	2	-2	8	3	27	0	0	0	0	4	4	2	2	0	4
Hungry_Donkey_bar_English_2	101	1	<?xml version="1.0"?>\n<Clock xmlns:dt="urn:schemas-microsoft-com:datatypes"><Description dt:dt="string">E-Prime Primary Realtime Clock</Description><StartTime><Timestamp dt:dt="int">0</Timestamp><DateUtc dt:dt="string">2015-04-29T21:08:11Z</DateUtc></StartTime><FrequencyChanges><FrequencyChange><Frequency dt:dt="r8">2597695</Frequency><Timestamp dt:dt="r8">11788943016</Timestamp><Current dt:dt="r8">0</Current><DateUtc dt:dt="string">2015-04-29T21:08:11Z</DateUtc></FrequencyChange></FrequencyChanges></Clock>\n	Hungry_Donkey_bar_English_2-101-1	59.973	18	1.0.0.17	1	-1095464730	Standard	2.0.10.353	2.0.10.353	04-29-2015	4/29/2015 9:08:11 PM	17:08:11	2.0.10.248	28	Bar87-13.bmp	83	2	?	10r_4g.bmp	0r_4g.bmp	2r_2g.bmp	0r_2g.bmp		0r_4g.bmp			TrialProc	TrialList	0	cvbn	-999999	18	149867	0	v	125	149992	100	-20	80	0	80	2	-2	2	3	28	-10	0	-2	0	4	4	2	2	0	4
Hungry_Donkey_bar_English_2	101	1	<?xml version="1.0"?>\n<Clock xmlns:dt="urn:schemas-microsoft-com:datatypes"><Description dt:dt="string">E-Prime Primary Realtime Clock</Description><StartTime><Timestamp dt:dt="int">0</Timestamp><DateUtc dt:dt="string">2015-04-29T21:08:11Z</DateUtc></StartTime><FrequencyChanges><FrequencyChange><Frequency dt:dt="r8">2597695</Frequency><Timestamp dt:dt="r8">11788943016</Timestamp><Current dt:dt="r8">0</Current><DateUtc dt:dt="string">2015-04-29T21:08:11Z</DateUtc></FrequencyChange></FrequencyChanges></Clock>\n	Hungry_Donkey_bar_English_2-101-1	59.973	18	1.0.0.17	1	-1095464730	Standard	2.0.10.353	2.0.10.353	04-29-2015	4/29/2015 9:08:11 PM	17:08:11	2.0.10.248	29	Bar87-13.bmp	84	2	?	0r_4g.bmp	0r_4g.bmp	0r_2g.bmp	0r_2g.bmp		0r_4g.bmp			TrialProc	TrialList	0	cvbn	-999999	17	152034	0	v	390	152424	104	-20	84	0	84	2	-2	6	3	29	0	0	0	0	4	4	2	2	0	4
Hungry_Donkey_bar_English_2	101	1	<?xml version="1.0"?>\n<Clock xmlns:dt="urn:schemas-microsoft-com:datatypes"><Description dt:dt="string">E-Prime Primary Realtime Clock</Description><StartTime><Timestamp dt:dt="int">0</Timestamp><DateUtc dt:dt="string">2015-04-29T21:08:11Z</DateUtc></StartTime><FrequencyChanges><FrequencyChange><Frequency dt:dt="r8">2597695</Frequency><Timestamp dt:dt="r8">11788943016</Timestamp><Current dt:dt="r8">0</Current><DateUtc dt:dt="string">2015-04-29T21:08:11Z</DateUtc></FrequencyChange></FrequencyChanges></Clock>\n	Hungry_Donkey_bar_English_2-101-1	59.973	18	1.0.0.17	1	-1095464730	Standard	2.0.10.353	2.0.10.353	04-29-2015	4/29/2015 9:08:11 PM	17:08:11	2.0.10.248	30	Bar63-37.bmp	61	2	?	8r_4g.bmp	50r_4g.bmp	1r_2g.bmp	10r_2g.bmp		50r_4g.bmp			TrialProc	TrialList	0	cvbn	-999999	17	154452	0	v	436	154888	108	-70	38	0	38	2	-2	1	3	30	-8	-50	-1	-10	4	4	2	2	-50	4
Hungry_Donkey_bar_English_2	101	1	<?xml version="1.0"?>\n<Clock xmlns:dt="urn:schemas-microsoft-com:datatypes"><Description dt:dt="string">E-Prime Primary Realtime Clock</Description><StartTime><Timestamp dt:dt="int">0</Timestamp><DateUtc dt:dt="string">2015-04-29T21:08:11Z</DateUtc></StartTime><FrequencyChanges><FrequencyChange><Frequency dt:dt="r8">2597695</Frequency><Timestamp dt:dt="r8">11788943016</Timestamp><Current dt:dt="r8">0</Current><DateUtc dt:dt="string">2015-04-29T21:08:11Z</DateUtc></FrequencyChange></FrequencyChanges></Clock>\n	Hungry_Donkey_bar_English_2-101-1	59.973	18	1.0.0.17	1	-1095464730	Standard	2.0.10.353	2.0.10.353	04-29-2015	4/29/2015 9:08:11 PM	17:08:11	2.0.10.248	31	Bar63-37.bmp	61	3	?	0r_4g.bmp	0r_4g.bmp	0r_2g.bmp	0r_2g.bmp			0r_2g.bmp		TrialProc	TrialList	0	cvbn	-999999	17	156953	0	b	1183	158136	110	-70	40	0	38	4	-2	10	4	31	0	0	0	0	4	4	2	2	0	2
Hungry_Donkey_bar_English_2	101	1	<?xml version="1.0"?>\n<Clock xmlns:dt="urn:schemas-microsoft-com:datatypes"><Description dt:dt="string">E-Prime Primary Realtime Clock</Description><StartTime><Timestamp dt:dt="int">0</Timestamp><DateUtc dt:dt="string">2015-04-29T21:08:11Z</DateUtc></StartTime><FrequencyChanges><FrequencyChange><Frequency dt:dt="r8">2597695</Frequency><Timestamp dt:dt="r8">11788943016</Timestamp><Current dt:dt="r8">0</Current><DateUtc dt:dt="string">2015-04-29T21:08:11Z</DateUtc></FrequencyChange></FrequencyChanges></Clock>\n	Hungry_Donkey_bar_English_2-101-1	59.973	18	1.0.0.17	1	-1095464730	Standard	2.0.10.353	2.0.10.353	04-29-2015	4/29/2015 9:08:11 PM	17:08:11	2.0.10.248	32	Bar63-37.bmp	62	1	?	0r_4g.bmp	0r_4g.bmp	0r_2g.bmp	0r_2g.bmp	0r_4g.bmp				TrialProc	TrialList	0	cvbn	-999999	17	160171	0	c	493	160664	114	-70	44	4	38	4	-2	9	4	32	0	0	0	0	4	4	2	2	0	4
Hungry_Donkey_bar_English_2	101	1	<?xml version="1.0"?>\n<Clock xmlns:dt="urn:schemas-microsoft-com:datatypes"><Description dt:dt="string">E-Prime Primary Realtime Clock</Description><StartTime><Timestamp dt:dt="int">0</Timestamp><DateUtc dt:dt="string">2015-04-29T21:08:11Z</DateUtc></StartTime><FrequencyChanges><FrequencyChange><Frequency dt:dt="r8">2597695</Frequency><Timestamp dt:dt="r8">11788943016</Timestamp><Current dt:dt="r8">0</Current><DateUtc dt:dt="string">2015-04-29T21:08:11Z</DateUtc></FrequencyChange></FrequencyChanges></Clock>\n	Hungry_Donkey_bar_English_2-101-1	59.973	18	1.0.0.17	1	-1095464730	Standard	2.0.10.353	2.0.10.353	04-29-2015	4/29/2015 9:08:11 PM	17:08:11	2.0.10.248	33	Bar63-37.bmp	59	1	?	12r_4g.bmp	0r_4g.bmp	3r_2g.bmp	0r_2g.bmp	12r_4g.bmp				TrialProc	TrialList	0	cvbn	-999999	18	162706	0	c	374	163080	118	-82	36	-4	38	4	-2	5	4	33	-12	0	-3	0	4	4	2	2	-12	4
Hungry_Donkey_bar_English_2	101	1	<?xml version="1.0"?>\n<Clock xmlns:dt="urn:schemas-microsoft-com:datatypes"><Description dt:dt="string">E-Prime Primary Realtime Clock</Description><StartTime><Timestamp dt:dt="int">0</Timestamp><DateUtc dt:dt="string">2015-04-29T21:08:11Z</DateUtc></StartTime><FrequencyChanges><FrequencyChange><Frequency dt:dt="r8">2597695</Frequency><Timestamp dt:dt="r8">11788943016</Timestamp><Current dt:dt="r8">0</Current><DateUtc dt:dt="string">2015-04-29T21:08:11Z</DateUtc></FrequencyChange></FrequencyChanges></Clock>\n	Hungry_Donkey_bar_English_2-101-1	59.973	18	1.0.0.17	1	-1095464730	Standard	2.0.10.353	2.0.10.353	04-29-2015	4/29/2015 9:08:11 PM	17:08:11	2.0.10.248	34	Bar63-37.bmp	59	3	?	10r_4g.bmp	0r_4g.bmp	2r_2g.bmp	0r_2g.bmp			2r_2g.bmp		TrialProc	TrialList	0	cvbn	-999999	17	165140	0	b	708	165848	120	-84	36	-4	38	4	-2	4	4	34	-10	0	-2	0	4	4	2	2	-2	2
Hungry_Donkey_bar_English_2	101	1	<?xml version="1.0"?>\n<Clock xmlns:dt="urn:schemas-microsoft-com:datatypes"><Description dt:dt="string">E-Prime Primary Realtime Clock</Description><StartTime><Timestamp dt:dt="int">0</Timestamp><DateUtc dt:dt="string">2015-04-29T21:08:11Z</DateUtc></StartTime><FrequencyChanges><FrequencyChange><Frequency dt:dt="r8">2597695</Frequency><Timestamp dt:dt="r8">11788943016</Timestamp><Current dt:dt="r8">0</Current><DateUtc dt:dt="string">2015-04-29T21:08:11Z</DateUtc></FrequencyChange></FrequencyChanges></Clock>\n	Hungry_Donkey_bar_English_2-101-1	59.973	18	1.0.0.17	1	-1095464730	Standard	2.0.10.353	2.0.10.353	04-29-2015	4/29/2015 9:08:11 PM	17:08:11	2.0.10.248	35	Bar50-50.bmp	48	2	?	8r_4g.bmp	50r_4g.bmp	1r_2g.bmp	10r_2g.bmp		50r_4g.bmp			TrialProc	TrialList	0	cvbn	-999999	17	167891	0	v	421	168312	124	-134	-10	-4	-8	4	-2	1	4	35	-8	-50	-1	-10	4	4	2	2	-50	4
Hungry_Donkey_bar_English_2	101	1	<?xml version="1.0"?>\n<Clock xmlns:dt="urn:schemas-microsoft-com:datatypes"><Description dt:dt="string">E-Prime Primary Realtime Clock</Description><StartTime><Timestamp dt:dt="int">0</Timestamp><DateUtc dt:dt="string">2015-04-29T21:08:11Z</DateUtc></StartTime><FrequencyChanges><FrequencyChange><Frequency dt:dt="r8">2597695</Frequency><Timestamp dt:dt="r8">11788943016</Timestamp><Current dt:dt="r8">0</Current><DateUtc dt:dt="string">2015-04-29T21:08:11Z</DateUtc></FrequencyChange></FrequencyChanges></Clock>\n	Hungry_Donkey_bar_English_2-101-1	59.973	18	1.0.0.17	1	-1095464730	Standard	2.0.10.353	2.0.10.353	04-29-2015	4/29/2015 9:08:11 PM	17:08:11	2.0.10.248	36	Bar50-50.bmp	48	4	?	10r_4g.bmp	0r_4g.bmp	2r_2g.bmp	0r_2g.bmp				0r_2g.bmp	TrialProc	TrialList	0	cvbn	-999999	18	170343	0	n	513	170856	126	-134	-8	-4	-8	4	0	2	4	36	-10	0	-2	0	4	4	2	2	0	2
Hungry_Donkey_bar_English_2	101	1	<?xml version="1.0"?>\n<Clock xmlns:dt="urn:schemas-microsoft-com:datatypes"><Description dt:dt="string">E-Prime Primary Realtime Clock</Description><StartTime><Timestamp dt:dt="int">0</Timestamp><DateUtc dt:dt="string">2015-04-29T21:08:11Z</DateUtc></StartTime><FrequencyChanges><FrequencyChange><Frequency dt:dt="r8">2597695</Frequency><Timestamp dt:dt="r8">11788943016</Timestamp><Current dt:dt="r8">0</Current><DateUtc dt:dt="string">2015-04-29T21:08:11Z</DateUtc></FrequencyChange></FrequencyChanges></Clock>\n	Hungry_Donkey_bar_English_2-101-1	59.973	18	1.0.0.17	1	-1095464730	Standard	2.0.10.353	2.0.10.353	04-29-2015	4/29/2015 9:08:11 PM	17:08:11	2.0.10.248	37	Bar50-50.bmp	49	4	?	10r_4g.bmp	0r_4g.bmp	2r_2g.bmp	0r_2g.bmp				0r_2g.bmp	TrialProc	TrialList	0	cvbn	-999999	18	172894	0	n	378	173272	128	-134	-6	-4	-8	4	2	3	4	37	-10	0	-2	0	4	4	2	2	0	2
Hungry_Donkey_bar_English_2	101	1	<?xml version="1.0"?>\n<Clock xmlns:dt="urn:schemas-microsoft-com:datatypes"><Description dt:dt="string">E-Prime Primary Realtime Clock</Description><StartTime><Timestamp dt:dt="int">0</Timestamp><DateUtc dt:dt="string">2015-04-29T21:08:11Z</DateUtc></StartTime><FrequencyChanges><FrequencyChange><Frequency dt:dt="r8">2597695</Frequency><Timestamp dt:dt="r8">11788943016</Timestamp><Current dt:dt="r8">0</Current><DateUtc dt:dt="string">2015-04-29T21:08:11Z</DateUtc></FrequencyChange></FrequencyChanges></Clock>\n	Hungry_Donkey_bar_English_2-101-1	59.973	18	1.0.0.17	1	-1095464730	Standard	2.0.10.353	2.0.10.353	04-29-2015	4/29/2015 9:08:11 PM	17:08:11	2.0.10.248	38	Bar50-50.bmp	49	4	?	0r_4g.bmp	0r_4g.bmp	0r_2g.bmp	0r_2g.bmp				0r_2g.bmp	TrialProc	TrialList	0	cvbn	-999999	17	175311	0	n	441	175752	130	-134	-4	-4	-8	4	4	7	4	38	0	0	0	0	4	4	2	2	0	2
Hungry_Donkey_bar_English_2	101	1	<?xml version="1.0"?>\n<Clock xmlns:dt="urn:schemas-microsoft-com:datatypes"><Description dt:dt="string">E-Prime Primary Realtime Clock</Description><StartTime><Timestamp dt:dt="int">0</Timestamp><DateUtc dt:dt="string">2015-04-29T21:08:11Z</DateUtc></StartTime><FrequencyChanges><FrequencyChange><Frequency dt:dt="r8">2597695</Frequency><Timestamp dt:dt="r8">11788943016</Timestamp><Current dt:dt="r8">0</Current><DateUtc dt:dt="string">2015-04-29T21:08:11Z</DateUtc></FrequencyChange></FrequencyChanges></Clock>\n	Hungry_Donkey_bar_English_2-101-1	59.973	18	1.0.0.17	1	-1095464730	Standard	2.0.10.353	2.0.10.353	04-29-2015	4/29/2015 9:08:11 PM	17:08:11	2.0.10.248	39	Bar50-50.bmp	50	4	?	0r_4g.bmp	0r_4g.bmp	0r_2g.bmp	0r_2g.bmp				0r_2g.bmp	TrialProc	TrialList	0	cvbn	-999999	18	177796	0	n	468	178264	132	-134	-2	-4	-8	4	6	6	4	39	0	0	0	0	4	4	2	2	0	2
Hungry_Donkey_bar_English_2	101	1	<?xml version="1.0"?>\n<Clock xmlns:dt="urn:schemas-microsoft-com:datatypes"><Description dt:dt="string">E-Prime Primary Realtime Clock</Description><StartTime><Timestamp dt:dt="int">0</Timestamp><DateUtc dt:dt="string">2015-04-29T21:08:11Z</DateUtc></StartTime><FrequencyChanges><FrequencyChange><Frequency dt:dt="r8">2597695</Frequency><Timestamp dt:dt="r8">11788943016</Timestamp><Current dt:dt="r8">0</Current><DateUtc dt:dt="string">2015-04-29T21:08:11Z</DateUtc></FrequencyChange></FrequencyChanges></Clock>\n	Hungry_Donkey_bar_English_2-101-1	59.973	18	1.0.0.17	1	-1095464730	Standard	2.0.10.353	2.0.10.353	04-29-2015	4/29/2015 9:08:11 PM	17:08:11	2.0.10.248	40	Bar50-50.bmp	50	4	?	0r_4g.bmp	0r_4g.bmp	0r_2g.bmp	0r_2g.bmp				0r_2g.bmp	TrialProc	TrialList	0	cvbn	-999999	18	180297	0	n	383	180680	134	-134	0	-4	-8	4	8	8	4	40	0	0	0	0	4	4	2	2	0	2
Hungry_Donkey_bar_English_2	101	1	<?xml version="1.0"?>\n<Clock xmlns:dt="urn:schemas-microsoft-com:datatypes"><Description dt:dt="string">E-Prime Primary Realtime Clock</Description><StartTime><Timestamp dt:dt="int">0</Timestamp><DateUtc dt:dt="string">2015-04-29T21:08:11Z</DateUtc></StartTime><FrequencyChanges><FrequencyChange><Frequency dt:dt="r8">2597695</Frequency><Timestamp dt:dt="r8">11788943016</Timestamp><Current dt:dt="r8">0</Current><DateUtc dt:dt="string">2015-04-29T21:08:11Z</DateUtc></FrequencyChange></FrequencyChanges></Clock>\n	Hungry_Donkey_bar_English_2-101-1	59.973	18	1.0.0.17	1	-1095464730	Standard	2.0.10.353	2.0.10.353	04-29-2015	4/29/2015 9:08:11 PM	17:08:11	2.0.10.248	41	Bar50-50.bmp	50	4	?	0r_4g.bmp	0r_4g.bmp	0r_2g.bmp	0r_2g.bmp				0r_2g.bmp	TrialProc	TrialList	0	cvbn	-999999	18	182715	0	n	461	183176	136	-134	2	-4	-8	4	10	10	5	41	0	0	0	0	4	4	2	2	0	2
Hungry_Donkey_bar_English_2	101	1	<?xml version="1.0"?>\n<Clock xmlns:dt="urn:schemas-microsoft-com:datatypes"><Description dt:dt="string">E-Prime Primary Realtime Clock</Description><StartTime><Timestamp dt:dt="int">0</Timestamp><DateUtc dt:dt="string">2015-04-29T21:08:11Z</DateUtc></StartTime><FrequencyChanges><FrequencyChange><Frequency dt:dt="r8">2597695</Frequency><Timestamp dt:dt="r8">11788943016</Timestamp><Current dt:dt="r8">0</Current><DateUtc dt:dt="string">2015-04-29T21:08:11Z</DateUtc></FrequencyChange></FrequencyChanges></Clock>\n	Hungry_Donkey_bar_English_2-101-1	59.973	18	1.0.0.17	1	-1095464730	Standard	2.0.10.353	2.0.10.353	04-29-2015	4/29/2015 9:08:11 PM	17:08:11	2.0.10.248	42	Bar50-50.bmp	51	4	?	12r_4g.bmp	0r_4g.bmp	3r_2g.bmp	0r_2g.bmp				0r_2g.bmp	TrialProc	TrialList	0	cvbn	-999999	18	185216	0	n	472	185688	138	-134	4	-4	-8	4	12	5	5	42	-12	0	-3	0	4	4	2	2	0	2
Hungry_Donkey_bar_English_2	101	1	<?xml version="1.0"?>\n<Clock xmlns:dt="urn:schemas-microsoft-com:datatypes"><Description dt:dt="string">E-Prime Primary Realtime Clock</Description><StartTime><Timestamp dt:dt="int">0</Timestamp><DateUtc dt:dt="string">2015-04-29T21:08:11Z</DateUtc></StartTime><FrequencyChanges><FrequencyChange><Frequency dt:dt="r8">2597695</Frequency><Timestamp dt:dt="r8">11788943016</Timestamp><Current dt:dt="r8">0</Current><DateUtc dt:dt="string">2015-04-29T21:08:11Z</DateUtc></FrequencyChange></FrequencyChanges></Clock>\n	Hungry_Donkey_bar_English_2-101-1	59.973	18	1.0.0.17	1	-1095464730	Standard	2.0.10.353	2.0.10.353	04-29-2015	4/29/2015 9:08:11 PM	17:08:11	2.0.10.248	43	Bar50-50.bmp	49	4	?	8r_4g.bmp	50r_4g.bmp	1r_2g.bmp	10r_2g.bmp				10r_2g.bmp	TrialProc	TrialList	0	cvbn	-999999	18	187717	0	n	387	188104	140	-144	-4	-4	-8	4	4	1	5	43	-8	-50	-1	-10	4	4	2	2	-10	2
Hungry_Donkey_bar_English_2	101	1	<?xml version="1.0"?>\n<Clock xmlns:dt="urn:schemas-microsoft-com:datatypes"><Description dt:dt="string">E-Prime Primary Realtime Clock</Description><StartTime><Timestamp dt:dt="int">0</Timestamp><DateUtc dt:dt="string">2015-04-29T21:08:11Z</DateUtc></StartTime><FrequencyChanges><FrequencyChange><Frequency dt:dt="r8">2597695</Frequency><Timestamp dt:dt="r8">11788943016</Timestamp><Current dt:dt="r8">0</Current><DateUtc dt:dt="string">2015-04-29T21:08:11Z</DateUtc></FrequencyChange></FrequencyChanges></Clock>\n	Hungry_Donkey_bar_English_2-101-1	59.973	18	1.0.0.17	1	-1095464730	Standard	2.0.10.353	2.0.10.353	04-29-2015	4/29/2015 9:08:11 PM	17:08:11	2.0.10.248	44	Bar50-50.bmp	50	2	?	0r_4g.bmp	0r_4g.bmp	0r_2g.bmp	0r_2g.bmp		0r_4g.bmp			TrialProc	TrialList	0	cvbn	-999999	18	190135	0	v	561	190696	144	-144	0	-4	-4	4	4	9	5	44	0	0	0	0	4	4	2	2	0	4
Hungry_Donkey_bar_English_2	101	1	<?xml version="1.0"?>\n<Clock xmlns:dt="urn:schemas-microsoft-com:datatypes"><Description dt:dt="string">E-Prime Primary Realtime Clock</Description><StartTime><Timestamp dt:dt="int">0</Timestamp><DateUtc dt:dt="string">2015-04-29T21:08:11Z</DateUtc></StartTime><FrequencyChanges><FrequencyChange><Frequency dt:dt="r8">2597695</Frequency><Timestamp dt:dt="r8">11788943016</Timestamp><Current dt:dt="r8">0</Current><DateUtc dt:dt="string">2015-04-29T21:08:11Z</DateUtc></FrequencyChange></FrequencyChanges></Clock>\n	Hungry_Donkey_bar_English_2-101-1	59.973	18	1.0.0.17	1	-1095464730	Standard	2.0.10.353	2.0.10.353	04-29-2015	4/29/2015 9:08:11 PM	17:08:11	2.0.10.248	45	Bar50-50.bmp	51	2	?	10r_4g.bmp	0r_4g.bmp	2r_2g.bmp	0r_2g.bmp		0r_4g.bmp			TrialProc	TrialList	0	cvbn	-999999	18	192736	0	v	440	193176	148	-144	4	-4	0	4	4	4	5	45	-10	0	-2	0	4	4	2	2	0	4
Hungry_Donkey_bar_English_2	101	1	<?xml version="1.0"?>\n<Clock xmlns:dt="urn:schemas-microsoft-com:datatypes"><Description dt:dt="string">E-Prime Primary Realtime Clock</Description><StartTime><Timestamp dt:dt="int">0</Timestamp><DateUtc dt:dt="string">2015-04-29T21:08:11Z</DateUtc></StartTime><FrequencyChanges><FrequencyChange><Frequency dt:dt="r8">2597695</Frequency><Timestamp dt:dt="r8">11788943016</Timestamp><Current dt:dt="r8">0</Current><DateUtc dt:dt="string">2015-04-29T21:08:11Z</DateUtc></FrequencyChange></FrequencyChanges></Clock>\n	Hungry_Donkey_bar_English_2-101-1	59.973	18	1.0.0.17	1	-1095464730	Standard	2.0.10.353	2.0.10.353	04-29-2015	4/29/2015 9:08:11 PM	17:08:11	2.0.10.248	46	Bar50-50.bmp	51	2	?	10r_4g.bmp	0r_4g.bmp	2r_2g.bmp	0r_2g.bmp		0r_4g.bmp			TrialProc	TrialList	0	cvbn	-999999	18	195204	0	v	387	195591	152	-144	8	-4	4	4	4	2	5	46	-10	0	-2	0	4	4	2	2	0	4
Hungry_Donkey_bar_English_2	101	1	<?xml version="1.0"?>\n<Clock xmlns:dt="urn:schemas-microsoft-com:datatypes"><Description dt:dt="string">E-Prime Primary Realtime Clock</Description><StartTime><Timestamp dt:dt="int">0</Timestamp><DateUtc dt:dt="string">2015-04-29T21:08:11Z</DateUtc></StartTime><FrequencyChanges><FrequencyChange><Frequency dt:dt="r8">2597695</Frequency><Timestamp dt:dt="r8">11788943016</Timestamp><Current dt:dt="r8">0</Current><DateUtc dt:dt="string">2015-04-29T21:08:11Z</DateUtc></FrequencyChange></FrequencyChanges></Clock>\n	Hungry_Donkey_bar_English_2-101-1	59.973	18	1.0.0.17	1	-1095464730	Standard	2.0.10.353	2.0.10.353	04-29-2015	4/29/2015 9:08:11 PM	17:08:11	2.0.10.248	47	Bar50-50.bmp	52	2	?	10r_4g.bmp	0r_4g.bmp	2r_2g.bmp	0r_2g.bmp		0r_4g.bmp			TrialProc	TrialList	0	cvbn	-999999	17	197621	0	v	354	197975	156	-144	12	-4	8	4	4	3	5	47	-10	0	-2	0	4	4	2	2	0	4
Hungry_Donkey_bar_English_2	101	1	<?xml version="1.0"?>\n<Clock xmlns:dt="urn:schemas-microsoft-com:datatypes"><Description dt:dt="string">E-Prime Primary Realtime Clock</Description><StartTime><Timestamp dt:dt="int">0</Timestamp><DateUtc dt:dt="string">2015-04-29T21:08:11Z</DateUtc></StartTime><FrequencyChanges><FrequencyChange><Frequency dt:dt="r8">2597695</Frequency><Timestamp dt:dt="r8">11788943016</Timestamp><Current dt:dt="r8">0</Current><DateUtc dt:dt="string">2015-04-29T21:08:11Z</DateUtc></FrequencyChange></FrequencyChanges></Clock>\n	Hungry_Donkey_bar_English_2-101-1	59.973	18	1.0.0.17	1	-1095464730	Standard	2.0.10.353	2.0.10.353	04-29-2015	4/29/2015 9:08:11 PM	17:08:11	2.0.10.248	48	Bar50-50.bmp	53	2	?	0r_4g.bmp	0r_4g.bmp	0r_2g.bmp	0r_2g.bmp		0r_4g.bmp			TrialProc	TrialList	0	cvbn	-999999	18	200006	0	v	753	200759	160	-144	16	-4	12	4	4	7	5	48	0	0	0	0	4	4	2	2	0	4
Hungry_Donkey_bar_English_2	101	1	<?xml version="1.0"?>\n<Clock xmlns:dt="urn:schemas-microsoft-com:datatypes"><Description dt:dt="string">E-Prime Primary Realtime Clock</Description><StartTime><Timestamp dt:dt="int">0</Timestamp><DateUtc dt:dt="string">2015-04-29T21:08:11Z</DateUtc></StartTime><FrequencyChanges><FrequencyChange><Frequency dt:dt="r8">2597695</Frequency><Timestamp dt:dt="r8">11788943016</Timestamp><Current dt:dt="r8">0</Current><DateUtc dt:dt="string">2015-04-29T21:08:11Z</DateUtc></FrequencyChange></FrequencyChanges></Clock>\n	Hungry_Donkey_bar_English_2-101-1	59.973	18	1.0.0.17	1	-1095464730	Standard	2.0.10.353	2.0.10.353	04-29-2015	4/29/2015 9:08:11 PM	17:08:11	2.0.10.248	49	Bar50-50.bmp	53	2	?	0r_4g.bmp	0r_4g.bmp	0r_2g.bmp	0r_2g.bmp		0r_4g.bmp			TrialProc	TrialList	0	cvbn	-999999	17	202790	0	v	929	203719	164	-144	20	-4	16	4	4	6	5	49	0	0	0	0	4	4	2	2	0	4
Hungry_Donkey_bar_English_2	101	1	<?xml version="1.0"?>\n<Clock xmlns:dt="urn:schemas-microsoft-com:datatypes"><Description dt:dt="string">E-Prime Primary Realtime Clock</Description><StartTime><Timestamp dt:dt="int">0</Timestamp><DateUtc dt:dt="string">2015-04-29T21:08:11Z</DateUtc></StartTime><FrequencyChanges><FrequencyChange><Frequency dt:dt="r8">2597695</Frequency><Timestamp dt:dt="r8">11788943016</Timestamp><Current dt:dt="r8">0</Current><DateUtc dt:dt="string">2015-04-29T21:08:11Z</DateUtc></FrequencyChange></FrequencyChanges></Clock>\n	Hungry_Donkey_bar_English_2-101-1	59.973	18	1.0.0.17	1	-1095464730	Standard	2.0.10.353	2.0.10.353	04-29-2015	4/29/2015 9:08:11 PM	17:08:11	2.0.10.248	50	Bar50-50.bmp	54	2	?	0r_4g.bmp	0r_4g.bmp	0r_2g.bmp	0r_2g.bmp		0r_4g.bmp			TrialProc	TrialList	0	cvbn	-999999	17	205758	0	v	681	206439	168	-144	24	-4	20	4	4	8	5	50	0	0	0	0	4	4	2	2	0	4
Hungry_Donkey_bar_English_2	101	1	<?xml version="1.0"?>\n<Clock xmlns:dt="urn:schemas-microsoft-com:datatypes"><Description dt:dt="string">E-Prime Primary Realtime Clock</Description><StartTime><Timestamp dt:dt="int">0</Timestamp><DateUtc dt:dt="string">2015-04-29T21:08:11Z</DateUtc></StartTime><FrequencyChanges><FrequencyChange><Frequency dt:dt="r8">2597695</Frequency><Timestamp dt:dt="r8">11788943016</Timestamp><Current dt:dt="r8">0</Current><DateUtc dt:dt="string">2015-04-29T21:08:11Z</DateUtc></FrequencyChange></FrequencyChanges></Clock>\n	Hungry_Donkey_bar_English_2-101-1	59.973	18	1.0.0.17	1	-1095464730	Standard	2.0.10.353	2.0.10.353	04-29-2015	4/29/2015 9:08:11 PM	17:08:11	2.0.10.248	51	Bar50-50.bmp	54	2	?	0r_4g.bmp	0r_4g.bmp	0r_2g.bmp	0r_2g.bmp		0r_4g.bmp			TrialProc	TrialList	0	cvbn	-999999	17	208476	0	v	635	209111	172	-144	28	-4	24	4	4	7	6	51	0	0	0	0	4	4	2	2	0	4
Hungry_Donkey_bar_English_2	101	1	<?xml version="1.0"?>\n<Clock xmlns:dt="urn:schemas-microsoft-com:datatypes"><Description dt:dt="string">E-Prime Primary Realtime Clock</Description><StartTime><Timestamp dt:dt="int">0</Timestamp><DateUtc dt:dt="string">2015-04-29T21:08:11Z</DateUtc></StartTime><FrequencyChanges><FrequencyChange><Frequency dt:dt="r8">2597695</Frequency><Timestamp dt:dt="r8">11788943016</Timestamp><Current dt:dt="r8">0</Current><DateUtc dt:dt="string">2015-04-29T21:08:11Z</DateUtc></FrequencyChange></FrequencyChanges></Clock>\n	Hungry_Donkey_bar_English_2-101-1	59.973	18	1.0.0.17	1	-1095464730	Standard	2.0.10.353	2.0.10.353	04-29-2015	4/29/2015 9:08:11 PM	17:08:11	2.0.10.248	52	Bar50-50.bmp	55	2	?	0r_4g.bmp	0r_4g.bmp	0r_2g.bmp	0r_2g.bmp		0r_4g.bmp			TrialProc	TrialList	0	cvbn	-999999	18	211144	0	v	2239	213383	176	-144	32	-4	28	4	4	9	6	52	0	0	0	0	4	4	2	2	0	4
Hungry_Donkey_bar_English_2	101	1	<?xml version="1.0"?>\n<Clock xmlns:dt="urn:schemas-microsoft-com:datatypes"><Description dt:dt="string">E-Prime Primary Realtime Clock</Description><StartTime><Timestamp dt:dt="int">0</Timestamp><DateUtc dt:dt="string">2015-04-29T21:08:11Z</DateUtc></StartTime><FrequencyChanges><FrequencyChange><Frequency dt:dt="r8">2597695</Frequency><Timestamp dt:dt="r8">11788943016</Timestamp><Current dt:dt="r8">0</Current><DateUtc dt:dt="string">2015-04-29T21:08:11Z</DateUtc></FrequencyChange></FrequencyChanges></Clock>\n	Hungry_Donkey_bar_English_2-101-1	59.973	18	1.0.0.17	1	-1095464730	Standard	2.0.10.353	2.0.10.353	04-29-2015	4/29/2015 9:08:11 PM	17:08:11	2.0.10.248	53	Bar50-50.bmp	56	2	?	12r_4g.bmp	0r_4g.bmp	3r_2g.bmp	0r_2g.bmp		0r_4g.bmp			TrialProc	TrialList	0	cvbn	-999999	17	215412	0	v	435	215847	180	-144	36	-4	32	4	4	5	6	53	-12	0	-3	0	4	4	2	2	0	4
Hungry_Donkey_bar_English_2	101	1	<?xml version="1.0"?>\n<Clock xmlns:dt="urn:schemas-microsoft-com:datatypes"><Description dt:dt="string">E-Prime Primary Realtime Clock</Description><StartTime><Timestamp dt:dt="int">0</Timestamp><DateUtc dt:dt="string">2015-04-29T21:08:11Z</DateUtc></StartTime><FrequencyChanges><FrequencyChange><Frequency dt:dt="r8">2597695</Frequency><Timestamp dt:dt="r8">11788943016</Timestamp><Current dt:dt="r8">0</Current><DateUtc dt:dt="string">2015-04-29T21:08:11Z</DateUtc></FrequencyChange></FrequencyChanges></Clock>\n	Hungry_Donkey_bar_English_2-101-1	59.973	18	1.0.0.17	1	-1095464730	Standard	2.0.10.353	2.0.10.353	04-29-2015	4/29/2015 9:08:11 PM	17:08:11	2.0.10.248	54	Bar50-50.bmp	49	2	?	8r_4g.bmp	50r_4g.bmp	1r_2g.bmp	10r_2g.bmp		50r_4g.bmp			TrialProc	TrialList	0	cvbn	-999999	17	217880	0	v	399	218279	184	-194	-10	-4	-14	4	4	1	6	54	-8	-50	-1	-10	4	4	2	2	-50	4
Hungry_Donkey_bar_English_2	101	1	<?xml version="1.0"?>\n<Clock xmlns:dt="urn:schemas-microsoft-com:datatypes"><Description dt:dt="string">E-Prime Primary Realtime Clock</Description><StartTime><Timestamp dt:dt="int">0</Timestamp><DateUtc dt:dt="string">2015-04-29T21:08:11Z</DateUtc></StartTime><FrequencyChanges><FrequencyChange><Frequency dt:dt="r8">2597695</Frequency><Timestamp dt:dt="r8">11788943016</Timestamp><Current dt:dt="r8">0</Current><DateUtc dt:dt="string">2015-04-29T21:08:11Z</DateUtc></FrequencyChange></FrequencyChanges></Clock>\n	Hungry_Donkey_bar_English_2-101-1	59.973	18	1.0.0.17	1	-1095464730	Standard	2.0.10.353	2.0.10.353	04-29-2015	4/29/2015 9:08:11 PM	17:08:11	2.0.10.248	55	Bar50-50.bmp	48	1	?	10r_4g.bmp	0r_4g.bmp	2r_2g.bmp	0r_2g.bmp	10r_4g.bmp				TrialProc	TrialList	0	cvbn	-999999	18	220315	0	c	380	220695	188	-204	-16	-10	-14	4	4	4	6	55	-10	0	-2	0	4	4	2	2	-10	4
Hungry_Donkey_bar_English_2	101	1	<?xml version="1.0"?>\n<Clock xmlns:dt="urn:schemas-microsoft-com:datatypes"><Description dt:dt="string">E-Prime Primary Realtime Clock</Description><StartTime><Timestamp dt:dt="int">0</Timestamp><DateUtc dt:dt="string">2015-04-29T21:08:11Z</DateUtc></StartTime><FrequencyChanges><FrequencyChange><Frequency dt:dt="r8">2597695</Frequency><Timestamp dt:dt="r8">11788943016</Timestamp><Current dt:dt="r8">0</Current><DateUtc dt:dt="string">2015-04-29T21:08:11Z</DateUtc></FrequencyChange></FrequencyChanges></Clock>\n	Hungry_Donkey_bar_English_2-101-1	59.973	18	1.0.0.17	1	-1095464730	Standard	2.0.10.353	2.0.10.353	04-29-2015	4/29/2015 9:08:11 PM	17:08:11	2.0.10.248	56	Bar50-50.bmp	48	3	?	0r_4g.bmp	0r_4g.bmp	0r_2g.bmp	0r_2g.bmp			0r_2g.bmp		TrialProc	TrialList	0	cvbn	-999999	17	222749	0	b	954	223703	190	-204	-14	-10	-14	6	4	6	6	56	0	0	0	0	4	4	2	2	0	2
Hungry_Donkey_bar_English_2	101	1	<?xml version="1.0"?>\n<Clock xmlns:dt="urn:schemas-microsoft-com:datatypes"><Description dt:dt="string">E-Prime Primary Realtime Clock</Description><StartTime><Timestamp dt:dt="int">0</Timestamp><DateUtc dt:dt="string">2015-04-29T21:08:11Z</DateUtc></StartTime><FrequencyChanges><FrequencyChange><Frequency dt:dt="r8">2597695</Frequency><Timestamp dt:dt="r8">11788943016</Timestamp><Current dt:dt="r8">0</Current><DateUtc dt:dt="string">2015-04-29T21:08:11Z</DateUtc></FrequencyChange></FrequencyChanges></Clock>\n	Hungry_Donkey_bar_English_2-101-1	59.973	18	1.0.0.17	1	-1095464730	Standard	2.0.10.353	2.0.10.353	04-29-2015	4/29/2015 9:08:11 PM	17:08:11	2.0.10.248	57	Bar50-50.bmp	48	4	?	10r_4g.bmp	0r_4g.bmp	2r_2g.bmp	0r_2g.bmp				0r_2g.bmp	TrialProc	TrialList	0	cvbn	-999999	18	225734	0	n	401	226135	192	-204	-12	-10	-14	6	6	2	6	57	-10	0	-2	0	4	4	2	2	0	2
Hungry_Donkey_bar_English_2	101	1	<?xml version="1.0"?>\n<Clock xmlns:dt="urn:schemas-microsoft-com:datatypes"><Description dt:dt="string">E-Prime Primary Realtime Clock</Description><StartTime><Timestamp dt:dt="int">0</Timestamp><DateUtc dt:dt="string">2015-04-29T21:08:11Z</DateUtc></StartTime><FrequencyChanges><FrequencyChange><Frequency dt:dt="r8">2597695</Frequency><Timestamp dt:dt="r8">11788943016</Timestamp><Current dt:dt="r8">0</Current><DateUtc dt:dt="string">2015-04-29T21:08:11Z</DateUtc></FrequencyChange></FrequencyChanges></Clock>\n	Hungry_Donkey_bar_English_2-101-1	59.973	18	1.0.0.17	1	-1095464730	Standard	2.0.10.353	2.0.10.353	04-29-2015	4/29/2015 9:08:11 PM	17:08:11	2.0.10.248	58	Bar50-50.bmp	49	2	?	0r_4g.bmp	0r_4g.bmp	0r_2g.bmp	0r_2g.bmp		0r_4g.bmp			TrialProc	TrialList	0	cvbn	-999999	17	228168	0	v	703	228871	196	-204	-8	-10	-10	6	6	8	6	58	0	0	0	0	4	4	2	2	0	4
Hungry_Donkey_bar_English_2	101	1	<?xml version="1.0"?>\n<Clock xmlns:dt="urn:schemas-microsoft-com:datatypes"><Description dt:dt="string">E-Prime Primary Realtime Clock</Description><StartTime><Timestamp dt:dt="int">0</Timestamp><DateUtc dt:dt="string">2015-04-29T21:08:11Z</DateUtc></StartTime><FrequencyChanges><FrequencyChange><Frequency dt:dt="r8">2597695</Frequency><Timestamp dt:dt="r8">11788943016</Timestamp><Current dt:dt="r8">0</Current><DateUtc dt:dt="string">2015-04-29T21:08:11Z</DateUtc></FrequencyChange></FrequencyChanges></Clock>\n	Hungry_Donkey_bar_English_2-101-1	59.973	18	1.0.0.17	1	-1095464730	Standard	2.0.10.353	2.0.10.353	04-29-2015	4/29/2015 9:08:11 PM	17:08:11	2.0.10.248	59	Bar50-50.bmp	50	2	?	10r_4g.bmp	0r_4g.bmp	2r_2g.bmp	0r_2g.bmp		0r_4g.bmp			TrialProc	TrialList	0	cvbn	-999999	18	230903	0	v	480	231383	200	-204	-4	-10	-6	6	6	3	6	59	-10	0	-2	0	4	4	2	2	0	4
Hungry_Donkey_bar_English_2	101	1	<?xml version="1.0"?>\n<Clock xmlns:dt="urn:schemas-microsoft-com:datatypes"><Description dt:dt="string">E-Prime Primary Realtime Clock</Description><StartTime><Timestamp dt:dt="int">0</Timestamp><DateUtc dt:dt="string">2015-04-29T21:08:11Z</DateUtc></StartTime><FrequencyChanges><FrequencyChange><Frequency dt:dt="r8">2597695</Frequency><Timestamp dt:dt="r8">11788943016</Timestamp><Current dt:dt="r8">0</Current><DateUtc dt:dt="string">2015-04-29T21:08:11Z</DateUtc></FrequencyChange></FrequencyChanges></Clock>\n	Hungry_Donkey_bar_English_2-101-1	59.973	18	1.0.0.17	1	-1095464730	Standard	2.0.10.353	2.0.10.353	04-29-2015	4/29/2015 9:08:11 PM	17:08:11	2.0.10.248	60	Bar50-50.bmp	50	2	?	0r_4g.bmp	0r_4g.bmp	0r_2g.bmp	0r_2g.bmp		0r_4g.bmp			TrialProc	TrialList	0	cvbn	-999999	17	233420	0	v	299	233719	204	-204	0	-10	-2	6	6	10	6	60	0	0	0	0	4	4	2	2	0	4
Hungry_Donkey_bar_English_2	101	1	<?xml version="1.0"?>\n<Clock xmlns:dt="urn:schemas-microsoft-com:datatypes"><Description dt:dt="string">E-Prime Primary Realtime Clock</Description><StartTime><Timestamp dt:dt="int">0</Timestamp><DateUtc dt:dt="string">2015-04-29T21:08:11Z</DateUtc></StartTime><FrequencyChanges><FrequencyChange><Frequency dt:dt="r8">2597695</Frequency><Timestamp dt:dt="r8">11788943016</Timestamp><Current dt:dt="r8">0</Current><DateUtc dt:dt="string">2015-04-29T21:08:11Z</DateUtc></FrequencyChange></FrequencyChanges></Clock>\n	Hungry_Donkey_bar_English_2-101-1	59.973	18	1.0.0.17	1	-1095464730	Standard	2.0.10.353	2.0.10.353	04-29-2015	4/29/2015 9:08:11 PM	17:08:11	2.0.10.248	61	Bar50-50.bmp	50	2	?	10r_4g.bmp	0r_4g.bmp	2r_2g.bmp	0r_2g.bmp		0r_4g.bmp			TrialProc	TrialList	0	cvbn	-999999	18	235755	0	v	812	236567	208	-204	4	-10	2	6	6	2	7	61	-10	0	-2	0	4	4	2	2	0	4
Hungry_Donkey_bar_English_2	101	1	<?xml version="1.0"?>\n<Clock xmlns:dt="urn:schemas-microsoft-com:datatypes"><Description dt:dt="string">E-Prime Primary Realtime Clock</Description><StartTime><Timestamp dt:dt="int">0</Timestamp><DateUtc dt:dt="string">2015-04-29T21:08:11Z</DateUtc></StartTime><FrequencyChanges><FrequencyChange><Frequency dt:dt="r8">2597695</Frequency><Timestamp dt:dt="r8">11788943016</Timestamp><Current dt:dt="r8">0</Current><DateUtc dt:dt="string">2015-04-29T21:08:11Z</DateUtc></FrequencyChange></FrequencyChanges></Clock>\n	Hungry_Donkey_bar_English_2-101-1	59.973	18	1.0.0.17	1	-1095464730	Standard	2.0.10.353	2.0.10.353	04-29-2015	4/29/2015 9:08:11 PM	17:08:11	2.0.10.248	62	Bar50-50.bmp	51	2	?	10r_4g.bmp	0r_4g.bmp	2r_2g.bmp	0r_2g.bmp		0r_4g.bmp			TrialProc	TrialList	0	cvbn	-999999	17	238606	0	v	361	238967	212	-204	8	-10	6	6	6	4	7	62	-10	0	-2	0	4	4	2	2	0	4
Hungry_Donkey_bar_English_2	101	1	<?xml version="1.0"?>\n<Clock xmlns:dt="urn:schemas-microsoft-com:datatypes"><Description dt:dt="string">E-Prime Primary Realtime Clock</Description><StartTime><Timestamp dt:dt="int">0</Timestamp><DateUtc dt:dt="string">2015-04-29T21:08:11Z</DateUtc></StartTime><FrequencyChanges><FrequencyChange><Frequency dt:dt="r8">2597695</Frequency><Timestamp dt:dt="r8">11788943016</Timestamp><Current dt:dt="r8">0</Current><DateUtc dt:dt="string">2015-04-29T21:08:11Z</DateUtc></FrequencyChange></FrequencyChanges></Clock>\n	Hungry_Donkey_bar_English_2-101-1	59.973	18	1.0.0.17	1	-1095464730	Standard	2.0.10.353	2.0.10.353	04-29-2015	4/29/2015 9:08:11 PM	17:08:11	2.0.10.248	63	Bar50-50.bmp	51	2	?	0r_4g.bmp	0r_4g.bmp	0r_2g.bmp	0r_2g.bmp		0r_4g.bmp			TrialProc	TrialList	0	cvbn	-999999	17	241007	0	v	312	241319	216	-204	12	-10	10	6	6	10	7	63	0	0	0	0	4	4	2	2	0	4
Hungry_Donkey_bar_English_2	101	1	<?xml version="1.0"?>\n<Clock xmlns:dt="urn:schemas-microsoft-com:datatypes"><Description dt:dt="string">E-Prime Primary Realtime Clock</Description><StartTime><Timestamp dt:dt="int">0</Timestamp><DateUtc dt:dt="string">2015-04-29T21:08:11Z</DateUtc></StartTime><FrequencyChanges><FrequencyChange><Frequency dt:dt="r8">2597695</Frequency><Timestamp dt:dt="r8">11788943016</Timestamp><Current dt:dt="r8">0</Current><DateUtc dt:dt="string">2015-04-29T21:08:11Z</DateUtc></FrequencyChange></FrequencyChanges></Clock>\n	Hungry_Donkey_bar_English_2-101-1	59.973	18	1.0.0.17	1	-1095464730	Standard	2.0.10.353	2.0.10.353	04-29-2015	4/29/2015 9:08:11 PM	17:08:11	2.0.10.248	64	Bar50-50.bmp	52	2	?	0r_4g.bmp	0r_4g.bmp	0r_2g.bmp	0r_2g.bmp		0r_4g.bmp			TrialProc	TrialList	0	cvbn	-999999	17	243358	0	v	408	243766	220	-204	16	-10	14	6	6	8	7	64	0	0	0	0	4	4	2	2	0	4
Hungry_Donkey_bar_English_2	101	1	<?xml version="1.0"?>\n<Clock xmlns:dt="urn:schemas-microsoft-com:datatypes"><Description dt:dt="string">E-Prime Primary Realtime Clock</Description><StartTime><Timestamp dt:dt="int">0</Timestamp><DateUtc dt:dt="string">2015-04-29T21:08:11Z</DateUtc></StartTime><FrequencyChanges><FrequencyChange><Frequency dt:dt="r8">2597695</Frequency><Timestamp dt:dt="r8">11788943016</Timestamp><Current dt:dt="r8">0</Current><DateUtc dt:dt="string">2015-04-29T21:08:11Z</DateUtc></FrequencyChange></FrequencyChanges></Clock>\n	Hungry_Donkey_bar_English_2-101-1	59.973	18	1.0.0.17	1	-1095464730	Standard	2.0.10.353	2.0.10.353	04-29-2015	4/29/2015 9:08:11 PM	17:08:11	2.0.10.248	65	Bar50-50.bmp	52	2	?	12r_4g.bmp	0r_4g.bmp	3r_2g.bmp	0r_2g.bmp		0r_4g.bmp			TrialProc	TrialList	0	cvbn	-999999	17	245809	0	v	261	246070	224	-204	20	-10	18	6	6	5	7	65	-12	0	-3	0	4	4	2	2	0	4
Hungry_Donkey_bar_English_2	101	1	<?xml version="1.0"?>\n<Clock xmlns:dt="urn:schemas-microsoft-com:datatypes"><Description dt:dt="string">E-Prime Primary Realtime Clock</Description><StartTime><Timestamp dt:dt="int">0</Timestamp><DateUtc dt:dt="string">2015-04-29T21:08:11Z</DateUtc></StartTime><FrequencyChanges><FrequencyChange><Frequency dt:dt="r8">2597695</Frequency><Timestamp dt:dt="r8">11788943016</Timestamp><Current dt:dt="r8">0</Current><DateUtc dt:dt="string">2015-04-29T21:08:11Z</DateUtc></FrequencyChange></FrequencyChanges></Clock>\n	Hungry_Donkey_bar_English_2-101-1	59.973	18	1.0.0.17	1	-1095464730	Standard	2.0.10.353	2.0.10.353	04-29-2015	4/29/2015 9:08:11 PM	17:08:11	2.0.10.248	66	Bar50-50.bmp	47	2	?	8r_4g.bmp	50r_4g.bmp	1r_2g.bmp	10r_2g.bmp		50r_4g.bmp			TrialProc	TrialList	0	cvbn	-999999	17	248110	0	v	312	248422	228	-254	-26	-10	-28	6	6	1	7	66	-8	-50	-1	-10	4	4	2	2	-50	4
Hungry_Donkey_bar_English_2	101	1	<?xml version="1.0"?>\n<Clock xmlns:dt="urn:schemas-microsoft-com:datatypes"><Description dt:dt="string">E-Prime Primary Realtime Clock</Description><StartTime><Timestamp dt:dt="int">0</Timestamp><DateUtc dt:dt="string">2015-04-29T21:08:11Z</DateUtc></StartTime><FrequencyChanges><FrequencyChange><Frequency dt:dt="r8">2597695</Frequency><Timestamp dt:dt="r8">11788943016</Timestamp><Current dt:dt="r8">0</Current><DateUtc dt:dt="string">2015-04-29T21:08:11Z</DateUtc></FrequencyChange></FrequencyChanges></Clock>\n	Hungry_Donkey_bar_English_2-101-1	59.973	18	1.0.0.17	1	-1095464730	Standard	2.0.10.353	2.0.10.353	04-29-2015	4/29/2015 9:08:11 PM	17:08:11	2.0.10.248	67	Bar50-50.bmp	48	2	?	10r_4g.bmp	0r_4g.bmp	2r_2g.bmp	0r_2g.bmp		0r_4g.bmp			TrialProc	TrialList	0	cvbn	-999999	17	250461	0	v	393	250854	232	-254	-22	-10	-24	6	6	3	7	67	-10	0	-2	0	4	4	2	2	0	4
Hungry_Donkey_bar_English_2	101	1	<?xml version="1.0"?>\n<Clock xmlns:dt="urn:schemas-microsoft-com:datatypes"><Description dt:dt="string">E-Prime Primary Realtime Clock</Description><StartTime><Timestamp dt:dt="int">0</Timestamp><DateUtc dt:dt="string">2015-04-29T21:08:11Z</DateUtc></StartTime><FrequencyChanges><FrequencyChange><Frequency dt:dt="r8">2597695</Frequency><Timestamp dt:dt="r8">11788943016</Timestamp><Current dt:dt="r8">0</Current><DateUtc dt:dt="string">2015-04-29T21:08:11Z</DateUtc></FrequencyChange></FrequencyChanges></Clock>\n	Hungry_Donkey_bar_English_2-101-1	59.973	18	1.0.0.17	1	-1095464730	Standard	2.0.10.353	2.0.10.353	04-29-2015	4/29/2015 9:08:11 PM	17:08:11	2.0.10.248	68	Bar50-50.bmp	48	2	?	0r_4g.bmp	0r_4g.bmp	0r_2g.bmp	0r_2g.bmp		0r_4g.bmp			TrialProc	TrialList	0	cvbn	-999999	18	252896	0	v	422	253318	236	-254	-18	-10	-20	6	6	6	7	68	0	0	0	0	4	4	2	2	0	4
Hungry_Donkey_bar_English_2	101	1	<?xml version="1.0"?>\n<Clock xmlns:dt="urn:schemas-microsoft-com:datatypes"><Description dt:dt="string">E-Prime Primary Realtime Clock</Description><StartTime><Timestamp dt:dt="int">0</Timestamp><DateUtc dt:dt="string">2015-04-29T21:08:11Z</DateUtc></StartTime><FrequencyChanges><FrequencyChange><Frequency dt:dt="r8">2597695</Frequency><Timestamp dt:dt="r8">11788943016</Timestamp><Current dt:dt="r8">0</Current><DateUtc dt:dt="string">2015-04-29T21:08:11Z</DateUtc></FrequencyChange></FrequencyChanges></Clock>\n	Hungry_Donkey_bar_English_2-101-1	59.973	18	1.0.0.17	1	-1095464730	Standard	2.0.10.353	2.0.10.353	04-29-2015	4/29/2015 9:08:11 PM	17:08:11	2.0.10.248	69	Bar50-50.bmp	49	2	?	0r_4g.bmp	0r_4g.bmp	0r_2g.bmp	0r_2g.bmp		0r_4g.bmp			TrialProc	TrialList	0	cvbn	-999999	18	255347	0	v	435	255782	240	-254	-14	-10	-16	6	6	9	7	69	0	0	0	0	4	4	2	2	0	4
Hungry_Donkey_bar_English_2	101	1	<?xml version="1.0"?>\n<Clock xmlns:dt="urn:schemas-microsoft-com:datatypes"><Description dt:dt="string">E-Prime Primary Realtime Clock</Description><StartTime><Timestamp dt:dt="int">0</Timestamp><DateUtc dt:dt="string">2015-04-29T21:08:11Z</DateUtc></StartTime><FrequencyChanges><FrequencyChange><Frequency dt:dt="r8">2597695</Frequency><Timestamp dt:dt="r8">11788943016</Timestamp><Current dt:dt="r8">0</Current><DateUtc dt:dt="string">2015-04-29T21:08:11Z</DateUtc></FrequencyChange></FrequencyChanges></Clock>\n	Hungry_Donkey_bar_English_2-101-1	59.973	18	1.0.0.17	1	-1095464730	Standard	2.0.10.353	2.0.10.353	04-29-2015	4/29/2015 9:08:11 PM	17:08:11	2.0.10.248	70	Bar50-50.bmp	49	2	?	0r_4g.bmp	0r_4g.bmp	0r_2g.bmp	0r_2g.bmp		0r_4g.bmp			TrialProc	TrialList	0	cvbn	-999999	18	257815	0	v	527	258342	244	-254	-10	-10	-12	6	6	7	7	70	0	0	0	0	4	4	2	2	0	4
Hungry_Donkey_bar_English_2	101	1	<?xml version="1.0"?>\n<Clock xmlns:dt="urn:schemas-microsoft-com:datatypes"><Description dt:dt="string">E-Prime Primary Realtime Clock</Description><StartTime><Timestamp dt:dt="int">0</Timestamp><DateUtc dt:dt="string">2015-04-29T21:08:11Z</DateUtc></StartTime><FrequencyChanges><FrequencyChange><Frequency dt:dt="r8">2597695</Frequency><Timestamp dt:dt="r8">11788943016</Timestamp><Current dt:dt="r8">0</Current><DateUtc dt:dt="string">2015-04-29T21:08:11Z</DateUtc></FrequencyChange></FrequencyChanges></Clock>\n	Hungry_Donkey_bar_English_2-101-1	59.973	18	1.0.0.17	1	-1095464730	Standard	2.0.10.353	2.0.10.353	04-29-2015	4/29/2015 9:08:11 PM	17:08:11	2.0.10.248	71	Bar50-50.bmp	49	2	?	10r_4g.bmp	0r_4g.bmp	2r_2g.bmp	0r_2g.bmp		0r_4g.bmp			TrialProc	TrialList	0	cvbn	-999999	17	260382	0	v	536	260918	248	-254	-6	-10	-8	6	6	3	8	71	-10	0	-2	0	4	4	2	2	0	4
Hungry_Donkey_bar_English_2	101	1	<?xml version="1.0"?>\n<Clock xmlns:dt="urn:schemas-microsoft-com:datatypes"><Description dt:dt="string">E-Prime Primary Realtime Clock</Description><StartTime><Timestamp dt:dt="int">0</Timestamp><DateUtc dt:dt="string">2015-04-29T21:08:11Z</DateUtc></StartTime><FrequencyChanges><FrequencyChange><Frequency dt:dt="r8">2597695</Frequency><Timestamp dt:dt="r8">11788943016</Timestamp><Current dt:dt="r8">0</Current><DateUtc dt:dt="string">2015-04-29T21:08:11Z</DateUtc></FrequencyChange></FrequencyChanges></Clock>\n	Hungry_Donkey_bar_English_2-101-1	59.973	18	1.0.0.17	1	-1095464730	Standard	2.0.10.353	2.0.10.353	04-29-2015	4/29/2015 9:08:11 PM	17:08:11	2.0.10.248	72	Bar50-50.bmp	50	2	?	10r_4g.bmp	0r_4g.bmp	2r_2g.bmp	0r_2g.bmp		0r_4g.bmp			TrialProc	TrialList	0	cvbn	-999999	17	262950	0	v	512	263462	252	-254	-2	-10	-4	6	6	4	8	72	-10	0	-2	0	4	4	2	2	0	4
Hungry_Donkey_bar_English_2	101	1	<?xml version="1.0"?>\n<Clock xmlns:dt="urn:schemas-microsoft-com:datatypes"><Description dt:dt="string">E-Prime Primary Realtime Clock</Description><StartTime><Timestamp dt:dt="int">0</Timestamp><DateUtc dt:dt="string">2015-04-29T21:08:11Z</DateUtc></StartTime><FrequencyChanges><FrequencyChange><Frequency dt:dt="r8">2597695</Frequency><Timestamp dt:dt="r8">11788943016</Timestamp><Current dt:dt="r8">0</Current><DateUtc dt:dt="string">2015-04-29T21:08:11Z</DateUtc></FrequencyChange></FrequencyChanges></Clock>\n	Hungry_Donkey_bar_English_2-101-1	59.973	18	1.0.0.17	1	-1095464730	Standard	2.0.10.353	2.0.10.353	04-29-2015	4/29/2015 9:08:11 PM	17:08:11	2.0.10.248	73	Bar50-50.bmp	50	2	?	12r_4g.bmp	0r_4g.bmp	3r_2g.bmp	0r_2g.bmp		0r_4g.bmp			TrialProc	TrialList	0	cvbn	-999999	17	265501	0	v	441	265942	256	-254	2	-10	0	6	6	5	8	73	-12	0	-3	0	4	4	2	2	0	4
Hungry_Donkey_bar_English_2	101	1	<?xml version="1.0"?>\n<Clock xmlns:dt="urn:schemas-microsoft-com:datatypes"><Description dt:dt="string">E-Prime Primary Realtime Clock</Description><StartTime><Timestamp dt:dt="int">0</Timestamp><DateUtc dt:dt="string">2015-04-29T21:08:11Z</DateUtc></StartTime><FrequencyChanges><FrequencyChange><Frequency dt:dt="r8">2597695</Frequency><Timestamp dt:dt="r8">11788943016</Timestamp><Current dt:dt="r8">0</Current><DateUtc dt:dt="string">2015-04-29T21:08:11Z</DateUtc></FrequencyChange></FrequencyChanges></Clock>\n	Hungry_Donkey_bar_English_2-101-1	59.973	18	1.0.0.17	1	-1095464730	Standard	2.0.10.353	2.0.10.353	04-29-2015	4/29/2015 9:08:11 PM	17:08:11	2.0.10.248	74	Bar50-50.bmp	46	2	?	8r_4g.bmp	50r_4g.bmp	1r_2g.bmp	10r_2g.bmp		50r_4g.bmp			TrialProc	TrialList	0	cvbn	-999999	18	267986	0	v	372	268358	260	-304	-44	-10	-46	6	6	1	8	74	-8	-50	-1	-10	4	4	2	2	-50	4
Hungry_Donkey_bar_English_2	101	1	<?xml version="1.0"?>\n<Clock xmlns:dt="urn:schemas-microsoft-com:datatypes"><Description dt:dt="string">E-Prime Primary Realtime Clock</Description><StartTime><Timestamp dt:dt="int">0</Timestamp><DateUtc dt:dt="string">2015-04-29T21:08:11Z</DateUtc></StartTime><FrequencyChanges><FrequencyChange><Frequency dt:dt="r8">2597695</Frequency><Timestamp dt:dt="r8">11788943016</Timestamp><Current dt:dt="r8">0</Current><DateUtc dt:dt="string">2015-04-29T21:08:11Z</DateUtc></FrequencyChange></FrequencyChanges></Clock>\n	Hungry_Donkey_bar_English_2-101-1	59.973	18	1.0.0.17	1	-1095464730	Standard	2.0.10.353	2.0.10.353	04-29-2015	4/29/2015 9:08:11 PM	17:08:11	2.0.10.248	75	Bar50-50.bmp	46	2	?	0r_4g.bmp	0r_4g.bmp	0r_2g.bmp	0r_2g.bmp		0r_4g.bmp			TrialProc	TrialList	0	cvbn	-999999	17	270387	0	v	931	271318	264	-304	-40	-10	-42	6	6	6	8	75	0	0	0	0	4	4	2	2	0	4
Hungry_Donkey_bar_English_2	101	1	<?xml version="1.0"?>\n<Clock xmlns:dt="urn:schemas-microsoft-com:datatypes"><Description dt:dt="string">E-Prime Primary Realtime Clock</Description><StartTime><Timestamp dt:dt="int">0</Timestamp><DateUtc dt:dt="string">2015-04-29T21:08:11Z</DateUtc></StartTime><FrequencyChanges><FrequencyChange><Frequency dt:dt="r8">2597695</Frequency><Timestamp dt:dt="r8">11788943016</Timestamp><Current dt:dt="r8">0</Current><DateUtc dt:dt="string">2015-04-29T21:08:11Z</DateUtc></FrequencyChange></FrequencyChanges></Clock>\n	Hungry_Donkey_bar_English_2-101-1	59.973	18	1.0.0.17	1	-1095464730	Standard	2.0.10.353	2.0.10.353	04-29-2015	4/29/2015 9:08:11 PM	17:08:11	2.0.10.248	76	Bar50-50.bmp	47	2	?	0r_4g.bmp	0r_4g.bmp	0r_2g.bmp	0r_2g.bmp		0r_4g.bmp			TrialProc	TrialList	0	cvbn	-999999	18	273355	0	v	395	273750	268	-304	-36	-10	-38	6	6	7	8	76	0	0	0	0	4	4	2	2	0	4
Hungry_Donkey_bar_English_2	101	1	<?xml version="1.0"?>\n<Clock xmlns:dt="urn:schemas-microsoft-com:datatypes"><Description dt:dt="string">E-Prime Primary Realtime Clock</Description><StartTime><Timestamp dt:dt="int">0</Timestamp><DateUtc dt:dt="string">2015-04-29T21:08:11Z</DateUtc></StartTime><FrequencyChanges><FrequencyChange><Frequency dt:dt="r8">2597695</Frequency><Timestamp dt:dt="r8">11788943016</Timestamp><Current dt:dt="r8">0</Current><DateUtc dt:dt="string">2015-04-29T21:08:11Z</DateUtc></FrequencyChange></FrequencyChanges></Clock>\n	Hungry_Donkey_bar_English_2-101-1	59.973	18	1.0.0.17	1	-1095464730	Standard	2.0.10.353	2.0.10.353	04-29-2015	4/29/2015 9:08:11 PM	17:08:11	2.0.10.248	77	Bar50-50.bmp	47	2	?	10r_4g.bmp	0r_4g.bmp	2r_2g.bmp	0r_2g.bmp		0r_4g.bmp			TrialProc	TrialList	0	cvbn	-999999	17	275789	0	v	505	276294	272	-304	-32	-10	-34	6	6	2	8	77	-10	0	-2	0	4	4	2	2	0	4
Hungry_Donkey_bar_English_2	101	1	<?xml version="1.0"?>\n<Clock xmlns:dt="urn:schemas-microsoft-com:datatypes"><Description dt:dt="string">E-Prime Primary Realtime Clock</Description><StartTime><Timestamp dt:dt="int">0</Timestamp><DateUtc dt:dt="string">2015-04-29T21:08:11Z</DateUtc></StartTime><FrequencyChanges><FrequencyChange><Frequency dt:dt="r8">2597695</Frequency><Timestamp dt:dt="r8">11788943016</Timestamp><Current dt:dt="r8">0</Current><DateUtc dt:dt="string">2015-04-29T21:08:11Z</DateUtc></FrequencyChange></FrequencyChanges></Clock>\n	Hungry_Donkey_bar_English_2-101-1	59.973	18	1.0.0.17	1	-1095464730	Standard	2.0.10.353	2.0.10.353	04-29-2015	4/29/2015 9:08:11 PM	17:08:11	2.0.10.248	78	Bar50-50.bmp	48	2	?	0r_4g.bmp	0r_4g.bmp	0r_2g.bmp	0r_2g.bmp		0r_4g.bmp			TrialProc	TrialList	0	cvbn	-999999	18	278324	0	v	450	278774	276	-304	-28	-10	-30	6	6	8	8	78	0	0	0	0	4	4	2	2	0	4
Hungry_Donkey_bar_English_2	101	1	<?xml version="1.0"?>\n<Clock xmlns:dt="urn:schemas-microsoft-com:datatypes"><Description dt:dt="string">E-Prime Primary Realtime Clock</Description><StartTime><Timestamp dt:dt="int">0</Timestamp><DateUtc dt:dt="string">2015-04-29T21:08:11Z</DateUtc></StartTime><FrequencyChanges><FrequencyChange><Frequency dt:dt="r8">2597695</Frequency><Timestamp dt:dt="r8">11788943016</Timestamp><Current dt:dt="r8">0</Current><DateUtc dt:dt="string">2015-04-29T21:08:11Z</DateUtc></FrequencyChange></FrequencyChanges></Clock>\n	Hungry_Donkey_bar_English_2-101-1	59.973	18	1.0.0.17	1	-1095464730	Standard	2.0.10.353	2.0.10.353	04-29-2015	4/29/2015 9:08:11 PM	17:08:11	2.0.10.248	79	Bar50-50.bmp	48	2	?	0r_4g.bmp	0r_4g.bmp	0r_2g.bmp	0r_2g.bmp		0r_4g.bmp			TrialProc	TrialList	0	cvbn	-999999	17	280808	0	v	494	281302	280	-304	-24	-10	-26	6	6	10	8	79	0	0	0	0	4	4	2	2	0	4
Hungry_Donkey_bar_English_2	101	1	<?xml version="1.0"?>\n<Clock xmlns:dt="urn:schemas-microsoft-com:datatypes"><Description dt:dt="string">E-Prime Primary Realtime Clock</Description><StartTime><Timestamp dt:dt="int">0</Timestamp><DateUtc dt:dt="string">2015-04-29T21:08:11Z</DateUtc></StartTime><FrequencyChanges><FrequencyChange><Frequency dt:dt="r8">2597695</Frequency><Timestamp dt:dt="r8">11788943016</Timestamp><Current dt:dt="r8">0</Current><DateUtc dt:dt="string">2015-04-29T21:08:11Z</DateUtc></FrequencyChange></FrequencyChanges></Clock>\n	Hungry_Donkey_bar_English_2-101-1	59.973	18	1.0.0.17	1	-1095464730	Standard	2.0.10.353	2.0.10.353	04-29-2015	4/29/2015 9:08:11 PM	17:08:11	2.0.10.248	80	Bar50-50.bmp	48	2	?	0r_4g.bmp	0r_4g.bmp	0r_2g.bmp	0r_2g.bmp		0r_4g.bmp			TrialProc	TrialList	0	cvbn	-999999	18	283343	0	v	423	283766	284	-304	-20	-10	-22	6	6	9	8	80	0	0	0	0	4	4	2	2	0	4
Hungry_Donkey_bar_English_2	101	1	<?xml version="1.0"?>\n<Clock xmlns:dt="urn:schemas-microsoft-com:datatypes"><Description dt:dt="string">E-Prime Primary Realtime Clock</Description><StartTime><Timestamp dt:dt="int">0</Timestamp><DateUtc dt:dt="string">2015-04-29T21:08:11Z</DateUtc></StartTime><FrequencyChanges><FrequencyChange><Frequency dt:dt="r8">2597695</Frequency><Timestamp dt:dt="r8">11788943016</Timestamp><Current dt:dt="r8">0</Current><DateUtc dt:dt="string">2015-04-29T21:08:11Z</DateUtc></FrequencyChange></FrequencyChanges></Clock>\n	Hungry_Donkey_bar_English_2-101-1	59.973	18	1.0.0.17	1	-1095464730	Standard	2.0.10.353	2.0.10.353	04-29-2015	4/29/2015 9:08:11 PM	17:08:11	2.0.10.248	81	Bar50-50.bmp	48	3	?	10r_4g.bmp	0r_4g.bmp	2r_2g.bmp	0r_2g.bmp			2r_2g.bmp		TrialProc	TrialList	0	cvbn	-999999	18	285794	0	b	452	286246	286	-306	-20	-10	-22	6	6	2	9	81	-10	0	-2	0	4	4	2	2	-2	2
Hungry_Donkey_bar_English_2	101	1	<?xml version="1.0"?>\n<Clock xmlns:dt="urn:schemas-microsoft-com:datatypes"><Description dt:dt="string">E-Prime Primary Realtime Clock</Description><StartTime><Timestamp dt:dt="int">0</Timestamp><DateUtc dt:dt="string">2015-04-29T21:08:11Z</DateUtc></StartTime><FrequencyChanges><FrequencyChange><Frequency dt:dt="r8">2597695</Frequency><Timestamp dt:dt="r8">11788943016</Timestamp><Current dt:dt="r8">0</Current><DateUtc dt:dt="string">2015-04-29T21:08:11Z</DateUtc></FrequencyChange></FrequencyChanges></Clock>\n	Hungry_Donkey_bar_English_2-101-1	59.973	18	1.0.0.17	1	-1095464730	Standard	2.0.10.353	2.0.10.353	04-29-2015	4/29/2015 9:08:11 PM	17:08:11	2.0.10.248	82	Bar50-50.bmp	48	4	?	0r_4g.bmp	0r_4g.bmp	0r_2g.bmp	0r_2g.bmp				0r_2g.bmp	TrialProc	TrialList	0	cvbn	-999999	17	288278	0	n	735	289013	288	-306	-18	-10	-22	6	8	8	9	82	0	0	0	0	4	4	2	2	0	2
Hungry_Donkey_bar_English_2	101	1	<?xml version="1.0"?>\n<Clock xmlns:dt="urn:schemas-microsoft-com:datatypes"><Description dt:dt="string">E-Prime Primary Realtime Clock</Description><StartTime><Timestamp dt:dt="int">0</Timestamp><DateUtc dt:dt="string">2015-04-29T21:08:11Z</DateUtc></StartTime><FrequencyChanges><FrequencyChange><Frequency dt:dt="r8">2597695</Frequency><Timestamp dt:dt="r8">11788943016</Timestamp><Current dt:dt="r8">0</Current><DateUtc dt:dt="string">2015-04-29T21:08:11Z</DateUtc></FrequencyChange></FrequencyChanges></Clock>\n	Hungry_Donkey_bar_English_2-101-1	59.973	18	1.0.0.17	1	-1095464730	Standard	2.0.10.353	2.0.10.353	04-29-2015	4/29/2015 9:08:11 PM	17:08:11	2.0.10.248	83	Bar50-50.bmp	49	4	?	0r_4g.bmp	0r_4g.bmp	0r_2g.bmp	0r_2g.bmp				0r_2g.bmp	TrialProc	TrialList	0	cvbn	-999999	18	291046	0	n	367	291413	290	-306	-16	-10	-22	6	10	10	9	83	0	0	0	0	4	4	2	2	0	2
Hungry_Donkey_bar_English_2	101	1	<?xml version="1.0"?>\n<Clock xmlns:dt="urn:schemas-microsoft-com:datatypes"><Description dt:dt="string">E-Prime Primary Realtime Clock</Description><StartTime><Timestamp dt:dt="int">0</Timestamp><DateUtc dt:dt="string">2015-04-29T21:08:11Z</DateUtc></StartTime><FrequencyChanges><FrequencyChange><Frequency dt:dt="r8">2597695</Frequency><Timestamp dt:dt="r8">11788943016</Timestamp><Current dt:dt="r8">0</Current><DateUtc dt:dt="string">2015-04-29T21:08:11Z</DateUtc></FrequencyChange></FrequencyChanges></Clock>\n	Hungry_Donkey_bar_English_2-101-1	59.973	18	1.0.0.17	1	-1095464730	Standard	2.0.10.353	2.0.10.353	04-29-2015	4/29/2015 9:08:11 PM	17:08:11	2.0.10.248	84	Bar50-50.bmp	49	4	?	12r_4g.bmp	0r_4g.bmp	3r_2g.bmp	0r_2g.bmp				0r_2g.bmp	TrialProc	TrialList	0	cvbn	-999999	17	293447	0	n	398	293845	292	-306	-14	-10	-22	6	12	5	9	84	-12	0	-3	0	4	4	2	2	0	2
Hungry_Donkey_bar_English_2	101	1	<?xml version="1.0"?>\n<Clock xmlns:dt="urn:schemas-microsoft-com:datatypes"><Description dt:dt="string">E-Prime Primary Realtime Clock</Description><StartTime><Timestamp dt:dt="int">0</Timestamp><DateUtc dt:dt="string">2015-04-29T21:08:11Z</DateUtc></StartTime><FrequencyChanges><FrequencyChange><Frequency dt:dt="r8">2597695</Frequency><Timestamp dt:dt="r8">11788943016</Timestamp><Current dt:dt="r8">0</Current><DateUtc dt:dt="string">2015-04-29T21:08:11Z</DateUtc></FrequencyChange></FrequencyChanges></Clock>\n	Hungry_Donkey_bar_English_2-101-1	59.973	18	1.0.0.17	1	-1095464730	Standard	2.0.10.353	2.0.10.353	04-29-2015	4/29/2015 9:08:11 PM	17:08:11	2.0.10.248	85	Bar50-50.bmp	49	4	?	10r_4g.bmp	0r_4g.bmp	2r_2g.bmp	0r_2g.bmp				0r_2g.bmp	TrialProc	TrialList	0	cvbn	-999999	17	295881	0	n	316	296197	294	-306	-12	-10	-22	6	14	3	9	85	-10	0	-2	0	4	4	2	2	0	2
Hungry_Donkey_bar_English_2	101	1	<?xml version="1.0"?>\n<Clock xmlns:dt="urn:schemas-microsoft-com:datatypes"><Description dt:dt="string">E-Prime Primary Realtime Clock</Description><StartTime><Timestamp dt:dt="int">0</Timestamp><DateUtc dt:dt="string">2015-04-29T21:08:11Z</DateUtc></StartTime><FrequencyChanges><FrequencyChange><Frequency dt:dt="r8">2597695</Frequency><Timestamp dt:dt="r8">11788943016</Timestamp><Current dt:dt="r8">0</Current><DateUtc dt:dt="string">2015-04-29T21:08:11Z</DateUtc></FrequencyChange></FrequencyChanges></Clock>\n	Hungry_Donkey_bar_English_2-101-1	59.973	18	1.0.0.17	1	-1095464730	Standard	2.0.10.353	2.0.10.353	04-29-2015	4/29/2015 9:08:11 PM	17:08:11	2.0.10.248	86	Bar50-50.bmp	49	4	?	10r_4g.bmp	0r_4g.bmp	2r_2g.bmp	0r_2g.bmp				0r_2g.bmp	TrialProc	TrialList	0	cvbn	-999999	18	298233	0	n	412	298645	296	-306	-10	-10	-22	6	16	4	9	86	-10	0	-2	0	4	4	2	2	0	2
Hungry_Donkey_bar_English_2	101	1	<?xml version="1.0"?>\n<Clock xmlns:dt="urn:schemas-microsoft-com:datatypes"><Description dt:dt="string">E-Prime Primary Realtime Clock</Description><StartTime><Timestamp dt:dt="int">0</Timestamp><DateUtc dt:dt="string">2015-04-29T21:08:11Z</DateUtc></StartTime><FrequencyChanges><FrequencyChange><Frequency dt:dt="r8">2597695</Frequency><Timestamp dt:dt="r8">11788943016</Timestamp><Current dt:dt="r8">0</Current><DateUtc dt:dt="string">2015-04-29T21:08:11Z</DateUtc></FrequencyChange></FrequencyChanges></Clock>\n	Hungry_Donkey_bar_English_2-101-1	59.973	18	1.0.0.17	1	-1095464730	Standard	2.0.10.353	2.0.10.353	04-29-2015	4/29/2015 9:08:11 PM	17:08:11	2.0.10.248	87	Bar50-50.bmp	49	4	?	0r_4g.bmp	0r_4g.bmp	0r_2g.bmp	0r_2g.bmp				0r_2g.bmp	TrialProc	TrialList	0	cvbn	-999999	18	300684	0	n	425	301109	298	-306	-8	-10	-22	6	18	9	9	87	0	0	0	0	4	4	2	2	0	2
Hungry_Donkey_bar_English_2	101	1	<?xml version="1.0"?>\n<Clock xmlns:dt="urn:schemas-microsoft-com:datatypes"><Description dt:dt="string">E-Prime Primary Realtime Clock</Description><StartTime><Timestamp dt:dt="int">0</Timestamp><DateUtc dt:dt="string">2015-04-29T21:08:11Z</DateUtc></StartTime><FrequencyChanges><FrequencyChange><Frequency dt:dt="r8">2597695</Frequency><Timestamp dt:dt="r8">11788943016</Timestamp><Current dt:dt="r8">0</Current><DateUtc dt:dt="string">2015-04-29T21:08:11Z</DateUtc></FrequencyChange></FrequencyChanges></Clock>\n	Hungry_Donkey_bar_English_2-101-1	59.973	18	1.0.0.17	1	-1095464730	Standard	2.0.10.353	2.0.10.353	04-29-2015	4/29/2015 9:08:11 PM	17:08:11	2.0.10.248	88	Bar50-50.bmp	49	4	?	8r_4g.bmp	50r_4g.bmp	1r_2g.bmp	10r_2g.bmp				10r_2g.bmp	TrialProc	TrialList	0	cvbn	-999999	17	303151	0	n	390	303541	300	-316	-16	-10	-22	6	10	1	9	88	-8	-50	-1	-10	4	4	2	2	-10	2
Hungry_Donkey_bar_English_2	101	1	<?xml version="1.0"?>\n<Clock xmlns:dt="urn:schemas-microsoft-com:datatypes"><Description dt:dt="string">E-Prime Primary Realtime Clock</Description><StartTime><Timestamp dt:dt="int">0</Timestamp><DateUtc dt:dt="string">2015-04-29T21:08:11Z</DateUtc></StartTime><FrequencyChanges><FrequencyChange><Frequency dt:dt="r8">2597695</Frequency><Timestamp dt:dt="r8">11788943016</Timestamp><Current dt:dt="r8">0</Current><DateUtc dt:dt="string">2015-04-29T21:08:11Z</DateUtc></FrequencyChange></FrequencyChanges></Clock>\n	Hungry_Donkey_bar_English_2-101-1	59.973	18	1.0.0.17	1	-1095464730	Standard	2.0.10.353	2.0.10.353	04-29-2015	4/29/2015 9:08:11 PM	17:08:11	2.0.10.248	89	Bar50-50.bmp	49	2	?	0r_4g.bmp	0r_4g.bmp	0r_2g.bmp	0r_2g.bmp		0r_4g.bmp			TrialProc	TrialList	0	cvbn	-999999	17	305569	0	v	596	306165	304	-316	-12	-10	-18	6	10	6	9	89	0	0	0	0	4	4	2	2	0	4
Hungry_Donkey_bar_English_2	101	1	<?xml version="1.0"?>\n<Clock xmlns:dt="urn:schemas-microsoft-com:datatypes"><Description dt:dt="string">E-Prime Primary Realtime Clock</Description><StartTime><Timestamp dt:dt="int">0</Timestamp><DateUtc dt:dt="string">2015-04-29T21:08:11Z</DateUtc></StartTime><FrequencyChanges><FrequencyChange><Frequency dt:dt="r8">2597695</Frequency><Timestamp dt:dt="r8">11788943016</Timestamp><Current dt:dt="r8">0</Current><DateUtc dt:dt="string">2015-04-29T21:08:11Z</DateUtc></FrequencyChange></FrequencyChanges></Clock>\n	Hungry_Donkey_bar_English_2-101-1	59.973	18	1.0.0.17	1	-1095464730	Standard	2.0.10.353	2.0.10.353	04-29-2015	4/29/2015 9:08:11 PM	17:08:11	2.0.10.248	90	Bar50-50.bmp	49	2	?	0r_4g.bmp	0r_4g.bmp	0r_2g.bmp	0r_2g.bmp		0r_4g.bmp			TrialProc	TrialList	0	cvbn	-999999	18	308204	0	v	409	308613	308	-316	-8	-10	-14	6	10	7	9	90	0	0	0	0	4	4	2	2	0	4
Hungry_Donkey_bar_English_2	101	1	<?xml version="1.0"?>\n<Clock xmlns:dt="urn:schemas-microsoft-com:datatypes"><Description dt:dt="string">E-Prime Primary Realtime Clock</Description><StartTime><Timestamp dt:dt="int">0</Timestamp><DateUtc dt:dt="string">2015-04-29T21:08:11Z</DateUtc></StartTime><FrequencyChanges><FrequencyChange><Frequency dt:dt="r8">2597695</Frequency><Timestamp dt:dt="r8">11788943016</Timestamp><Current dt:dt="r8">0</Current><DateUtc dt:dt="string">2015-04-29T21:08:11Z</DateUtc></FrequencyChange></FrequencyChanges></Clock>\n	Hungry_Donkey_bar_English_2-101-1	59.973	18	1.0.0.17	1	-1095464730	Standard	2.0.10.353	2.0.10.353	04-29-2015	4/29/2015 9:08:11 PM	17:08:11	2.0.10.248	91	Bar50-50.bmp	50	2	?	0r_4g.bmp	0r_4g.bmp	0r_2g.bmp	0r_2g.bmp		0r_4g.bmp			TrialProc	TrialList	0	cvbn	-999999	18	310655	0	v	438	311093	312	-316	-4	-10	-10	6	10	10	10	91	0	0	0	0	4	4	2	2	0	4
Hungry_Donkey_bar_English_2	101	1	<?xml version="1.0"?>\n<Clock xmlns:dt="urn:schemas-microsoft-com:datatypes"><Description dt:dt="string">E-Prime Primary Realtime Clock</Description><StartTime><Timestamp dt:dt="int">0</Timestamp><DateUtc dt:dt="string">2015-04-29T21:08:11Z</DateUtc></StartTime><FrequencyChanges><FrequencyChange><Frequency dt:dt="r8">2597695</Frequency><Timestamp dt:dt="r8">11788943016</Timestamp><Current dt:dt="r8">0</Current><DateUtc dt:dt="string">2015-04-29T21:08:11Z</DateUtc></FrequencyChange></FrequencyChanges></Clock>\n	Hungry_Donkey_bar_English_2-101-1	59.973	18	1.0.0.17	1	-1095464730	Standard	2.0.10.353	2.0.10.353	04-29-2015	4/29/2015 9:08:11 PM	17:08:11	2.0.10.248	92	Bar50-50.bmp	50	2	?	10r_4g.bmp	0r_4g.bmp	2r_2g.bmp	0r_2g.bmp		0r_4g.bmp			TrialProc	TrialList	0	cvbn	-999999	17	313122	0	v	467	313589	316	-316	0	-10	-6	6	10	3	10	92	-10	0	-2	0	4	4	2	2	0	4
Hungry_Donkey_bar_English_2	101	1	<?xml version="1.0"?>\n<Clock xmlns:dt="urn:schemas-microsoft-com:datatypes"><Description dt:dt="string">E-Prime Primary Realtime Clock</Description><StartTime><Timestamp dt:dt="int">0</Timestamp><DateUtc dt:dt="string">2015-04-29T21:08:11Z</DateUtc></StartTime><FrequencyChanges><FrequencyChange><Frequency dt:dt="r8">2597695</Frequency><Timestamp dt:dt="r8">11788943016</Timestamp><Current dt:dt="r8">0</Current><DateUtc dt:dt="string">2015-04-29T21:08:11Z</DateUtc></FrequencyChange></FrequencyChanges></Clock>\n	Hungry_Donkey_bar_English_2-101-1	59.973	18	1.0.0.17	1	-1095464730	Standard	2.0.10.353	2.0.10.353	04-29-2015	4/29/2015 9:08:11 PM	17:08:11	2.0.10.248	93	Bar50-50.bmp	50	2	?	0r_4g.bmp	0r_4g.bmp	0r_2g.bmp	0r_2g.bmp		0r_4g.bmp			TrialProc	TrialList	0	cvbn	-999999	18	315624	0	v	445	316069	320	-316	4	-10	-2	6	10	6	10	93	0	0	0	0	4	4	2	2	0	4
Hungry_Donkey_bar_English_2	101	1	<?xml version="1.0"?>\n<Clock xmlns:dt="urn:schemas-microsoft-com:datatypes"><Description dt:dt="string">E-Prime Primary Realtime Clock</Description><StartTime><Timestamp dt:dt="int">0</Timestamp><DateUtc dt:dt="string">2015-04-29T21:08:11Z</DateUtc></StartTime><FrequencyChanges><FrequencyChange><Frequency dt:dt="r8">2597695</Frequency><Timestamp dt:dt="r8">11788943016</Timestamp><Current dt:dt="r8">0</Current><DateUtc dt:dt="string">2015-04-29T21:08:11Z</DateUtc></FrequencyChange></FrequencyChanges></Clock>\n	Hungry_Donkey_bar_English_2-101-1	59.973	18	1.0.0.17	1	-1095464730	Standard	2.0.10.353	2.0.10.353	04-29-2015	4/29/2015 9:08:11 PM	17:08:11	2.0.10.248	94	Bar50-50.bmp	51	2	?	12r_4g.bmp	0r_4g.bmp	3r_2g.bmp	0r_2g.bmp		0r_4g.bmp			TrialProc	TrialList	0	cvbn	-999999	18	318108	0	v	393	318501	324	-316	8	-10	2	6	10	5	10	94	-12	0	-3	0	4	4	2	2	0	4
Hungry_Donkey_bar_English_2	101	1	<?xml version="1.0"?>\n<Clock xmlns:dt="urn:schemas-microsoft-com:datatypes"><Description dt:dt="string">E-Prime Primary Realtime Clock</Description><StartTime><Timestamp dt:dt="int">0</Timestamp><DateUtc dt:dt="string">2015-04-29T21:08:11Z</DateUtc></StartTime><FrequencyChanges><FrequencyChange><Frequency dt:dt="r8">2597695</Frequency><Timestamp dt:dt="r8">11788943016</Timestamp><Current dt:dt="r8">0</Current><DateUtc dt:dt="string">2015-04-29T21:08:11Z</DateUtc></FrequencyChange></FrequencyChanges></Clock>\n	Hungry_Donkey_bar_English_2-101-1	59.973	18	1.0.0.17	1	-1095464730	Standard	2.0.10.353	2.0.10.353	04-29-2015	4/29/2015 9:08:11 PM	17:08:11	2.0.10.248	95	Bar50-50.bmp	51	4	?	10r_4g.bmp	0r_4g.bmp	2r_2g.bmp	0r_2g.bmp				0r_2g.bmp	TrialProc	TrialList	0	cvbn	-999999	17	320542	0	n	3271	323813	326	-316	10	-10	2	6	12	2	10	95	-10	0	-2	0	4	4	2	2	0	2
Hungry_Donkey_bar_English_2	101	1	<?xml version="1.0"?>\n<Clock xmlns:dt="urn:schemas-microsoft-com:datatypes"><Description dt:dt="string">E-Prime Primary Realtime Clock</Description><StartTime><Timestamp dt:dt="int">0</Timestamp><DateUtc dt:dt="string">2015-04-29T21:08:11Z</DateUtc></StartTime><FrequencyChanges><FrequencyChange><Frequency dt:dt="r8">2597695</Frequency><Timestamp dt:dt="r8">11788943016</Timestamp><Current dt:dt="r8">0</Current><DateUtc dt:dt="string">2015-04-29T21:08:11Z</DateUtc></FrequencyChange></FrequencyChanges></Clock>\n	Hungry_Donkey_bar_English_2-101-1	59.973	18	1.0.0.17	1	-1095464730	Standard	2.0.10.353	2.0.10.353	04-29-2015	4/29/2015 9:08:11 PM	17:08:11	2.0.10.248	96	Bar50-50.bmp	51	4	?	0r_4g.bmp	0r_4g.bmp	0r_2g.bmp	0r_2g.bmp				0r_2g.bmp	TrialProc	TrialList	0	cvbn	-999999	18	325845	0	n	352	326197	328	-316	12	-10	2	6	14	8	10	96	0	0	0	0	4	4	2	2	0	2
Hungry_Donkey_bar_English_2	101	1	<?xml version="1.0"?>\n<Clock xmlns:dt="urn:schemas-microsoft-com:datatypes"><Description dt:dt="string">E-Prime Primary Realtime Clock</Description><StartTime><Timestamp dt:dt="int">0</Timestamp><DateUtc dt:dt="string">2015-04-29T21:08:11Z</DateUtc></StartTime><FrequencyChanges><FrequencyChange><Frequency dt:dt="r8">2597695</Frequency><Timestamp dt:dt="r8">11788943016</Timestamp><Current dt:dt="r8">0</Current><DateUtc dt:dt="string">2015-04-29T21:08:11Z</DateUtc></FrequencyChange></FrequencyChanges></Clock>\n	Hungry_Donkey_bar_English_2-101-1	59.973	18	1.0.0.17	1	-1095464730	Standard	2.0.10.353	2.0.10.353	04-29-2015	4/29/2015 9:08:11 PM	17:08:11	2.0.10.248	97	Bar50-50.bmp	51	4	?	0r_4g.bmp	0r_4g.bmp	0r_2g.bmp	0r_2g.bmp				0r_2g.bmp	TrialProc	TrialList	0	cvbn	-999999	17	328229	0	n	704	328933	330	-316	14	-10	2	6	16	7	10	97	0	0	0	0	4	4	2	2	0	2
Hungry_Donkey_bar_English_2	101	1	<?xml version="1.0"?>\n<Clock xmlns:dt="urn:schemas-microsoft-com:datatypes"><Description dt:dt="string">E-Prime Primary Realtime Clock</Description><StartTime><Timestamp dt:dt="int">0</Timestamp><DateUtc dt:dt="string">2015-04-29T21:08:11Z</DateUtc></StartTime><FrequencyChanges><FrequencyChange><Frequency dt:dt="r8">2597695</Frequency><Timestamp dt:dt="r8">11788943016</Timestamp><Current dt:dt="r8">0</Current><DateUtc dt:dt="string">2015-04-29T21:08:11Z</DateUtc></FrequencyChange></FrequencyChanges></Clock>\n	Hungry_Donkey_bar_English_2-101-1	59.973	18	1.0.0.17	1	-1095464730	Standard	2.0.10.353	2.0.10.353	04-29-2015	4/29/2015 9:08:11 PM	17:08:11	2.0.10.248	98	Bar50-50.bmp	51	4	?	0r_4g.bmp	0r_4g.bmp	0r_2g.bmp	0r_2g.bmp				0r_2g.bmp	TrialProc	TrialList	0	cvbn	-999999	18	330964	0	n	657	331621	332	-316	16	-10	2	6	18	9	10	98	0	0	0	0	4	4	2	2	0	2
Hungry_Donkey_bar_English_2	101	1	<?xml version="1.0"?>\n<Clock xmlns:dt="urn:schemas-microsoft-com:datatypes"><Description dt:dt="string">E-Prime Primary Realtime Clock</Description><StartTime><Timestamp dt:dt="int">0</Timestamp><DateUtc dt:dt="string">2015-04-29T21:08:11Z</DateUtc></StartTime><FrequencyChanges><FrequencyChange><Frequency dt:dt="r8">2597695</Frequency><Timestamp dt:dt="r8">11788943016</Timestamp><Current dt:dt="r8">0</Current><DateUtc dt:dt="string">2015-04-29T21:08:11Z</DateUtc></FrequencyChange></FrequencyChanges></Clock>\n	Hungry_Donkey_bar_English_2-101-1	59.973	18	1.0.0.17	1	-1095464730	Standard	2.0.10.353	2.0.10.353	04-29-2015	4/29/2015 9:08:11 PM	17:08:11	2.0.10.248	99	Bar50-50.bmp	51	4	?	8r_4g.bmp	50r_4g.bmp	1r_2g.bmp	10r_2g.bmp				10r_2g.bmp	TrialProc	TrialList	0	cvbn	-999999	18	333665	0	n	372	334037	334	-326	8	-10	2	6	10	1	10	99	-8	-50	-1	-10	4	4	2	2	-10	2
Hungry_Donkey_bar_English_2	101	1	<?xml version="1.0"?>\n<Clock xmlns:dt="urn:schemas-microsoft-com:datatypes"><Description dt:dt="string">E-Prime Primary Realtime Clock</Description><StartTime><Timestamp dt:dt="int">0</Timestamp><DateUtc dt:dt="string">2015-04-29T21:08:11Z</DateUtc></StartTime><FrequencyChanges><FrequencyChange><Frequency dt:dt="r8">2597695</Frequency><Timestamp dt:dt="r8">11788943016</Timestamp><Current dt:dt="r8">0</Current><DateUtc dt:dt="string">2015-04-29T21:08:11Z</DateUtc></FrequencyChange></FrequencyChanges></Clock>\n	Hungry_Donkey_bar_English_2-101-1	59.973	18	1.0.0.17	1	-1095464730	Standard	2.0.10.353	2.0.10.353	04-29-2015	4/29/2015 9:08:11 PM	17:08:11	2.0.10.248	100	Bar50-50.bmp	51	3	?	10r_4g.bmp	0r_4g.bmp	2r_2g.bmp	0r_2g.bmp			2r_2g.bmp		TrialProc	TrialList	0	cvbn	-999999	18	336066	0	b	690	336756	336	-328	8	-10	2	6	10	4	10	100	-10	0	-2	0	4	4	2	2	-2	2
Hungry_Donkey_bar_English_2	101	1	<?xml version="1.0"?>\n<Clock xmlns:dt="urn:schemas-microsoft-com:datatypes"><Description dt:dt="string">E-Prime Primary Realtime Clock</Description><StartTime><Timestamp dt:dt="int">0</Timestamp><DateUtc dt:dt="string">2015-04-29T21:08:11Z</DateUtc></StartTime><FrequencyChanges><FrequencyChange><Frequency dt:dt="r8">2597695</Frequency><Timestamp dt:dt="r8">11788943016</Timestamp><Current dt:dt="r8">0</Current><DateUtc dt:dt="string">2015-04-29T21:08:11Z</DateUtc></FrequencyChange></FrequencyChanges></Clock>\n	Hungry_Donkey_bar_English_2-101-1	59.973	18	1.0.0.17	1	-1095464730	Standard	2.0.10.353	2.0.10.353	04-29-2015	4/29/2015 9:08:11 PM	17:08:11	2.0.10.248	101	Bar50-50.bmp	51	2	?	0r_4g.bmp	0r_4g.bmp	0r_2g.bmp	0r_2g.bmp		0r_4g.bmp			TrialProc	TrialList	0	cvbn	-999999	18	338801	0	v	451	339252	340	-328	12	-10	6	6	10	10	11	101	0	0	0	0	4	4	2	2	0	4
Hungry_Donkey_bar_English_2	101	1	<?xml version="1.0"?>\n<Clock xmlns:dt="urn:schemas-microsoft-com:datatypes"><Description dt:dt="string">E-Prime Primary Realtime Clock</Description><StartTime><Timestamp dt:dt="int">0</Timestamp><DateUtc dt:dt="string">2015-04-29T21:08:11Z</DateUtc></StartTime><FrequencyChanges><FrequencyChange><Frequency dt:dt="r8">2597695</Frequency><Timestamp dt:dt="r8">11788943016</Timestamp><Current dt:dt="r8">0</Current><DateUtc dt:dt="string">2015-04-29T21:08:11Z</DateUtc></FrequencyChange></FrequencyChanges></Clock>\n	Hungry_Donkey_bar_English_2-101-1	59.973	18	1.0.0.17	1	-1095464730	Standard	2.0.10.353	2.0.10.353	04-29-2015	4/29/2015 9:08:11 PM	17:08:11	2.0.10.248	102	Bar50-50.bmp	51	2	?	0r_4g.bmp	0r_4g.bmp	0r_2g.bmp	0r_2g.bmp		0r_4g.bmp			TrialProc	TrialList	0	cvbn	-999999	18	341285	0	v	384	341669	344	-328	16	-10	10	6	10	8	11	102	0	0	0	0	4	4	2	2	0	4
Hungry_Donkey_bar_English_2	101	1	<?xml version="1.0"?>\n<Clock xmlns:dt="urn:schemas-microsoft-com:datatypes"><Description dt:dt="string">E-Prime Primary Realtime Clock</Description><StartTime><Timestamp dt:dt="int">0</Timestamp><DateUtc dt:dt="string">2015-04-29T21:08:11Z</DateUtc></StartTime><FrequencyChanges><FrequencyChange><Frequency dt:dt="r8">2597695</Frequency><Timestamp dt:dt="r8">11788943016</Timestamp><Current dt:dt="r8">0</Current><DateUtc dt:dt="string">2015-04-29T21:08:11Z</DateUtc></FrequencyChange></FrequencyChanges></Clock>\n	Hungry_Donkey_bar_English_2-101-1	59.973	18	1.0.0.17	1	-1095464730	Standard	2.0.10.353	2.0.10.353	04-29-2015	4/29/2015 9:08:11 PM	17:08:11	2.0.10.248	103	Bar50-50.bmp	51	2	?	12r_4g.bmp	0r_4g.bmp	3r_2g.bmp	0r_2g.bmp		0r_4g.bmp			TrialProc	TrialList	0	cvbn	-999999	18	343703	0	v	349	344052	348	-328	20	-10	14	6	10	5	11	103	-12	0	-3	0	4	4	2	2	0	4
Hungry_Donkey_bar_English_2	101	1	<?xml version="1.0"?>\n<Clock xmlns:dt="urn:schemas-microsoft-com:datatypes"><Description dt:dt="string">E-Prime Primary Realtime Clock</Description><StartTime><Timestamp dt:dt="int">0</Timestamp><DateUtc dt:dt="string">2015-04-29T21:08:11Z</DateUtc></StartTime><FrequencyChanges><FrequencyChange><Frequency dt:dt="r8">2597695</Frequency><Timestamp dt:dt="r8">11788943016</Timestamp><Current dt:dt="r8">0</Current><DateUtc dt:dt="string">2015-04-29T21:08:11Z</DateUtc></FrequencyChange></FrequencyChanges></Clock>\n	Hungry_Donkey_bar_English_2-101-1	59.973	18	1.0.0.17	1	-1095464730	Standard	2.0.10.353	2.0.10.353	04-29-2015	4/29/2015 9:08:11 PM	17:08:11	2.0.10.248	104	Bar50-50.bmp	48	2	?	8r_4g.bmp	50r_4g.bmp	1r_2g.bmp	10r_2g.bmp		50r_4g.bmp			TrialProc	TrialList	0	cvbn	-999999	17	346087	0	v	93	346180	352	-378	-26	-10	-32	6	10	1	11	104	-8	-50	-1	-10	4	4	2	2	-50	4
Hungry_Donkey_bar_English_2	101	1	<?xml version="1.0"?>\n<Clock xmlns:dt="urn:schemas-microsoft-com:datatypes"><Description dt:dt="string">E-Prime Primary Realtime Clock</Description><StartTime><Timestamp dt:dt="int">0</Timestamp><DateUtc dt:dt="string">2015-04-29T21:08:11Z</DateUtc></StartTime><FrequencyChanges><FrequencyChange><Frequency dt:dt="r8">2597695</Frequency><Timestamp dt:dt="r8">11788943016</Timestamp><Current dt:dt="r8">0</Current><DateUtc dt:dt="string">2015-04-29T21:08:11Z</DateUtc></FrequencyChange></FrequencyChanges></Clock>\n	Hungry_Donkey_bar_English_2-101-1	59.973	18	1.0.0.17	1	-1095464730	Standard	2.0.10.353	2.0.10.353	04-29-2015	4/29/2015 9:08:11 PM	17:08:11	2.0.10.248	105	Bar50-50.bmp	49	1	?	0r_4g.bmp	0r_4g.bmp	0r_2g.bmp	0r_2g.bmp	0r_4g.bmp				TrialProc	TrialList	0	cvbn	-999999	17	348221	0	c	423	348644	356	-378	-22	-6	-32	6	10	6	11	105	0	0	0	0	4	4	2	2	0	4
Hungry_Donkey_bar_English_2	101	1	<?xml version="1.0"?>\n<Clock xmlns:dt="urn:schemas-microsoft-com:datatypes"><Description dt:dt="string">E-Prime Primary Realtime Clock</Description><StartTime><Timestamp dt:dt="int">0</Timestamp><DateUtc dt:dt="string">2015-04-29T21:08:11Z</DateUtc></StartTime><FrequencyChanges><FrequencyChange><Frequency dt:dt="r8">2597695</Frequency><Timestamp dt:dt="r8">11788943016</Timestamp><Current dt:dt="r8">0</Current><DateUtc dt:dt="string">2015-04-29T21:08:11Z</DateUtc></FrequencyChange></FrequencyChanges></Clock>\n	Hungry_Donkey_bar_English_2-101-1	59.973	18	1.0.0.17	1	-1095464730	Standard	2.0.10.353	2.0.10.353	04-29-2015	4/29/2015 9:08:11 PM	17:08:11	2.0.10.248	106	Bar50-50.bmp	48	1	?	10r_4g.bmp	0r_4g.bmp	2r_2g.bmp	0r_2g.bmp	10r_4g.bmp				TrialProc	TrialList	0	cvbn	-999999	17	350672	0	c	308	350980	360	-388	-28	-12	-32	6	10	3	11	106	-10	0	-2	0	4	4	2	2	-10	4
Hungry_Donkey_bar_English_2	101	1	<?xml version="1.0"?>\n<Clock xmlns:dt="urn:schemas-microsoft-com:datatypes"><Description dt:dt="string">E-Prime Primary Realtime Clock</Description><StartTime><Timestamp dt:dt="int">0</Timestamp><DateUtc dt:dt="string">2015-04-29T21:08:11Z</DateUtc></StartTime><FrequencyChanges><FrequencyChange><Frequency dt:dt="r8">2597695</Frequency><Timestamp dt:dt="r8">11788943016</Timestamp><Current dt:dt="r8">0</Current><DateUtc dt:dt="string">2015-04-29T21:08:11Z</DateUtc></FrequencyChange></FrequencyChanges></Clock>\n	Hungry_Donkey_bar_English_2-101-1	59.973	18	1.0.0.17	1	-1095464730	Standard	2.0.10.353	2.0.10.353	04-29-2015	4/29/2015 9:08:11 PM	17:08:11	2.0.10.248	107	Bar50-50.bmp	48	3	?	0r_4g.bmp	0r_4g.bmp	0r_2g.bmp	0r_2g.bmp			0r_2g.bmp		TrialProc	TrialList	0	cvbn	-999999	17	353023	0	b	581	353604	362	-388	-26	-12	-32	8	10	7	11	107	0	0	0	0	4	4	2	2	0	2
Hungry_Donkey_bar_English_2	101	1	<?xml version="1.0"?>\n<Clock xmlns:dt="urn:schemas-microsoft-com:datatypes"><Description dt:dt="string">E-Prime Primary Realtime Clock</Description><StartTime><Timestamp dt:dt="int">0</Timestamp><DateUtc dt:dt="string">2015-04-29T21:08:11Z</DateUtc></StartTime><FrequencyChanges><FrequencyChange><Frequency dt:dt="r8">2597695</Frequency><Timestamp dt:dt="r8">11788943016</Timestamp><Current dt:dt="r8">0</Current><DateUtc dt:dt="string">2015-04-29T21:08:11Z</DateUtc></FrequencyChange></FrequencyChanges></Clock>\n	Hungry_Donkey_bar_English_2-101-1	59.973	18	1.0.0.17	1	-1095464730	Standard	2.0.10.353	2.0.10.353	04-29-2015	4/29/2015 9:08:11 PM	17:08:11	2.0.10.248	108	Bar50-50.bmp	48	3	?	10r_4g.bmp	0r_4g.bmp	2r_2g.bmp	0r_2g.bmp			2r_2g.bmp		TrialProc	TrialList	0	cvbn	-999999	17	355641	0	b	443	356084	364	-390	-26	-12	-32	8	10	4	11	108	-10	0	-2	0	4	4	2	2	-2	2
Hungry_Donkey_bar_English_2	101	1	<?xml version="1.0"?>\n<Clock xmlns:dt="urn:schemas-microsoft-com:datatypes"><Description dt:dt="string">E-Prime Primary Realtime Clock</Description><StartTime><Timestamp dt:dt="int">0</Timestamp><DateUtc dt:dt="string">2015-04-29T21:08:11Z</DateUtc></StartTime><FrequencyChanges><FrequencyChange><Frequency dt:dt="r8">2597695</Frequency><Timestamp dt:dt="r8">11788943016</Timestamp><Current dt:dt="r8">0</Current><DateUtc dt:dt="string">2015-04-29T21:08:11Z</DateUtc></FrequencyChange></FrequencyChanges></Clock>\n	Hungry_Donkey_bar_English_2-101-1	59.973	18	1.0.0.17	1	-1095464730	Standard	2.0.10.353	2.0.10.353	04-29-2015	4/29/2015 9:08:11 PM	17:08:11	2.0.10.248	109	Bar50-50.bmp	48	4	?	10r_4g.bmp	0r_4g.bmp	2r_2g.bmp	0r_2g.bmp				0r_2g.bmp	TrialProc	TrialList	0	cvbn	-999999	18	358126	0	n	454	358580	366	-390	-24	-12	-32	8	12	2	11	109	-10	0	-2	0	4	4	2	2	0	2
Hungry_Donkey_bar_English_2	101	1	<?xml version="1.0"?>\n<Clock xmlns:dt="urn:schemas-microsoft-com:datatypes"><Description dt:dt="string">E-Prime Primary Realtime Clock</Description><StartTime><Timestamp dt:dt="int">0</Timestamp><DateUtc dt:dt="string">2015-04-29T21:08:11Z</DateUtc></StartTime><FrequencyChanges><FrequencyChange><Frequency dt:dt="r8">2597695</Frequency><Timestamp dt:dt="r8">11788943016</Timestamp><Current dt:dt="r8">0</Current><DateUtc dt:dt="string">2015-04-29T21:08:11Z</DateUtc></FrequencyChange></FrequencyChanges></Clock>\n	Hungry_Donkey_bar_English_2-101-1	59.973	18	1.0.0.17	1	-1095464730	Standard	2.0.10.353	2.0.10.353	04-29-2015	4/29/2015 9:08:11 PM	17:08:11	2.0.10.248	110	Bar50-50.bmp	49	2	?	0r_4g.bmp	0r_4g.bmp	0r_2g.bmp	0r_2g.bmp		0r_4g.bmp			TrialProc	TrialList	0	cvbn	-999999	17	360610	0	v	466	361076	370	-390	-20	-12	-28	8	12	9	11	110	0	0	0	0	4	4	2	2	0	4
Hungry_Donkey_bar_English_2	101	1	<?xml version="1.0"?>\n<Clock xmlns:dt="urn:schemas-microsoft-com:datatypes"><Description dt:dt="string">E-Prime Primary Realtime Clock</Description><StartTime><Timestamp dt:dt="int">0</Timestamp><DateUtc dt:dt="string">2015-04-29T21:08:11Z</DateUtc></StartTime><FrequencyChanges><FrequencyChange><Frequency dt:dt="r8">2597695</Frequency><Timestamp dt:dt="r8">11788943016</Timestamp><Current dt:dt="r8">0</Current><DateUtc dt:dt="string">2015-04-29T21:08:11Z</DateUtc></FrequencyChange></FrequencyChanges></Clock>\n	Hungry_Donkey_bar_English_2-101-1	59.973	18	1.0.0.17	1	-1095464730	Standard	2.0.10.353	2.0.10.353	04-29-2015	4/29/2015 9:08:11 PM	17:08:11	2.0.10.248	111	Bar50-50.bmp	48	1	?	10r_4g.bmp	0r_4g.bmp	2r_2g.bmp	0r_2g.bmp	10r_4g.bmp				TrialProc	TrialList	0	cvbn	-999999	17	363111	0	c	381	363492	374	-400	-26	-18	-28	8	12	4	12	111	-10	0	-2	0	4	4	2	2	-10	4
