ExperimentName	Subject	Session	Clock.Information	DataFile.Basename	Display.RefreshRate	Eindtotaal[Session]	ExperimentVersion	Group	RandomSeed	RuntimeCapabilities	RuntimeVersion	RuntimeVersionExpected	SessionDate	SessionStartDateTimeUtc	SessionTime	StudioVersion	Block	BarImage	BarTotalWinst	DoorChoice	Eindtotaal[Block]	FBDoor1	FBDoor2	FBDoor3	FBDoor4	Image1	Image2	Image3	Image4	Procedure	Running	spel.ACC	spel.CRESP	spel.DurationError	spel.OnsetDelay	spel.OnsetTime	spel.OnsetToOnsetTime	spel.RESP	spel.RT	spel.RTTime	TotalGain	TotalLose	Totalsum	TotalsumD1	TotalsumD2	TotalsumD3	TotalsumD4	TrialList	TrialList.Cycle	TrialList.Sample	varV1	varV2	varV3	varV4	varW1	varW2	varW3	varW4	Verliesbedrag	Winstbedrag
Hungry_Donkey_bar_English_2	148	1	<?xml version="1.0"?>\n<Clock xmlns:dt="urn:schemas-microsoft-com:datatypes"><Description dt:dt="string">E-Prime Primary Realtime Clock</Description><StartTime><Timestamp dt:dt="int">0</Timestamp><DateUtc dt:dt="string">2016-06-28T16:05:42Z</DateUtc></StartTime><FrequencyChanges><FrequencyChange><Frequency dt:dt="r8">3507666</Frequency><Timestamp dt:dt="r8">1700339042026</Timestamp><Current dt:dt="r8">0</Current><DateUtc dt:dt="string">2016-06-28T16:05:42Z</DateUtc></FrequencyChange></FrequencyChanges></Clock>\n	Hungry_Donkey_bar_English_2-148-1	60.017	-12	1.0.0.18	1	-467341814	Standard	2.0.10.353	2.0.10.353	06-28-2016	6/28/2016 4:05:42 PM	12:05:42	2.0.10.248	1	Bar25-75.bmp	25	1	?	12r_4g.bmp	0r_4g.bmp	3r_2g.bmp	0r_2g.bmp	12r_4g.bmp				TrialProc	TrialList	0	cvbn	-999999	27	65496	0	c	2645	68141	4	-12	-8	-8	0	0	0	5	1	1	-12	0	-3	0	4	4	2	2	-12	4
Hungry_Donkey_bar_English_2	148	1	<?xml version="1.0"?>\n<Clock xmlns:dt="urn:schemas-microsoft-com:datatypes"><Description dt:dt="string">E-Prime Primary Realtime Clock</Description><StartTime><Timestamp dt:dt="int">0</Timestamp><DateUtc dt:dt="string">2016-06-28T16:05:42Z</DateUtc></StartTime><FrequencyChanges><FrequencyChange><Frequency dt:dt="r8">3507666</Frequency><Timestamp dt:dt="r8">1700339042026</Timestamp><Current dt:dt="r8">0</Current><DateUtc dt:dt="string">2016-06-28T16:05:42Z</DateUtc></FrequencyChange></FrequencyChanges></Clock>\n	Hungry_Donkey_bar_English_2-148-1	60.017	-12	1.0.0.18	1	-467341814	Standard	2.0.10.353	2.0.10.353	06-28-2016	6/28/2016 4:05:42 PM	12:05:42	2.0.10.248	2	Bar37-63.bmp	40	2	?	0r_4g.bmp	0r_4g.bmp	0r_2g.bmp	0r_2g.bmp		0r_4g.bmp			TrialProc	TrialList	0	cvbn	-999999	16	70178	0	v	810	70988	8	-12	-4	-8	4	0	0	10	1	2	0	0	0	0	4	4	2	2	0	4
Hungry_Donkey_bar_English_2	148	1	<?xml version="1.0"?>\n<Clock xmlns:dt="urn:schemas-microsoft-com:datatypes"><Description dt:dt="string">E-Prime Primary Realtime Clock</Description><StartTime><Timestamp dt:dt="int">0</Timestamp><DateUtc dt:dt="string">2016-06-28T16:05:42Z</DateUtc></StartTime><FrequencyChanges><FrequencyChange><Frequency dt:dt="r8">3507666</Frequency><Timestamp dt:dt="r8">1700339042026</Timestamp><Current dt:dt="r8">0</Current><DateUtc dt:dt="string">2016-06-28T16:05:42Z</DateUtc></FrequencyChange></FrequencyChanges></Clock>\n	Hungry_Donkey_bar_English_2-148-1	60.017	-12	1.0.0.18	1	-467341814	Standard	2.0.10.353	2.0.10.353	06-28-2016	6/28/2016 4:05:42 PM	12:05:42	2.0.10.248	3	Bar50-50.bmp	45	4	?	0r_4g.bmp	0r_4g.bmp	0r_2g.bmp	0r_2g.bmp				0r_2g.bmp	TrialProc	TrialList	0	cvbn	-999999	16	73027	0	n	2121	75148	10	-12	-2	-8	4	0	2	8	1	3	0	0	0	0	4	4	2	2	0	2
Hungry_Donkey_bar_English_2	148	1	<?xml version="1.0"?>\n<Clock xmlns:dt="urn:schemas-microsoft-com:datatypes"><Description dt:dt="string">E-Prime Primary Realtime Clock</Description><StartTime><Timestamp dt:dt="int">0</Timestamp><DateUtc dt:dt="string">2016-06-28T16:05:42Z</DateUtc></StartTime><FrequencyChanges><FrequencyChange><Frequency dt:dt="r8">3507666</Frequency><Timestamp dt:dt="r8">1700339042026</Timestamp><Current dt:dt="r8">0</Current><DateUtc dt:dt="string">2016-06-28T16:05:42Z</DateUtc></FrequencyChange></FrequencyChanges></Clock>\n	Hungry_Donkey_bar_English_2-148-1	60.017	-12	1.0.0.18	1	-467341814	Standard	2.0.10.353	2.0.10.353	06-28-2016	6/28/2016 4:05:42 PM	12:05:42	2.0.10.248	4	Bar50-50.bmp	50	3	?	0r_4g.bmp	0r_4g.bmp	0r_2g.bmp	0r_2g.bmp			0r_2g.bmp		TrialProc	TrialList	0	cvbn	-999999	16	77176	0	b	804	77980	12	-12	0	-8	4	2	2	9	1	4	0	0	0	0	4	4	2	2	0	2
Hungry_Donkey_bar_English_2	148	1	<?xml version="1.0"?>\n<Clock xmlns:dt="urn:schemas-microsoft-com:datatypes"><Description dt:dt="string">E-Prime Primary Realtime Clock</Description><StartTime><Timestamp dt:dt="int">0</Timestamp><DateUtc dt:dt="string">2016-06-28T16:05:42Z</DateUtc></StartTime><FrequencyChanges><FrequencyChange><Frequency dt:dt="r8">3507666</Frequency><Timestamp dt:dt="r8">1700339042026</Timestamp><Current dt:dt="r8">0</Current><DateUtc dt:dt="string">2016-06-28T16:05:42Z</DateUtc></FrequencyChange></FrequencyChanges></Clock>\n	Hungry_Donkey_bar_English_2-148-1	60.017	-12	1.0.0.18	1	-467341814	Standard	2.0.10.353	2.0.10.353	06-28-2016	6/28/2016 4:05:42 PM	12:05:42	2.0.10.248	5	Bar63-37.bmp	57	2	?	0r_4g.bmp	0r_4g.bmp	0r_2g.bmp	0r_2g.bmp		0r_4g.bmp			TrialProc	TrialList	0	cvbn	-999999	16	80008	0	v	196	80204	16	-12	4	-8	8	2	2	7	1	5	0	0	0	0	4	4	2	2	0	4
Hungry_Donkey_bar_English_2	148	1	<?xml version="1.0"?>\n<Clock xmlns:dt="urn:schemas-microsoft-com:datatypes"><Description dt:dt="string">E-Prime Primary Realtime Clock</Description><StartTime><Timestamp dt:dt="int">0</Timestamp><DateUtc dt:dt="string">2016-06-28T16:05:42Z</DateUtc></StartTime><FrequencyChanges><FrequencyChange><Frequency dt:dt="r8">3507666</Frequency><Timestamp dt:dt="r8">1700339042026</Timestamp><Current dt:dt="r8">0</Current><DateUtc dt:dt="string">2016-06-28T16:05:42Z</DateUtc></FrequencyChange></FrequencyChanges></Clock>\n	Hungry_Donkey_bar_English_2-148-1	60.017	-12	1.0.0.18	1	-467341814	Standard	2.0.10.353	2.0.10.353	06-28-2016	6/28/2016 4:05:42 PM	12:05:42	2.0.10.248	6	Bar50-50.bmp	48	1	?	10r_4g.bmp	0r_4g.bmp	2r_2g.bmp	0r_2g.bmp	10r_4g.bmp				TrialProc	TrialList	0	cvbn	-999999	16	82241	0	c	1819	84060	20	-22	-2	-14	8	2	2	2	1	6	-10	0	-2	0	4	4	2	2	-10	4
Hungry_Donkey_bar_English_2	148	1	<?xml version="1.0"?>\n<Clock xmlns:dt="urn:schemas-microsoft-com:datatypes"><Description dt:dt="string">E-Prime Primary Realtime Clock</Description><StartTime><Timestamp dt:dt="int">0</Timestamp><DateUtc dt:dt="string">2016-06-28T16:05:42Z</DateUtc></StartTime><FrequencyChanges><FrequencyChange><Frequency dt:dt="r8">3507666</Frequency><Timestamp dt:dt="r8">1700339042026</Timestamp><Current dt:dt="r8">0</Current><DateUtc dt:dt="string">2016-06-28T16:05:42Z</DateUtc></FrequencyChange></FrequencyChanges></Clock>\n	Hungry_Donkey_bar_English_2-148-1	60.017	-12	1.0.0.18	1	-467341814	Standard	2.0.10.353	2.0.10.353	06-28-2016	6/28/2016 4:05:42 PM	12:05:42	2.0.10.248	7	Bar25-75.bmp	25	2	?	8r_4g.bmp	50r_4g.bmp	1r_2g.bmp	10r_2g.bmp		50r_4g.bmp			TrialProc	TrialList	0	cvbn	-999999	16	86090	0	v	930	87020	24	-72	-48	-14	-38	2	2	1	1	7	-8	-50	-1	-10	4	4	2	2	-50	4
Hungry_Donkey_bar_English_2	148	1	<?xml version="1.0"?>\n<Clock xmlns:dt="urn:schemas-microsoft-com:datatypes"><Description dt:dt="string">E-Prime Primary Realtime Clock</Description><StartTime><Timestamp dt:dt="int">0</Timestamp><DateUtc dt:dt="string">2016-06-28T16:05:42Z</DateUtc></StartTime><FrequencyChanges><FrequencyChange><Frequency dt:dt="r8">3507666</Frequency><Timestamp dt:dt="r8">1700339042026</Timestamp><Current dt:dt="r8">0</Current><DateUtc dt:dt="string">2016-06-28T16:05:42Z</DateUtc></FrequencyChange></FrequencyChanges></Clock>\n	Hungry_Donkey_bar_English_2-148-1	60.017	-12	1.0.0.18	1	-467341814	Standard	2.0.10.353	2.0.10.353	06-28-2016	6/28/2016 4:05:42 PM	12:05:42	2.0.10.248	8	Bar25-75.bmp	26	3	?	10r_4g.bmp	0r_4g.bmp	2r_2g.bmp	0r_2g.bmp			2r_2g.bmp		TrialProc	TrialList	0	cvbn	-999999	16	89056	0	b	156	89212	26	-74	-48	-14	-38	2	2	4	1	8	-10	0	-2	0	4	4	2	2	-2	2
Hungry_Donkey_bar_English_2	148	1	<?xml version="1.0"?>\n<Clock xmlns:dt="urn:schemas-microsoft-com:datatypes"><Description dt:dt="string">E-Prime Primary Realtime Clock</Description><StartTime><Timestamp dt:dt="int">0</Timestamp><DateUtc dt:dt="string">2016-06-28T16:05:42Z</DateUtc></StartTime><FrequencyChanges><FrequencyChange><Frequency dt:dt="r8">3507666</Frequency><Timestamp dt:dt="r8">1700339042026</Timestamp><Current dt:dt="r8">0</Current><DateUtc dt:dt="string">2016-06-28T16:05:42Z</DateUtc></FrequencyChange></FrequencyChanges></Clock>\n	Hungry_Donkey_bar_English_2-148-1	60.017	-12	1.0.0.18	1	-467341814	Standard	2.0.10.353	2.0.10.353	06-28-2016	6/28/2016 4:05:42 PM	12:05:42	2.0.10.248	9	Bar25-75.bmp	27	4	?	0r_4g.bmp	0r_4g.bmp	0r_2g.bmp	0r_2g.bmp				0r_2g.bmp	TrialProc	TrialList	0	cvbn	-999999	16	91238	0	n	278	91516	28	-74	-46	-14	-38	2	4	6	1	9	0	0	0	0	4	4	2	2	0	2
Hungry_Donkey_bar_English_2	148	1	<?xml version="1.0"?>\n<Clock xmlns:dt="urn:schemas-microsoft-com:datatypes"><Description dt:dt="string">E-Prime Primary Realtime Clock</Description><StartTime><Timestamp dt:dt="int">0</Timestamp><DateUtc dt:dt="string">2016-06-28T16:05:42Z</DateUtc></StartTime><FrequencyChanges><FrequencyChange><Frequency dt:dt="r8">3507666</Frequency><Timestamp dt:dt="r8">1700339042026</Timestamp><Current dt:dt="r8">0</Current><DateUtc dt:dt="string">2016-06-28T16:05:42Z</DateUtc></FrequencyChange></FrequencyChanges></Clock>\n	Hungry_Donkey_bar_English_2-148-1	60.017	-12	1.0.0.18	1	-467341814	Standard	2.0.10.353	2.0.10.353	06-28-2016	6/28/2016 4:05:42 PM	12:05:42	2.0.10.248	10	Bar25-75.bmp	30	2	?	10r_4g.bmp	0r_4g.bmp	2r_2g.bmp	0r_2g.bmp		0r_4g.bmp			TrialProc	TrialList	0	cvbn	-999999	16	93554	0	v	649	94203	32	-74	-42	-14	-34	2	4	3	1	10	-10	0	-2	0	4	4	2	2	0	4
Hungry_Donkey_bar_English_2	148	1	<?xml version="1.0"?>\n<Clock xmlns:dt="urn:schemas-microsoft-com:datatypes"><Description dt:dt="string">E-Prime Primary Realtime Clock</Description><StartTime><Timestamp dt:dt="int">0</Timestamp><DateUtc dt:dt="string">2016-06-28T16:05:42Z</DateUtc></StartTime><FrequencyChanges><FrequencyChange><Frequency dt:dt="r8">3507666</Frequency><Timestamp dt:dt="r8">1700339042026</Timestamp><Current dt:dt="r8">0</Current><DateUtc dt:dt="string">2016-06-28T16:05:42Z</DateUtc></FrequencyChange></FrequencyChanges></Clock>\n	Hungry_Donkey_bar_English_2-148-1	60.017	-12	1.0.0.18	1	-467341814	Standard	2.0.10.353	2.0.10.353	06-28-2016	6/28/2016 4:05:42 PM	12:05:42	2.0.10.248	11	Bar37-63.bmp	33	1	?	0r_4g.bmp	0r_4g.bmp	0r_2g.bmp	0r_2g.bmp	0r_4g.bmp				TrialProc	TrialList	0	cvbn	-999999	16	96237	0	c	990	97227	36	-74	-38	-10	-34	2	4	10	2	11	0	0	0	0	4	4	2	2	0	4
Hungry_Donkey_bar_English_2	148	1	<?xml version="1.0"?>\n<Clock xmlns:dt="urn:schemas-microsoft-com:datatypes"><Description dt:dt="string">E-Prime Primary Realtime Clock</Description><StartTime><Timestamp dt:dt="int">0</Timestamp><DateUtc dt:dt="string">2016-06-28T16:05:42Z</DateUtc></StartTime><FrequencyChanges><FrequencyChange><Frequency dt:dt="r8">3507666</Frequency><Timestamp dt:dt="r8">1700339042026</Timestamp><Current dt:dt="r8">0</Current><DateUtc dt:dt="string">2016-06-28T16:05:42Z</DateUtc></FrequencyChange></FrequencyChanges></Clock>\n	Hungry_Donkey_bar_English_2-148-1	60.017	-12	1.0.0.18	1	-467341814	Standard	2.0.10.353	2.0.10.353	06-28-2016	6/28/2016 4:05:42 PM	12:05:42	2.0.10.248	12	Bar37-63.bmp	34	3	?	0r_4g.bmp	0r_4g.bmp	0r_2g.bmp	0r_2g.bmp			0r_2g.bmp		TrialProc	TrialList	0	cvbn	-999999	16	99253	0	b	1318	100571	38	-74	-36	-10	-34	4	4	7	2	12	0	0	0	0	4	4	2	2	0	2
Hungry_Donkey_bar_English_2	148	1	<?xml version="1.0"?>\n<Clock xmlns:dt="urn:schemas-microsoft-com:datatypes"><Description dt:dt="string">E-Prime Primary Realtime Clock</Description><StartTime><Timestamp dt:dt="int">0</Timestamp><DateUtc dt:dt="string">2016-06-28T16:05:42Z</DateUtc></StartTime><FrequencyChanges><FrequencyChange><Frequency dt:dt="r8">3507666</Frequency><Timestamp dt:dt="r8">1700339042026</Timestamp><Current dt:dt="r8">0</Current><DateUtc dt:dt="string">2016-06-28T16:05:42Z</DateUtc></FrequencyChange></FrequencyChanges></Clock>\n	Hungry_Donkey_bar_English_2-148-1	60.017	-12	1.0.0.18	1	-467341814	Standard	2.0.10.353	2.0.10.353	06-28-2016	6/28/2016 4:05:42 PM	12:05:42	2.0.10.248	13	Bar37-63.bmp	36	2	?	0r_4g.bmp	0r_4g.bmp	0r_2g.bmp	0r_2g.bmp		0r_4g.bmp			TrialProc	TrialList	0	cvbn	-999999	16	102602	0	v	977	103579	42	-74	-32	-10	-30	4	4	9	2	13	0	0	0	0	4	4	2	2	0	4
Hungry_Donkey_bar_English_2	148	1	<?xml version="1.0"?>\n<Clock xmlns:dt="urn:schemas-microsoft-com:datatypes"><Description dt:dt="string">E-Prime Primary Realtime Clock</Description><StartTime><Timestamp dt:dt="int">0</Timestamp><DateUtc dt:dt="string">2016-06-28T16:05:42Z</DateUtc></StartTime><FrequencyChanges><FrequencyChange><Frequency dt:dt="r8">3507666</Frequency><Timestamp dt:dt="r8">1700339042026</Timestamp><Current dt:dt="r8">0</Current><DateUtc dt:dt="string">2016-06-28T16:05:42Z</DateUtc></FrequencyChange></FrequencyChanges></Clock>\n	Hungry_Donkey_bar_English_2-148-1	60.017	-12	1.0.0.18	1	-467341814	Standard	2.0.10.353	2.0.10.353	06-28-2016	6/28/2016 4:05:42 PM	12:05:42	2.0.10.248	14	Bar37-63.bmp	37	4	?	0r_4g.bmp	0r_4g.bmp	0r_2g.bmp	0r_2g.bmp				0r_2g.bmp	TrialProc	TrialList	0	cvbn	-999999	16	105618	0	n	313	105931	44	-74	-30	-10	-30	4	6	6	2	14	0	0	0	0	4	4	2	2	0	2
Hungry_Donkey_bar_English_2	148	1	<?xml version="1.0"?>\n<Clock xmlns:dt="urn:schemas-microsoft-com:datatypes"><Description dt:dt="string">E-Prime Primary Realtime Clock</Description><StartTime><Timestamp dt:dt="int">0</Timestamp><DateUtc dt:dt="string">2016-06-28T16:05:42Z</DateUtc></StartTime><FrequencyChanges><FrequencyChange><Frequency dt:dt="r8">3507666</Frequency><Timestamp dt:dt="r8">1700339042026</Timestamp><Current dt:dt="r8">0</Current><DateUtc dt:dt="string">2016-06-28T16:05:42Z</DateUtc></FrequencyChange></FrequencyChanges></Clock>\n	Hungry_Donkey_bar_English_2-148-1	60.017	-12	1.0.0.18	1	-467341814	Standard	2.0.10.353	2.0.10.353	06-28-2016	6/28/2016 4:05:42 PM	12:05:42	2.0.10.248	15	Bar37-63.bmp	39	2	?	12r_4g.bmp	0r_4g.bmp	3r_2g.bmp	0r_2g.bmp		0r_4g.bmp			TrialProc	TrialList	0	cvbn	-999999	16	107967	0	v	316	108283	48	-74	-26	-10	-26	4	6	5	2	15	-12	0	-3	0	4	4	2	2	0	4
Hungry_Donkey_bar_English_2	148	1	<?xml version="1.0"?>\n<Clock xmlns:dt="urn:schemas-microsoft-com:datatypes"><Description dt:dt="string">E-Prime Primary Realtime Clock</Description><StartTime><Timestamp dt:dt="int">0</Timestamp><DateUtc dt:dt="string">2016-06-28T16:05:42Z</DateUtc></StartTime><FrequencyChanges><FrequencyChange><Frequency dt:dt="r8">3507666</Frequency><Timestamp dt:dt="r8">1700339042026</Timestamp><Current dt:dt="r8">0</Current><DateUtc dt:dt="string">2016-06-28T16:05:42Z</DateUtc></FrequencyChange></FrequencyChanges></Clock>\n	Hungry_Donkey_bar_English_2-148-1	60.017	-12	1.0.0.18	1	-467341814	Standard	2.0.10.353	2.0.10.353	06-28-2016	6/28/2016 4:05:42 PM	12:05:42	2.0.10.248	16	Bar37-63.bmp	38	1	?	10r_4g.bmp	0r_4g.bmp	2r_2g.bmp	0r_2g.bmp	10r_4g.bmp				TrialProc	TrialList	0	cvbn	-999999	16	110316	0	c	1199	111515	52	-84	-32	-16	-26	4	6	2	2	16	-10	0	-2	0	4	4	2	2	-10	4
Hungry_Donkey_bar_English_2	148	1	<?xml version="1.0"?>\n<Clock xmlns:dt="urn:schemas-microsoft-com:datatypes"><Description dt:dt="string">E-Prime Primary Realtime Clock</Description><StartTime><Timestamp dt:dt="int">0</Timestamp><DateUtc dt:dt="string">2016-06-28T16:05:42Z</DateUtc></StartTime><FrequencyChanges><FrequencyChange><Frequency dt:dt="r8">3507666</Frequency><Timestamp dt:dt="r8">1700339042026</Timestamp><Current dt:dt="r8">0</Current><DateUtc dt:dt="string">2016-06-28T16:05:42Z</DateUtc></FrequencyChange></FrequencyChanges></Clock>\n	Hungry_Donkey_bar_English_2-148-1	60.017	-12	1.0.0.18	1	-467341814	Standard	2.0.10.353	2.0.10.353	06-28-2016	6/28/2016 4:05:42 PM	12:05:42	2.0.10.248	17	Bar25-75.bmp	29	2	?	8r_4g.bmp	50r_4g.bmp	1r_2g.bmp	10r_2g.bmp		50r_4g.bmp			TrialProc	TrialList	0	cvbn	-999999	16	113549	0	v	46	113595	56	-134	-78	-16	-72	4	6	1	2	17	-8	-50	-1	-10	4	4	2	2	-50	4
Hungry_Donkey_bar_English_2	148	1	<?xml version="1.0"?>\n<Clock xmlns:dt="urn:schemas-microsoft-com:datatypes"><Description dt:dt="string">E-Prime Primary Realtime Clock</Description><StartTime><Timestamp dt:dt="int">0</Timestamp><DateUtc dt:dt="string">2016-06-28T16:05:42Z</DateUtc></StartTime><FrequencyChanges><FrequencyChange><Frequency dt:dt="r8">3507666</Frequency><Timestamp dt:dt="r8">1700339042026</Timestamp><Current dt:dt="r8">0</Current><DateUtc dt:dt="string">2016-06-28T16:05:42Z</DateUtc></FrequencyChange></FrequencyChanges></Clock>\n	Hungry_Donkey_bar_English_2-148-1	60.017	-12	1.0.0.18	1	-467341814	Standard	2.0.10.353	2.0.10.353	06-28-2016	6/28/2016 4:05:42 PM	12:05:42	2.0.10.248	18	Bar25-75.bmp	30	3	?	10r_4g.bmp	0r_4g.bmp	2r_2g.bmp	0r_2g.bmp			2r_2g.bmp		TrialProc	TrialList	0	cvbn	-999999	17	115632	0	b	586	116218	58	-136	-78	-16	-72	4	6	3	2	18	-10	0	-2	0	4	4	2	2	-2	2
Hungry_Donkey_bar_English_2	148	1	<?xml version="1.0"?>\n<Clock xmlns:dt="urn:schemas-microsoft-com:datatypes"><Description dt:dt="string">E-Prime Primary Realtime Clock</Description><StartTime><Timestamp dt:dt="int">0</Timestamp><DateUtc dt:dt="string">2016-06-28T16:05:42Z</DateUtc></StartTime><FrequencyChanges><FrequencyChange><Frequency dt:dt="r8">3507666</Frequency><Timestamp dt:dt="r8">1700339042026</Timestamp><Current dt:dt="r8">0</Current><DateUtc dt:dt="string">2016-06-28T16:05:42Z</DateUtc></FrequencyChange></FrequencyChanges></Clock>\n	Hungry_Donkey_bar_English_2-148-1	60.017	-12	1.0.0.18	1	-467341814	Standard	2.0.10.353	2.0.10.353	06-28-2016	6/28/2016 4:05:42 PM	12:05:42	2.0.10.248	19	Bar25-75.bmp	31	4	?	0r_4g.bmp	0r_4g.bmp	0r_2g.bmp	0r_2g.bmp				0r_2g.bmp	TrialProc	TrialList	0	cvbn	-999999	16	118247	0	n	851	119098	60	-136	-76	-16	-72	4	8	8	2	19	0	0	0	0	4	4	2	2	0	2
Hungry_Donkey_bar_English_2	148	1	<?xml version="1.0"?>\n<Clock xmlns:dt="urn:schemas-microsoft-com:datatypes"><Description dt:dt="string">E-Prime Primary Realtime Clock</Description><StartTime><Timestamp dt:dt="int">0</Timestamp><DateUtc dt:dt="string">2016-06-28T16:05:42Z</DateUtc></StartTime><FrequencyChanges><FrequencyChange><Frequency dt:dt="r8">3507666</Frequency><Timestamp dt:dt="r8">1700339042026</Timestamp><Current dt:dt="r8">0</Current><DateUtc dt:dt="string">2016-06-28T16:05:42Z</DateUtc></FrequencyChange></FrequencyChanges></Clock>\n	Hungry_Donkey_bar_English_2-148-1	60.017	-12	1.0.0.18	1	-467341814	Standard	2.0.10.353	2.0.10.353	06-28-2016	6/28/2016 4:05:42 PM	12:05:42	2.0.10.248	20	Bar37-63.bmp	32	2	?	10r_4g.bmp	0r_4g.bmp	2r_2g.bmp	0r_2g.bmp		0r_4g.bmp			TrialProc	TrialList	0	cvbn	-999999	16	121130	0	v	1264	122394	64	-136	-72	-16	-68	4	8	4	2	20	-10	0	-2	0	4	4	2	2	0	4
Hungry_Donkey_bar_English_2	148	1	<?xml version="1.0"?>\n<Clock xmlns:dt="urn:schemas-microsoft-com:datatypes"><Description dt:dt="string">E-Prime Primary Realtime Clock</Description><StartTime><Timestamp dt:dt="int">0</Timestamp><DateUtc dt:dt="string">2016-06-28T16:05:42Z</DateUtc></StartTime><FrequencyChanges><FrequencyChange><Frequency dt:dt="r8">3507666</Frequency><Timestamp dt:dt="r8">1700339042026</Timestamp><Current dt:dt="r8">0</Current><DateUtc dt:dt="string">2016-06-28T16:05:42Z</DateUtc></FrequencyChange></FrequencyChanges></Clock>\n	Hungry_Donkey_bar_English_2-148-1	60.017	-12	1.0.0.18	1	-467341814	Standard	2.0.10.353	2.0.10.353	06-28-2016	6/28/2016 4:05:42 PM	12:05:42	2.0.10.248	21	Bar37-63.bmp	32	1	?	10r_4g.bmp	0r_4g.bmp	2r_2g.bmp	0r_2g.bmp	10r_4g.bmp				TrialProc	TrialList	0	cvbn	-999999	16	124429	0	c	1293	125722	68	-146	-78	-22	-68	4	8	4	3	21	-10	0	-2	0	4	4	2	2	-10	4
Hungry_Donkey_bar_English_2	148	1	<?xml version="1.0"?>\n<Clock xmlns:dt="urn:schemas-microsoft-com:datatypes"><Description dt:dt="string">E-Prime Primary Realtime Clock</Description><StartTime><Timestamp dt:dt="int">0</Timestamp><DateUtc dt:dt="string">2016-06-28T16:05:42Z</DateUtc></StartTime><FrequencyChanges><FrequencyChange><Frequency dt:dt="r8">3507666</Frequency><Timestamp dt:dt="r8">1700339042026</Timestamp><Current dt:dt="r8">0</Current><DateUtc dt:dt="string">2016-06-28T16:05:42Z</DateUtc></FrequencyChange></FrequencyChanges></Clock>\n	Hungry_Donkey_bar_English_2-148-1	60.017	-12	1.0.0.18	1	-467341814	Standard	2.0.10.353	2.0.10.353	06-28-2016	6/28/2016 4:05:42 PM	12:05:42	2.0.10.248	22	Bar37-63.bmp	33	2	?	0r_4g.bmp	0r_4g.bmp	0r_2g.bmp	0r_2g.bmp		0r_4g.bmp			TrialProc	TrialList	0	cvbn	-999999	16	127761	0	v	745	128506	72	-146	-74	-22	-64	4	8	8	3	22	0	0	0	0	4	4	2	2	0	4
Hungry_Donkey_bar_English_2	148	1	<?xml version="1.0"?>\n<Clock xmlns:dt="urn:schemas-microsoft-com:datatypes"><Description dt:dt="string">E-Prime Primary Realtime Clock</Description><StartTime><Timestamp dt:dt="int">0</Timestamp><DateUtc dt:dt="string">2016-06-28T16:05:42Z</DateUtc></StartTime><FrequencyChanges><FrequencyChange><Frequency dt:dt="r8">3507666</Frequency><Timestamp dt:dt="r8">1700339042026</Timestamp><Current dt:dt="r8">0</Current><DateUtc dt:dt="string">2016-06-28T16:05:42Z</DateUtc></FrequencyChange></FrequencyChanges></Clock>\n	Hungry_Donkey_bar_English_2-148-1	60.017	-12	1.0.0.18	1	-467341814	Standard	2.0.10.353	2.0.10.353	06-28-2016	6/28/2016 4:05:42 PM	12:05:42	2.0.10.248	23	Bar37-63.bmp	32	4	?	8r_4g.bmp	50r_4g.bmp	1r_2g.bmp	10r_2g.bmp				10r_2g.bmp	TrialProc	TrialList	0	cvbn	-999999	16	130544	0	n	1338	131882	74	-156	-82	-22	-64	4	0	1	3	23	-8	-50	-1	-10	4	4	2	2	-10	2
Hungry_Donkey_bar_English_2	148	1	<?xml version="1.0"?>\n<Clock xmlns:dt="urn:schemas-microsoft-com:datatypes"><Description dt:dt="string">E-Prime Primary Realtime Clock</Description><StartTime><Timestamp dt:dt="int">0</Timestamp><DateUtc dt:dt="string">2016-06-28T16:05:42Z</DateUtc></StartTime><FrequencyChanges><FrequencyChange><Frequency dt:dt="r8">3507666</Frequency><Timestamp dt:dt="r8">1700339042026</Timestamp><Current dt:dt="r8">0</Current><DateUtc dt:dt="string">2016-06-28T16:05:42Z</DateUtc></FrequencyChange></FrequencyChanges></Clock>\n	Hungry_Donkey_bar_English_2-148-1	60.017	-12	1.0.0.18	1	-467341814	Standard	2.0.10.353	2.0.10.353	06-28-2016	6/28/2016 4:05:42 PM	12:05:42	2.0.10.248	24	Bar37-63.bmp	33	2	?	12r_4g.bmp	0r_4g.bmp	3r_2g.bmp	0r_2g.bmp		0r_4g.bmp			TrialProc	TrialList	0	cvbn	-999999	16	133910	0	v	900	134810	78	-156	-78	-22	-60	4	0	5	3	24	-12	0	-3	0	4	4	2	2	0	4
Hungry_Donkey_bar_English_2	148	1	<?xml version="1.0"?>\n<Clock xmlns:dt="urn:schemas-microsoft-com:datatypes"><Description dt:dt="string">E-Prime Primary Realtime Clock</Description><StartTime><Timestamp dt:dt="int">0</Timestamp><DateUtc dt:dt="string">2016-06-28T16:05:42Z</DateUtc></StartTime><FrequencyChanges><FrequencyChange><Frequency dt:dt="r8">3507666</Frequency><Timestamp dt:dt="r8">1700339042026</Timestamp><Current dt:dt="r8">0</Current><DateUtc dt:dt="string">2016-06-28T16:05:42Z</DateUtc></FrequencyChange></FrequencyChanges></Clock>\n	Hungry_Donkey_bar_English_2-148-1	60.017	-12	1.0.0.18	1	-467341814	Standard	2.0.10.353	2.0.10.353	06-28-2016	6/28/2016 4:05:42 PM	12:05:42	2.0.10.248	25	Bar37-63.bmp	34	1	?	0r_4g.bmp	0r_4g.bmp	0r_2g.bmp	0r_2g.bmp	0r_4g.bmp				TrialProc	TrialList	0	cvbn	-999999	16	136842	0	c	159	137001	82	-156	-74	-18	-60	4	0	7	3	25	0	0	0	0	4	4	2	2	0	4
Hungry_Donkey_bar_English_2	148	1	<?xml version="1.0"?>\n<Clock xmlns:dt="urn:schemas-microsoft-com:datatypes"><Description dt:dt="string">E-Prime Primary Realtime Clock</Description><StartTime><Timestamp dt:dt="int">0</Timestamp><DateUtc dt:dt="string">2016-06-28T16:05:42Z</DateUtc></StartTime><FrequencyChanges><FrequencyChange><Frequency dt:dt="r8">3507666</Frequency><Timestamp dt:dt="r8">1700339042026</Timestamp><Current dt:dt="r8">0</Current><DateUtc dt:dt="string">2016-06-28T16:05:42Z</DateUtc></FrequencyChange></FrequencyChanges></Clock>\n	Hungry_Donkey_bar_English_2-148-1	60.017	-12	1.0.0.18	1	-467341814	Standard	2.0.10.353	2.0.10.353	06-28-2016	6/28/2016 4:05:42 PM	12:05:42	2.0.10.248	26	Bar37-63.bmp	36	2	?	10r_4g.bmp	0r_4g.bmp	2r_2g.bmp	0r_2g.bmp		0r_4g.bmp			TrialProc	TrialList	0	cvbn	-999999	17	139042	0	v	311	139353	86	-156	-70	-18	-56	4	0	3	3	26	-10	0	-2	0	4	4	2	2	0	4
Hungry_Donkey_bar_English_2	148	1	<?xml version="1.0"?>\n<Clock xmlns:dt="urn:schemas-microsoft-com:datatypes"><Description dt:dt="string">E-Prime Primary Realtime Clock</Description><StartTime><Timestamp dt:dt="int">0</Timestamp><DateUtc dt:dt="string">2016-06-28T16:05:42Z</DateUtc></StartTime><FrequencyChanges><FrequencyChange><Frequency dt:dt="r8">3507666</Frequency><Timestamp dt:dt="r8">1700339042026</Timestamp><Current dt:dt="r8">0</Current><DateUtc dt:dt="string">2016-06-28T16:05:42Z</DateUtc></FrequencyChange></FrequencyChanges></Clock>\n	Hungry_Donkey_bar_English_2-148-1	60.017	-12	1.0.0.18	1	-467341814	Standard	2.0.10.353	2.0.10.353	06-28-2016	6/28/2016 4:05:42 PM	12:05:42	2.0.10.248	27	Bar37-63.bmp	36	4	?	0r_4g.bmp	0r_4g.bmp	0r_2g.bmp	0r_2g.bmp				0r_2g.bmp	TrialProc	TrialList	0	cvbn	-999999	16	141391	0	n	890	142281	88	-156	-68	-18	-56	4	2	10	3	27	0	0	0	0	4	4	2	2	0	2
Hungry_Donkey_bar_English_2	148	1	<?xml version="1.0"?>\n<Clock xmlns:dt="urn:schemas-microsoft-com:datatypes"><Description dt:dt="string">E-Prime Primary Realtime Clock</Description><StartTime><Timestamp dt:dt="int">0</Timestamp><DateUtc dt:dt="string">2016-06-28T16:05:42Z</DateUtc></StartTime><FrequencyChanges><FrequencyChange><Frequency dt:dt="r8">3507666</Frequency><Timestamp dt:dt="r8">1700339042026</Timestamp><Current dt:dt="r8">0</Current><DateUtc dt:dt="string">2016-06-28T16:05:42Z</DateUtc></FrequencyChange></FrequencyChanges></Clock>\n	Hungry_Donkey_bar_English_2-148-1	60.017	-12	1.0.0.18	1	-467341814	Standard	2.0.10.353	2.0.10.353	06-28-2016	6/28/2016 4:05:42 PM	12:05:42	2.0.10.248	28	Bar37-63.bmp	37	3	?	0r_4g.bmp	0r_4g.bmp	0r_2g.bmp	0r_2g.bmp			0r_2g.bmp		TrialProc	TrialList	0	cvbn	-999999	16	144323	0	b	1094	145417	90	-156	-66	-18	-56	6	2	9	3	28	0	0	0	0	4	4	2	2	0	2
Hungry_Donkey_bar_English_2	148	1	<?xml version="1.0"?>\n<Clock xmlns:dt="urn:schemas-microsoft-com:datatypes"><Description dt:dt="string">E-Prime Primary Realtime Clock</Description><StartTime><Timestamp dt:dt="int">0</Timestamp><DateUtc dt:dt="string">2016-06-28T16:05:42Z</DateUtc></StartTime><FrequencyChanges><FrequencyChange><Frequency dt:dt="r8">3507666</Frequency><Timestamp dt:dt="r8">1700339042026</Timestamp><Current dt:dt="r8">0</Current><DateUtc dt:dt="string">2016-06-28T16:05:42Z</DateUtc></FrequencyChange></FrequencyChanges></Clock>\n	Hungry_Donkey_bar_English_2-148-1	60.017	-12	1.0.0.18	1	-467341814	Standard	2.0.10.353	2.0.10.353	06-28-2016	6/28/2016 4:05:42 PM	12:05:42	2.0.10.248	29	Bar37-63.bmp	38	2	?	10r_4g.bmp	0r_4g.bmp	2r_2g.bmp	0r_2g.bmp		0r_4g.bmp			TrialProc	TrialList	0	cvbn	-999999	16	147456	0	v	1609	149065	94	-156	-62	-18	-52	6	2	2	3	29	-10	0	-2	0	4	4	2	2	0	4
Hungry_Donkey_bar_English_2	148	1	<?xml version="1.0"?>\n<Clock xmlns:dt="urn:schemas-microsoft-com:datatypes"><Description dt:dt="string">E-Prime Primary Realtime Clock</Description><StartTime><Timestamp dt:dt="int">0</Timestamp><DateUtc dt:dt="string">2016-06-28T16:05:42Z</DateUtc></StartTime><FrequencyChanges><FrequencyChange><Frequency dt:dt="r8">3507666</Frequency><Timestamp dt:dt="r8">1700339042026</Timestamp><Current dt:dt="r8">0</Current><DateUtc dt:dt="string">2016-06-28T16:05:42Z</DateUtc></FrequencyChange></FrequencyChanges></Clock>\n	Hungry_Donkey_bar_English_2-148-1	60.017	-12	1.0.0.18	1	-467341814	Standard	2.0.10.353	2.0.10.353	06-28-2016	6/28/2016 4:05:42 PM	12:05:42	2.0.10.248	30	Bar37-63.bmp	39	1	?	0r_4g.bmp	0r_4g.bmp	0r_2g.bmp	0r_2g.bmp	0r_4g.bmp				TrialProc	TrialList	0	cvbn	-999999	15	151088	0	c	553	151641	98	-156	-58	-14	-52	6	2	6	3	30	0	0	0	0	4	4	2	2	0	4
Hungry_Donkey_bar_English_2	148	1	<?xml version="1.0"?>\n<Clock xmlns:dt="urn:schemas-microsoft-com:datatypes"><Description dt:dt="string">E-Prime Primary Realtime Clock</Description><StartTime><Timestamp dt:dt="int">0</Timestamp><DateUtc dt:dt="string">2016-06-28T16:05:42Z</DateUtc></StartTime><FrequencyChanges><FrequencyChange><Frequency dt:dt="r8">3507666</Frequency><Timestamp dt:dt="r8">1700339042026</Timestamp><Current dt:dt="r8">0</Current><DateUtc dt:dt="string">2016-06-28T16:05:42Z</DateUtc></FrequencyChange></FrequencyChanges></Clock>\n	Hungry_Donkey_bar_English_2-148-1	60.017	-12	1.0.0.18	1	-467341814	Standard	2.0.10.353	2.0.10.353	06-28-2016	6/28/2016 4:05:42 PM	12:05:42	2.0.10.248	31	Bar37-63.bmp	40	2	?	0r_4g.bmp	0r_4g.bmp	0r_2g.bmp	0r_2g.bmp		0r_4g.bmp			TrialProc	TrialList	0	cvbn	-999999	16	153671	0	v	1106	154777	102	-156	-54	-14	-48	6	2	9	4	31	0	0	0	0	4	4	2	2	0	4
Hungry_Donkey_bar_English_2	148	1	<?xml version="1.0"?>\n<Clock xmlns:dt="urn:schemas-microsoft-com:datatypes"><Description dt:dt="string">E-Prime Primary Realtime Clock</Description><StartTime><Timestamp dt:dt="int">0</Timestamp><DateUtc dt:dt="string">2016-06-28T16:05:42Z</DateUtc></StartTime><FrequencyChanges><FrequencyChange><Frequency dt:dt="r8">3507666</Frequency><Timestamp dt:dt="r8">1700339042026</Timestamp><Current dt:dt="r8">0</Current><DateUtc dt:dt="string">2016-06-28T16:05:42Z</DateUtc></FrequencyChange></FrequencyChanges></Clock>\n	Hungry_Donkey_bar_English_2-148-1	60.017	-12	1.0.0.18	1	-467341814	Standard	2.0.10.353	2.0.10.353	06-28-2016	6/28/2016 4:05:42 PM	12:05:42	2.0.10.248	32	Bar37-63.bmp	40	3	?	10r_4g.bmp	0r_4g.bmp	2r_2g.bmp	0r_2g.bmp			2r_2g.bmp		TrialProc	TrialList	0	cvbn	-999999	16	156803	0	b	933	157736	104	-158	-54	-14	-48	6	2	2	4	32	-10	0	-2	0	4	4	2	2	-2	2
Hungry_Donkey_bar_English_2	148	1	<?xml version="1.0"?>\n<Clock xmlns:dt="urn:schemas-microsoft-com:datatypes"><Description dt:dt="string">E-Prime Primary Realtime Clock</Description><StartTime><Timestamp dt:dt="int">0</Timestamp><DateUtc dt:dt="string">2016-06-28T16:05:42Z</DateUtc></StartTime><FrequencyChanges><FrequencyChange><Frequency dt:dt="r8">3507666</Frequency><Timestamp dt:dt="r8">1700339042026</Timestamp><Current dt:dt="r8">0</Current><DateUtc dt:dt="string">2016-06-28T16:05:42Z</DateUtc></FrequencyChange></FrequencyChanges></Clock>\n	Hungry_Donkey_bar_English_2-148-1	60.017	-12	1.0.0.18	1	-467341814	Standard	2.0.10.353	2.0.10.353	06-28-2016	6/28/2016 4:05:42 PM	12:05:42	2.0.10.248	33	Bar37-63.bmp	40	4	?	10r_4g.bmp	0r_4g.bmp	2r_2g.bmp	0r_2g.bmp				0r_2g.bmp	TrialProc	TrialList	0	cvbn	-999999	16	159769	0	n	3567	163336	106	-158	-52	-14	-48	6	4	4	4	33	-10	0	-2	0	4	4	2	2	0	2
Hungry_Donkey_bar_English_2	148	1	<?xml version="1.0"?>\n<Clock xmlns:dt="urn:schemas-microsoft-com:datatypes"><Description dt:dt="string">E-Prime Primary Realtime Clock</Description><StartTime><Timestamp dt:dt="int">0</Timestamp><DateUtc dt:dt="string">2016-06-28T16:05:42Z</DateUtc></StartTime><FrequencyChanges><FrequencyChange><Frequency dt:dt="r8">3507666</Frequency><Timestamp dt:dt="r8">1700339042026</Timestamp><Current dt:dt="r8">0</Current><DateUtc dt:dt="string">2016-06-28T16:05:42Z</DateUtc></FrequencyChange></FrequencyChanges></Clock>\n	Hungry_Donkey_bar_English_2-148-1	60.017	-12	1.0.0.18	1	-467341814	Standard	2.0.10.353	2.0.10.353	06-28-2016	6/28/2016 4:05:42 PM	12:05:42	2.0.10.248	34	Bar37-63.bmp	41	3	?	0r_4g.bmp	0r_4g.bmp	0r_2g.bmp	0r_2g.bmp			0r_2g.bmp		TrialProc	TrialList	0	cvbn	-999999	16	165367	0	b	1009	166376	108	-158	-50	-14	-48	8	4	6	4	34	0	0	0	0	4	4	2	2	0	2
Hungry_Donkey_bar_English_2	148	1	<?xml version="1.0"?>\n<Clock xmlns:dt="urn:schemas-microsoft-com:datatypes"><Description dt:dt="string">E-Prime Primary Realtime Clock</Description><StartTime><Timestamp dt:dt="int">0</Timestamp><DateUtc dt:dt="string">2016-06-28T16:05:42Z</DateUtc></StartTime><FrequencyChanges><FrequencyChange><Frequency dt:dt="r8">3507666</Frequency><Timestamp dt:dt="r8">1700339042026</Timestamp><Current dt:dt="r8">0</Current><DateUtc dt:dt="string">2016-06-28T16:05:42Z</DateUtc></FrequencyChange></FrequencyChanges></Clock>\n	Hungry_Donkey_bar_English_2-148-1	60.017	-12	1.0.0.18	1	-467341814	Standard	2.0.10.353	2.0.10.353	06-28-2016	6/28/2016 4:05:42 PM	12:05:42	2.0.10.248	35	Bar37-63.bmp	40	1	?	8r_4g.bmp	50r_4g.bmp	1r_2g.bmp	10r_2g.bmp	8r_4g.bmp				TrialProc	TrialList	0	cvbn	-999999	16	168400	0	c	616	169016	112	-166	-54	-18	-48	8	4	1	4	35	-8	-50	-1	-10	4	4	2	2	-8	4
Hungry_Donkey_bar_English_2	148	1	<?xml version="1.0"?>\n<Clock xmlns:dt="urn:schemas-microsoft-com:datatypes"><Description dt:dt="string">E-Prime Primary Realtime Clock</Description><StartTime><Timestamp dt:dt="int">0</Timestamp><DateUtc dt:dt="string">2016-06-28T16:05:42Z</DateUtc></StartTime><FrequencyChanges><FrequencyChange><Frequency dt:dt="r8">3507666</Frequency><Timestamp dt:dt="r8">1700339042026</Timestamp><Current dt:dt="r8">0</Current><DateUtc dt:dt="string">2016-06-28T16:05:42Z</DateUtc></FrequencyChange></FrequencyChanges></Clock>\n	Hungry_Donkey_bar_English_2-148-1	60.017	-12	1.0.0.18	1	-467341814	Standard	2.0.10.353	2.0.10.353	06-28-2016	6/28/2016 4:05:42 PM	12:05:42	2.0.10.248	36	Bar37-63.bmp	41	2	?	0r_4g.bmp	0r_4g.bmp	0r_2g.bmp	0r_2g.bmp		0r_4g.bmp			TrialProc	TrialList	0	cvbn	-999999	16	171049	0	v	783	171832	116	-166	-50	-18	-44	8	4	7	4	36	0	0	0	0	4	4	2	2	0	4
Hungry_Donkey_bar_English_2	148	1	<?xml version="1.0"?>\n<Clock xmlns:dt="urn:schemas-microsoft-com:datatypes"><Description dt:dt="string">E-Prime Primary Realtime Clock</Description><StartTime><Timestamp dt:dt="int">0</Timestamp><DateUtc dt:dt="string">2016-06-28T16:05:42Z</DateUtc></StartTime><FrequencyChanges><FrequencyChange><Frequency dt:dt="r8">3507666</Frequency><Timestamp dt:dt="r8">1700339042026</Timestamp><Current dt:dt="r8">0</Current><DateUtc dt:dt="string">2016-06-28T16:05:42Z</DateUtc></FrequencyChange></FrequencyChanges></Clock>\n	Hungry_Donkey_bar_English_2-148-1	60.017	-12	1.0.0.18	1	-467341814	Standard	2.0.10.353	2.0.10.353	06-28-2016	6/28/2016 4:05:42 PM	12:05:42	2.0.10.248	37	Bar37-63.bmp	40	1	?	12r_4g.bmp	0r_4g.bmp	3r_2g.bmp	0r_2g.bmp	12r_4g.bmp				TrialProc	TrialList	0	cvbn	-999999	16	173865	0	c	3279	177144	120	-178	-58	-26	-44	8	4	5	4	37	-12	0	-3	0	4	4	2	2	-12	4
Hungry_Donkey_bar_English_2	148	1	<?xml version="1.0"?>\n<Clock xmlns:dt="urn:schemas-microsoft-com:datatypes"><Description dt:dt="string">E-Prime Primary Realtime Clock</Description><StartTime><Timestamp dt:dt="int">0</Timestamp><DateUtc dt:dt="string">2016-06-28T16:05:42Z</DateUtc></StartTime><FrequencyChanges><FrequencyChange><Frequency dt:dt="r8">3507666</Frequency><Timestamp dt:dt="r8">1700339042026</Timestamp><Current dt:dt="r8">0</Current><DateUtc dt:dt="string">2016-06-28T16:05:42Z</DateUtc></FrequencyChange></FrequencyChanges></Clock>\n	Hungry_Donkey_bar_English_2-148-1	60.017	-12	1.0.0.18	1	-467341814	Standard	2.0.10.353	2.0.10.353	06-28-2016	6/28/2016 4:05:42 PM	12:05:42	2.0.10.248	38	Bar37-63.bmp	41	2	?	10r_4g.bmp	0r_4g.bmp	2r_2g.bmp	0r_2g.bmp		0r_4g.bmp			TrialProc	TrialList	0	cvbn	-999999	16	179180	0	v	843	180023	124	-178	-54	-26	-40	8	4	3	4	38	-10	0	-2	0	4	4	2	2	0	4
Hungry_Donkey_bar_English_2	148	1	<?xml version="1.0"?>\n<Clock xmlns:dt="urn:schemas-microsoft-com:datatypes"><Description dt:dt="string">E-Prime Primary Realtime Clock</Description><StartTime><Timestamp dt:dt="int">0</Timestamp><DateUtc dt:dt="string">2016-06-28T16:05:42Z</DateUtc></StartTime><FrequencyChanges><FrequencyChange><Frequency dt:dt="r8">3507666</Frequency><Timestamp dt:dt="r8">1700339042026</Timestamp><Current dt:dt="r8">0</Current><DateUtc dt:dt="string">2016-06-28T16:05:42Z</DateUtc></FrequencyChange></FrequencyChanges></Clock>\n	Hungry_Donkey_bar_English_2-148-1	60.017	-12	1.0.0.18	1	-467341814	Standard	2.0.10.353	2.0.10.353	06-28-2016	6/28/2016 4:05:42 PM	12:05:42	2.0.10.248	39	Bar37-63.bmp	41	4	?	0r_4g.bmp	0r_4g.bmp	0r_2g.bmp	0r_2g.bmp				0r_2g.bmp	TrialProc	TrialList	0	cvbn	-999999	16	182063	0	n	328	182391	126	-178	-52	-26	-40	8	6	8	4	39	0	0	0	0	4	4	2	2	0	2
Hungry_Donkey_bar_English_2	148	1	<?xml version="1.0"?>\n<Clock xmlns:dt="urn:schemas-microsoft-com:datatypes"><Description dt:dt="string">E-Prime Primary Realtime Clock</Description><StartTime><Timestamp dt:dt="int">0</Timestamp><DateUtc dt:dt="string">2016-06-28T16:05:42Z</DateUtc></StartTime><FrequencyChanges><FrequencyChange><Frequency dt:dt="r8">3507666</Frequency><Timestamp dt:dt="r8">1700339042026</Timestamp><Current dt:dt="r8">0</Current><DateUtc dt:dt="string">2016-06-28T16:05:42Z</DateUtc></FrequencyChange></FrequencyChanges></Clock>\n	Hungry_Donkey_bar_English_2-148-1	60.017	-12	1.0.0.18	1	-467341814	Standard	2.0.10.353	2.0.10.353	06-28-2016	6/28/2016 4:05:42 PM	12:05:42	2.0.10.248	40	Bar37-63.bmp	42	4	?	0r_4g.bmp	0r_4g.bmp	0r_2g.bmp	0r_2g.bmp				0r_2g.bmp	TrialProc	TrialList	0	cvbn	-999999	16	184429	0	n	522	184951	128	-178	-50	-26	-40	8	8	10	4	40	0	0	0	0	4	4	2	2	0	2
Hungry_Donkey_bar_English_2	148	1	<?xml version="1.0"?>\n<Clock xmlns:dt="urn:schemas-microsoft-com:datatypes"><Description dt:dt="string">E-Prime Primary Realtime Clock</Description><StartTime><Timestamp dt:dt="int">0</Timestamp><DateUtc dt:dt="string">2016-06-28T16:05:42Z</DateUtc></StartTime><FrequencyChanges><FrequencyChange><Frequency dt:dt="r8">3507666</Frequency><Timestamp dt:dt="r8">1700339042026</Timestamp><Current dt:dt="r8">0</Current><DateUtc dt:dt="string">2016-06-28T16:05:42Z</DateUtc></FrequencyChange></FrequencyChanges></Clock>\n	Hungry_Donkey_bar_English_2-148-1	60.017	-12	1.0.0.18	1	-467341814	Standard	2.0.10.353	2.0.10.353	06-28-2016	6/28/2016 4:05:42 PM	12:05:42	2.0.10.248	41	Bar37-63.bmp	43	2	?	12r_4g.bmp	0r_4g.bmp	3r_2g.bmp	0r_2g.bmp		0r_4g.bmp			TrialProc	TrialList	0	cvbn	-999999	16	186978	0	v	1173	188151	132	-178	-46	-26	-36	8	8	5	5	41	-12	0	-3	0	4	4	2	2	0	4
Hungry_Donkey_bar_English_2	148	1	<?xml version="1.0"?>\n<Clock xmlns:dt="urn:schemas-microsoft-com:datatypes"><Description dt:dt="string">E-Prime Primary Realtime Clock</Description><StartTime><Timestamp dt:dt="int">0</Timestamp><DateUtc dt:dt="string">2016-06-28T16:05:42Z</DateUtc></StartTime><FrequencyChanges><FrequencyChange><Frequency dt:dt="r8">3507666</Frequency><Timestamp dt:dt="r8">1700339042026</Timestamp><Current dt:dt="r8">0</Current><DateUtc dt:dt="string">2016-06-28T16:05:42Z</DateUtc></FrequencyChange></FrequencyChanges></Clock>\n	Hungry_Donkey_bar_English_2-148-1	60.017	-12	1.0.0.18	1	-467341814	Standard	2.0.10.353	2.0.10.353	06-28-2016	6/28/2016 4:05:42 PM	12:05:42	2.0.10.248	42	Bar37-63.bmp	43	2	?	10r_4g.bmp	0r_4g.bmp	2r_2g.bmp	0r_2g.bmp		0r_4g.bmp			TrialProc	TrialList	0	cvbn	-999999	16	190177	0	v	854	191031	136	-178	-42	-26	-32	8	8	4	5	42	-10	0	-2	0	4	4	2	2	0	4
Hungry_Donkey_bar_English_2	148	1	<?xml version="1.0"?>\n<Clock xmlns:dt="urn:schemas-microsoft-com:datatypes"><Description dt:dt="string">E-Prime Primary Realtime Clock</Description><StartTime><Timestamp dt:dt="int">0</Timestamp><DateUtc dt:dt="string">2016-06-28T16:05:42Z</DateUtc></StartTime><FrequencyChanges><FrequencyChange><Frequency dt:dt="r8">3507666</Frequency><Timestamp dt:dt="r8">1700339042026</Timestamp><Current dt:dt="r8">0</Current><DateUtc dt:dt="string">2016-06-28T16:05:42Z</DateUtc></FrequencyChange></FrequencyChanges></Clock>\n	Hungry_Donkey_bar_English_2-148-1	60.017	-12	1.0.0.18	1	-467341814	Standard	2.0.10.353	2.0.10.353	06-28-2016	6/28/2016 4:05:42 PM	12:05:42	2.0.10.248	43	Bar50-50.bmp	44	3	?	8r_4g.bmp	50r_4g.bmp	1r_2g.bmp	10r_2g.bmp			1r_2g.bmp		TrialProc	TrialList	0	cvbn	-999999	16	193060	0	b	755	193815	138	-179	-41	-26	-32	9	8	1	5	43	-8	-50	-1	-10	4	4	2	2	-1	2
Hungry_Donkey_bar_English_2	148	1	<?xml version="1.0"?>\n<Clock xmlns:dt="urn:schemas-microsoft-com:datatypes"><Description dt:dt="string">E-Prime Primary Realtime Clock</Description><StartTime><Timestamp dt:dt="int">0</Timestamp><DateUtc dt:dt="string">2016-06-28T16:05:42Z</DateUtc></StartTime><FrequencyChanges><FrequencyChange><Frequency dt:dt="r8">3507666</Frequency><Timestamp dt:dt="r8">1700339042026</Timestamp><Current dt:dt="r8">0</Current><DateUtc dt:dt="string">2016-06-28T16:05:42Z</DateUtc></FrequencyChange></FrequencyChanges></Clock>\n	Hungry_Donkey_bar_English_2-148-1	60.017	-12	1.0.0.18	1	-467341814	Standard	2.0.10.353	2.0.10.353	06-28-2016	6/28/2016 4:05:42 PM	12:05:42	2.0.10.248	44	Bar50-50.bmp	44	1	?	0r_4g.bmp	0r_4g.bmp	0r_2g.bmp	0r_2g.bmp	0r_4g.bmp				TrialProc	TrialList	0	cvbn	-999999	16	195842	0	c	1573	197415	142	-179	-37	-22	-32	9	8	8	5	44	0	0	0	0	4	4	2	2	0	4
Hungry_Donkey_bar_English_2	148	1	<?xml version="1.0"?>\n<Clock xmlns:dt="urn:schemas-microsoft-com:datatypes"><Description dt:dt="string">E-Prime Primary Realtime Clock</Description><StartTime><Timestamp dt:dt="int">0</Timestamp><DateUtc dt:dt="string">2016-06-28T16:05:42Z</DateUtc></StartTime><FrequencyChanges><FrequencyChange><Frequency dt:dt="r8">3507666</Frequency><Timestamp dt:dt="r8">1700339042026</Timestamp><Current dt:dt="r8">0</Current><DateUtc dt:dt="string">2016-06-28T16:05:42Z</DateUtc></FrequencyChange></FrequencyChanges></Clock>\n	Hungry_Donkey_bar_English_2-148-1	60.017	-12	1.0.0.18	1	-467341814	Standard	2.0.10.353	2.0.10.353	06-28-2016	6/28/2016 4:05:42 PM	12:05:42	2.0.10.248	45	Bar50-50.bmp	45	4	?	10r_4g.bmp	0r_4g.bmp	2r_2g.bmp	0r_2g.bmp				0r_2g.bmp	TrialProc	TrialList	0	cvbn	-999999	16	199441	0	n	2053	201494	144	-179	-35	-22	-32	9	10	2	5	45	-10	0	-2	0	4	4	2	2	0	2
Hungry_Donkey_bar_English_2	148	1	<?xml version="1.0"?>\n<Clock xmlns:dt="urn:schemas-microsoft-com:datatypes"><Description dt:dt="string">E-Prime Primary Realtime Clock</Description><StartTime><Timestamp dt:dt="int">0</Timestamp><DateUtc dt:dt="string">2016-06-28T16:05:42Z</DateUtc></StartTime><FrequencyChanges><FrequencyChange><Frequency dt:dt="r8">3507666</Frequency><Timestamp dt:dt="r8">1700339042026</Timestamp><Current dt:dt="r8">0</Current><DateUtc dt:dt="string">2016-06-28T16:05:42Z</DateUtc></FrequencyChange></FrequencyChanges></Clock>\n	Hungry_Donkey_bar_English_2-148-1	60.017	-12	1.0.0.18	1	-467341814	Standard	2.0.10.353	2.0.10.353	06-28-2016	6/28/2016 4:05:42 PM	12:05:42	2.0.10.248	46	Bar50-50.bmp	44	1	?	10r_4g.bmp	0r_4g.bmp	2r_2g.bmp	0r_2g.bmp	10r_4g.bmp				TrialProc	TrialList	0	cvbn	-999999	16	203523	0	c	835	204358	148	-189	-41	-28	-32	9	10	3	5	46	-10	0	-2	0	4	4	2	2	-10	4
Hungry_Donkey_bar_English_2	148	1	<?xml version="1.0"?>\n<Clock xmlns:dt="urn:schemas-microsoft-com:datatypes"><Description dt:dt="string">E-Prime Primary Realtime Clock</Description><StartTime><Timestamp dt:dt="int">0</Timestamp><DateUtc dt:dt="string">2016-06-28T16:05:42Z</DateUtc></StartTime><FrequencyChanges><FrequencyChange><Frequency dt:dt="r8">3507666</Frequency><Timestamp dt:dt="r8">1700339042026</Timestamp><Current dt:dt="r8">0</Current><DateUtc dt:dt="string">2016-06-28T16:05:42Z</DateUtc></FrequencyChange></FrequencyChanges></Clock>\n	Hungry_Donkey_bar_English_2-148-1	60.017	-12	1.0.0.18	1	-467341814	Standard	2.0.10.353	2.0.10.353	06-28-2016	6/28/2016 4:05:42 PM	12:05:42	2.0.10.248	47	Bar50-50.bmp	45	1	?	0r_4g.bmp	0r_4g.bmp	0r_2g.bmp	0r_2g.bmp	0r_4g.bmp				TrialProc	TrialList	0	cvbn	-999999	16	206389	0	c	1089	207478	152	-189	-37	-24	-32	9	10	10	5	47	0	0	0	0	4	4	2	2	0	4
Hungry_Donkey_bar_English_2	148	1	<?xml version="1.0"?>\n<Clock xmlns:dt="urn:schemas-microsoft-com:datatypes"><Description dt:dt="string">E-Prime Primary Realtime Clock</Description><StartTime><Timestamp dt:dt="int">0</Timestamp><DateUtc dt:dt="string">2016-06-28T16:05:42Z</DateUtc></StartTime><FrequencyChanges><FrequencyChange><Frequency dt:dt="r8">3507666</Frequency><Timestamp dt:dt="r8">1700339042026</Timestamp><Current dt:dt="r8">0</Current><DateUtc dt:dt="string">2016-06-28T16:05:42Z</DateUtc></FrequencyChange></FrequencyChanges></Clock>\n	Hungry_Donkey_bar_English_2-148-1	60.017	-12	1.0.0.18	1	-467341814	Standard	2.0.10.353	2.0.10.353	06-28-2016	6/28/2016 4:05:42 PM	12:05:42	2.0.10.248	48	Bar50-50.bmp	45	1	?	0r_4g.bmp	0r_4g.bmp	0r_2g.bmp	0r_2g.bmp	0r_4g.bmp				TrialProc	TrialList	0	cvbn	-999999	16	209505	0	c	1717	211222	156	-189	-33	-20	-32	9	10	7	5	48	0	0	0	0	4	4	2	2	0	4
Hungry_Donkey_bar_English_2	148	1	<?xml version="1.0"?>\n<Clock xmlns:dt="urn:schemas-microsoft-com:datatypes"><Description dt:dt="string">E-Prime Primary Realtime Clock</Description><StartTime><Timestamp dt:dt="int">0</Timestamp><DateUtc dt:dt="string">2016-06-28T16:05:42Z</DateUtc></StartTime><FrequencyChanges><FrequencyChange><Frequency dt:dt="r8">3507666</Frequency><Timestamp dt:dt="r8">1700339042026</Timestamp><Current dt:dt="r8">0</Current><DateUtc dt:dt="string">2016-06-28T16:05:42Z</DateUtc></FrequencyChange></FrequencyChanges></Clock>\n	Hungry_Donkey_bar_English_2-148-1	60.017	-12	1.0.0.18	1	-467341814	Standard	2.0.10.353	2.0.10.353	06-28-2016	6/28/2016 4:05:42 PM	12:05:42	2.0.10.248	49	Bar50-50.bmp	46	2	?	0r_4g.bmp	0r_4g.bmp	0r_2g.bmp	0r_2g.bmp		0r_4g.bmp			TrialProc	TrialList	0	cvbn	-999999	16	213254	0	v	384	213638	160	-189	-29	-20	-28	9	10	9	5	49	0	0	0	0	4	4	2	2	0	4
Hungry_Donkey_bar_English_2	148	1	<?xml version="1.0"?>\n<Clock xmlns:dt="urn:schemas-microsoft-com:datatypes"><Description dt:dt="string">E-Prime Primary Realtime Clock</Description><StartTime><Timestamp dt:dt="int">0</Timestamp><DateUtc dt:dt="string">2016-06-28T16:05:42Z</DateUtc></StartTime><FrequencyChanges><FrequencyChange><Frequency dt:dt="r8">3507666</Frequency><Timestamp dt:dt="r8">1700339042026</Timestamp><Current dt:dt="r8">0</Current><DateUtc dt:dt="string">2016-06-28T16:05:42Z</DateUtc></FrequencyChange></FrequencyChanges></Clock>\n	Hungry_Donkey_bar_English_2-148-1	60.017	-12	1.0.0.18	1	-467341814	Standard	2.0.10.353	2.0.10.353	06-28-2016	6/28/2016 4:05:42 PM	12:05:42	2.0.10.248	50	Bar50-50.bmp	46	2	?	0r_4g.bmp	0r_4g.bmp	0r_2g.bmp	0r_2g.bmp		0r_4g.bmp			TrialProc	TrialList	0	cvbn	-999999	16	215670	0	v	224	215894	164	-189	-25	-20	-24	9	10	6	5	50	0	0	0	0	4	4	2	2	0	4
Hungry_Donkey_bar_English_2	148	1	<?xml version="1.0"?>\n<Clock xmlns:dt="urn:schemas-microsoft-com:datatypes"><Description dt:dt="string">E-Prime Primary Realtime Clock</Description><StartTime><Timestamp dt:dt="int">0</Timestamp><DateUtc dt:dt="string">2016-06-28T16:05:42Z</DateUtc></StartTime><FrequencyChanges><FrequencyChange><Frequency dt:dt="r8">3507666</Frequency><Timestamp dt:dt="r8">1700339042026</Timestamp><Current dt:dt="r8">0</Current><DateUtc dt:dt="string">2016-06-28T16:05:42Z</DateUtc></FrequencyChange></FrequencyChanges></Clock>\n	Hungry_Donkey_bar_English_2-148-1	60.017	-12	1.0.0.18	1	-467341814	Standard	2.0.10.353	2.0.10.353	06-28-2016	6/28/2016 4:05:42 PM	12:05:42	2.0.10.248	51	Bar50-50.bmp	46	1	?	10r_4g.bmp	0r_4g.bmp	2r_2g.bmp	0r_2g.bmp	10r_4g.bmp				TrialProc	TrialList	0	cvbn	-999999	16	217919	0	c	3175	221094	168	-199	-31	-26	-24	9	10	4	6	51	-10	0	-2	0	4	4	2	2	-10	4
Hungry_Donkey_bar_English_2	148	1	<?xml version="1.0"?>\n<Clock xmlns:dt="urn:schemas-microsoft-com:datatypes"><Description dt:dt="string">E-Prime Primary Realtime Clock</Description><StartTime><Timestamp dt:dt="int">0</Timestamp><DateUtc dt:dt="string">2016-06-28T16:05:42Z</DateUtc></StartTime><FrequencyChanges><FrequencyChange><Frequency dt:dt="r8">3507666</Frequency><Timestamp dt:dt="r8">1700339042026</Timestamp><Current dt:dt="r8">0</Current><DateUtc dt:dt="string">2016-06-28T16:05:42Z</DateUtc></FrequencyChange></FrequencyChanges></Clock>\n	Hungry_Donkey_bar_English_2-148-1	60.017	-12	1.0.0.18	1	-467341814	Standard	2.0.10.353	2.0.10.353	06-28-2016	6/28/2016 4:05:42 PM	12:05:42	2.0.10.248	52	Bar37-63.bmp	41	2	?	8r_4g.bmp	50r_4g.bmp	1r_2g.bmp	10r_2g.bmp		50r_4g.bmp			TrialProc	TrialList	0	cvbn	-999999	16	223118	0	v	551	223669	172	-249	-77	-26	-70	9	10	1	6	52	-8	-50	-1	-10	4	4	2	2	-50	4
Hungry_Donkey_bar_English_2	148	1	<?xml version="1.0"?>\n<Clock xmlns:dt="urn:schemas-microsoft-com:datatypes"><Description dt:dt="string">E-Prime Primary Realtime Clock</Description><StartTime><Timestamp dt:dt="int">0</Timestamp><DateUtc dt:dt="string">2016-06-28T16:05:42Z</DateUtc></StartTime><FrequencyChanges><FrequencyChange><Frequency dt:dt="r8">3507666</Frequency><Timestamp dt:dt="r8">1700339042026</Timestamp><Current dt:dt="r8">0</Current><DateUtc dt:dt="string">2016-06-28T16:05:42Z</DateUtc></FrequencyChange></FrequencyChanges></Clock>\n	Hungry_Donkey_bar_English_2-148-1	60.017	-12	1.0.0.18	1	-467341814	Standard	2.0.10.353	2.0.10.353	06-28-2016	6/28/2016 4:05:42 PM	12:05:42	2.0.10.248	53	Bar37-63.bmp	41	2	?	0r_4g.bmp	0r_4g.bmp	0r_2g.bmp	0r_2g.bmp		0r_4g.bmp			TrialProc	TrialList	0	cvbn	-999999	16	225700	0	v	929	226629	176	-249	-73	-26	-66	9	10	9	6	53	0	0	0	0	4	4	2	2	0	4
Hungry_Donkey_bar_English_2	148	1	<?xml version="1.0"?>\n<Clock xmlns:dt="urn:schemas-microsoft-com:datatypes"><Description dt:dt="string">E-Prime Primary Realtime Clock</Description><StartTime><Timestamp dt:dt="int">0</Timestamp><DateUtc dt:dt="string">2016-06-28T16:05:42Z</DateUtc></StartTime><FrequencyChanges><FrequencyChange><Frequency dt:dt="r8">3507666</Frequency><Timestamp dt:dt="r8">1700339042026</Timestamp><Current dt:dt="r8">0</Current><DateUtc dt:dt="string">2016-06-28T16:05:42Z</DateUtc></FrequencyChange></FrequencyChanges></Clock>\n	Hungry_Donkey_bar_English_2-148-1	60.017	-12	1.0.0.18	1	-467341814	Standard	2.0.10.353	2.0.10.353	06-28-2016	6/28/2016 4:05:42 PM	12:05:42	2.0.10.248	54	Bar37-63.bmp	42	2	?	0r_4g.bmp	0r_4g.bmp	0r_2g.bmp	0r_2g.bmp		0r_4g.bmp			TrialProc	TrialList	0	cvbn	-999999	16	228666	0	v	1563	230229	180	-249	-69	-26	-62	9	10	8	6	54	0	0	0	0	4	4	2	2	0	4
Hungry_Donkey_bar_English_2	148	1	<?xml version="1.0"?>\n<Clock xmlns:dt="urn:schemas-microsoft-com:datatypes"><Description dt:dt="string">E-Prime Primary Realtime Clock</Description><StartTime><Timestamp dt:dt="int">0</Timestamp><DateUtc dt:dt="string">2016-06-28T16:05:42Z</DateUtc></StartTime><FrequencyChanges><FrequencyChange><Frequency dt:dt="r8">3507666</Frequency><Timestamp dt:dt="r8">1700339042026</Timestamp><Current dt:dt="r8">0</Current><DateUtc dt:dt="string">2016-06-28T16:05:42Z</DateUtc></FrequencyChange></FrequencyChanges></Clock>\n	Hungry_Donkey_bar_English_2-148-1	60.017	-12	1.0.0.18	1	-467341814	Standard	2.0.10.353	2.0.10.353	06-28-2016	6/28/2016 4:05:42 PM	12:05:42	2.0.10.248	55	Bar37-63.bmp	42	2	?	0r_4g.bmp	0r_4g.bmp	0r_2g.bmp	0r_2g.bmp		0r_4g.bmp			TrialProc	TrialList	0	cvbn	-999999	16	232265	0	v	844	233109	184	-249	-65	-26	-58	9	10	10	6	55	0	0	0	0	4	4	2	2	0	4
Hungry_Donkey_bar_English_2	148	1	<?xml version="1.0"?>\n<Clock xmlns:dt="urn:schemas-microsoft-com:datatypes"><Description dt:dt="string">E-Prime Primary Realtime Clock</Description><StartTime><Timestamp dt:dt="int">0</Timestamp><DateUtc dt:dt="string">2016-06-28T16:05:42Z</DateUtc></StartTime><FrequencyChanges><FrequencyChange><Frequency dt:dt="r8">3507666</Frequency><Timestamp dt:dt="r8">1700339042026</Timestamp><Current dt:dt="r8">0</Current><DateUtc dt:dt="string">2016-06-28T16:05:42Z</DateUtc></FrequencyChange></FrequencyChanges></Clock>\n	Hungry_Donkey_bar_English_2-148-1	60.017	-12	1.0.0.18	1	-467341814	Standard	2.0.10.353	2.0.10.353	06-28-2016	6/28/2016 4:05:42 PM	12:05:42	2.0.10.248	56	Bar37-63.bmp	43	2	?	10r_4g.bmp	0r_4g.bmp	2r_2g.bmp	0r_2g.bmp		0r_4g.bmp			TrialProc	TrialList	0	cvbn	-999999	16	235148	0	v	9	235157	188	-249	-61	-26	-54	9	10	2	6	56	-10	0	-2	0	4	4	2	2	0	4
Hungry_Donkey_bar_English_2	148	1	<?xml version="1.0"?>\n<Clock xmlns:dt="urn:schemas-microsoft-com:datatypes"><Description dt:dt="string">E-Prime Primary Realtime Clock</Description><StartTime><Timestamp dt:dt="int">0</Timestamp><DateUtc dt:dt="string">2016-06-28T16:05:42Z</DateUtc></StartTime><FrequencyChanges><FrequencyChange><Frequency dt:dt="r8">3507666</Frequency><Timestamp dt:dt="r8">1700339042026</Timestamp><Current dt:dt="r8">0</Current><DateUtc dt:dt="string">2016-06-28T16:05:42Z</DateUtc></FrequencyChange></FrequencyChanges></Clock>\n	Hungry_Donkey_bar_English_2-148-1	60.017	-12	1.0.0.18	1	-467341814	Standard	2.0.10.353	2.0.10.353	06-28-2016	6/28/2016 4:05:42 PM	12:05:42	2.0.10.248	57	Bar50-50.bmp	44	2	?	12r_4g.bmp	0r_4g.bmp	3r_2g.bmp	0r_2g.bmp		0r_4g.bmp			TrialProc	TrialList	0	cvbn	-999999	16	237197	0	v	1016	238213	192	-249	-57	-26	-50	9	10	5	6	57	-12	0	-3	0	4	4	2	2	0	4
Hungry_Donkey_bar_English_2	148	1	<?xml version="1.0"?>\n<Clock xmlns:dt="urn:schemas-microsoft-com:datatypes"><Description dt:dt="string">E-Prime Primary Realtime Clock</Description><StartTime><Timestamp dt:dt="int">0</Timestamp><DateUtc dt:dt="string">2016-06-28T16:05:42Z</DateUtc></StartTime><FrequencyChanges><FrequencyChange><Frequency dt:dt="r8">3507666</Frequency><Timestamp dt:dt="r8">1700339042026</Timestamp><Current dt:dt="r8">0</Current><DateUtc dt:dt="string">2016-06-28T16:05:42Z</DateUtc></FrequencyChange></FrequencyChanges></Clock>\n	Hungry_Donkey_bar_English_2-148-1	60.017	-12	1.0.0.18	1	-467341814	Standard	2.0.10.353	2.0.10.353	06-28-2016	6/28/2016 4:05:42 PM	12:05:42	2.0.10.248	58	Bar50-50.bmp	44	2	?	0r_4g.bmp	0r_4g.bmp	0r_2g.bmp	0r_2g.bmp		0r_4g.bmp			TrialProc	TrialList	0	cvbn	-999999	16	240246	0	v	559	240805	196	-249	-53	-26	-46	9	10	7	6	58	0	0	0	0	4	4	2	2	0	4
Hungry_Donkey_bar_English_2	148	1	<?xml version="1.0"?>\n<Clock xmlns:dt="urn:schemas-microsoft-com:datatypes"><Description dt:dt="string">E-Prime Primary Realtime Clock</Description><StartTime><Timestamp dt:dt="int">0</Timestamp><DateUtc dt:dt="string">2016-06-28T16:05:42Z</DateUtc></StartTime><FrequencyChanges><FrequencyChange><Frequency dt:dt="r8">3507666</Frequency><Timestamp dt:dt="r8">1700339042026</Timestamp><Current dt:dt="r8">0</Current><DateUtc dt:dt="string">2016-06-28T16:05:42Z</DateUtc></FrequencyChange></FrequencyChanges></Clock>\n	Hungry_Donkey_bar_English_2-148-1	60.017	-12	1.0.0.18	1	-467341814	Standard	2.0.10.353	2.0.10.353	06-28-2016	6/28/2016 4:05:42 PM	12:05:42	2.0.10.248	59	Bar50-50.bmp	45	2	?	10r_4g.bmp	0r_4g.bmp	2r_2g.bmp	0r_2g.bmp		0r_4g.bmp			TrialProc	TrialList	0	cvbn	-999999	16	242829	0	v	744	243573	200	-249	-49	-26	-42	9	10	3	6	59	-10	0	-2	0	4	4	2	2	0	4
Hungry_Donkey_bar_English_2	148	1	<?xml version="1.0"?>\n<Clock xmlns:dt="urn:schemas-microsoft-com:datatypes"><Description dt:dt="string">E-Prime Primary Realtime Clock</Description><StartTime><Timestamp dt:dt="int">0</Timestamp><DateUtc dt:dt="string">2016-06-28T16:05:42Z</DateUtc></StartTime><FrequencyChanges><FrequencyChange><Frequency dt:dt="r8">3507666</Frequency><Timestamp dt:dt="r8">1700339042026</Timestamp><Current dt:dt="r8">0</Current><DateUtc dt:dt="string">2016-06-28T16:05:42Z</DateUtc></FrequencyChange></FrequencyChanges></Clock>\n	Hungry_Donkey_bar_English_2-148-1	60.017	-12	1.0.0.18	1	-467341814	Standard	2.0.10.353	2.0.10.353	06-28-2016	6/28/2016 4:05:42 PM	12:05:42	2.0.10.248	60	Bar50-50.bmp	45	2	?	0r_4g.bmp	0r_4g.bmp	0r_2g.bmp	0r_2g.bmp		0r_4g.bmp			TrialProc	TrialList	0	cvbn	-999999	16	245611	0	v	313	245924	204	-249	-45	-26	-38	9	10	6	6	60	0	0	0	0	4	4	2	2	0	4
Hungry_Donkey_bar_English_2	148	1	<?xml version="1.0"?>\n<Clock xmlns:dt="urn:schemas-microsoft-com:datatypes"><Description dt:dt="string">E-Prime Primary Realtime Clock</Description><StartTime><Timestamp dt:dt="int">0</Timestamp><DateUtc dt:dt="string">2016-06-28T16:05:42Z</DateUtc></StartTime><FrequencyChanges><FrequencyChange><Frequency dt:dt="r8">3507666</Frequency><Timestamp dt:dt="r8">1700339042026</Timestamp><Current dt:dt="r8">0</Current><DateUtc dt:dt="string">2016-06-28T16:05:42Z</DateUtc></FrequencyChange></FrequencyChanges></Clock>\n	Hungry_Donkey_bar_English_2-148-1	60.017	-12	1.0.0.18	1	-467341814	Standard	2.0.10.353	2.0.10.353	06-28-2016	6/28/2016 4:05:42 PM	12:05:42	2.0.10.248	61	Bar50-50.bmp	46	1	?	0r_4g.bmp	0r_4g.bmp	0r_2g.bmp	0r_2g.bmp	0r_4g.bmp				TrialProc	TrialList	0	cvbn	-999999	16	247961	0	c	1899	249860	208	-249	-41	-22	-38	9	10	7	7	61	0	0	0	0	4	4	2	2	0	4
Hungry_Donkey_bar_English_2	148	1	<?xml version="1.0"?>\n<Clock xmlns:dt="urn:schemas-microsoft-com:datatypes"><Description dt:dt="string">E-Prime Primary Realtime Clock</Description><StartTime><Timestamp dt:dt="int">0</Timestamp><DateUtc dt:dt="string">2016-06-28T16:05:42Z</DateUtc></StartTime><FrequencyChanges><FrequencyChange><Frequency dt:dt="r8">3507666</Frequency><Timestamp dt:dt="r8">1700339042026</Timestamp><Current dt:dt="r8">0</Current><DateUtc dt:dt="string">2016-06-28T16:05:42Z</DateUtc></FrequencyChange></FrequencyChanges></Clock>\n	Hungry_Donkey_bar_English_2-148-1	60.017	-12	1.0.0.18	1	-467341814	Standard	2.0.10.353	2.0.10.353	06-28-2016	6/28/2016 4:05:42 PM	12:05:42	2.0.10.248	62	Bar50-50.bmp	45	3	?	12r_4g.bmp	0r_4g.bmp	3r_2g.bmp	0r_2g.bmp			3r_2g.bmp		TrialProc	TrialList	0	cvbn	-999999	16	251893	0	b	111	252004	210	-252	-42	-22	-38	8	10	5	7	62	-12	0	-3	0	4	4	2	2	-3	2
Hungry_Donkey_bar_English_2	148	1	<?xml version="1.0"?>\n<Clock xmlns:dt="urn:schemas-microsoft-com:datatypes"><Description dt:dt="string">E-Prime Primary Realtime Clock</Description><StartTime><Timestamp dt:dt="int">0</Timestamp><DateUtc dt:dt="string">2016-06-28T16:05:42Z</DateUtc></StartTime><FrequencyChanges><FrequencyChange><Frequency dt:dt="r8">3507666</Frequency><Timestamp dt:dt="r8">1700339042026</Timestamp><Current dt:dt="r8">0</Current><DateUtc dt:dt="string">2016-06-28T16:05:42Z</DateUtc></FrequencyChange></FrequencyChanges></Clock>\n	Hungry_Donkey_bar_English_2-148-1	60.017	-12	1.0.0.18	1	-467341814	Standard	2.0.10.353	2.0.10.353	06-28-2016	6/28/2016 4:05:42 PM	12:05:42	2.0.10.248	63	Bar50-50.bmp	46	4	?	0r_4g.bmp	0r_4g.bmp	0r_2g.bmp	0r_2g.bmp				0r_2g.bmp	TrialProc	TrialList	0	cvbn	-999999	16	254042	0	n	1050	255092	212	-252	-40	-22	-38	8	12	9	7	63	0	0	0	0	4	4	2	2	0	2
Hungry_Donkey_bar_English_2	148	1	<?xml version="1.0"?>\n<Clock xmlns:dt="urn:schemas-microsoft-com:datatypes"><Description dt:dt="string">E-Prime Primary Realtime Clock</Description><StartTime><Timestamp dt:dt="int">0</Timestamp><DateUtc dt:dt="string">2016-06-28T16:05:42Z</DateUtc></StartTime><FrequencyChanges><FrequencyChange><Frequency dt:dt="r8">3507666</Frequency><Timestamp dt:dt="r8">1700339042026</Timestamp><Current dt:dt="r8">0</Current><DateUtc dt:dt="string">2016-06-28T16:05:42Z</DateUtc></FrequencyChange></FrequencyChanges></Clock>\n	Hungry_Donkey_bar_English_2-148-1	60.017	-12	1.0.0.18	1	-467341814	Standard	2.0.10.353	2.0.10.353	06-28-2016	6/28/2016 4:05:42 PM	12:05:42	2.0.10.248	64	Bar50-50.bmp	46	2	?	0r_4g.bmp	0r_4g.bmp	0r_2g.bmp	0r_2g.bmp		0r_4g.bmp			TrialProc	TrialList	0	cvbn	-999999	16	257125	0	v	3839	260964	216	-252	-36	-22	-34	8	12	8	7	64	0	0	0	0	4	4	2	2	0	4
Hungry_Donkey_bar_English_2	148	1	<?xml version="1.0"?>\n<Clock xmlns:dt="urn:schemas-microsoft-com:datatypes"><Description dt:dt="string">E-Prime Primary Realtime Clock</Description><StartTime><Timestamp dt:dt="int">0</Timestamp><DateUtc dt:dt="string">2016-06-28T16:05:42Z</DateUtc></StartTime><FrequencyChanges><FrequencyChange><Frequency dt:dt="r8">3507666</Frequency><Timestamp dt:dt="r8">1700339042026</Timestamp><Current dt:dt="r8">0</Current><DateUtc dt:dt="string">2016-06-28T16:05:42Z</DateUtc></FrequencyChange></FrequencyChanges></Clock>\n	Hungry_Donkey_bar_English_2-148-1	60.017	-12	1.0.0.18	1	-467341814	Standard	2.0.10.353	2.0.10.353	06-28-2016	6/28/2016 4:05:42 PM	12:05:42	2.0.10.248	65	Bar50-50.bmp	46	1	?	10r_4g.bmp	0r_4g.bmp	2r_2g.bmp	0r_2g.bmp	10r_4g.bmp				TrialProc	TrialList	0	cvbn	-999999	16	262990	0	c	150	263140	220	-262	-42	-28	-34	8	12	4	7	65	-10	0	-2	0	4	4	2	2	-10	4
Hungry_Donkey_bar_English_2	148	1	<?xml version="1.0"?>\n<Clock xmlns:dt="urn:schemas-microsoft-com:datatypes"><Description dt:dt="string">E-Prime Primary Realtime Clock</Description><StartTime><Timestamp dt:dt="int">0</Timestamp><DateUtc dt:dt="string">2016-06-28T16:05:42Z</DateUtc></StartTime><FrequencyChanges><FrequencyChange><Frequency dt:dt="r8">3507666</Frequency><Timestamp dt:dt="r8">1700339042026</Timestamp><Current dt:dt="r8">0</Current><DateUtc dt:dt="string">2016-06-28T16:05:42Z</DateUtc></FrequencyChange></FrequencyChanges></Clock>\n	Hungry_Donkey_bar_English_2-148-1	60.017	-12	1.0.0.18	1	-467341814	Standard	2.0.10.353	2.0.10.353	06-28-2016	6/28/2016 4:05:42 PM	12:05:42	2.0.10.248	66	Bar50-50.bmp	46	2	?	10r_4g.bmp	0r_4g.bmp	2r_2g.bmp	0r_2g.bmp		0r_4g.bmp			TrialProc	TrialList	0	cvbn	-999999	16	265172	0	v	768	265940	224	-262	-38	-28	-30	8	12	2	7	66	-10	0	-2	0	4	4	2	2	0	4
Hungry_Donkey_bar_English_2	148	1	<?xml version="1.0"?>\n<Clock xmlns:dt="urn:schemas-microsoft-com:datatypes"><Description dt:dt="string">E-Prime Primary Realtime Clock</Description><StartTime><Timestamp dt:dt="int">0</Timestamp><DateUtc dt:dt="string">2016-06-28T16:05:42Z</DateUtc></StartTime><FrequencyChanges><FrequencyChange><Frequency dt:dt="r8">3507666</Frequency><Timestamp dt:dt="r8">1700339042026</Timestamp><Current dt:dt="r8">0</Current><DateUtc dt:dt="string">2016-06-28T16:05:42Z</DateUtc></FrequencyChange></FrequencyChanges></Clock>\n	Hungry_Donkey_bar_English_2-148-1	60.017	-12	1.0.0.18	1	-467341814	Standard	2.0.10.353	2.0.10.353	06-28-2016	6/28/2016 4:05:42 PM	12:05:42	2.0.10.248	67	Bar50-50.bmp	47	1	?	0r_4g.bmp	0r_4g.bmp	0r_2g.bmp	0r_2g.bmp	0r_4g.bmp				TrialProc	TrialList	0	cvbn	-999999	16	267972	0	c	207	268179	228	-262	-34	-24	-30	8	12	10	7	67	0	0	0	0	4	4	2	2	0	4
Hungry_Donkey_bar_English_2	148	1	<?xml version="1.0"?>\n<Clock xmlns:dt="urn:schemas-microsoft-com:datatypes"><Description dt:dt="string">E-Prime Primary Realtime Clock</Description><StartTime><Timestamp dt:dt="int">0</Timestamp><DateUtc dt:dt="string">2016-06-28T16:05:42Z</DateUtc></StartTime><FrequencyChanges><FrequencyChange><Frequency dt:dt="r8">3507666</Frequency><Timestamp dt:dt="r8">1700339042026</Timestamp><Current dt:dt="r8">0</Current><DateUtc dt:dt="string">2016-06-28T16:05:42Z</DateUtc></FrequencyChange></FrequencyChanges></Clock>\n	Hungry_Donkey_bar_English_2-148-1	60.017	-12	1.0.0.18	1	-467341814	Standard	2.0.10.353	2.0.10.353	06-28-2016	6/28/2016 4:05:42 PM	12:05:42	2.0.10.248	68	Bar50-50.bmp	47	2	?	0r_4g.bmp	0r_4g.bmp	0r_2g.bmp	0r_2g.bmp		0r_4g.bmp			TrialProc	TrialList	0	cvbn	-999999	16	270204	0	v	695	270899	232	-262	-30	-24	-26	8	12	6	7	68	0	0	0	0	4	4	2	2	0	4
Hungry_Donkey_bar_English_2	148	1	<?xml version="1.0"?>\n<Clock xmlns:dt="urn:schemas-microsoft-com:datatypes"><Description dt:dt="string">E-Prime Primary Realtime Clock</Description><StartTime><Timestamp dt:dt="int">0</Timestamp><DateUtc dt:dt="string">2016-06-28T16:05:42Z</DateUtc></StartTime><FrequencyChanges><FrequencyChange><Frequency dt:dt="r8">3507666</Frequency><Timestamp dt:dt="r8">1700339042026</Timestamp><Current dt:dt="r8">0</Current><DateUtc dt:dt="string">2016-06-28T16:05:42Z</DateUtc></FrequencyChange></FrequencyChanges></Clock>\n	Hungry_Donkey_bar_English_2-148-1	60.017	-12	1.0.0.18	1	-467341814	Standard	2.0.10.353	2.0.10.353	06-28-2016	6/28/2016 4:05:42 PM	12:05:42	2.0.10.248	69	Bar50-50.bmp	46	1	?	10r_4g.bmp	0r_4g.bmp	2r_2g.bmp	0r_2g.bmp	10r_4g.bmp				TrialProc	TrialList	0	cvbn	-999999	16	272937	0	c	634	273571	236	-272	-36	-30	-26	8	12	3	7	69	-10	0	-2	0	4	4	2	2	-10	4
Hungry_Donkey_bar_English_2	148	1	<?xml version="1.0"?>\n<Clock xmlns:dt="urn:schemas-microsoft-com:datatypes"><Description dt:dt="string">E-Prime Primary Realtime Clock</Description><StartTime><Timestamp dt:dt="int">0</Timestamp><DateUtc dt:dt="string">2016-06-28T16:05:42Z</DateUtc></StartTime><FrequencyChanges><FrequencyChange><Frequency dt:dt="r8">3507666</Frequency><Timestamp dt:dt="r8">1700339042026</Timestamp><Current dt:dt="r8">0</Current><DateUtc dt:dt="string">2016-06-28T16:05:42Z</DateUtc></FrequencyChange></FrequencyChanges></Clock>\n	Hungry_Donkey_bar_English_2-148-1	60.017	-12	1.0.0.18	1	-467341814	Standard	2.0.10.353	2.0.10.353	06-28-2016	6/28/2016 4:05:42 PM	12:05:42	2.0.10.248	70	Bar37-63.bmp	43	2	?	8r_4g.bmp	50r_4g.bmp	1r_2g.bmp	10r_2g.bmp		50r_4g.bmp			TrialProc	TrialList	0	cvbn	-999999	16	275603	0	v	656	276259	240	-322	-82	-30	-72	8	12	1	7	70	-8	-50	-1	-10	4	4	2	2	-50	4
Hungry_Donkey_bar_English_2	148	1	<?xml version="1.0"?>\n<Clock xmlns:dt="urn:schemas-microsoft-com:datatypes"><Description dt:dt="string">E-Prime Primary Realtime Clock</Description><StartTime><Timestamp dt:dt="int">0</Timestamp><DateUtc dt:dt="string">2016-06-28T16:05:42Z</DateUtc></StartTime><FrequencyChanges><FrequencyChange><Frequency dt:dt="r8">3507666</Frequency><Timestamp dt:dt="r8">1700339042026</Timestamp><Current dt:dt="r8">0</Current><DateUtc dt:dt="string">2016-06-28T16:05:42Z</DateUtc></FrequencyChange></FrequencyChanges></Clock>\n	Hungry_Donkey_bar_English_2-148-1	60.017	-12	1.0.0.18	1	-467341814	Standard	2.0.10.353	2.0.10.353	06-28-2016	6/28/2016 4:05:42 PM	12:05:42	2.0.10.248	71	Bar37-63.bmp	43	4	?	0r_4g.bmp	0r_4g.bmp	0r_2g.bmp	0r_2g.bmp				0r_2g.bmp	TrialProc	TrialList	0	cvbn	-999999	16	278285	0	n	4278	282563	242	-322	-80	-30	-72	8	14	10	8	71	0	0	0	0	4	4	2	2	0	2
Hungry_Donkey_bar_English_2	148	1	<?xml version="1.0"?>\n<Clock xmlns:dt="urn:schemas-microsoft-com:datatypes"><Description dt:dt="string">E-Prime Primary Realtime Clock</Description><StartTime><Timestamp dt:dt="int">0</Timestamp><DateUtc dt:dt="string">2016-06-28T16:05:42Z</DateUtc></StartTime><FrequencyChanges><FrequencyChange><Frequency dt:dt="r8">3507666</Frequency><Timestamp dt:dt="r8">1700339042026</Timestamp><Current dt:dt="r8">0</Current><DateUtc dt:dt="string">2016-06-28T16:05:42Z</DateUtc></FrequencyChange></FrequencyChanges></Clock>\n	Hungry_Donkey_bar_English_2-148-1	60.017	-12	1.0.0.18	1	-467341814	Standard	2.0.10.353	2.0.10.353	06-28-2016	6/28/2016 4:05:42 PM	12:05:42	2.0.10.248	72	Bar37-63.bmp	43	3	?	10r_4g.bmp	0r_4g.bmp	2r_2g.bmp	0r_2g.bmp			2r_2g.bmp		TrialProc	TrialList	0	cvbn	-999999	16	284600	0	b	827	285427	244	-324	-80	-30	-72	8	14	4	8	72	-10	0	-2	0	4	4	2	2	-2	2
Hungry_Donkey_bar_English_2	148	1	<?xml version="1.0"?>\n<Clock xmlns:dt="urn:schemas-microsoft-com:datatypes"><Description dt:dt="string">E-Prime Primary Realtime Clock</Description><StartTime><Timestamp dt:dt="int">0</Timestamp><DateUtc dt:dt="string">2016-06-28T16:05:42Z</DateUtc></StartTime><FrequencyChanges><FrequencyChange><Frequency dt:dt="r8">3507666</Frequency><Timestamp dt:dt="r8">1700339042026</Timestamp><Current dt:dt="r8">0</Current><DateUtc dt:dt="string">2016-06-28T16:05:42Z</DateUtc></FrequencyChange></FrequencyChanges></Clock>\n	Hungry_Donkey_bar_English_2-148-1	60.017	-12	1.0.0.18	1	-467341814	Standard	2.0.10.353	2.0.10.353	06-28-2016	6/28/2016 4:05:42 PM	12:05:42	2.0.10.248	73	Bar37-63.bmp	43	3	?	0r_4g.bmp	0r_4g.bmp	0r_2g.bmp	0r_2g.bmp			0r_2g.bmp		TrialProc	TrialList	0	cvbn	-999999	16	287466	0	b	665	288131	246	-324	-78	-30	-72	10	14	9	8	73	0	0	0	0	4	4	2	2	0	2
Hungry_Donkey_bar_English_2	148	1	<?xml version="1.0"?>\n<Clock xmlns:dt="urn:schemas-microsoft-com:datatypes"><Description dt:dt="string">E-Prime Primary Realtime Clock</Description><StartTime><Timestamp dt:dt="int">0</Timestamp><DateUtc dt:dt="string">2016-06-28T16:05:42Z</DateUtc></StartTime><FrequencyChanges><FrequencyChange><Frequency dt:dt="r8">3507666</Frequency><Timestamp dt:dt="r8">1700339042026</Timestamp><Current dt:dt="r8">0</Current><DateUtc dt:dt="string">2016-06-28T16:05:42Z</DateUtc></FrequencyChange></FrequencyChanges></Clock>\n	Hungry_Donkey_bar_English_2-148-1	60.017	-12	1.0.0.18	1	-467341814	Standard	2.0.10.353	2.0.10.353	06-28-2016	6/28/2016 4:05:42 PM	12:05:42	2.0.10.248	74	Bar50-50.bmp	44	2	?	0r_4g.bmp	0r_4g.bmp	0r_2g.bmp	0r_2g.bmp		0r_4g.bmp			TrialProc	TrialList	0	cvbn	-999999	16	290165	0	v	173	290338	250	-324	-74	-30	-68	10	14	7	8	74	0	0	0	0	4	4	2	2	0	4
Hungry_Donkey_bar_English_2	148	1	<?xml version="1.0"?>\n<Clock xmlns:dt="urn:schemas-microsoft-com:datatypes"><Description dt:dt="string">E-Prime Primary Realtime Clock</Description><StartTime><Timestamp dt:dt="int">0</Timestamp><DateUtc dt:dt="string">2016-06-28T16:05:42Z</DateUtc></StartTime><FrequencyChanges><FrequencyChange><Frequency dt:dt="r8">3507666</Frequency><Timestamp dt:dt="r8">1700339042026</Timestamp><Current dt:dt="r8">0</Current><DateUtc dt:dt="string">2016-06-28T16:05:42Z</DateUtc></FrequencyChange></FrequencyChanges></Clock>\n	Hungry_Donkey_bar_English_2-148-1	60.017	-12	1.0.0.18	1	-467341814	Standard	2.0.10.353	2.0.10.353	06-28-2016	6/28/2016 4:05:42 PM	12:05:42	2.0.10.248	75	Bar37-63.bmp	43	1	?	8r_4g.bmp	50r_4g.bmp	1r_2g.bmp	10r_2g.bmp	8r_4g.bmp				TrialProc	TrialList	0	cvbn	-999999	16	292365	0	c	437	292802	254	-332	-78	-34	-68	10	14	1	8	75	-8	-50	-1	-10	4	4	2	2	-8	4
Hungry_Donkey_bar_English_2	148	1	<?xml version="1.0"?>\n<Clock xmlns:dt="urn:schemas-microsoft-com:datatypes"><Description dt:dt="string">E-Prime Primary Realtime Clock</Description><StartTime><Timestamp dt:dt="int">0</Timestamp><DateUtc dt:dt="string">2016-06-28T16:05:42Z</DateUtc></StartTime><FrequencyChanges><FrequencyChange><Frequency dt:dt="r8">3507666</Frequency><Timestamp dt:dt="r8">1700339042026</Timestamp><Current dt:dt="r8">0</Current><DateUtc dt:dt="string">2016-06-28T16:05:42Z</DateUtc></FrequencyChange></FrequencyChanges></Clock>\n	Hungry_Donkey_bar_English_2-148-1	60.017	-12	1.0.0.18	1	-467341814	Standard	2.0.10.353	2.0.10.353	06-28-2016	6/28/2016 4:05:42 PM	12:05:42	2.0.10.248	76	Bar50-50.bmp	44	2	?	0r_4g.bmp	0r_4g.bmp	0r_2g.bmp	0r_2g.bmp		0r_4g.bmp			TrialProc	TrialList	0	cvbn	-999999	16	294831	0	v	1043	295874	258	-332	-74	-34	-64	10	14	8	8	76	0	0	0	0	4	4	2	2	0	4
Hungry_Donkey_bar_English_2	148	1	<?xml version="1.0"?>\n<Clock xmlns:dt="urn:schemas-microsoft-com:datatypes"><Description dt:dt="string">E-Prime Primary Realtime Clock</Description><StartTime><Timestamp dt:dt="int">0</Timestamp><DateUtc dt:dt="string">2016-06-28T16:05:42Z</DateUtc></StartTime><FrequencyChanges><FrequencyChange><Frequency dt:dt="r8">3507666</Frequency><Timestamp dt:dt="r8">1700339042026</Timestamp><Current dt:dt="r8">0</Current><DateUtc dt:dt="string">2016-06-28T16:05:42Z</DateUtc></FrequencyChange></FrequencyChanges></Clock>\n	Hungry_Donkey_bar_English_2-148-1	60.017	-12	1.0.0.18	1	-467341814	Standard	2.0.10.353	2.0.10.353	06-28-2016	6/28/2016 4:05:42 PM	12:05:42	2.0.10.248	77	Bar50-50.bmp	44	1	?	0r_4g.bmp	0r_4g.bmp	0r_2g.bmp	0r_2g.bmp	0r_4g.bmp				TrialProc	TrialList	0	cvbn	-999999	16	297913	0	c	1657	299570	262	-332	-70	-30	-64	10	14	6	8	77	0	0	0	0	4	4	2	2	0	4
Hungry_Donkey_bar_English_2	148	1	<?xml version="1.0"?>\n<Clock xmlns:dt="urn:schemas-microsoft-com:datatypes"><Description dt:dt="string">E-Prime Primary Realtime Clock</Description><StartTime><Timestamp dt:dt="int">0</Timestamp><DateUtc dt:dt="string">2016-06-28T16:05:42Z</DateUtc></StartTime><FrequencyChanges><FrequencyChange><Frequency dt:dt="r8">3507666</Frequency><Timestamp dt:dt="r8">1700339042026</Timestamp><Current dt:dt="r8">0</Current><DateUtc dt:dt="string">2016-06-28T16:05:42Z</DateUtc></FrequencyChange></FrequencyChanges></Clock>\n	Hungry_Donkey_bar_English_2-148-1	60.017	-12	1.0.0.18	1	-467341814	Standard	2.0.10.353	2.0.10.353	06-28-2016	6/28/2016 4:05:42 PM	12:05:42	2.0.10.248	78	Bar50-50.bmp	44	2	?	10r_4g.bmp	0r_4g.bmp	2r_2g.bmp	0r_2g.bmp		0r_4g.bmp			TrialProc	TrialList	0	cvbn	-999999	17	301596	0	v	550	302146	266	-332	-66	-30	-60	10	14	2	8	78	-10	0	-2	0	4	4	2	2	0	4
Hungry_Donkey_bar_English_2	148	1	<?xml version="1.0"?>\n<Clock xmlns:dt="urn:schemas-microsoft-com:datatypes"><Description dt:dt="string">E-Prime Primary Realtime Clock</Description><StartTime><Timestamp dt:dt="int">0</Timestamp><DateUtc dt:dt="string">2016-06-28T16:05:42Z</DateUtc></StartTime><FrequencyChanges><FrequencyChange><Frequency dt:dt="r8">3507666</Frequency><Timestamp dt:dt="r8">1700339042026</Timestamp><Current dt:dt="r8">0</Current><DateUtc dt:dt="string">2016-06-28T16:05:42Z</DateUtc></FrequencyChange></FrequencyChanges></Clock>\n	Hungry_Donkey_bar_English_2-148-1	60.017	-12	1.0.0.18	1	-467341814	Standard	2.0.10.353	2.0.10.353	06-28-2016	6/28/2016 4:05:42 PM	12:05:42	2.0.10.248	79	Bar50-50.bmp	45	3	?	10r_4g.bmp	0r_4g.bmp	2r_2g.bmp	0r_2g.bmp			2r_2g.bmp		TrialProc	TrialList	0	cvbn	-999999	16	304178	0	b	16	304194	268	-334	-66	-30	-60	10	14	3	8	79	-10	0	-2	0	4	4	2	2	-2	2
Hungry_Donkey_bar_English_2	148	1	<?xml version="1.0"?>\n<Clock xmlns:dt="urn:schemas-microsoft-com:datatypes"><Description dt:dt="string">E-Prime Primary Realtime Clock</Description><StartTime><Timestamp dt:dt="int">0</Timestamp><DateUtc dt:dt="string">2016-06-28T16:05:42Z</DateUtc></StartTime><FrequencyChanges><FrequencyChange><Frequency dt:dt="r8">3507666</Frequency><Timestamp dt:dt="r8">1700339042026</Timestamp><Current dt:dt="r8">0</Current><DateUtc dt:dt="string">2016-06-28T16:05:42Z</DateUtc></FrequencyChange></FrequencyChanges></Clock>\n	Hungry_Donkey_bar_English_2-148-1	60.017	-12	1.0.0.18	1	-467341814	Standard	2.0.10.353	2.0.10.353	06-28-2016	6/28/2016 4:05:42 PM	12:05:42	2.0.10.248	80	Bar50-50.bmp	45	4	?	12r_4g.bmp	0r_4g.bmp	3r_2g.bmp	0r_2g.bmp				0r_2g.bmp	TrialProc	TrialList	0	cvbn	-999999	17	306228	0	n	1950	308178	270	-334	-64	-30	-60	10	16	5	8	80	-12	0	-3	0	4	4	2	2	0	2
Hungry_Donkey_bar_English_2	148	1	<?xml version="1.0"?>\n<Clock xmlns:dt="urn:schemas-microsoft-com:datatypes"><Description dt:dt="string">E-Prime Primary Realtime Clock</Description><StartTime><Timestamp dt:dt="int">0</Timestamp><DateUtc dt:dt="string">2016-06-28T16:05:42Z</DateUtc></StartTime><FrequencyChanges><FrequencyChange><Frequency dt:dt="r8">3507666</Frequency><Timestamp dt:dt="r8">1700339042026</Timestamp><Current dt:dt="r8">0</Current><DateUtc dt:dt="string">2016-06-28T16:05:42Z</DateUtc></FrequencyChange></FrequencyChanges></Clock>\n	Hungry_Donkey_bar_English_2-148-1	60.017	-12	1.0.0.18	1	-467341814	Standard	2.0.10.353	2.0.10.353	06-28-2016	6/28/2016 4:05:42 PM	12:05:42	2.0.10.248	81	Bar50-50.bmp	45	3	?	12r_4g.bmp	0r_4g.bmp	3r_2g.bmp	0r_2g.bmp			3r_2g.bmp		TrialProc	TrialList	0	cvbn	-999999	16	310210	0	b	96	310306	272	-337	-65	-30	-60	9	16	5	9	81	-12	0	-3	0	4	4	2	2	-3	2
Hungry_Donkey_bar_English_2	148	1	<?xml version="1.0"?>\n<Clock xmlns:dt="urn:schemas-microsoft-com:datatypes"><Description dt:dt="string">E-Prime Primary Realtime Clock</Description><StartTime><Timestamp dt:dt="int">0</Timestamp><DateUtc dt:dt="string">2016-06-28T16:05:42Z</DateUtc></StartTime><FrequencyChanges><FrequencyChange><Frequency dt:dt="r8">3507666</Frequency><Timestamp dt:dt="r8">1700339042026</Timestamp><Current dt:dt="r8">0</Current><DateUtc dt:dt="string">2016-06-28T16:05:42Z</DateUtc></FrequencyChange></FrequencyChanges></Clock>\n	Hungry_Donkey_bar_English_2-148-1	60.017	-12	1.0.0.18	1	-467341814	Standard	2.0.10.353	2.0.10.353	06-28-2016	6/28/2016 4:05:42 PM	12:05:42	2.0.10.248	82	Bar50-50.bmp	45	2	?	0r_4g.bmp	0r_4g.bmp	0r_2g.bmp	0r_2g.bmp		0r_4g.bmp			TrialProc	TrialList	0	cvbn	-999999	16	312342	0	v	651	312993	276	-337	-61	-30	-56	9	16	10	9	82	0	0	0	0	4	4	2	2	0	4
Hungry_Donkey_bar_English_2	148	1	<?xml version="1.0"?>\n<Clock xmlns:dt="urn:schemas-microsoft-com:datatypes"><Description dt:dt="string">E-Prime Primary Realtime Clock</Description><StartTime><Timestamp dt:dt="int">0</Timestamp><DateUtc dt:dt="string">2016-06-28T16:05:42Z</DateUtc></StartTime><FrequencyChanges><FrequencyChange><Frequency dt:dt="r8">3507666</Frequency><Timestamp dt:dt="r8">1700339042026</Timestamp><Current dt:dt="r8">0</Current><DateUtc dt:dt="string">2016-06-28T16:05:42Z</DateUtc></FrequencyChange></FrequencyChanges></Clock>\n	Hungry_Donkey_bar_English_2-148-1	60.017	-12	1.0.0.18	1	-467341814	Standard	2.0.10.353	2.0.10.353	06-28-2016	6/28/2016 4:05:42 PM	12:05:42	2.0.10.248	83	Bar50-50.bmp	45	1	?	0r_4g.bmp	0r_4g.bmp	0r_2g.bmp	0r_2g.bmp	0r_4g.bmp				TrialProc	TrialList	0	cvbn	-999999	16	315025	0	c	688	315713	280	-337	-57	-26	-56	9	16	8	9	83	0	0	0	0	4	4	2	2	0	4
Hungry_Donkey_bar_English_2	148	1	<?xml version="1.0"?>\n<Clock xmlns:dt="urn:schemas-microsoft-com:datatypes"><Description dt:dt="string">E-Prime Primary Realtime Clock</Description><StartTime><Timestamp dt:dt="int">0</Timestamp><DateUtc dt:dt="string">2016-06-28T16:05:42Z</DateUtc></StartTime><FrequencyChanges><FrequencyChange><Frequency dt:dt="r8">3507666</Frequency><Timestamp dt:dt="r8">1700339042026</Timestamp><Current dt:dt="r8">0</Current><DateUtc dt:dt="string">2016-06-28T16:05:42Z</DateUtc></FrequencyChange></FrequencyChanges></Clock>\n	Hungry_Donkey_bar_English_2-148-1	60.017	-12	1.0.0.18	1	-467341814	Standard	2.0.10.353	2.0.10.353	06-28-2016	6/28/2016 4:05:42 PM	12:05:42	2.0.10.248	84	Bar50-50.bmp	46	2	?	0r_4g.bmp	0r_4g.bmp	0r_2g.bmp	0r_2g.bmp		0r_4g.bmp			TrialProc	TrialList	0	cvbn	-999999	16	317741	0	v	676	318417	284	-337	-53	-26	-52	9	16	9	9	84	0	0	0	0	4	4	2	2	0	4
Hungry_Donkey_bar_English_2	148	1	<?xml version="1.0"?>\n<Clock xmlns:dt="urn:schemas-microsoft-com:datatypes"><Description dt:dt="string">E-Prime Primary Realtime Clock</Description><StartTime><Timestamp dt:dt="int">0</Timestamp><DateUtc dt:dt="string">2016-06-28T16:05:42Z</DateUtc></StartTime><FrequencyChanges><FrequencyChange><Frequency dt:dt="r8">3507666</Frequency><Timestamp dt:dt="r8">1700339042026</Timestamp><Current dt:dt="r8">0</Current><DateUtc dt:dt="string">2016-06-28T16:05:42Z</DateUtc></FrequencyChange></FrequencyChanges></Clock>\n	Hungry_Donkey_bar_English_2-148-1	60.017	-12	1.0.0.18	1	-467341814	Standard	2.0.10.353	2.0.10.353	06-28-2016	6/28/2016 4:05:42 PM	12:05:42	2.0.10.248	85	Bar50-50.bmp	46	1	?	0r_4g.bmp	0r_4g.bmp	0r_2g.bmp	0r_2g.bmp	0r_4g.bmp				TrialProc	TrialList	0	cvbn	-999999	15	320440	0	c	601	321041	288	-337	-49	-22	-52	9	16	7	9	85	0	0	0	0	4	4	2	2	0	4
Hungry_Donkey_bar_English_2	148	1	<?xml version="1.0"?>\n<Clock xmlns:dt="urn:schemas-microsoft-com:datatypes"><Description dt:dt="string">E-Prime Primary Realtime Clock</Description><StartTime><Timestamp dt:dt="int">0</Timestamp><DateUtc dt:dt="string">2016-06-28T16:05:42Z</DateUtc></StartTime><FrequencyChanges><FrequencyChange><Frequency dt:dt="r8">3507666</Frequency><Timestamp dt:dt="r8">1700339042026</Timestamp><Current dt:dt="r8">0</Current><DateUtc dt:dt="string">2016-06-28T16:05:42Z</DateUtc></FrequencyChange></FrequencyChanges></Clock>\n	Hungry_Donkey_bar_English_2-148-1	60.017	-12	1.0.0.18	1	-467341814	Standard	2.0.10.353	2.0.10.353	06-28-2016	6/28/2016 4:05:42 PM	12:05:42	2.0.10.248	86	Bar50-50.bmp	46	2	?	10r_4g.bmp	0r_4g.bmp	2r_2g.bmp	0r_2g.bmp		0r_4g.bmp			TrialProc	TrialList	0	cvbn	-999999	16	323073	0	v	1072	324145	292	-337	-45	-22	-48	9	16	2	9	86	-10	0	-2	0	4	4	2	2	0	4
Hungry_Donkey_bar_English_2	148	1	<?xml version="1.0"?>\n<Clock xmlns:dt="urn:schemas-microsoft-com:datatypes"><Description dt:dt="string">E-Prime Primary Realtime Clock</Description><StartTime><Timestamp dt:dt="int">0</Timestamp><DateUtc dt:dt="string">2016-06-28T16:05:42Z</DateUtc></StartTime><FrequencyChanges><FrequencyChange><Frequency dt:dt="r8">3507666</Frequency><Timestamp dt:dt="r8">1700339042026</Timestamp><Current dt:dt="r8">0</Current><DateUtc dt:dt="string">2016-06-28T16:05:42Z</DateUtc></FrequencyChange></FrequencyChanges></Clock>\n	Hungry_Donkey_bar_English_2-148-1	60.017	-12	1.0.0.18	1	-467341814	Standard	2.0.10.353	2.0.10.353	06-28-2016	6/28/2016 4:05:42 PM	12:05:42	2.0.10.248	87	Bar50-50.bmp	47	1	?	0r_4g.bmp	0r_4g.bmp	0r_2g.bmp	0r_2g.bmp	0r_4g.bmp				TrialProc	TrialList	0	cvbn	-999999	16	326172	0	c	709	326881	296	-337	-41	-18	-48	9	16	6	9	87	0	0	0	0	4	4	2	2	0	4
Hungry_Donkey_bar_English_2	148	1	<?xml version="1.0"?>\n<Clock xmlns:dt="urn:schemas-microsoft-com:datatypes"><Description dt:dt="string">E-Prime Primary Realtime Clock</Description><StartTime><Timestamp dt:dt="int">0</Timestamp><DateUtc dt:dt="string">2016-06-28T16:05:42Z</DateUtc></StartTime><FrequencyChanges><FrequencyChange><Frequency dt:dt="r8">3507666</Frequency><Timestamp dt:dt="r8">1700339042026</Timestamp><Current dt:dt="r8">0</Current><DateUtc dt:dt="string">2016-06-28T16:05:42Z</DateUtc></FrequencyChange></FrequencyChanges></Clock>\n	Hungry_Donkey_bar_English_2-148-1	60.017	-12	1.0.0.18	1	-467341814	Standard	2.0.10.353	2.0.10.353	06-28-2016	6/28/2016 4:05:42 PM	12:05:42	2.0.10.248	88	Bar50-50.bmp	47	2	?	10r_4g.bmp	0r_4g.bmp	2r_2g.bmp	0r_2g.bmp		0r_4g.bmp			TrialProc	TrialList	0	cvbn	-999999	16	328904	0	v	841	329745	300	-337	-37	-18	-44	9	16	3	9	88	-10	0	-2	0	4	4	2	2	0	4
Hungry_Donkey_bar_English_2	148	1	<?xml version="1.0"?>\n<Clock xmlns:dt="urn:schemas-microsoft-com:datatypes"><Description dt:dt="string">E-Prime Primary Realtime Clock</Description><StartTime><Timestamp dt:dt="int">0</Timestamp><DateUtc dt:dt="string">2016-06-28T16:05:42Z</DateUtc></StartTime><FrequencyChanges><FrequencyChange><Frequency dt:dt="r8">3507666</Frequency><Timestamp dt:dt="r8">1700339042026</Timestamp><Current dt:dt="r8">0</Current><DateUtc dt:dt="string">2016-06-28T16:05:42Z</DateUtc></FrequencyChange></FrequencyChanges></Clock>\n	Hungry_Donkey_bar_English_2-148-1	60.017	-12	1.0.0.18	1	-467341814	Standard	2.0.10.353	2.0.10.353	06-28-2016	6/28/2016 4:05:42 PM	12:05:42	2.0.10.248	89	Bar50-50.bmp	47	1	?	10r_4g.bmp	0r_4g.bmp	2r_2g.bmp	0r_2g.bmp	10r_4g.bmp				TrialProc	TrialList	0	cvbn	-999999	16	331770	0	c	1030	332800	304	-347	-43	-24	-44	9	16	4	9	89	-10	0	-2	0	4	4	2	2	-10	4
Hungry_Donkey_bar_English_2	148	1	<?xml version="1.0"?>\n<Clock xmlns:dt="urn:schemas-microsoft-com:datatypes"><Description dt:dt="string">E-Prime Primary Realtime Clock</Description><StartTime><Timestamp dt:dt="int">0</Timestamp><DateUtc dt:dt="string">2016-06-28T16:05:42Z</DateUtc></StartTime><FrequencyChanges><FrequencyChange><Frequency dt:dt="r8">3507666</Frequency><Timestamp dt:dt="r8">1700339042026</Timestamp><Current dt:dt="r8">0</Current><DateUtc dt:dt="string">2016-06-28T16:05:42Z</DateUtc></FrequencyChange></FrequencyChanges></Clock>\n	Hungry_Donkey_bar_English_2-148-1	60.017	-12	1.0.0.18	1	-467341814	Standard	2.0.10.353	2.0.10.353	06-28-2016	6/28/2016 4:05:42 PM	12:05:42	2.0.10.248	90	Bar50-50.bmp	44	2	?	8r_4g.bmp	50r_4g.bmp	1r_2g.bmp	10r_2g.bmp		50r_4g.bmp			TrialProc	TrialList	0	cvbn	-999999	16	334836	0	v	716	335552	308	-397	-89	-24	-90	9	16	1	9	90	-8	-50	-1	-10	4	4	2	2	-50	4
Hungry_Donkey_bar_English_2	148	1	<?xml version="1.0"?>\n<Clock xmlns:dt="urn:schemas-microsoft-com:datatypes"><Description dt:dt="string">E-Prime Primary Realtime Clock</Description><StartTime><Timestamp dt:dt="int">0</Timestamp><DateUtc dt:dt="string">2016-06-28T16:05:42Z</DateUtc></StartTime><FrequencyChanges><FrequencyChange><Frequency dt:dt="r8">3507666</Frequency><Timestamp dt:dt="r8">1700339042026</Timestamp><Current dt:dt="r8">0</Current><DateUtc dt:dt="string">2016-06-28T16:05:42Z</DateUtc></FrequencyChange></FrequencyChanges></Clock>\n	Hungry_Donkey_bar_English_2-148-1	60.017	-12	1.0.0.18	1	-467341814	Standard	2.0.10.353	2.0.10.353	06-28-2016	6/28/2016 4:05:42 PM	12:05:42	2.0.10.248	91	Bar50-50.bmp	44	2	?	0r_4g.bmp	0r_4g.bmp	0r_2g.bmp	0r_2g.bmp		0r_4g.bmp			TrialProc	TrialList	0	cvbn	-999999	16	337585	0	v	2767	340352	312	-397	-85	-24	-86	9	16	8	10	91	0	0	0	0	4	4	2	2	0	4
Hungry_Donkey_bar_English_2	148	1	<?xml version="1.0"?>\n<Clock xmlns:dt="urn:schemas-microsoft-com:datatypes"><Description dt:dt="string">E-Prime Primary Realtime Clock</Description><StartTime><Timestamp dt:dt="int">0</Timestamp><DateUtc dt:dt="string">2016-06-28T16:05:42Z</DateUtc></StartTime><FrequencyChanges><FrequencyChange><Frequency dt:dt="r8">3507666</Frequency><Timestamp dt:dt="r8">1700339042026</Timestamp><Current dt:dt="r8">0</Current><DateUtc dt:dt="string">2016-06-28T16:05:42Z</DateUtc></FrequencyChange></FrequencyChanges></Clock>\n	Hungry_Donkey_bar_English_2-148-1	60.017	-12	1.0.0.18	1	-467341814	Standard	2.0.10.353	2.0.10.353	06-28-2016	6/28/2016 4:05:42 PM	12:05:42	2.0.10.248	92	Bar50-50.bmp	44	1	?	0r_4g.bmp	0r_4g.bmp	0r_2g.bmp	0r_2g.bmp	0r_4g.bmp				TrialProc	TrialList	0	cvbn	-999999	16	342384	0	c	256	342640	316	-397	-81	-20	-86	9	16	6	10	92	0	0	0	0	4	4	2	2	0	4
Hungry_Donkey_bar_English_2	148	1	<?xml version="1.0"?>\n<Clock xmlns:dt="urn:schemas-microsoft-com:datatypes"><Description dt:dt="string">E-Prime Primary Realtime Clock</Description><StartTime><Timestamp dt:dt="int">0</Timestamp><DateUtc dt:dt="string">2016-06-28T16:05:42Z</DateUtc></StartTime><FrequencyChanges><FrequencyChange><Frequency dt:dt="r8">3507666</Frequency><Timestamp dt:dt="r8">1700339042026</Timestamp><Current dt:dt="r8">0</Current><DateUtc dt:dt="string">2016-06-28T16:05:42Z</DateUtc></FrequencyChange></FrequencyChanges></Clock>\n	Hungry_Donkey_bar_English_2-148-1	60.017	-12	1.0.0.18	1	-467341814	Standard	2.0.10.353	2.0.10.353	06-28-2016	6/28/2016 4:05:42 PM	12:05:42	2.0.10.248	93	Bar50-50.bmp	44	4	?	0r_4g.bmp	0r_4g.bmp	0r_2g.bmp	0r_2g.bmp				0r_2g.bmp	TrialProc	TrialList	0	cvbn	-999999	16	344667	0	n	1013	345680	318	-397	-79	-20	-86	9	18	7	10	93	0	0	0	0	4	4	2	2	0	2
Hungry_Donkey_bar_English_2	148	1	<?xml version="1.0"?>\n<Clock xmlns:dt="urn:schemas-microsoft-com:datatypes"><Description dt:dt="string">E-Prime Primary Realtime Clock</Description><StartTime><Timestamp dt:dt="int">0</Timestamp><DateUtc dt:dt="string">2016-06-28T16:05:42Z</DateUtc></StartTime><FrequencyChanges><FrequencyChange><Frequency dt:dt="r8">3507666</Frequency><Timestamp dt:dt="r8">1700339042026</Timestamp><Current dt:dt="r8">0</Current><DateUtc dt:dt="string">2016-06-28T16:05:42Z</DateUtc></FrequencyChange></FrequencyChanges></Clock>\n	Hungry_Donkey_bar_English_2-148-1	60.017	-12	1.0.0.18	1	-467341814	Standard	2.0.10.353	2.0.10.353	06-28-2016	6/28/2016 4:05:42 PM	12:05:42	2.0.10.248	94	Bar50-50.bmp	45	2	?	10r_4g.bmp	0r_4g.bmp	2r_2g.bmp	0r_2g.bmp		0r_4g.bmp			TrialProc	TrialList	0	cvbn	-999999	16	347716	0	v	924	348640	322	-397	-75	-20	-82	9	18	2	10	94	-10	0	-2	0	4	4	2	2	0	4
Hungry_Donkey_bar_English_2	148	1	<?xml version="1.0"?>\n<Clock xmlns:dt="urn:schemas-microsoft-com:datatypes"><Description dt:dt="string">E-Prime Primary Realtime Clock</Description><StartTime><Timestamp dt:dt="int">0</Timestamp><DateUtc dt:dt="string">2016-06-28T16:05:42Z</DateUtc></StartTime><FrequencyChanges><FrequencyChange><Frequency dt:dt="r8">3507666</Frequency><Timestamp dt:dt="r8">1700339042026</Timestamp><Current dt:dt="r8">0</Current><DateUtc dt:dt="string">2016-06-28T16:05:42Z</DateUtc></FrequencyChange></FrequencyChanges></Clock>\n	Hungry_Donkey_bar_English_2-148-1	60.017	-12	1.0.0.18	1	-467341814	Standard	2.0.10.353	2.0.10.353	06-28-2016	6/28/2016 4:05:42 PM	12:05:42	2.0.10.248	95	Bar50-50.bmp	45	3	?	8r_4g.bmp	50r_4g.bmp	1r_2g.bmp	10r_2g.bmp			1r_2g.bmp		TrialProc	TrialList	0	cvbn	-999999	16	350665	0	b	775	351440	324	-398	-74	-20	-82	10	18	1	10	95	-8	-50	-1	-10	4	4	2	2	-1	2
Hungry_Donkey_bar_English_2	148	1	<?xml version="1.0"?>\n<Clock xmlns:dt="urn:schemas-microsoft-com:datatypes"><Description dt:dt="string">E-Prime Primary Realtime Clock</Description><StartTime><Timestamp dt:dt="int">0</Timestamp><DateUtc dt:dt="string">2016-06-28T16:05:42Z</DateUtc></StartTime><FrequencyChanges><FrequencyChange><Frequency dt:dt="r8">3507666</Frequency><Timestamp dt:dt="r8">1700339042026</Timestamp><Current dt:dt="r8">0</Current><DateUtc dt:dt="string">2016-06-28T16:05:42Z</DateUtc></FrequencyChange></FrequencyChanges></Clock>\n	Hungry_Donkey_bar_English_2-148-1	60.017	-12	1.0.0.18	1	-467341814	Standard	2.0.10.353	2.0.10.353	06-28-2016	6/28/2016 4:05:42 PM	12:05:42	2.0.10.248	96	Bar50-50.bmp	45	3	?	0r_4g.bmp	0r_4g.bmp	0r_2g.bmp	0r_2g.bmp			0r_2g.bmp		TrialProc	TrialList	0	cvbn	-999999	16	353464	0	b	2455	355919	326	-398	-72	-20	-82	12	18	10	10	96	0	0	0	0	4	4	2	2	0	2
Hungry_Donkey_bar_English_2	148	1	<?xml version="1.0"?>\n<Clock xmlns:dt="urn:schemas-microsoft-com:datatypes"><Description dt:dt="string">E-Prime Primary Realtime Clock</Description><StartTime><Timestamp dt:dt="int">0</Timestamp><DateUtc dt:dt="string">2016-06-28T16:05:42Z</DateUtc></StartTime><FrequencyChanges><FrequencyChange><Frequency dt:dt="r8">3507666</Frequency><Timestamp dt:dt="r8">1700339042026</Timestamp><Current dt:dt="r8">0</Current><DateUtc dt:dt="string">2016-06-28T16:05:42Z</DateUtc></FrequencyChange></FrequencyChanges></Clock>\n	Hungry_Donkey_bar_English_2-148-1	60.017	-12	1.0.0.18	1	-467341814	Standard	2.0.10.353	2.0.10.353	06-28-2016	6/28/2016 4:05:42 PM	12:05:42	2.0.10.248	97	Bar50-50.bmp	45	2	?	12r_4g.bmp	0r_4g.bmp	3r_2g.bmp	0r_2g.bmp		0r_4g.bmp			TrialProc	TrialList	0	cvbn	-999999	16	357946	0	v	1269	359215	330	-398	-68	-20	-78	12	18	5	10	97	-12	0	-3	0	4	4	2	2	0	4
Hungry_Donkey_bar_English_2	148	1	<?xml version="1.0"?>\n<Clock xmlns:dt="urn:schemas-microsoft-com:datatypes"><Description dt:dt="string">E-Prime Primary Realtime Clock</Description><StartTime><Timestamp dt:dt="int">0</Timestamp><DateUtc dt:dt="string">2016-06-28T16:05:42Z</DateUtc></StartTime><FrequencyChanges><FrequencyChange><Frequency dt:dt="r8">3507666</Frequency><Timestamp dt:dt="r8">1700339042026</Timestamp><Current dt:dt="r8">0</Current><DateUtc dt:dt="string">2016-06-28T16:05:42Z</DateUtc></FrequencyChange></FrequencyChanges></Clock>\n	Hungry_Donkey_bar_English_2-148-1	60.017	-12	1.0.0.18	1	-467341814	Standard	2.0.10.353	2.0.10.353	06-28-2016	6/28/2016 4:05:42 PM	12:05:42	2.0.10.248	98	Bar50-50.bmp	46	2	?	10r_4g.bmp	0r_4g.bmp	2r_2g.bmp	0r_2g.bmp		0r_4g.bmp			TrialProc	TrialList	0	cvbn	-999999	16	361245	0	v	1378	362623	334	-398	-64	-20	-74	12	18	3	10	98	-10	0	-2	0	4	4	2	2	0	4
Hungry_Donkey_bar_English_2	148	1	<?xml version="1.0"?>\n<Clock xmlns:dt="urn:schemas-microsoft-com:datatypes"><Description dt:dt="string">E-Prime Primary Realtime Clock</Description><StartTime><Timestamp dt:dt="int">0</Timestamp><DateUtc dt:dt="string">2016-06-28T16:05:42Z</DateUtc></StartTime><FrequencyChanges><FrequencyChange><Frequency dt:dt="r8">3507666</Frequency><Timestamp dt:dt="r8">1700339042026</Timestamp><Current dt:dt="r8">0</Current><DateUtc dt:dt="string">2016-06-28T16:05:42Z</DateUtc></FrequencyChange></FrequencyChanges></Clock>\n	Hungry_Donkey_bar_English_2-148-1	60.017	-12	1.0.0.18	1	-467341814	Standard	2.0.10.353	2.0.10.353	06-28-2016	6/28/2016 4:05:42 PM	12:05:42	2.0.10.248	99	Bar50-50.bmp	46	2	?	10r_4g.bmp	0r_4g.bmp	2r_2g.bmp	0r_2g.bmp		0r_4g.bmp			TrialProc	TrialList	0	cvbn	-999999	16	364661	0	v	1642	366303	338	-398	-60	-20	-70	12	18	4	10	99	-10	0	-2	0	4	4	2	2	0	4
Hungry_Donkey_bar_English_2	148	1	<?xml version="1.0"?>\n<Clock xmlns:dt="urn:schemas-microsoft-com:datatypes"><Description dt:dt="string">E-Prime Primary Realtime Clock</Description><StartTime><Timestamp dt:dt="int">0</Timestamp><DateUtc dt:dt="string">2016-06-28T16:05:42Z</DateUtc></StartTime><FrequencyChanges><FrequencyChange><Frequency dt:dt="r8">3507666</Frequency><Timestamp dt:dt="r8">1700339042026</Timestamp><Current dt:dt="r8">0</Current><DateUtc dt:dt="string">2016-06-28T16:05:42Z</DateUtc></FrequencyChange></FrequencyChanges></Clock>\n	Hungry_Donkey_bar_English_2-148-1	60.017	-12	1.0.0.18	1	-467341814	Standard	2.0.10.353	2.0.10.353	06-28-2016	6/28/2016 4:05:42 PM	12:05:42	2.0.10.248	100	Bar50-50.bmp	46	2	?	0r_4g.bmp	0r_4g.bmp	0r_2g.bmp	0r_2g.bmp		0r_4g.bmp			TrialProc	TrialList	0	cvbn	-999999	16	368327	0	v	360	368687	342	-398	-56	-20	-66	12	18	9	10	100	0	0	0	0	4	4	2	2	0	4
Hungry_Donkey_bar_English_2	148	1	<?xml version="1.0"?>\n<Clock xmlns:dt="urn:schemas-microsoft-com:datatypes"><Description dt:dt="string">E-Prime Primary Realtime Clock</Description><StartTime><Timestamp dt:dt="int">0</Timestamp><DateUtc dt:dt="string">2016-06-28T16:05:42Z</DateUtc></StartTime><FrequencyChanges><FrequencyChange><Frequency dt:dt="r8">3507666</Frequency><Timestamp dt:dt="r8">1700339042026</Timestamp><Current dt:dt="r8">0</Current><DateUtc dt:dt="string">2016-06-28T16:05:42Z</DateUtc></FrequencyChange></FrequencyChanges></Clock>\n	Hungry_Donkey_bar_English_2-148-1	60.017	-12	1.0.0.18	1	-467341814	Standard	2.0.10.353	2.0.10.353	06-28-2016	6/28/2016 4:05:42 PM	12:05:42	2.0.10.248	101	Bar50-50.bmp	47	2	?	10r_4g.bmp	0r_4g.bmp	2r_2g.bmp	0r_2g.bmp		0r_4g.bmp			TrialProc	TrialList	0	cvbn	-999999	16	370726	0	v	905	371631	346	-398	-52	-20	-62	12	18	2	11	101	-10	0	-2	0	4	4	2	2	0	4
Hungry_Donkey_bar_English_2	148	1	<?xml version="1.0"?>\n<Clock xmlns:dt="urn:schemas-microsoft-com:datatypes"><Description dt:dt="string">E-Prime Primary Realtime Clock</Description><StartTime><Timestamp dt:dt="int">0</Timestamp><DateUtc dt:dt="string">2016-06-28T16:05:42Z</DateUtc></StartTime><FrequencyChanges><FrequencyChange><Frequency dt:dt="r8">3507666</Frequency><Timestamp dt:dt="r8">1700339042026</Timestamp><Current dt:dt="r8">0</Current><DateUtc dt:dt="string">2016-06-28T16:05:42Z</DateUtc></FrequencyChange></FrequencyChanges></Clock>\n	Hungry_Donkey_bar_English_2-148-1	60.017	-12	1.0.0.18	1	-467341814	Standard	2.0.10.353	2.0.10.353	06-28-2016	6/28/2016 4:05:42 PM	12:05:42	2.0.10.248	102	Bar50-50.bmp	47	2	?	0r_4g.bmp	0r_4g.bmp	0r_2g.bmp	0r_2g.bmp		0r_4g.bmp			TrialProc	TrialList	0	cvbn	-999999	16	373658	0	v	5	373663	350	-398	-48	-20	-58	12	18	7	11	102	0	0	0	0	4	4	2	2	0	4
Hungry_Donkey_bar_English_2	148	1	<?xml version="1.0"?>\n<Clock xmlns:dt="urn:schemas-microsoft-com:datatypes"><Description dt:dt="string">E-Prime Primary Realtime Clock</Description><StartTime><Timestamp dt:dt="int">0</Timestamp><DateUtc dt:dt="string">2016-06-28T16:05:42Z</DateUtc></StartTime><FrequencyChanges><FrequencyChange><Frequency dt:dt="r8">3507666</Frequency><Timestamp dt:dt="r8">1700339042026</Timestamp><Current dt:dt="r8">0</Current><DateUtc dt:dt="string">2016-06-28T16:05:42Z</DateUtc></FrequencyChange></FrequencyChanges></Clock>\n	Hungry_Donkey_bar_English_2-148-1	60.017	-12	1.0.0.18	1	-467341814	Standard	2.0.10.353	2.0.10.353	06-28-2016	6/28/2016 4:05:42 PM	12:05:42	2.0.10.248	103	Bar50-50.bmp	47	2	?	0r_4g.bmp	0r_4g.bmp	0r_2g.bmp	0r_2g.bmp		0r_4g.bmp			TrialProc	TrialList	0	cvbn	-999999	16	375691	0	v	179	375870	354	-398	-44	-20	-54	12	18	6	11	103	0	0	0	0	4	4	2	2	0	4
Hungry_Donkey_bar_English_2	148	1	<?xml version="1.0"?>\n<Clock xmlns:dt="urn:schemas-microsoft-com:datatypes"><Description dt:dt="string">E-Prime Primary Realtime Clock</Description><StartTime><Timestamp dt:dt="int">0</Timestamp><DateUtc dt:dt="string">2016-06-28T16:05:42Z</DateUtc></StartTime><FrequencyChanges><FrequencyChange><Frequency dt:dt="r8">3507666</Frequency><Timestamp dt:dt="r8">1700339042026</Timestamp><Current dt:dt="r8">0</Current><DateUtc dt:dt="string">2016-06-28T16:05:42Z</DateUtc></FrequencyChange></FrequencyChanges></Clock>\n	Hungry_Donkey_bar_English_2-148-1	60.017	-12	1.0.0.18	1	-467341814	Standard	2.0.10.353	2.0.10.353	06-28-2016	6/28/2016 4:05:42 PM	12:05:42	2.0.10.248	104	Bar50-50.bmp	47	2	?	12r_4g.bmp	0r_4g.bmp	3r_2g.bmp	0r_2g.bmp		0r_4g.bmp			TrialProc	TrialList	0	cvbn	-999999	16	377907	0	v	331	378238	358	-398	-40	-20	-50	12	18	5	11	104	-12	0	-3	0	4	4	2	2	0	4
Hungry_Donkey_bar_English_2	148	1	<?xml version="1.0"?>\n<Clock xmlns:dt="urn:schemas-microsoft-com:datatypes"><Description dt:dt="string">E-Prime Primary Realtime Clock</Description><StartTime><Timestamp dt:dt="int">0</Timestamp><DateUtc dt:dt="string">2016-06-28T16:05:42Z</DateUtc></StartTime><FrequencyChanges><FrequencyChange><Frequency dt:dt="r8">3507666</Frequency><Timestamp dt:dt="r8">1700339042026</Timestamp><Current dt:dt="r8">0</Current><DateUtc dt:dt="string">2016-06-28T16:05:42Z</DateUtc></FrequencyChange></FrequencyChanges></Clock>\n	Hungry_Donkey_bar_English_2-148-1	60.017	-12	1.0.0.18	1	-467341814	Standard	2.0.10.353	2.0.10.353	06-28-2016	6/28/2016 4:05:42 PM	12:05:42	2.0.10.248	105	Bar50-50.bmp	48	2	?	0r_4g.bmp	0r_4g.bmp	0r_2g.bmp	0r_2g.bmp		0r_4g.bmp			TrialProc	TrialList	0	cvbn	-999999	16	380273	0	v	653	380926	362	-398	-36	-20	-46	12	18	8	11	105	0	0	0	0	4	4	2	2	0	4
Hungry_Donkey_bar_English_2	148	1	<?xml version="1.0"?>\n<Clock xmlns:dt="urn:schemas-microsoft-com:datatypes"><Description dt:dt="string">E-Prime Primary Realtime Clock</Description><StartTime><Timestamp dt:dt="int">0</Timestamp><DateUtc dt:dt="string">2016-06-28T16:05:42Z</DateUtc></StartTime><FrequencyChanges><FrequencyChange><Frequency dt:dt="r8">3507666</Frequency><Timestamp dt:dt="r8">1700339042026</Timestamp><Current dt:dt="r8">0</Current><DateUtc dt:dt="string">2016-06-28T16:05:42Z</DateUtc></FrequencyChange></FrequencyChanges></Clock>\n	Hungry_Donkey_bar_English_2-148-1	60.017	-12	1.0.0.18	1	-467341814	Standard	2.0.10.353	2.0.10.353	06-28-2016	6/28/2016 4:05:42 PM	12:05:42	2.0.10.248	106	Bar50-50.bmp	45	2	?	8r_4g.bmp	50r_4g.bmp	1r_2g.bmp	10r_2g.bmp		50r_4g.bmp			TrialProc	TrialList	0	cvbn	-999999	16	382956	0	v	98	383054	366	-448	-82	-20	-92	12	18	1	11	106	-8	-50	-1	-10	4	4	2	2	-50	4
Hungry_Donkey_bar_English_2	148	1	<?xml version="1.0"?>\n<Clock xmlns:dt="urn:schemas-microsoft-com:datatypes"><Description dt:dt="string">E-Prime Primary Realtime Clock</Description><StartTime><Timestamp dt:dt="int">0</Timestamp><DateUtc dt:dt="string">2016-06-28T16:05:42Z</DateUtc></StartTime><FrequencyChanges><FrequencyChange><Frequency dt:dt="r8">3507666</Frequency><Timestamp dt:dt="r8">1700339042026</Timestamp><Current dt:dt="r8">0</Current><DateUtc dt:dt="string">2016-06-28T16:05:42Z</DateUtc></FrequencyChange></FrequencyChanges></Clock>\n	Hungry_Donkey_bar_English_2-148-1	60.017	-12	1.0.0.18	1	-467341814	Standard	2.0.10.353	2.0.10.353	06-28-2016	6/28/2016 4:05:42 PM	12:05:42	2.0.10.248	107	Bar50-50.bmp	45	4	?	0r_4g.bmp	0r_4g.bmp	0r_2g.bmp	0r_2g.bmp				0r_2g.bmp	TrialProc	TrialList	0	cvbn	-999999	17	385089	0	n	9693	394782	368	-448	-80	-20	-92	12	20	9	11	107	0	0	0	0	4	4	2	2	0	2
Hungry_Donkey_bar_English_2	148	1	<?xml version="1.0"?>\n<Clock xmlns:dt="urn:schemas-microsoft-com:datatypes"><Description dt:dt="string">E-Prime Primary Realtime Clock</Description><StartTime><Timestamp dt:dt="int">0</Timestamp><DateUtc dt:dt="string">2016-06-28T16:05:42Z</DateUtc></StartTime><FrequencyChanges><FrequencyChange><Frequency dt:dt="r8">3507666</Frequency><Timestamp dt:dt="r8">1700339042026</Timestamp><Current dt:dt="r8">0</Current><DateUtc dt:dt="string">2016-06-28T16:05:42Z</DateUtc></FrequencyChange></FrequencyChanges></Clock>\n	Hungry_Donkey_bar_English_2-148-1	60.017	-12	1.0.0.18	1	-467341814	Standard	2.0.10.353	2.0.10.353	06-28-2016	6/28/2016 4:05:42 PM	12:05:42	2.0.10.248	108	Bar50-50.bmp	45	2	?	0r_4g.bmp	0r_4g.bmp	0r_2g.bmp	0r_2g.bmp		0r_4g.bmp			TrialProc	TrialList	0	cvbn	-999999	17	396819	0	v	59	396878	372	-448	-76	-20	-88	12	20	10	11	108	0	0	0	0	4	4	2	2	0	4
Hungry_Donkey_bar_English_2	148	1	<?xml version="1.0"?>\n<Clock xmlns:dt="urn:schemas-microsoft-com:datatypes"><Description dt:dt="string">E-Prime Primary Realtime Clock</Description><StartTime><Timestamp dt:dt="int">0</Timestamp><DateUtc dt:dt="string">2016-06-28T16:05:42Z</DateUtc></StartTime><FrequencyChanges><FrequencyChange><Frequency dt:dt="r8">3507666</Frequency><Timestamp dt:dt="r8">1700339042026</Timestamp><Current dt:dt="r8">0</Current><DateUtc dt:dt="string">2016-06-28T16:05:42Z</DateUtc></FrequencyChange></FrequencyChanges></Clock>\n	Hungry_Donkey_bar_English_2-148-1	60.017	-12	1.0.0.18	1	-467341814	Standard	2.0.10.353	2.0.10.353	06-28-2016	6/28/2016 4:05:42 PM	12:05:42	2.0.10.248	109	Bar50-50.bmp	46	2	?	10r_4g.bmp	0r_4g.bmp	2r_2g.bmp	0r_2g.bmp		0r_4g.bmp			TrialProc	TrialList	0	cvbn	-999999	16	398901	0	v	232	399133	376	-448	-72	-20	-84	12	20	4	11	109	-10	0	-2	0	4	4	2	2	0	4
Hungry_Donkey_bar_English_2	148	1	<?xml version="1.0"?>\n<Clock xmlns:dt="urn:schemas-microsoft-com:datatypes"><Description dt:dt="string">E-Prime Primary Realtime Clock</Description><StartTime><Timestamp dt:dt="int">0</Timestamp><DateUtc dt:dt="string">2016-06-28T16:05:42Z</DateUtc></StartTime><FrequencyChanges><FrequencyChange><Frequency dt:dt="r8">3507666</Frequency><Timestamp dt:dt="r8">1700339042026</Timestamp><Current dt:dt="r8">0</Current><DateUtc dt:dt="string">2016-06-28T16:05:42Z</DateUtc></FrequencyChange></FrequencyChanges></Clock>\n	Hungry_Donkey_bar_English_2-148-1	60.017	-12	1.0.0.18	1	-467341814	Standard	2.0.10.353	2.0.10.353	06-28-2016	6/28/2016 4:05:42 PM	12:05:42	2.0.10.248	110	Bar50-50.bmp	46	2	?	10r_4g.bmp	0r_4g.bmp	2r_2g.bmp	0r_2g.bmp		0r_4g.bmp			TrialProc	TrialList	0	cvbn	-999999	16	401167	0	v	574	401741	380	-448	-68	-20	-80	12	20	3	11	110	-10	0	-2	0	4	4	2	2	0	4
