ExperimentName	Subject	Session	Clock.Information	DataFile.Basename	Display.RefreshRate	Eindtotaal[Session]	ExperimentVersion	Group	RandomSeed	RuntimeCapabilities	RuntimeVersion	RuntimeVersionExpected	SessionDate	SessionStartDateTimeUtc	SessionTime	StudioVersion	Block	BarImage	BarTotalWinst	DoorChoice	Eindtotaal[Block]	FBDoor1	FBDoor2	FBDoor3	FBDoor4	Image1	Image2	Image3	Image4	Procedure	Running	spel.ACC	spel.CRESP	spel.DurationError	spel.OnsetDelay	spel.OnsetTime	spel.OnsetToOnsetTime	spel.RESP	spel.RT	spel.RTTime	TotalGain	TotalLose	Totalsum	TotalsumD1	TotalsumD2	TotalsumD3	TotalsumD4	TrialList	TrialList.Cycle	TrialList.Sample	varV1	varV2	varV3	varV4	varW1	varW2	varW3	varW4	Verliesbedrag	Winstbedrag
Hungry_Donkey_bar_English_2	122	1	<?xml version="1.0"?>\n<Clock xmlns:dt="urn:schemas-microsoft-com:datatypes"><Description dt:dt="string">E-Prime Primary Realtime Clock</Description><StartTime><Timestamp dt:dt="int">0</Timestamp><DateUtc dt:dt="string">2015-09-08T21:06:43Z</DateUtc></StartTime><FrequencyChanges><FrequencyChange><Frequency dt:dt="r8">3507666</Frequency><Timestamp dt:dt="r8">311846019756</Timestamp><Current dt:dt="r8">0</Current><DateUtc dt:dt="string">2015-09-08T21:06:43Z</DateUtc></FrequencyChange></FrequencyChanges></Clock>\n	Hungry_Donkey_bar_English_2-122-1	60.017	-33	1.0.0.18	1	-1685904002	Standard	2.0.10.353	2.0.10.353	09-08-2015	9/8/2015 9:06:43 PM	17:06:43	2.0.10.248	1	Bar100-0.bmp	100	4	?	10r_4g.bmp	0r_4g.bmp	2r_2g.bmp	0r_2g.bmp				0r_2g.bmp	TrialProc	TrialList	0	cvbn	-999999	31	52290	0	n	3953	56243	2	0	2	0	0	0	2	3	1	1	-10	0	-2	0	4	4	2	2	0	2
Hungry_Donkey_bar_English_2	122	1	<?xml version="1.0"?>\n<Clock xmlns:dt="urn:schemas-microsoft-com:datatypes"><Description dt:dt="string">E-Prime Primary Realtime Clock</Description><StartTime><Timestamp dt:dt="int">0</Timestamp><DateUtc dt:dt="string">2015-09-08T21:06:43Z</DateUtc></StartTime><FrequencyChanges><FrequencyChange><Frequency dt:dt="r8">3507666</Frequency><Timestamp dt:dt="r8">311846019756</Timestamp><Current dt:dt="r8">0</Current><DateUtc dt:dt="string">2015-09-08T21:06:43Z</DateUtc></FrequencyChange></FrequencyChanges></Clock>\n	Hungry_Donkey_bar_English_2-122-1	60.017	-33	1.0.0.18	1	-1685904002	Standard	2.0.10.353	2.0.10.353	09-08-2015	9/8/2015 9:06:43 PM	17:06:43	2.0.10.248	2	Bar100-0.bmp	100	1	?	0r_4g.bmp	0r_4g.bmp	0r_2g.bmp	0r_2g.bmp	0r_4g.bmp				TrialProc	TrialList	0	cvbn	-999999	16	58288	0	c	1058	59346	6	0	6	4	0	0	2	10	1	2	0	0	0	0	4	4	2	2	0	4
Hungry_Donkey_bar_English_2	122	1	<?xml version="1.0"?>\n<Clock xmlns:dt="urn:schemas-microsoft-com:datatypes"><Description dt:dt="string">E-Prime Primary Realtime Clock</Description><StartTime><Timestamp dt:dt="int">0</Timestamp><DateUtc dt:dt="string">2015-09-08T21:06:43Z</DateUtc></StartTime><FrequencyChanges><FrequencyChange><Frequency dt:dt="r8">3507666</Frequency><Timestamp dt:dt="r8">311846019756</Timestamp><Current dt:dt="r8">0</Current><DateUtc dt:dt="string">2015-09-08T21:06:43Z</DateUtc></FrequencyChange></FrequencyChanges></Clock>\n	Hungry_Donkey_bar_English_2-122-1	60.017	-33	1.0.0.18	1	-1685904002	Standard	2.0.10.353	2.0.10.353	09-08-2015	9/8/2015 9:06:43 PM	17:06:43	2.0.10.248	3	Bar100-0.bmp	100	2	?	0r_4g.bmp	0r_4g.bmp	0r_2g.bmp	0r_2g.bmp		0r_4g.bmp			TrialProc	TrialList	0	cvbn	-999999	16	61388	0	v	614	62002	10	0	10	4	4	0	2	8	1	3	0	0	0	0	4	4	2	2	0	4
Hungry_Donkey_bar_English_2	122	1	<?xml version="1.0"?>\n<Clock xmlns:dt="urn:schemas-microsoft-com:datatypes"><Description dt:dt="string">E-Prime Primary Realtime Clock</Description><StartTime><Timestamp dt:dt="int">0</Timestamp><DateUtc dt:dt="string">2015-09-08T21:06:43Z</DateUtc></StartTime><FrequencyChanges><FrequencyChange><Frequency dt:dt="r8">3507666</Frequency><Timestamp dt:dt="r8">311846019756</Timestamp><Current dt:dt="r8">0</Current><DateUtc dt:dt="string">2015-09-08T21:06:43Z</DateUtc></FrequencyChange></FrequencyChanges></Clock>\n	Hungry_Donkey_bar_English_2-122-1	60.017	-33	1.0.0.18	1	-1685904002	Standard	2.0.10.353	2.0.10.353	09-08-2015	9/8/2015 9:06:43 PM	17:06:43	2.0.10.248	4	Bar100-0.bmp	100	3	?	0r_4g.bmp	0r_4g.bmp	0r_2g.bmp	0r_2g.bmp			0r_2g.bmp		TrialProc	TrialList	0	cvbn	-999999	16	64037	0	b	477	64514	12	0	12	4	4	2	2	7	1	4	0	0	0	0	4	4	2	2	0	2
Hungry_Donkey_bar_English_2	122	1	<?xml version="1.0"?>\n<Clock xmlns:dt="urn:schemas-microsoft-com:datatypes"><Description dt:dt="string">E-Prime Primary Realtime Clock</Description><StartTime><Timestamp dt:dt="int">0</Timestamp><DateUtc dt:dt="string">2015-09-08T21:06:43Z</DateUtc></StartTime><FrequencyChanges><FrequencyChange><Frequency dt:dt="r8">3507666</Frequency><Timestamp dt:dt="r8">311846019756</Timestamp><Current dt:dt="r8">0</Current><DateUtc dt:dt="string">2015-09-08T21:06:43Z</DateUtc></FrequencyChange></FrequencyChanges></Clock>\n	Hungry_Donkey_bar_English_2-122-1	60.017	-33	1.0.0.18	1	-1685904002	Standard	2.0.10.353	2.0.10.353	09-08-2015	9/8/2015 9:06:43 PM	17:06:43	2.0.10.248	5	Bar63-37.bmp	62	1	?	10r_4g.bmp	0r_4g.bmp	2r_2g.bmp	0r_2g.bmp	10r_4g.bmp				TrialProc	TrialList	0	cvbn	-999999	16	66553	0	c	665	67218	16	-10	6	-2	4	2	2	2	1	5	-10	0	-2	0	4	4	2	2	-10	4
Hungry_Donkey_bar_English_2	122	1	<?xml version="1.0"?>\n<Clock xmlns:dt="urn:schemas-microsoft-com:datatypes"><Description dt:dt="string">E-Prime Primary Realtime Clock</Description><StartTime><Timestamp dt:dt="int">0</Timestamp><DateUtc dt:dt="string">2015-09-08T21:06:43Z</DateUtc></StartTime><FrequencyChanges><FrequencyChange><Frequency dt:dt="r8">3507666</Frequency><Timestamp dt:dt="r8">311846019756</Timestamp><Current dt:dt="r8">0</Current><DateUtc dt:dt="string">2015-09-08T21:06:43Z</DateUtc></FrequencyChange></FrequencyChanges></Clock>\n	Hungry_Donkey_bar_English_2-122-1	60.017	-33	1.0.0.18	1	-1685904002	Standard	2.0.10.353	2.0.10.353	09-08-2015	9/8/2015 9:06:43 PM	17:06:43	2.0.10.248	6	Bar63-37.bmp	58	3	?	12r_4g.bmp	0r_4g.bmp	3r_2g.bmp	0r_2g.bmp			3r_2g.bmp		TrialProc	TrialList	0	cvbn	-999999	16	69252	0	b	574	69826	18	-13	5	-2	4	1	2	5	1	6	-12	0	-3	0	4	4	2	2	-3	2
Hungry_Donkey_bar_English_2	122	1	<?xml version="1.0"?>\n<Clock xmlns:dt="urn:schemas-microsoft-com:datatypes"><Description dt:dt="string">E-Prime Primary Realtime Clock</Description><StartTime><Timestamp dt:dt="int">0</Timestamp><DateUtc dt:dt="string">2015-09-08T21:06:43Z</DateUtc></StartTime><FrequencyChanges><FrequencyChange><Frequency dt:dt="r8">3507666</Frequency><Timestamp dt:dt="r8">311846019756</Timestamp><Current dt:dt="r8">0</Current><DateUtc dt:dt="string">2015-09-08T21:06:43Z</DateUtc></FrequencyChange></FrequencyChanges></Clock>\n	Hungry_Donkey_bar_English_2-122-1	60.017	-33	1.0.0.18	1	-1685904002	Standard	2.0.10.353	2.0.10.353	09-08-2015	9/8/2015 9:06:43 PM	17:06:43	2.0.10.248	7	Bar63-37.bmp	63	2	?	0r_4g.bmp	0r_4g.bmp	0r_2g.bmp	0r_2g.bmp		0r_4g.bmp			TrialProc	TrialList	0	cvbn	-999999	16	71868	0	v	390	72258	22	-13	9	-2	8	1	2	9	1	7	0	0	0	0	4	4	2	2	0	4
Hungry_Donkey_bar_English_2	122	1	<?xml version="1.0"?>\n<Clock xmlns:dt="urn:schemas-microsoft-com:datatypes"><Description dt:dt="string">E-Prime Primary Realtime Clock</Description><StartTime><Timestamp dt:dt="int">0</Timestamp><DateUtc dt:dt="string">2015-09-08T21:06:43Z</DateUtc></StartTime><FrequencyChanges><FrequencyChange><Frequency dt:dt="r8">3507666</Frequency><Timestamp dt:dt="r8">311846019756</Timestamp><Current dt:dt="r8">0</Current><DateUtc dt:dt="string">2015-09-08T21:06:43Z</DateUtc></FrequencyChange></FrequencyChanges></Clock>\n	Hungry_Donkey_bar_English_2-122-1	60.017	-33	1.0.0.18	1	-1685904002	Standard	2.0.10.353	2.0.10.353	09-08-2015	9/8/2015 9:06:43 PM	17:06:43	2.0.10.248	8	Bar63-37.bmp	65	4	?	0r_4g.bmp	0r_4g.bmp	0r_2g.bmp	0r_2g.bmp				0r_2g.bmp	TrialProc	TrialList	0	cvbn	-999999	16	74284	0	n	422	74706	24	-13	11	-2	8	1	4	6	1	8	0	0	0	0	4	4	2	2	0	2
Hungry_Donkey_bar_English_2	122	1	<?xml version="1.0"?>\n<Clock xmlns:dt="urn:schemas-microsoft-com:datatypes"><Description dt:dt="string">E-Prime Primary Realtime Clock</Description><StartTime><Timestamp dt:dt="int">0</Timestamp><DateUtc dt:dt="string">2015-09-08T21:06:43Z</DateUtc></StartTime><FrequencyChanges><FrequencyChange><Frequency dt:dt="r8">3507666</Frequency><Timestamp dt:dt="r8">311846019756</Timestamp><Current dt:dt="r8">0</Current><DateUtc dt:dt="string">2015-09-08T21:06:43Z</DateUtc></FrequencyChange></FrequencyChanges></Clock>\n	Hungry_Donkey_bar_English_2-122-1	60.017	-33	1.0.0.18	1	-1685904002	Standard	2.0.10.353	2.0.10.353	09-08-2015	9/8/2015 9:06:43 PM	17:06:43	2.0.10.248	9	Bar63-37.bmp	57	1	?	8r_4g.bmp	50r_4g.bmp	1r_2g.bmp	10r_2g.bmp	8r_4g.bmp				TrialProc	TrialList	0	cvbn	-999999	16	76733	0	c	757	77490	28	-21	7	-6	8	1	4	1	1	9	-8	-50	-1	-10	4	4	2	2	-8	4
Hungry_Donkey_bar_English_2	122	1	<?xml version="1.0"?>\n<Clock xmlns:dt="urn:schemas-microsoft-com:datatypes"><Description dt:dt="string">E-Prime Primary Realtime Clock</Description><StartTime><Timestamp dt:dt="int">0</Timestamp><DateUtc dt:dt="string">2015-09-08T21:06:43Z</DateUtc></StartTime><FrequencyChanges><FrequencyChange><Frequency dt:dt="r8">3507666</Frequency><Timestamp dt:dt="r8">311846019756</Timestamp><Current dt:dt="r8">0</Current><DateUtc dt:dt="string">2015-09-08T21:06:43Z</DateUtc></FrequencyChange></FrequencyChanges></Clock>\n	Hungry_Donkey_bar_English_2-122-1	60.017	-33	1.0.0.18	1	-1685904002	Standard	2.0.10.353	2.0.10.353	09-08-2015	9/8/2015 9:06:43 PM	17:06:43	2.0.10.248	10	Bar63-37.bmp	57	3	?	10r_4g.bmp	0r_4g.bmp	2r_2g.bmp	0r_2g.bmp			2r_2g.bmp		TrialProc	TrialList	0	cvbn	-999999	16	79516	0	b	421	79937	30	-23	7	-6	8	1	4	4	1	10	-10	0	-2	0	4	4	2	2	-2	2
Hungry_Donkey_bar_English_2	122	1	<?xml version="1.0"?>\n<Clock xmlns:dt="urn:schemas-microsoft-com:datatypes"><Description dt:dt="string">E-Prime Primary Realtime Clock</Description><StartTime><Timestamp dt:dt="int">0</Timestamp><DateUtc dt:dt="string">2015-09-08T21:06:43Z</DateUtc></StartTime><FrequencyChanges><FrequencyChange><Frequency dt:dt="r8">3507666</Frequency><Timestamp dt:dt="r8">311846019756</Timestamp><Current dt:dt="r8">0</Current><DateUtc dt:dt="string">2015-09-08T21:06:43Z</DateUtc></FrequencyChange></FrequencyChanges></Clock>\n	Hungry_Donkey_bar_English_2-122-1	60.017	-33	1.0.0.18	1	-1685904002	Standard	2.0.10.353	2.0.10.353	09-08-2015	9/8/2015 9:06:43 PM	17:06:43	2.0.10.248	11	Bar63-37.bmp	58	4	?	10r_4g.bmp	0r_4g.bmp	2r_2g.bmp	0r_2g.bmp				0r_2g.bmp	TrialProc	TrialList	0	cvbn	-999999	16	81965	0	n	788	82753	32	-23	9	-6	8	1	6	4	2	11	-10	0	-2	0	4	4	2	2	0	2
Hungry_Donkey_bar_English_2	122	1	<?xml version="1.0"?>\n<Clock xmlns:dt="urn:schemas-microsoft-com:datatypes"><Description dt:dt="string">E-Prime Primary Realtime Clock</Description><StartTime><Timestamp dt:dt="int">0</Timestamp><DateUtc dt:dt="string">2015-09-08T21:06:43Z</DateUtc></StartTime><FrequencyChanges><FrequencyChange><Frequency dt:dt="r8">3507666</Frequency><Timestamp dt:dt="r8">311846019756</Timestamp><Current dt:dt="r8">0</Current><DateUtc dt:dt="string">2015-09-08T21:06:43Z</DateUtc></FrequencyChange></FrequencyChanges></Clock>\n	Hungry_Donkey_bar_English_2-122-1	60.017	-33	1.0.0.18	1	-1685904002	Standard	2.0.10.353	2.0.10.353	09-08-2015	9/8/2015 9:06:43 PM	17:06:43	2.0.10.248	12	Bar50-50.bmp	51	4	?	8r_4g.bmp	50r_4g.bmp	1r_2g.bmp	10r_2g.bmp				10r_2g.bmp	TrialProc	TrialList	0	cvbn	-999999	16	84781	0	n	900	85681	34	-33	1	-6	8	1	-2	1	2	12	-8	-50	-1	-10	4	4	2	2	-10	2
Hungry_Donkey_bar_English_2	122	1	<?xml version="1.0"?>\n<Clock xmlns:dt="urn:schemas-microsoft-com:datatypes"><Description dt:dt="string">E-Prime Primary Realtime Clock</Description><StartTime><Timestamp dt:dt="int">0</Timestamp><DateUtc dt:dt="string">2015-09-08T21:06:43Z</DateUtc></StartTime><FrequencyChanges><FrequencyChange><Frequency dt:dt="r8">3507666</Frequency><Timestamp dt:dt="r8">311846019756</Timestamp><Current dt:dt="r8">0</Current><DateUtc dt:dt="string">2015-09-08T21:06:43Z</DateUtc></FrequencyChange></FrequencyChanges></Clock>\n	Hungry_Donkey_bar_English_2-122-1	60.017	-33	1.0.0.18	1	-1685904002	Standard	2.0.10.353	2.0.10.353	09-08-2015	9/8/2015 9:06:43 PM	17:06:43	2.0.10.248	13	Bar50-50.bmp	54	2	?	10r_4g.bmp	0r_4g.bmp	2r_2g.bmp	0r_2g.bmp		0r_4g.bmp			TrialProc	TrialList	0	cvbn	-999999	16	87713	0	v	1728	89441	38	-33	5	-6	12	1	-2	3	2	13	-10	0	-2	0	4	4	2	2	0	4
Hungry_Donkey_bar_English_2	122	1	<?xml version="1.0"?>\n<Clock xmlns:dt="urn:schemas-microsoft-com:datatypes"><Description dt:dt="string">E-Prime Primary Realtime Clock</Description><StartTime><Timestamp dt:dt="int">0</Timestamp><DateUtc dt:dt="string">2015-09-08T21:06:43Z</DateUtc></StartTime><FrequencyChanges><FrequencyChange><Frequency dt:dt="r8">3507666</Frequency><Timestamp dt:dt="r8">311846019756</Timestamp><Current dt:dt="r8">0</Current><DateUtc dt:dt="string">2015-09-08T21:06:43Z</DateUtc></FrequencyChange></FrequencyChanges></Clock>\n	Hungry_Donkey_bar_English_2-122-1	60.017	-33	1.0.0.18	1	-1685904002	Standard	2.0.10.353	2.0.10.353	09-08-2015	9/8/2015 9:06:43 PM	17:06:43	2.0.10.248	14	Bar50-50.bmp	56	2	?	0r_4g.bmp	0r_4g.bmp	0r_2g.bmp	0r_2g.bmp		0r_4g.bmp			TrialProc	TrialList	0	cvbn	-999999	16	91479	0	v	346	91825	42	-33	9	-6	16	1	-2	10	2	14	0	0	0	0	4	4	2	2	0	4
Hungry_Donkey_bar_English_2	122	1	<?xml version="1.0"?>\n<Clock xmlns:dt="urn:schemas-microsoft-com:datatypes"><Description dt:dt="string">E-Prime Primary Realtime Clock</Description><StartTime><Timestamp dt:dt="int">0</Timestamp><DateUtc dt:dt="string">2015-09-08T21:06:43Z</DateUtc></StartTime><FrequencyChanges><FrequencyChange><Frequency dt:dt="r8">3507666</Frequency><Timestamp dt:dt="r8">311846019756</Timestamp><Current dt:dt="r8">0</Current><DateUtc dt:dt="string">2015-09-08T21:06:43Z</DateUtc></FrequencyChange></FrequencyChanges></Clock>\n	Hungry_Donkey_bar_English_2-122-1	60.017	-33	1.0.0.18	1	-1685904002	Standard	2.0.10.353	2.0.10.353	09-08-2015	9/8/2015 9:06:43 PM	17:06:43	2.0.10.248	15	Bar63-37.bmp	58	2	?	10r_4g.bmp	0r_4g.bmp	2r_2g.bmp	0r_2g.bmp		0r_4g.bmp			TrialProc	TrialList	0	cvbn	-999999	16	93862	0	v	347	94209	46	-33	13	-6	20	1	-2	2	2	15	-10	0	-2	0	4	4	2	2	0	4
Hungry_Donkey_bar_English_2	122	1	<?xml version="1.0"?>\n<Clock xmlns:dt="urn:schemas-microsoft-com:datatypes"><Description dt:dt="string">E-Prime Primary Realtime Clock</Description><StartTime><Timestamp dt:dt="int">0</Timestamp><DateUtc dt:dt="string">2015-09-08T21:06:43Z</DateUtc></StartTime><FrequencyChanges><FrequencyChange><Frequency dt:dt="r8">3507666</Frequency><Timestamp dt:dt="r8">311846019756</Timestamp><Current dt:dt="r8">0</Current><DateUtc dt:dt="string">2015-09-08T21:06:43Z</DateUtc></FrequencyChange></FrequencyChanges></Clock>\n	Hungry_Donkey_bar_English_2-122-1	60.017	-33	1.0.0.18	1	-1685904002	Standard	2.0.10.353	2.0.10.353	09-08-2015	9/8/2015 9:06:43 PM	17:06:43	2.0.10.248	16	Bar63-37.bmp	60	2	?	0r_4g.bmp	0r_4g.bmp	0r_2g.bmp	0r_2g.bmp		0r_4g.bmp			TrialProc	TrialList	0	cvbn	-999999	16	96244	0	v	333	96577	50	-33	17	-6	24	1	-2	6	2	16	0	0	0	0	4	4	2	2	0	4
Hungry_Donkey_bar_English_2	122	1	<?xml version="1.0"?>\n<Clock xmlns:dt="urn:schemas-microsoft-com:datatypes"><Description dt:dt="string">E-Prime Primary Realtime Clock</Description><StartTime><Timestamp dt:dt="int">0</Timestamp><DateUtc dt:dt="string">2015-09-08T21:06:43Z</DateUtc></StartTime><FrequencyChanges><FrequencyChange><Frequency dt:dt="r8">3507666</Frequency><Timestamp dt:dt="r8">311846019756</Timestamp><Current dt:dt="r8">0</Current><DateUtc dt:dt="string">2015-09-08T21:06:43Z</DateUtc></FrequencyChange></FrequencyChanges></Clock>\n	Hungry_Donkey_bar_English_2-122-1	60.017	-33	1.0.0.18	1	-1685904002	Standard	2.0.10.353	2.0.10.353	09-08-2015	9/8/2015 9:06:43 PM	17:06:43	2.0.10.248	17	Bar63-37.bmp	62	2	?	0r_4g.bmp	0r_4g.bmp	0r_2g.bmp	0r_2g.bmp		0r_4g.bmp			TrialProc	TrialList	0	cvbn	-999999	16	98610	0	v	607	99217	54	-33	21	-6	28	1	-2	9	2	17	0	0	0	0	4	4	2	2	0	4
Hungry_Donkey_bar_English_2	122	1	<?xml version="1.0"?>\n<Clock xmlns:dt="urn:schemas-microsoft-com:datatypes"><Description dt:dt="string">E-Prime Primary Realtime Clock</Description><StartTime><Timestamp dt:dt="int">0</Timestamp><DateUtc dt:dt="string">2015-09-08T21:06:43Z</DateUtc></StartTime><FrequencyChanges><FrequencyChange><Frequency dt:dt="r8">3507666</Frequency><Timestamp dt:dt="r8">311846019756</Timestamp><Current dt:dt="r8">0</Current><DateUtc dt:dt="string">2015-09-08T21:06:43Z</DateUtc></FrequencyChange></FrequencyChanges></Clock>\n	Hungry_Donkey_bar_English_2-122-1	60.017	-33	1.0.0.18	1	-1685904002	Standard	2.0.10.353	2.0.10.353	09-08-2015	9/8/2015 9:06:43 PM	17:06:43	2.0.10.248	18	Bar63-37.bmp	64	2	?	0r_4g.bmp	0r_4g.bmp	0r_2g.bmp	0r_2g.bmp		0r_4g.bmp			TrialProc	TrialList	0	cvbn	-999999	16	101243	0	v	325	101568	58	-33	25	-6	32	1	-2	8	2	18	0	0	0	0	4	4	2	2	0	4
Hungry_Donkey_bar_English_2	122	1	<?xml version="1.0"?>\n<Clock xmlns:dt="urn:schemas-microsoft-com:datatypes"><Description dt:dt="string">E-Prime Primary Realtime Clock</Description><StartTime><Timestamp dt:dt="int">0</Timestamp><DateUtc dt:dt="string">2015-09-08T21:06:43Z</DateUtc></StartTime><FrequencyChanges><FrequencyChange><Frequency dt:dt="r8">3507666</Frequency><Timestamp dt:dt="r8">311846019756</Timestamp><Current dt:dt="r8">0</Current><DateUtc dt:dt="string">2015-09-08T21:06:43Z</DateUtc></FrequencyChange></FrequencyChanges></Clock>\n	Hungry_Donkey_bar_English_2-122-1	60.017	-33	1.0.0.18	1	-1685904002	Standard	2.0.10.353	2.0.10.353	09-08-2015	9/8/2015 9:06:43 PM	17:06:43	2.0.10.248	19	Bar63-37.bmp	65	2	?	0r_4g.bmp	0r_4g.bmp	0r_2g.bmp	0r_2g.bmp		0r_4g.bmp			TrialProc	TrialList	0	cvbn	-999999	16	103592	0	v	344	103936	62	-33	29	-6	36	1	-2	7	2	19	0	0	0	0	4	4	2	2	0	4
Hungry_Donkey_bar_English_2	122	1	<?xml version="1.0"?>\n<Clock xmlns:dt="urn:schemas-microsoft-com:datatypes"><Description dt:dt="string">E-Prime Primary Realtime Clock</Description><StartTime><Timestamp dt:dt="int">0</Timestamp><DateUtc dt:dt="string">2015-09-08T21:06:43Z</DateUtc></StartTime><FrequencyChanges><FrequencyChange><Frequency dt:dt="r8">3507666</Frequency><Timestamp dt:dt="r8">311846019756</Timestamp><Current dt:dt="r8">0</Current><DateUtc dt:dt="string">2015-09-08T21:06:43Z</DateUtc></FrequencyChange></FrequencyChanges></Clock>\n	Hungry_Donkey_bar_English_2-122-1	60.017	-33	1.0.0.18	1	-1685904002	Standard	2.0.10.353	2.0.10.353	09-08-2015	9/8/2015 9:06:43 PM	17:06:43	2.0.10.248	20	Bar63-37.bmp	67	2	?	12r_4g.bmp	0r_4g.bmp	3r_2g.bmp	0r_2g.bmp		0r_4g.bmp			TrialProc	TrialList	0	cvbn	-999999	16	105975	0	v	457	106432	66	-33	33	-6	40	1	-2	5	2	20	-12	0	-3	0	4	4	2	2	0	4
Hungry_Donkey_bar_English_2	122	1	<?xml version="1.0"?>\n<Clock xmlns:dt="urn:schemas-microsoft-com:datatypes"><Description dt:dt="string">E-Prime Primary Realtime Clock</Description><StartTime><Timestamp dt:dt="int">0</Timestamp><DateUtc dt:dt="string">2015-09-08T21:06:43Z</DateUtc></StartTime><FrequencyChanges><FrequencyChange><Frequency dt:dt="r8">3507666</Frequency><Timestamp dt:dt="r8">311846019756</Timestamp><Current dt:dt="r8">0</Current><DateUtc dt:dt="string">2015-09-08T21:06:43Z</DateUtc></FrequencyChange></FrequencyChanges></Clock>\n	Hungry_Donkey_bar_English_2-122-1	60.017	-33	1.0.0.18	1	-1685904002	Standard	2.0.10.353	2.0.10.353	09-08-2015	9/8/2015 9:06:43 PM	17:06:43	2.0.10.248	21	Bar63-37.bmp	68	2	?	10r_4g.bmp	0r_4g.bmp	2r_2g.bmp	0r_2g.bmp		0r_4g.bmp			TrialProc	TrialList	0	cvbn	-999999	16	108458	0	v	390	108848	70	-33	37	-6	44	1	-2	3	3	21	-10	0	-2	0	4	4	2	2	0	4
Hungry_Donkey_bar_English_2	122	1	<?xml version="1.0"?>\n<Clock xmlns:dt="urn:schemas-microsoft-com:datatypes"><Description dt:dt="string">E-Prime Primary Realtime Clock</Description><StartTime><Timestamp dt:dt="int">0</Timestamp><DateUtc dt:dt="string">2015-09-08T21:06:43Z</DateUtc></StartTime><FrequencyChanges><FrequencyChange><Frequency dt:dt="r8">3507666</Frequency><Timestamp dt:dt="r8">311846019756</Timestamp><Current dt:dt="r8">0</Current><DateUtc dt:dt="string">2015-09-08T21:06:43Z</DateUtc></FrequencyChange></FrequencyChanges></Clock>\n	Hungry_Donkey_bar_English_2-122-1	60.017	-33	1.0.0.18	1	-1685904002	Standard	2.0.10.353	2.0.10.353	09-08-2015	9/8/2015 9:06:43 PM	17:06:43	2.0.10.248	22	Bar63-37.bmp	69	2	?	0r_4g.bmp	0r_4g.bmp	0r_2g.bmp	0r_2g.bmp		0r_4g.bmp			TrialProc	TrialList	0	cvbn	-999999	17	110874	0	v	326	111200	74	-33	41	-6	48	1	-2	9	3	22	0	0	0	0	4	4	2	2	0	4
Hungry_Donkey_bar_English_2	122	1	<?xml version="1.0"?>\n<Clock xmlns:dt="urn:schemas-microsoft-com:datatypes"><Description dt:dt="string">E-Prime Primary Realtime Clock</Description><StartTime><Timestamp dt:dt="int">0</Timestamp><DateUtc dt:dt="string">2015-09-08T21:06:43Z</DateUtc></StartTime><FrequencyChanges><FrequencyChange><Frequency dt:dt="r8">3507666</Frequency><Timestamp dt:dt="r8">311846019756</Timestamp><Current dt:dt="r8">0</Current><DateUtc dt:dt="string">2015-09-08T21:06:43Z</DateUtc></FrequencyChange></FrequencyChanges></Clock>\n	Hungry_Donkey_bar_English_2-122-1	60.017	-33	1.0.0.18	1	-1685904002	Standard	2.0.10.353	2.0.10.353	09-08-2015	9/8/2015 9:06:43 PM	17:06:43	2.0.10.248	23	Bar75-25.bmp	70	2	?	10r_4g.bmp	0r_4g.bmp	2r_2g.bmp	0r_2g.bmp		0r_4g.bmp			TrialProc	TrialList	0	cvbn	-999999	17	113240	0	v	328	113568	78	-33	45	-6	52	1	-2	4	3	23	-10	0	-2	0	4	4	2	2	0	4
Hungry_Donkey_bar_English_2	122	1	<?xml version="1.0"?>\n<Clock xmlns:dt="urn:schemas-microsoft-com:datatypes"><Description dt:dt="string">E-Prime Primary Realtime Clock</Description><StartTime><Timestamp dt:dt="int">0</Timestamp><DateUtc dt:dt="string">2015-09-08T21:06:43Z</DateUtc></StartTime><FrequencyChanges><FrequencyChange><Frequency dt:dt="r8">3507666</Frequency><Timestamp dt:dt="r8">311846019756</Timestamp><Current dt:dt="r8">0</Current><DateUtc dt:dt="string">2015-09-08T21:06:43Z</DateUtc></FrequencyChange></FrequencyChanges></Clock>\n	Hungry_Donkey_bar_English_2-122-1	60.017	-33	1.0.0.18	1	-1685904002	Standard	2.0.10.353	2.0.10.353	09-08-2015	9/8/2015 9:06:43 PM	17:06:43	2.0.10.248	24	Bar50-50.bmp	50	2	?	8r_4g.bmp	50r_4g.bmp	1r_2g.bmp	10r_2g.bmp		50r_4g.bmp			TrialProc	TrialList	0	cvbn	-999999	17	115606	0	v	378	115984	82	-83	-1	-6	6	1	-2	1	3	24	-8	-50	-1	-10	4	4	2	2	-50	4
Hungry_Donkey_bar_English_2	122	1	<?xml version="1.0"?>\n<Clock xmlns:dt="urn:schemas-microsoft-com:datatypes"><Description dt:dt="string">E-Prime Primary Realtime Clock</Description><StartTime><Timestamp dt:dt="int">0</Timestamp><DateUtc dt:dt="string">2015-09-08T21:06:43Z</DateUtc></StartTime><FrequencyChanges><FrequencyChange><Frequency dt:dt="r8">3507666</Frequency><Timestamp dt:dt="r8">311846019756</Timestamp><Current dt:dt="r8">0</Current><DateUtc dt:dt="string">2015-09-08T21:06:43Z</DateUtc></FrequencyChange></FrequencyChanges></Clock>\n	Hungry_Donkey_bar_English_2-122-1	60.017	-33	1.0.0.18	1	-1685904002	Standard	2.0.10.353	2.0.10.353	09-08-2015	9/8/2015 9:06:43 PM	17:06:43	2.0.10.248	25	Bar50-50.bmp	50	3	?	10r_4g.bmp	0r_4g.bmp	2r_2g.bmp	0r_2g.bmp			2r_2g.bmp		TrialProc	TrialList	0	cvbn	-999999	17	118022	0	b	442	118464	84	-85	-1	-6	6	1	-2	2	3	25	-10	0	-2	0	4	4	2	2	-2	2
Hungry_Donkey_bar_English_2	122	1	<?xml version="1.0"?>\n<Clock xmlns:dt="urn:schemas-microsoft-com:datatypes"><Description dt:dt="string">E-Prime Primary Realtime Clock</Description><StartTime><Timestamp dt:dt="int">0</Timestamp><DateUtc dt:dt="string">2015-09-08T21:06:43Z</DateUtc></StartTime><FrequencyChanges><FrequencyChange><Frequency dt:dt="r8">3507666</Frequency><Timestamp dt:dt="r8">311846019756</Timestamp><Current dt:dt="r8">0</Current><DateUtc dt:dt="string">2015-09-08T21:06:43Z</DateUtc></FrequencyChange></FrequencyChanges></Clock>\n	Hungry_Donkey_bar_English_2-122-1	60.017	-33	1.0.0.18	1	-1685904002	Standard	2.0.10.353	2.0.10.353	09-08-2015	9/8/2015 9:06:43 PM	17:06:43	2.0.10.248	26	Bar50-50.bmp	51	1	?	0r_4g.bmp	0r_4g.bmp	0r_2g.bmp	0r_2g.bmp	0r_4g.bmp				TrialProc	TrialList	0	cvbn	-999999	16	120488	0	c	472	120960	88	-85	3	-2	6	1	-2	8	3	26	0	0	0	0	4	4	2	2	0	4
Hungry_Donkey_bar_English_2	122	1	<?xml version="1.0"?>\n<Clock xmlns:dt="urn:schemas-microsoft-com:datatypes"><Description dt:dt="string">E-Prime Primary Realtime Clock</Description><StartTime><Timestamp dt:dt="int">0</Timestamp><DateUtc dt:dt="string">2015-09-08T21:06:43Z</DateUtc></StartTime><FrequencyChanges><FrequencyChange><Frequency dt:dt="r8">3507666</Frequency><Timestamp dt:dt="r8">311846019756</Timestamp><Current dt:dt="r8">0</Current><DateUtc dt:dt="string">2015-09-08T21:06:43Z</DateUtc></FrequencyChange></FrequencyChanges></Clock>\n	Hungry_Donkey_bar_English_2-122-1	60.017	-33	1.0.0.18	1	-1685904002	Standard	2.0.10.353	2.0.10.353	09-08-2015	9/8/2015 9:06:43 PM	17:06:43	2.0.10.248	27	Bar50-50.bmp	52	1	?	0r_4g.bmp	0r_4g.bmp	0r_2g.bmp	0r_2g.bmp	0r_4g.bmp				TrialProc	TrialList	0	cvbn	-999999	16	122987	0	c	68	123055	92	-85	7	2	6	1	-2	10	3	27	0	0	0	0	4	4	2	2	0	4
Hungry_Donkey_bar_English_2	122	1	<?xml version="1.0"?>\n<Clock xmlns:dt="urn:schemas-microsoft-com:datatypes"><Description dt:dt="string">E-Prime Primary Realtime Clock</Description><StartTime><Timestamp dt:dt="int">0</Timestamp><DateUtc dt:dt="string">2015-09-08T21:06:43Z</DateUtc></StartTime><FrequencyChanges><FrequencyChange><Frequency dt:dt="r8">3507666</Frequency><Timestamp dt:dt="r8">311846019756</Timestamp><Current dt:dt="r8">0</Current><DateUtc dt:dt="string">2015-09-08T21:06:43Z</DateUtc></FrequencyChange></FrequencyChanges></Clock>\n	Hungry_Donkey_bar_English_2-122-1	60.017	-33	1.0.0.18	1	-1685904002	Standard	2.0.10.353	2.0.10.353	09-08-2015	9/8/2015 9:06:43 PM	17:06:43	2.0.10.248	28	Bar50-50.bmp	53	1	?	0r_4g.bmp	0r_4g.bmp	0r_2g.bmp	0r_2g.bmp	0r_4g.bmp				TrialProc	TrialList	0	cvbn	-999999	16	125086	0	c	433	125519	96	-85	11	6	6	1	-2	7	3	28	0	0	0	0	4	4	2	2	0	4
Hungry_Donkey_bar_English_2	122	1	<?xml version="1.0"?>\n<Clock xmlns:dt="urn:schemas-microsoft-com:datatypes"><Description dt:dt="string">E-Prime Primary Realtime Clock</Description><StartTime><Timestamp dt:dt="int">0</Timestamp><DateUtc dt:dt="string">2015-09-08T21:06:43Z</DateUtc></StartTime><FrequencyChanges><FrequencyChange><Frequency dt:dt="r8">3507666</Frequency><Timestamp dt:dt="r8">311846019756</Timestamp><Current dt:dt="r8">0</Current><DateUtc dt:dt="string">2015-09-08T21:06:43Z</DateUtc></FrequencyChange></FrequencyChanges></Clock>\n	Hungry_Donkey_bar_English_2-122-1	60.017	-33	1.0.0.18	1	-1685904002	Standard	2.0.10.353	2.0.10.353	09-08-2015	9/8/2015 9:06:43 PM	17:06:43	2.0.10.248	29	Bar50-50.bmp	51	1	?	12r_4g.bmp	0r_4g.bmp	3r_2g.bmp	0r_2g.bmp	12r_4g.bmp				TrialProc	TrialList	0	cvbn	-999999	16	127552	0	c	351	127903	100	-97	3	-2	6	1	-2	5	3	29	-12	0	-3	0	4	4	2	2	-12	4
Hungry_Donkey_bar_English_2	122	1	<?xml version="1.0"?>\n<Clock xmlns:dt="urn:schemas-microsoft-com:datatypes"><Description dt:dt="string">E-Prime Primary Realtime Clock</Description><StartTime><Timestamp dt:dt="int">0</Timestamp><DateUtc dt:dt="string">2015-09-08T21:06:43Z</DateUtc></StartTime><FrequencyChanges><FrequencyChange><Frequency dt:dt="r8">3507666</Frequency><Timestamp dt:dt="r8">311846019756</Timestamp><Current dt:dt="r8">0</Current><DateUtc dt:dt="string">2015-09-08T21:06:43Z</DateUtc></FrequencyChange></FrequencyChanges></Clock>\n	Hungry_Donkey_bar_English_2-122-1	60.017	-33	1.0.0.18	1	-1685904002	Standard	2.0.10.353	2.0.10.353	09-08-2015	9/8/2015 9:06:43 PM	17:06:43	2.0.10.248	30	Bar50-50.bmp	51	4	?	0r_4g.bmp	0r_4g.bmp	0r_2g.bmp	0r_2g.bmp				0r_2g.bmp	TrialProc	TrialList	0	cvbn	-999999	16	129935	0	n	448	130383	102	-97	5	-2	6	1	0	6	3	30	0	0	0	0	4	4	2	2	0	2
Hungry_Donkey_bar_English_2	122	1	<?xml version="1.0"?>\n<Clock xmlns:dt="urn:schemas-microsoft-com:datatypes"><Description dt:dt="string">E-Prime Primary Realtime Clock</Description><StartTime><Timestamp dt:dt="int">0</Timestamp><DateUtc dt:dt="string">2015-09-08T21:06:43Z</DateUtc></StartTime><FrequencyChanges><FrequencyChange><Frequency dt:dt="r8">3507666</Frequency><Timestamp dt:dt="r8">311846019756</Timestamp><Current dt:dt="r8">0</Current><DateUtc dt:dt="string">2015-09-08T21:06:43Z</DateUtc></FrequencyChange></FrequencyChanges></Clock>\n	Hungry_Donkey_bar_English_2-122-1	60.017	-33	1.0.0.18	1	-1685904002	Standard	2.0.10.353	2.0.10.353	09-08-2015	9/8/2015 9:06:43 PM	17:06:43	2.0.10.248	31	Bar50-50.bmp	51	3	?	10r_4g.bmp	0r_4g.bmp	2r_2g.bmp	0r_2g.bmp			2r_2g.bmp		TrialProc	TrialList	0	cvbn	-999999	16	132417	0	b	62	132479	104	-99	5	-2	6	1	0	2	4	31	-10	0	-2	0	4	4	2	2	-2	2
Hungry_Donkey_bar_English_2	122	1	<?xml version="1.0"?>\n<Clock xmlns:dt="urn:schemas-microsoft-com:datatypes"><Description dt:dt="string">E-Prime Primary Realtime Clock</Description><StartTime><Timestamp dt:dt="int">0</Timestamp><DateUtc dt:dt="string">2015-09-08T21:06:43Z</DateUtc></StartTime><FrequencyChanges><FrequencyChange><Frequency dt:dt="r8">3507666</Frequency><Timestamp dt:dt="r8">311846019756</Timestamp><Current dt:dt="r8">0</Current><DateUtc dt:dt="string">2015-09-08T21:06:43Z</DateUtc></FrequencyChange></FrequencyChanges></Clock>\n	Hungry_Donkey_bar_English_2-122-1	60.017	-33	1.0.0.18	1	-1685904002	Standard	2.0.10.353	2.0.10.353	09-08-2015	9/8/2015 9:06:43 PM	17:06:43	2.0.10.248	32	Bar37-63.bmp	42	2	?	8r_4g.bmp	50r_4g.bmp	1r_2g.bmp	10r_2g.bmp		50r_4g.bmp			TrialProc	TrialList	0	cvbn	-999999	16	134517	0	v	442	134959	108	-149	-41	-2	-40	1	0	1	4	32	-8	-50	-1	-10	4	4	2	2	-50	4
Hungry_Donkey_bar_English_2	122	1	<?xml version="1.0"?>\n<Clock xmlns:dt="urn:schemas-microsoft-com:datatypes"><Description dt:dt="string">E-Prime Primary Realtime Clock</Description><StartTime><Timestamp dt:dt="int">0</Timestamp><DateUtc dt:dt="string">2015-09-08T21:06:43Z</DateUtc></StartTime><FrequencyChanges><FrequencyChange><Frequency dt:dt="r8">3507666</Frequency><Timestamp dt:dt="r8">311846019756</Timestamp><Current dt:dt="r8">0</Current><DateUtc dt:dt="string">2015-09-08T21:06:43Z</DateUtc></FrequencyChange></FrequencyChanges></Clock>\n	Hungry_Donkey_bar_English_2-122-1	60.017	-33	1.0.0.18	1	-1685904002	Standard	2.0.10.353	2.0.10.353	09-08-2015	9/8/2015 9:06:43 PM	17:06:43	2.0.10.248	33	Bar37-63.bmp	42	4	?	12r_4g.bmp	0r_4g.bmp	3r_2g.bmp	0r_2g.bmp				0r_2g.bmp	TrialProc	TrialList	0	cvbn	-999999	17	137000	0	n	391	137391	110	-149	-39	-2	-40	1	2	5	4	33	-12	0	-3	0	4	4	2	2	0	2
Hungry_Donkey_bar_English_2	122	1	<?xml version="1.0"?>\n<Clock xmlns:dt="urn:schemas-microsoft-com:datatypes"><Description dt:dt="string">E-Prime Primary Realtime Clock</Description><StartTime><Timestamp dt:dt="int">0</Timestamp><DateUtc dt:dt="string">2015-09-08T21:06:43Z</DateUtc></StartTime><FrequencyChanges><FrequencyChange><Frequency dt:dt="r8">3507666</Frequency><Timestamp dt:dt="r8">311846019756</Timestamp><Current dt:dt="r8">0</Current><DateUtc dt:dt="string">2015-09-08T21:06:43Z</DateUtc></FrequencyChange></FrequencyChanges></Clock>\n	Hungry_Donkey_bar_English_2-122-1	60.017	-33	1.0.0.18	1	-1685904002	Standard	2.0.10.353	2.0.10.353	09-08-2015	9/8/2015 9:06:43 PM	17:06:43	2.0.10.248	34	Bar37-63.bmp	43	4	?	0r_4g.bmp	0r_4g.bmp	0r_2g.bmp	0r_2g.bmp				0r_2g.bmp	TrialProc	TrialList	0	cvbn	-999999	16	139415	0	n	376	139791	112	-149	-37	-2	-40	1	4	8	4	34	0	0	0	0	4	4	2	2	0	2
Hungry_Donkey_bar_English_2	122	1	<?xml version="1.0"?>\n<Clock xmlns:dt="urn:schemas-microsoft-com:datatypes"><Description dt:dt="string">E-Prime Primary Realtime Clock</Description><StartTime><Timestamp dt:dt="int">0</Timestamp><DateUtc dt:dt="string">2015-09-08T21:06:43Z</DateUtc></StartTime><FrequencyChanges><FrequencyChange><Frequency dt:dt="r8">3507666</Frequency><Timestamp dt:dt="r8">311846019756</Timestamp><Current dt:dt="r8">0</Current><DateUtc dt:dt="string">2015-09-08T21:06:43Z</DateUtc></FrequencyChange></FrequencyChanges></Clock>\n	Hungry_Donkey_bar_English_2-122-1	60.017	-33	1.0.0.18	1	-1685904002	Standard	2.0.10.353	2.0.10.353	09-08-2015	9/8/2015 9:06:43 PM	17:06:43	2.0.10.248	35	Bar37-63.bmp	43	4	?	10r_4g.bmp	0r_4g.bmp	2r_2g.bmp	0r_2g.bmp				0r_2g.bmp	TrialProc	TrialList	0	cvbn	-999999	16	141815	0	n	536	142351	114	-149	-35	-2	-40	1	6	4	4	35	-10	0	-2	0	4	4	2	2	0	2
Hungry_Donkey_bar_English_2	122	1	<?xml version="1.0"?>\n<Clock xmlns:dt="urn:schemas-microsoft-com:datatypes"><Description dt:dt="string">E-Prime Primary Realtime Clock</Description><StartTime><Timestamp dt:dt="int">0</Timestamp><DateUtc dt:dt="string">2015-09-08T21:06:43Z</DateUtc></StartTime><FrequencyChanges><FrequencyChange><Frequency dt:dt="r8">3507666</Frequency><Timestamp dt:dt="r8">311846019756</Timestamp><Current dt:dt="r8">0</Current><DateUtc dt:dt="string">2015-09-08T21:06:43Z</DateUtc></FrequencyChange></FrequencyChanges></Clock>\n	Hungry_Donkey_bar_English_2-122-1	60.017	-33	1.0.0.18	1	-1685904002	Standard	2.0.10.353	2.0.10.353	09-08-2015	9/8/2015 9:06:43 PM	17:06:43	2.0.10.248	36	Bar50-50.bmp	44	4	?	0r_4g.bmp	0r_4g.bmp	0r_2g.bmp	0r_2g.bmp				0r_2g.bmp	TrialProc	TrialList	0	cvbn	-999999	16	144381	0	n	274	144655	116	-149	-33	-2	-40	1	8	6	4	36	0	0	0	0	4	4	2	2	0	2
Hungry_Donkey_bar_English_2	122	1	<?xml version="1.0"?>\n<Clock xmlns:dt="urn:schemas-microsoft-com:datatypes"><Description dt:dt="string">E-Prime Primary Realtime Clock</Description><StartTime><Timestamp dt:dt="int">0</Timestamp><DateUtc dt:dt="string">2015-09-08T21:06:43Z</DateUtc></StartTime><FrequencyChanges><FrequencyChange><Frequency dt:dt="r8">3507666</Frequency><Timestamp dt:dt="r8">311846019756</Timestamp><Current dt:dt="r8">0</Current><DateUtc dt:dt="string">2015-09-08T21:06:43Z</DateUtc></FrequencyChange></FrequencyChanges></Clock>\n	Hungry_Donkey_bar_English_2-122-1	60.017	-33	1.0.0.18	1	-1685904002	Standard	2.0.10.353	2.0.10.353	09-08-2015	9/8/2015 9:06:43 PM	17:06:43	2.0.10.248	37	Bar50-50.bmp	44	4	?	10r_4g.bmp	0r_4g.bmp	2r_2g.bmp	0r_2g.bmp				0r_2g.bmp	TrialProc	TrialList	0	cvbn	-999999	16	146680	0	n	342	147022	118	-149	-31	-2	-40	1	10	3	4	37	-10	0	-2	0	4	4	2	2	0	2
Hungry_Donkey_bar_English_2	122	1	<?xml version="1.0"?>\n<Clock xmlns:dt="urn:schemas-microsoft-com:datatypes"><Description dt:dt="string">E-Prime Primary Realtime Clock</Description><StartTime><Timestamp dt:dt="int">0</Timestamp><DateUtc dt:dt="string">2015-09-08T21:06:43Z</DateUtc></StartTime><FrequencyChanges><FrequencyChange><Frequency dt:dt="r8">3507666</Frequency><Timestamp dt:dt="r8">311846019756</Timestamp><Current dt:dt="r8">0</Current><DateUtc dt:dt="string">2015-09-08T21:06:43Z</DateUtc></FrequencyChange></FrequencyChanges></Clock>\n	Hungry_Donkey_bar_English_2-122-1	60.017	-33	1.0.0.18	1	-1685904002	Standard	2.0.10.353	2.0.10.353	09-08-2015	9/8/2015 9:06:43 PM	17:06:43	2.0.10.248	38	Bar50-50.bmp	45	4	?	0r_4g.bmp	0r_4g.bmp	0r_2g.bmp	0r_2g.bmp				0r_2g.bmp	TrialProc	TrialList	0	cvbn	-999999	16	149063	0	n	103	149166	120	-149	-29	-2	-40	1	12	10	4	38	0	0	0	0	4	4	2	2	0	2
Hungry_Donkey_bar_English_2	122	1	<?xml version="1.0"?>\n<Clock xmlns:dt="urn:schemas-microsoft-com:datatypes"><Description dt:dt="string">E-Prime Primary Realtime Clock</Description><StartTime><Timestamp dt:dt="int">0</Timestamp><DateUtc dt:dt="string">2015-09-08T21:06:43Z</DateUtc></StartTime><FrequencyChanges><FrequencyChange><Frequency dt:dt="r8">3507666</Frequency><Timestamp dt:dt="r8">311846019756</Timestamp><Current dt:dt="r8">0</Current><DateUtc dt:dt="string">2015-09-08T21:06:43Z</DateUtc></FrequencyChange></FrequencyChanges></Clock>\n	Hungry_Donkey_bar_English_2-122-1	60.017	-33	1.0.0.18	1	-1685904002	Standard	2.0.10.353	2.0.10.353	09-08-2015	9/8/2015 9:06:43 PM	17:06:43	2.0.10.248	39	Bar50-50.bmp	45	4	?	0r_4g.bmp	0r_4g.bmp	0r_2g.bmp	0r_2g.bmp				0r_2g.bmp	TrialProc	TrialList	0	cvbn	-999999	16	151195	0	n	275	151470	122	-149	-27	-2	-40	1	14	7	4	39	0	0	0	0	4	4	2	2	0	2
Hungry_Donkey_bar_English_2	122	1	<?xml version="1.0"?>\n<Clock xmlns:dt="urn:schemas-microsoft-com:datatypes"><Description dt:dt="string">E-Prime Primary Realtime Clock</Description><StartTime><Timestamp dt:dt="int">0</Timestamp><DateUtc dt:dt="string">2015-09-08T21:06:43Z</DateUtc></StartTime><FrequencyChanges><FrequencyChange><Frequency dt:dt="r8">3507666</Frequency><Timestamp dt:dt="r8">311846019756</Timestamp><Current dt:dt="r8">0</Current><DateUtc dt:dt="string">2015-09-08T21:06:43Z</DateUtc></FrequencyChange></FrequencyChanges></Clock>\n	Hungry_Donkey_bar_English_2-122-1	60.017	-33	1.0.0.18	1	-1685904002	Standard	2.0.10.353	2.0.10.353	09-08-2015	9/8/2015 9:06:43 PM	17:06:43	2.0.10.248	40	Bar50-50.bmp	45	4	?	0r_4g.bmp	0r_4g.bmp	0r_2g.bmp	0r_2g.bmp				0r_2g.bmp	TrialProc	TrialList	0	cvbn	-999999	16	153495	0	n	343	153838	124	-149	-25	-2	-40	1	16	9	4	40	0	0	0	0	4	4	2	2	0	2
Hungry_Donkey_bar_English_2	122	1	<?xml version="1.0"?>\n<Clock xmlns:dt="urn:schemas-microsoft-com:datatypes"><Description dt:dt="string">E-Prime Primary Realtime Clock</Description><StartTime><Timestamp dt:dt="int">0</Timestamp><DateUtc dt:dt="string">2015-09-08T21:06:43Z</DateUtc></StartTime><FrequencyChanges><FrequencyChange><Frequency dt:dt="r8">3507666</Frequency><Timestamp dt:dt="r8">311846019756</Timestamp><Current dt:dt="r8">0</Current><DateUtc dt:dt="string">2015-09-08T21:06:43Z</DateUtc></FrequencyChange></FrequencyChanges></Clock>\n	Hungry_Donkey_bar_English_2-122-1	60.017	-33	1.0.0.18	1	-1685904002	Standard	2.0.10.353	2.0.10.353	09-08-2015	9/8/2015 9:06:43 PM	17:06:43	2.0.10.248	41	Bar50-50.bmp	46	4	?	0r_4g.bmp	0r_4g.bmp	0r_2g.bmp	0r_2g.bmp				0r_2g.bmp	TrialProc	TrialList	0	cvbn	-999999	16	155877	0	n	313	156190	126	-149	-23	-2	-40	1	18	9	5	41	0	0	0	0	4	4	2	2	0	2
Hungry_Donkey_bar_English_2	122	1	<?xml version="1.0"?>\n<Clock xmlns:dt="urn:schemas-microsoft-com:datatypes"><Description dt:dt="string">E-Prime Primary Realtime Clock</Description><StartTime><Timestamp dt:dt="int">0</Timestamp><DateUtc dt:dt="string">2015-09-08T21:06:43Z</DateUtc></StartTime><FrequencyChanges><FrequencyChange><Frequency dt:dt="r8">3507666</Frequency><Timestamp dt:dt="r8">311846019756</Timestamp><Current dt:dt="r8">0</Current><DateUtc dt:dt="string">2015-09-08T21:06:43Z</DateUtc></FrequencyChange></FrequencyChanges></Clock>\n	Hungry_Donkey_bar_English_2-122-1	60.017	-33	1.0.0.18	1	-1685904002	Standard	2.0.10.353	2.0.10.353	09-08-2015	9/8/2015 9:06:43 PM	17:06:43	2.0.10.248	42	Bar50-50.bmp	46	4	?	0r_4g.bmp	0r_4g.bmp	0r_2g.bmp	0r_2g.bmp				0r_2g.bmp	TrialProc	TrialList	0	cvbn	-999999	16	158227	0	n	299	158526	128	-149	-21	-2	-40	1	20	8	5	42	0	0	0	0	4	4	2	2	0	2
Hungry_Donkey_bar_English_2	122	1	<?xml version="1.0"?>\n<Clock xmlns:dt="urn:schemas-microsoft-com:datatypes"><Description dt:dt="string">E-Prime Primary Realtime Clock</Description><StartTime><Timestamp dt:dt="int">0</Timestamp><DateUtc dt:dt="string">2015-09-08T21:06:43Z</DateUtc></StartTime><FrequencyChanges><FrequencyChange><Frequency dt:dt="r8">3507666</Frequency><Timestamp dt:dt="r8">311846019756</Timestamp><Current dt:dt="r8">0</Current><DateUtc dt:dt="string">2015-09-08T21:06:43Z</DateUtc></FrequencyChange></FrequencyChanges></Clock>\n	Hungry_Donkey_bar_English_2-122-1	60.017	-33	1.0.0.18	1	-1685904002	Standard	2.0.10.353	2.0.10.353	09-08-2015	9/8/2015 9:06:43 PM	17:06:43	2.0.10.248	43	Bar50-50.bmp	45	4	?	8r_4g.bmp	50r_4g.bmp	1r_2g.bmp	10r_2g.bmp				10r_2g.bmp	TrialProc	TrialList	0	cvbn	-999999	17	160560	0	n	286	160846	130	-159	-29	-2	-40	1	12	1	5	43	-8	-50	-1	-10	4	4	2	2	-10	2
Hungry_Donkey_bar_English_2	122	1	<?xml version="1.0"?>\n<Clock xmlns:dt="urn:schemas-microsoft-com:datatypes"><Description dt:dt="string">E-Prime Primary Realtime Clock</Description><StartTime><Timestamp dt:dt="int">0</Timestamp><DateUtc dt:dt="string">2015-09-08T21:06:43Z</DateUtc></StartTime><FrequencyChanges><FrequencyChange><Frequency dt:dt="r8">3507666</Frequency><Timestamp dt:dt="r8">311846019756</Timestamp><Current dt:dt="r8">0</Current><DateUtc dt:dt="string">2015-09-08T21:06:43Z</DateUtc></FrequencyChange></FrequencyChanges></Clock>\n	Hungry_Donkey_bar_English_2-122-1	60.017	-33	1.0.0.18	1	-1685904002	Standard	2.0.10.353	2.0.10.353	09-08-2015	9/8/2015 9:06:43 PM	17:06:43	2.0.10.248	44	Bar50-50.bmp	46	1	?	0r_4g.bmp	0r_4g.bmp	0r_2g.bmp	0r_2g.bmp	0r_4g.bmp				TrialProc	TrialList	0	cvbn	-999999	17	162876	0	c	450	163326	134	-159	-25	2	-40	1	12	10	5	44	0	0	0	0	4	4	2	2	0	4
Hungry_Donkey_bar_English_2	122	1	<?xml version="1.0"?>\n<Clock xmlns:dt="urn:schemas-microsoft-com:datatypes"><Description dt:dt="string">E-Prime Primary Realtime Clock</Description><StartTime><Timestamp dt:dt="int">0</Timestamp><DateUtc dt:dt="string">2015-09-08T21:06:43Z</DateUtc></StartTime><FrequencyChanges><FrequencyChange><Frequency dt:dt="r8">3507666</Frequency><Timestamp dt:dt="r8">311846019756</Timestamp><Current dt:dt="r8">0</Current><DateUtc dt:dt="string">2015-09-08T21:06:43Z</DateUtc></FrequencyChange></FrequencyChanges></Clock>\n	Hungry_Donkey_bar_English_2-122-1	60.017	-33	1.0.0.18	1	-1685904002	Standard	2.0.10.353	2.0.10.353	09-08-2015	9/8/2015 9:06:43 PM	17:06:43	2.0.10.248	45	Bar50-50.bmp	45	1	?	12r_4g.bmp	0r_4g.bmp	3r_2g.bmp	0r_2g.bmp	12r_4g.bmp				TrialProc	TrialList	0	cvbn	-999999	16	165358	0	c	304	165662	138	-171	-33	-6	-40	1	12	5	5	45	-12	0	-3	0	4	4	2	2	-12	4
Hungry_Donkey_bar_English_2	122	1	<?xml version="1.0"?>\n<Clock xmlns:dt="urn:schemas-microsoft-com:datatypes"><Description dt:dt="string">E-Prime Primary Realtime Clock</Description><StartTime><Timestamp dt:dt="int">0</Timestamp><DateUtc dt:dt="string">2015-09-08T21:06:43Z</DateUtc></StartTime><FrequencyChanges><FrequencyChange><Frequency dt:dt="r8">3507666</Frequency><Timestamp dt:dt="r8">311846019756</Timestamp><Current dt:dt="r8">0</Current><DateUtc dt:dt="string">2015-09-08T21:06:43Z</DateUtc></FrequencyChange></FrequencyChanges></Clock>\n	Hungry_Donkey_bar_English_2-122-1	60.017	-33	1.0.0.18	1	-1685904002	Standard	2.0.10.353	2.0.10.353	09-08-2015	9/8/2015 9:06:43 PM	17:06:43	2.0.10.248	46	Bar50-50.bmp	45	3	?	10r_4g.bmp	0r_4g.bmp	2r_2g.bmp	0r_2g.bmp			2r_2g.bmp		TrialProc	TrialList	0	cvbn	-999999	16	167691	0	b	386	168077	140	-173	-33	-6	-40	1	12	3	5	46	-10	0	-2	0	4	4	2	2	-2	2
Hungry_Donkey_bar_English_2	122	1	<?xml version="1.0"?>\n<Clock xmlns:dt="urn:schemas-microsoft-com:datatypes"><Description dt:dt="string">E-Prime Primary Realtime Clock</Description><StartTime><Timestamp dt:dt="int">0</Timestamp><DateUtc dt:dt="string">2015-09-08T21:06:43Z</DateUtc></StartTime><FrequencyChanges><FrequencyChange><Frequency dt:dt="r8">3507666</Frequency><Timestamp dt:dt="r8">311846019756</Timestamp><Current dt:dt="r8">0</Current><DateUtc dt:dt="string">2015-09-08T21:06:43Z</DateUtc></FrequencyChange></FrequencyChanges></Clock>\n	Hungry_Donkey_bar_English_2-122-1	60.017	-33	1.0.0.18	1	-1685904002	Standard	2.0.10.353	2.0.10.353	09-08-2015	9/8/2015 9:06:43 PM	17:06:43	2.0.10.248	47	Bar50-50.bmp	45	4	?	10r_4g.bmp	0r_4g.bmp	2r_2g.bmp	0r_2g.bmp				0r_2g.bmp	TrialProc	TrialList	0	cvbn	-999999	16	170107	0	n	658	170765	142	-173	-31	-6	-40	1	14	4	5	47	-10	0	-2	0	4	4	2	2	0	2
Hungry_Donkey_bar_English_2	122	1	<?xml version="1.0"?>\n<Clock xmlns:dt="urn:schemas-microsoft-com:datatypes"><Description dt:dt="string">E-Prime Primary Realtime Clock</Description><StartTime><Timestamp dt:dt="int">0</Timestamp><DateUtc dt:dt="string">2015-09-08T21:06:43Z</DateUtc></StartTime><FrequencyChanges><FrequencyChange><Frequency dt:dt="r8">3507666</Frequency><Timestamp dt:dt="r8">311846019756</Timestamp><Current dt:dt="r8">0</Current><DateUtc dt:dt="string">2015-09-08T21:06:43Z</DateUtc></FrequencyChange></FrequencyChanges></Clock>\n	Hungry_Donkey_bar_English_2-122-1	60.017	-33	1.0.0.18	1	-1685904002	Standard	2.0.10.353	2.0.10.353	09-08-2015	9/8/2015 9:06:43 PM	17:06:43	2.0.10.248	48	Bar50-50.bmp	45	4	?	10r_4g.bmp	0r_4g.bmp	2r_2g.bmp	0r_2g.bmp				0r_2g.bmp	TrialProc	TrialList	0	cvbn	-999999	16	172789	0	n	56	172845	144	-173	-29	-6	-40	1	16	2	5	48	-10	0	-2	0	4	4	2	2	0	2
Hungry_Donkey_bar_English_2	122	1	<?xml version="1.0"?>\n<Clock xmlns:dt="urn:schemas-microsoft-com:datatypes"><Description dt:dt="string">E-Prime Primary Realtime Clock</Description><StartTime><Timestamp dt:dt="int">0</Timestamp><DateUtc dt:dt="string">2015-09-08T21:06:43Z</DateUtc></StartTime><FrequencyChanges><FrequencyChange><Frequency dt:dt="r8">3507666</Frequency><Timestamp dt:dt="r8">311846019756</Timestamp><Current dt:dt="r8">0</Current><DateUtc dt:dt="string">2015-09-08T21:06:43Z</DateUtc></FrequencyChange></FrequencyChanges></Clock>\n	Hungry_Donkey_bar_English_2-122-1	60.017	-33	1.0.0.18	1	-1685904002	Standard	2.0.10.353	2.0.10.353	09-08-2015	9/8/2015 9:06:43 PM	17:06:43	2.0.10.248	49	Bar50-50.bmp	46	4	?	0r_4g.bmp	0r_4g.bmp	0r_2g.bmp	0r_2g.bmp				0r_2g.bmp	TrialProc	TrialList	0	cvbn	-999999	16	174872	0	n	245	175117	146	-173	-27	-6	-40	1	18	6	5	49	0	0	0	0	4	4	2	2	0	2
Hungry_Donkey_bar_English_2	122	1	<?xml version="1.0"?>\n<Clock xmlns:dt="urn:schemas-microsoft-com:datatypes"><Description dt:dt="string">E-Prime Primary Realtime Clock</Description><StartTime><Timestamp dt:dt="int">0</Timestamp><DateUtc dt:dt="string">2015-09-08T21:06:43Z</DateUtc></StartTime><FrequencyChanges><FrequencyChange><Frequency dt:dt="r8">3507666</Frequency><Timestamp dt:dt="r8">311846019756</Timestamp><Current dt:dt="r8">0</Current><DateUtc dt:dt="string">2015-09-08T21:06:43Z</DateUtc></FrequencyChange></FrequencyChanges></Clock>\n	Hungry_Donkey_bar_English_2-122-1	60.017	-33	1.0.0.18	1	-1685904002	Standard	2.0.10.353	2.0.10.353	09-08-2015	9/8/2015 9:06:43 PM	17:06:43	2.0.10.248	50	Bar50-50.bmp	46	4	?	0r_4g.bmp	0r_4g.bmp	0r_2g.bmp	0r_2g.bmp				0r_2g.bmp	TrialProc	TrialList	0	cvbn	-999999	16	177155	0	n	346	177501	148	-173	-25	-6	-40	1	20	7	5	50	0	0	0	0	4	4	2	2	0	2
Hungry_Donkey_bar_English_2	122	1	<?xml version="1.0"?>\n<Clock xmlns:dt="urn:schemas-microsoft-com:datatypes"><Description dt:dt="string">E-Prime Primary Realtime Clock</Description><StartTime><Timestamp dt:dt="int">0</Timestamp><DateUtc dt:dt="string">2015-09-08T21:06:43Z</DateUtc></StartTime><FrequencyChanges><FrequencyChange><Frequency dt:dt="r8">3507666</Frequency><Timestamp dt:dt="r8">311846019756</Timestamp><Current dt:dt="r8">0</Current><DateUtc dt:dt="string">2015-09-08T21:06:43Z</DateUtc></FrequencyChange></FrequencyChanges></Clock>\n	Hungry_Donkey_bar_English_2-122-1	60.017	-33	1.0.0.18	1	-1685904002	Standard	2.0.10.353	2.0.10.353	09-08-2015	9/8/2015 9:06:43 PM	17:06:43	2.0.10.248	51	Bar50-50.bmp	45	4	?	8r_4g.bmp	50r_4g.bmp	1r_2g.bmp	10r_2g.bmp				10r_2g.bmp	TrialProc	TrialList	0	cvbn	-999999	16	179537	0	n	268	179805	150	-183	-33	-6	-40	1	12	1	6	51	-8	-50	-1	-10	4	4	2	2	-10	2
Hungry_Donkey_bar_English_2	122	1	<?xml version="1.0"?>\n<Clock xmlns:dt="urn:schemas-microsoft-com:datatypes"><Description dt:dt="string">E-Prime Primary Realtime Clock</Description><StartTime><Timestamp dt:dt="int">0</Timestamp><DateUtc dt:dt="string">2015-09-08T21:06:43Z</DateUtc></StartTime><FrequencyChanges><FrequencyChange><Frequency dt:dt="r8">3507666</Frequency><Timestamp dt:dt="r8">311846019756</Timestamp><Current dt:dt="r8">0</Current><DateUtc dt:dt="string">2015-09-08T21:06:43Z</DateUtc></FrequencyChange></FrequencyChanges></Clock>\n	Hungry_Donkey_bar_English_2-122-1	60.017	-33	1.0.0.18	1	-1685904002	Standard	2.0.10.353	2.0.10.353	09-08-2015	9/8/2015 9:06:43 PM	17:06:43	2.0.10.248	52	Bar50-50.bmp	45	3	?	10r_4g.bmp	0r_4g.bmp	2r_2g.bmp	0r_2g.bmp			2r_2g.bmp		TrialProc	TrialList	0	cvbn	-999999	16	181837	0	b	368	182205	152	-185	-33	-6	-40	1	12	3	6	52	-10	0	-2	0	4	4	2	2	-2	2
Hungry_Donkey_bar_English_2	122	1	<?xml version="1.0"?>\n<Clock xmlns:dt="urn:schemas-microsoft-com:datatypes"><Description dt:dt="string">E-Prime Primary Realtime Clock</Description><StartTime><Timestamp dt:dt="int">0</Timestamp><DateUtc dt:dt="string">2015-09-08T21:06:43Z</DateUtc></StartTime><FrequencyChanges><FrequencyChange><Frequency dt:dt="r8">3507666</Frequency><Timestamp dt:dt="r8">311846019756</Timestamp><Current dt:dt="r8">0</Current><DateUtc dt:dt="string">2015-09-08T21:06:43Z</DateUtc></FrequencyChange></FrequencyChanges></Clock>\n	Hungry_Donkey_bar_English_2-122-1	60.017	-33	1.0.0.18	1	-1685904002	Standard	2.0.10.353	2.0.10.353	09-08-2015	9/8/2015 9:06:43 PM	17:06:43	2.0.10.248	53	Bar50-50.bmp	44	1	?	12r_4g.bmp	0r_4g.bmp	3r_2g.bmp	0r_2g.bmp	12r_4g.bmp				TrialProc	TrialList	0	cvbn	-999999	16	184236	0	c	257	184493	156	-197	-41	-14	-40	1	12	5	6	53	-12	0	-3	0	4	4	2	2	-12	4
Hungry_Donkey_bar_English_2	122	1	<?xml version="1.0"?>\n<Clock xmlns:dt="urn:schemas-microsoft-com:datatypes"><Description dt:dt="string">E-Prime Primary Realtime Clock</Description><StartTime><Timestamp dt:dt="int">0</Timestamp><DateUtc dt:dt="string">2015-09-08T21:06:43Z</DateUtc></StartTime><FrequencyChanges><FrequencyChange><Frequency dt:dt="r8">3507666</Frequency><Timestamp dt:dt="r8">311846019756</Timestamp><Current dt:dt="r8">0</Current><DateUtc dt:dt="string">2015-09-08T21:06:43Z</DateUtc></FrequencyChange></FrequencyChanges></Clock>\n	Hungry_Donkey_bar_English_2-122-1	60.017	-33	1.0.0.18	1	-1685904002	Standard	2.0.10.353	2.0.10.353	09-08-2015	9/8/2015 9:06:43 PM	17:06:43	2.0.10.248	54	Bar50-50.bmp	45	2	?	0r_4g.bmp	0r_4g.bmp	0r_2g.bmp	0r_2g.bmp		0r_4g.bmp			TrialProc	TrialList	0	cvbn	-999999	16	186519	0	v	934	187453	160	-197	-37	-14	-36	1	12	8	6	54	0	0	0	0	4	4	2	2	0	4
Hungry_Donkey_bar_English_2	122	1	<?xml version="1.0"?>\n<Clock xmlns:dt="urn:schemas-microsoft-com:datatypes"><Description dt:dt="string">E-Prime Primary Realtime Clock</Description><StartTime><Timestamp dt:dt="int">0</Timestamp><DateUtc dt:dt="string">2015-09-08T21:06:43Z</DateUtc></StartTime><FrequencyChanges><FrequencyChange><Frequency dt:dt="r8">3507666</Frequency><Timestamp dt:dt="r8">311846019756</Timestamp><Current dt:dt="r8">0</Current><DateUtc dt:dt="string">2015-09-08T21:06:43Z</DateUtc></FrequencyChange></FrequencyChanges></Clock>\n	Hungry_Donkey_bar_English_2-122-1	60.017	-33	1.0.0.18	1	-1685904002	Standard	2.0.10.353	2.0.10.353	09-08-2015	9/8/2015 9:06:43 PM	17:06:43	2.0.10.248	55	Bar50-50.bmp	45	2	?	0r_4g.bmp	0r_4g.bmp	0r_2g.bmp	0r_2g.bmp		0r_4g.bmp			TrialProc	TrialList	0	cvbn	-999999	16	189485	0	v	303	189788	164	-197	-33	-14	-32	1	12	10	6	55	0	0	0	0	4	4	2	2	0	4
Hungry_Donkey_bar_English_2	122	1	<?xml version="1.0"?>\n<Clock xmlns:dt="urn:schemas-microsoft-com:datatypes"><Description dt:dt="string">E-Prime Primary Realtime Clock</Description><StartTime><Timestamp dt:dt="int">0</Timestamp><DateUtc dt:dt="string">2015-09-08T21:06:43Z</DateUtc></StartTime><FrequencyChanges><FrequencyChange><Frequency dt:dt="r8">3507666</Frequency><Timestamp dt:dt="r8">311846019756</Timestamp><Current dt:dt="r8">0</Current><DateUtc dt:dt="string">2015-09-08T21:06:43Z</DateUtc></FrequencyChange></FrequencyChanges></Clock>\n	Hungry_Donkey_bar_English_2-122-1	60.017	-33	1.0.0.18	1	-1685904002	Standard	2.0.10.353	2.0.10.353	09-08-2015	9/8/2015 9:06:43 PM	17:06:43	2.0.10.248	56	Bar50-50.bmp	46	2	?	0r_4g.bmp	0r_4g.bmp	0r_2g.bmp	0r_2g.bmp		0r_4g.bmp			TrialProc	TrialList	0	cvbn	-999999	16	191817	0	v	131	191948	168	-197	-29	-14	-28	1	12	7	6	56	0	0	0	0	4	4	2	2	0	4
Hungry_Donkey_bar_English_2	122	1	<?xml version="1.0"?>\n<Clock xmlns:dt="urn:schemas-microsoft-com:datatypes"><Description dt:dt="string">E-Prime Primary Realtime Clock</Description><StartTime><Timestamp dt:dt="int">0</Timestamp><DateUtc dt:dt="string">2015-09-08T21:06:43Z</DateUtc></StartTime><FrequencyChanges><FrequencyChange><Frequency dt:dt="r8">3507666</Frequency><Timestamp dt:dt="r8">311846019756</Timestamp><Current dt:dt="r8">0</Current><DateUtc dt:dt="string">2015-09-08T21:06:43Z</DateUtc></FrequencyChange></FrequencyChanges></Clock>\n	Hungry_Donkey_bar_English_2-122-1	60.017	-33	1.0.0.18	1	-1685904002	Standard	2.0.10.353	2.0.10.353	09-08-2015	9/8/2015 9:06:43 PM	17:06:43	2.0.10.248	57	Bar50-50.bmp	47	2	?	0r_4g.bmp	0r_4g.bmp	0r_2g.bmp	0r_2g.bmp		0r_4g.bmp			TrialProc	TrialList	0	cvbn	-999999	16	193983	0	v	189	194172	172	-197	-25	-14	-24	1	12	9	6	57	0	0	0	0	4	4	2	2	0	4
Hungry_Donkey_bar_English_2	122	1	<?xml version="1.0"?>\n<Clock xmlns:dt="urn:schemas-microsoft-com:datatypes"><Description dt:dt="string">E-Prime Primary Realtime Clock</Description><StartTime><Timestamp dt:dt="int">0</Timestamp><DateUtc dt:dt="string">2015-09-08T21:06:43Z</DateUtc></StartTime><FrequencyChanges><FrequencyChange><Frequency dt:dt="r8">3507666</Frequency><Timestamp dt:dt="r8">311846019756</Timestamp><Current dt:dt="r8">0</Current><DateUtc dt:dt="string">2015-09-08T21:06:43Z</DateUtc></FrequencyChange></FrequencyChanges></Clock>\n	Hungry_Donkey_bar_English_2-122-1	60.017	-33	1.0.0.18	1	-1685904002	Standard	2.0.10.353	2.0.10.353	09-08-2015	9/8/2015 9:06:43 PM	17:06:43	2.0.10.248	58	Bar50-50.bmp	47	2	?	10r_4g.bmp	0r_4g.bmp	2r_2g.bmp	0r_2g.bmp		0r_4g.bmp			TrialProc	TrialList	0	cvbn	-999999	16	196199	0	v	277	196476	176	-197	-21	-14	-20	1	12	4	6	58	-10	0	-2	0	4	4	2	2	0	4
Hungry_Donkey_bar_English_2	122	1	<?xml version="1.0"?>\n<Clock xmlns:dt="urn:schemas-microsoft-com:datatypes"><Description dt:dt="string">E-Prime Primary Realtime Clock</Description><StartTime><Timestamp dt:dt="int">0</Timestamp><DateUtc dt:dt="string">2015-09-08T21:06:43Z</DateUtc></StartTime><FrequencyChanges><FrequencyChange><Frequency dt:dt="r8">3507666</Frequency><Timestamp dt:dt="r8">311846019756</Timestamp><Current dt:dt="r8">0</Current><DateUtc dt:dt="string">2015-09-08T21:06:43Z</DateUtc></FrequencyChange></FrequencyChanges></Clock>\n	Hungry_Donkey_bar_English_2-122-1	60.017	-33	1.0.0.18	1	-1685904002	Standard	2.0.10.353	2.0.10.353	09-08-2015	9/8/2015 9:06:43 PM	17:06:43	2.0.10.248	59	Bar50-50.bmp	48	2	?	0r_4g.bmp	0r_4g.bmp	0r_2g.bmp	0r_2g.bmp		0r_4g.bmp			TrialProc	TrialList	0	cvbn	-999999	16	198515	0	v	377	198892	180	-197	-17	-14	-16	1	12	6	6	59	0	0	0	0	4	4	2	2	0	4
Hungry_Donkey_bar_English_2	122	1	<?xml version="1.0"?>\n<Clock xmlns:dt="urn:schemas-microsoft-com:datatypes"><Description dt:dt="string">E-Prime Primary Realtime Clock</Description><StartTime><Timestamp dt:dt="int">0</Timestamp><DateUtc dt:dt="string">2015-09-08T21:06:43Z</DateUtc></StartTime><FrequencyChanges><FrequencyChange><Frequency dt:dt="r8">3507666</Frequency><Timestamp dt:dt="r8">311846019756</Timestamp><Current dt:dt="r8">0</Current><DateUtc dt:dt="string">2015-09-08T21:06:43Z</DateUtc></FrequencyChange></FrequencyChanges></Clock>\n	Hungry_Donkey_bar_English_2-122-1	60.017	-33	1.0.0.18	1	-1685904002	Standard	2.0.10.353	2.0.10.353	09-08-2015	9/8/2015 9:06:43 PM	17:06:43	2.0.10.248	60	Bar50-50.bmp	48	2	?	10r_4g.bmp	0r_4g.bmp	2r_2g.bmp	0r_2g.bmp		0r_4g.bmp			TrialProc	TrialList	0	cvbn	-999999	16	200931	0	v	329	201260	184	-197	-13	-14	-12	1	12	2	6	60	-10	0	-2	0	4	4	2	2	0	4
Hungry_Donkey_bar_English_2	122	1	<?xml version="1.0"?>\n<Clock xmlns:dt="urn:schemas-microsoft-com:datatypes"><Description dt:dt="string">E-Prime Primary Realtime Clock</Description><StartTime><Timestamp dt:dt="int">0</Timestamp><DateUtc dt:dt="string">2015-09-08T21:06:43Z</DateUtc></StartTime><FrequencyChanges><FrequencyChange><Frequency dt:dt="r8">3507666</Frequency><Timestamp dt:dt="r8">311846019756</Timestamp><Current dt:dt="r8">0</Current><DateUtc dt:dt="string">2015-09-08T21:06:43Z</DateUtc></FrequencyChange></FrequencyChanges></Clock>\n	Hungry_Donkey_bar_English_2-122-1	60.017	-33	1.0.0.18	1	-1685904002	Standard	2.0.10.353	2.0.10.353	09-08-2015	9/8/2015 9:06:43 PM	17:06:43	2.0.10.248	61	Bar50-50.bmp	49	2	?	12r_4g.bmp	0r_4g.bmp	3r_2g.bmp	0r_2g.bmp		0r_4g.bmp			TrialProc	TrialList	0	cvbn	-999999	16	203297	0	v	299	203596	188	-197	-9	-14	-8	1	12	5	7	61	-12	0	-3	0	4	4	2	2	0	4
Hungry_Donkey_bar_English_2	122	1	<?xml version="1.0"?>\n<Clock xmlns:dt="urn:schemas-microsoft-com:datatypes"><Description dt:dt="string">E-Prime Primary Realtime Clock</Description><StartTime><Timestamp dt:dt="int">0</Timestamp><DateUtc dt:dt="string">2015-09-08T21:06:43Z</DateUtc></StartTime><FrequencyChanges><FrequencyChange><Frequency dt:dt="r8">3507666</Frequency><Timestamp dt:dt="r8">311846019756</Timestamp><Current dt:dt="r8">0</Current><DateUtc dt:dt="string">2015-09-08T21:06:43Z</DateUtc></FrequencyChange></FrequencyChanges></Clock>\n	Hungry_Donkey_bar_English_2-122-1	60.017	-33	1.0.0.18	1	-1685904002	Standard	2.0.10.353	2.0.10.353	09-08-2015	9/8/2015 9:06:43 PM	17:06:43	2.0.10.248	62	Bar50-50.bmp	49	2	?	0r_4g.bmp	0r_4g.bmp	0r_2g.bmp	0r_2g.bmp		0r_4g.bmp			TrialProc	TrialList	0	cvbn	-999999	16	205630	0	v	270	205900	192	-197	-5	-14	-4	1	12	10	7	62	0	0	0	0	4	4	2	2	0	4
Hungry_Donkey_bar_English_2	122	1	<?xml version="1.0"?>\n<Clock xmlns:dt="urn:schemas-microsoft-com:datatypes"><Description dt:dt="string">E-Prime Primary Realtime Clock</Description><StartTime><Timestamp dt:dt="int">0</Timestamp><DateUtc dt:dt="string">2015-09-08T21:06:43Z</DateUtc></StartTime><FrequencyChanges><FrequencyChange><Frequency dt:dt="r8">3507666</Frequency><Timestamp dt:dt="r8">311846019756</Timestamp><Current dt:dt="r8">0</Current><DateUtc dt:dt="string">2015-09-08T21:06:43Z</DateUtc></FrequencyChange></FrequencyChanges></Clock>\n	Hungry_Donkey_bar_English_2-122-1	60.017	-33	1.0.0.18	1	-1685904002	Standard	2.0.10.353	2.0.10.353	09-08-2015	9/8/2015 9:06:43 PM	17:06:43	2.0.10.248	63	Bar50-50.bmp	50	2	?	0r_4g.bmp	0r_4g.bmp	0r_2g.bmp	0r_2g.bmp		0r_4g.bmp			TrialProc	TrialList	0	cvbn	-999999	16	207929	0	v	339	208268	196	-197	-1	-14	0	1	12	7	7	63	0	0	0	0	4	4	2	2	0	4
Hungry_Donkey_bar_English_2	122	1	<?xml version="1.0"?>\n<Clock xmlns:dt="urn:schemas-microsoft-com:datatypes"><Description dt:dt="string">E-Prime Primary Realtime Clock</Description><StartTime><Timestamp dt:dt="int">0</Timestamp><DateUtc dt:dt="string">2015-09-08T21:06:43Z</DateUtc></StartTime><FrequencyChanges><FrequencyChange><Frequency dt:dt="r8">3507666</Frequency><Timestamp dt:dt="r8">311846019756</Timestamp><Current dt:dt="r8">0</Current><DateUtc dt:dt="string">2015-09-08T21:06:43Z</DateUtc></FrequencyChange></FrequencyChanges></Clock>\n	Hungry_Donkey_bar_English_2-122-1	60.017	-33	1.0.0.18	1	-1685904002	Standard	2.0.10.353	2.0.10.353	09-08-2015	9/8/2015 9:06:43 PM	17:06:43	2.0.10.248	64	Bar50-50.bmp	50	2	?	0r_4g.bmp	0r_4g.bmp	0r_2g.bmp	0r_2g.bmp		0r_4g.bmp			TrialProc	TrialList	0	cvbn	-999999	16	210295	0	v	324	210619	200	-197	3	-14	4	1	12	6	7	64	0	0	0	0	4	4	2	2	0	4
Hungry_Donkey_bar_English_2	122	1	<?xml version="1.0"?>\n<Clock xmlns:dt="urn:schemas-microsoft-com:datatypes"><Description dt:dt="string">E-Prime Primary Realtime Clock</Description><StartTime><Timestamp dt:dt="int">0</Timestamp><DateUtc dt:dt="string">2015-09-08T21:06:43Z</DateUtc></StartTime><FrequencyChanges><FrequencyChange><Frequency dt:dt="r8">3507666</Frequency><Timestamp dt:dt="r8">311846019756</Timestamp><Current dt:dt="r8">0</Current><DateUtc dt:dt="string">2015-09-08T21:06:43Z</DateUtc></FrequencyChange></FrequencyChanges></Clock>\n	Hungry_Donkey_bar_English_2-122-1	60.017	-33	1.0.0.18	1	-1685904002	Standard	2.0.10.353	2.0.10.353	09-08-2015	9/8/2015 9:06:43 PM	17:06:43	2.0.10.248	65	Bar50-50.bmp	51	2	?	10r_4g.bmp	0r_4g.bmp	2r_2g.bmp	0r_2g.bmp		0r_4g.bmp			TrialProc	TrialList	0	cvbn	-999999	16	212645	0	v	550	213195	204	-197	7	-14	8	1	12	2	7	65	-10	0	-2	0	4	4	2	2	0	4
Hungry_Donkey_bar_English_2	122	1	<?xml version="1.0"?>\n<Clock xmlns:dt="urn:schemas-microsoft-com:datatypes"><Description dt:dt="string">E-Prime Primary Realtime Clock</Description><StartTime><Timestamp dt:dt="int">0</Timestamp><DateUtc dt:dt="string">2015-09-08T21:06:43Z</DateUtc></StartTime><FrequencyChanges><FrequencyChange><Frequency dt:dt="r8">3507666</Frequency><Timestamp dt:dt="r8">311846019756</Timestamp><Current dt:dt="r8">0</Current><DateUtc dt:dt="string">2015-09-08T21:06:43Z</DateUtc></FrequencyChange></FrequencyChanges></Clock>\n	Hungry_Donkey_bar_English_2-122-1	60.017	-33	1.0.0.18	1	-1685904002	Standard	2.0.10.353	2.0.10.353	09-08-2015	9/8/2015 9:06:43 PM	17:06:43	2.0.10.248	66	Bar50-50.bmp	51	2	?	0r_4g.bmp	0r_4g.bmp	0r_2g.bmp	0r_2g.bmp		0r_4g.bmp			TrialProc	TrialList	0	cvbn	-999999	16	215227	0	v	432	215659	208	-197	11	-14	12	1	12	8	7	66	0	0	0	0	4	4	2	2	0	4
Hungry_Donkey_bar_English_2	122	1	<?xml version="1.0"?>\n<Clock xmlns:dt="urn:schemas-microsoft-com:datatypes"><Description dt:dt="string">E-Prime Primary Realtime Clock</Description><StartTime><Timestamp dt:dt="int">0</Timestamp><DateUtc dt:dt="string">2015-09-08T21:06:43Z</DateUtc></StartTime><FrequencyChanges><FrequencyChange><Frequency dt:dt="r8">3507666</Frequency><Timestamp dt:dt="r8">311846019756</Timestamp><Current dt:dt="r8">0</Current><DateUtc dt:dt="string">2015-09-08T21:06:43Z</DateUtc></FrequencyChange></FrequencyChanges></Clock>\n	Hungry_Donkey_bar_English_2-122-1	60.017	-33	1.0.0.18	1	-1685904002	Standard	2.0.10.353	2.0.10.353	09-08-2015	9/8/2015 9:06:43 PM	17:06:43	2.0.10.248	67	Bar50-50.bmp	52	2	?	0r_4g.bmp	0r_4g.bmp	0r_2g.bmp	0r_2g.bmp		0r_4g.bmp			TrialProc	TrialList	0	cvbn	-999999	16	217693	0	v	350	218043	212	-197	15	-14	16	1	12	9	7	67	0	0	0	0	4	4	2	2	0	4
Hungry_Donkey_bar_English_2	122	1	<?xml version="1.0"?>\n<Clock xmlns:dt="urn:schemas-microsoft-com:datatypes"><Description dt:dt="string">E-Prime Primary Realtime Clock</Description><StartTime><Timestamp dt:dt="int">0</Timestamp><DateUtc dt:dt="string">2015-09-08T21:06:43Z</DateUtc></StartTime><FrequencyChanges><FrequencyChange><Frequency dt:dt="r8">3507666</Frequency><Timestamp dt:dt="r8">311846019756</Timestamp><Current dt:dt="r8">0</Current><DateUtc dt:dt="string">2015-09-08T21:06:43Z</DateUtc></FrequencyChange></FrequencyChanges></Clock>\n	Hungry_Donkey_bar_English_2-122-1	60.017	-33	1.0.0.18	1	-1685904002	Standard	2.0.10.353	2.0.10.353	09-08-2015	9/8/2015 9:06:43 PM	17:06:43	2.0.10.248	68	Bar50-50.bmp	52	2	?	10r_4g.bmp	0r_4g.bmp	2r_2g.bmp	0r_2g.bmp		0r_4g.bmp			TrialProc	TrialList	0	cvbn	-999999	16	220076	0	v	431	220507	216	-197	19	-14	20	1	12	4	7	68	-10	0	-2	0	4	4	2	2	0	4
Hungry_Donkey_bar_English_2	122	1	<?xml version="1.0"?>\n<Clock xmlns:dt="urn:schemas-microsoft-com:datatypes"><Description dt:dt="string">E-Prime Primary Realtime Clock</Description><StartTime><Timestamp dt:dt="int">0</Timestamp><DateUtc dt:dt="string">2015-09-08T21:06:43Z</DateUtc></StartTime><FrequencyChanges><FrequencyChange><Frequency dt:dt="r8">3507666</Frequency><Timestamp dt:dt="r8">311846019756</Timestamp><Current dt:dt="r8">0</Current><DateUtc dt:dt="string">2015-09-08T21:06:43Z</DateUtc></FrequencyChange></FrequencyChanges></Clock>\n	Hungry_Donkey_bar_English_2-122-1	60.017	-33	1.0.0.18	1	-1685904002	Standard	2.0.10.353	2.0.10.353	09-08-2015	9/8/2015 9:06:43 PM	17:06:43	2.0.10.248	69	Bar50-50.bmp	47	2	?	8r_4g.bmp	50r_4g.bmp	1r_2g.bmp	10r_2g.bmp		50r_4g.bmp			TrialProc	TrialList	0	cvbn	-999999	16	222542	0	v	557	223099	220	-247	-27	-14	-26	1	12	1	7	69	-8	-50	-1	-10	4	4	2	2	-50	4
Hungry_Donkey_bar_English_2	122	1	<?xml version="1.0"?>\n<Clock xmlns:dt="urn:schemas-microsoft-com:datatypes"><Description dt:dt="string">E-Prime Primary Realtime Clock</Description><StartTime><Timestamp dt:dt="int">0</Timestamp><DateUtc dt:dt="string">2015-09-08T21:06:43Z</DateUtc></StartTime><FrequencyChanges><FrequencyChange><Frequency dt:dt="r8">3507666</Frequency><Timestamp dt:dt="r8">311846019756</Timestamp><Current dt:dt="r8">0</Current><DateUtc dt:dt="string">2015-09-08T21:06:43Z</DateUtc></FrequencyChange></FrequencyChanges></Clock>\n	Hungry_Donkey_bar_English_2-122-1	60.017	-33	1.0.0.18	1	-1685904002	Standard	2.0.10.353	2.0.10.353	09-08-2015	9/8/2015 9:06:43 PM	17:06:43	2.0.10.248	70	Bar50-50.bmp	47	4	?	10r_4g.bmp	0r_4g.bmp	2r_2g.bmp	0r_2g.bmp				0r_2g.bmp	TrialProc	TrialList	0	cvbn	-999999	17	225125	0	n	118	225243	222	-247	-25	-14	-26	1	14	3	7	70	-10	0	-2	0	4	4	2	2	0	2
Hungry_Donkey_bar_English_2	122	1	<?xml version="1.0"?>\n<Clock xmlns:dt="urn:schemas-microsoft-com:datatypes"><Description dt:dt="string">E-Prime Primary Realtime Clock</Description><StartTime><Timestamp dt:dt="int">0</Timestamp><DateUtc dt:dt="string">2015-09-08T21:06:43Z</DateUtc></StartTime><FrequencyChanges><FrequencyChange><Frequency dt:dt="r8">3507666</Frequency><Timestamp dt:dt="r8">311846019756</Timestamp><Current dt:dt="r8">0</Current><DateUtc dt:dt="string">2015-09-08T21:06:43Z</DateUtc></FrequencyChange></FrequencyChanges></Clock>\n	Hungry_Donkey_bar_English_2-122-1	60.017	-33	1.0.0.18	1	-1685904002	Standard	2.0.10.353	2.0.10.353	09-08-2015	9/8/2015 9:06:43 PM	17:06:43	2.0.10.248	71	Bar50-50.bmp	48	4	?	10r_4g.bmp	0r_4g.bmp	2r_2g.bmp	0r_2g.bmp				0r_2g.bmp	TrialProc	TrialList	0	cvbn	-999999	16	227274	0	n	305	227579	224	-247	-23	-14	-26	1	16	2	8	71	-10	0	-2	0	4	4	2	2	0	2
Hungry_Donkey_bar_English_2	122	1	<?xml version="1.0"?>\n<Clock xmlns:dt="urn:schemas-microsoft-com:datatypes"><Description dt:dt="string">E-Prime Primary Realtime Clock</Description><StartTime><Timestamp dt:dt="int">0</Timestamp><DateUtc dt:dt="string">2015-09-08T21:06:43Z</DateUtc></StartTime><FrequencyChanges><FrequencyChange><Frequency dt:dt="r8">3507666</Frequency><Timestamp dt:dt="r8">311846019756</Timestamp><Current dt:dt="r8">0</Current><DateUtc dt:dt="string">2015-09-08T21:06:43Z</DateUtc></FrequencyChange></FrequencyChanges></Clock>\n	Hungry_Donkey_bar_English_2-122-1	60.017	-33	1.0.0.18	1	-1685904002	Standard	2.0.10.353	2.0.10.353	09-08-2015	9/8/2015 9:06:43 PM	17:06:43	2.0.10.248	72	Bar50-50.bmp	48	4	?	0r_4g.bmp	0r_4g.bmp	0r_2g.bmp	0r_2g.bmp				0r_2g.bmp	TrialProc	TrialList	0	cvbn	-999999	16	229607	0	n	308	229915	226	-247	-21	-14	-26	1	18	9	8	72	0	0	0	0	4	4	2	2	0	2
Hungry_Donkey_bar_English_2	122	1	<?xml version="1.0"?>\n<Clock xmlns:dt="urn:schemas-microsoft-com:datatypes"><Description dt:dt="string">E-Prime Primary Realtime Clock</Description><StartTime><Timestamp dt:dt="int">0</Timestamp><DateUtc dt:dt="string">2015-09-08T21:06:43Z</DateUtc></StartTime><FrequencyChanges><FrequencyChange><Frequency dt:dt="r8">3507666</Frequency><Timestamp dt:dt="r8">311846019756</Timestamp><Current dt:dt="r8">0</Current><DateUtc dt:dt="string">2015-09-08T21:06:43Z</DateUtc></FrequencyChange></FrequencyChanges></Clock>\n	Hungry_Donkey_bar_English_2-122-1	60.017	-33	1.0.0.18	1	-1685904002	Standard	2.0.10.353	2.0.10.353	09-08-2015	9/8/2015 9:06:43 PM	17:06:43	2.0.10.248	73	Bar50-50.bmp	48	4	?	0r_4g.bmp	0r_4g.bmp	0r_2g.bmp	0r_2g.bmp				0r_2g.bmp	TrialProc	TrialList	0	cvbn	-999999	16	231939	0	n	312	232251	228	-247	-19	-14	-26	1	20	6	8	73	0	0	0	0	4	4	2	2	0	2
Hungry_Donkey_bar_English_2	122	1	<?xml version="1.0"?>\n<Clock xmlns:dt="urn:schemas-microsoft-com:datatypes"><Description dt:dt="string">E-Prime Primary Realtime Clock</Description><StartTime><Timestamp dt:dt="int">0</Timestamp><DateUtc dt:dt="string">2015-09-08T21:06:43Z</DateUtc></StartTime><FrequencyChanges><FrequencyChange><Frequency dt:dt="r8">3507666</Frequency><Timestamp dt:dt="r8">311846019756</Timestamp><Current dt:dt="r8">0</Current><DateUtc dt:dt="string">2015-09-08T21:06:43Z</DateUtc></FrequencyChange></FrequencyChanges></Clock>\n	Hungry_Donkey_bar_English_2-122-1	60.017	-33	1.0.0.18	1	-1685904002	Standard	2.0.10.353	2.0.10.353	09-08-2015	9/8/2015 9:06:43 PM	17:06:43	2.0.10.248	74	Bar50-50.bmp	48	4	?	10r_4g.bmp	0r_4g.bmp	2r_2g.bmp	0r_2g.bmp				0r_2g.bmp	TrialProc	TrialList	0	cvbn	-999999	16	234289	0	n	313	234602	230	-247	-17	-14	-26	1	22	4	8	74	-10	0	-2	0	4	4	2	2	0	2
Hungry_Donkey_bar_English_2	122	1	<?xml version="1.0"?>\n<Clock xmlns:dt="urn:schemas-microsoft-com:datatypes"><Description dt:dt="string">E-Prime Primary Realtime Clock</Description><StartTime><Timestamp dt:dt="int">0</Timestamp><DateUtc dt:dt="string">2015-09-08T21:06:43Z</DateUtc></StartTime><FrequencyChanges><FrequencyChange><Frequency dt:dt="r8">3507666</Frequency><Timestamp dt:dt="r8">311846019756</Timestamp><Current dt:dt="r8">0</Current><DateUtc dt:dt="string">2015-09-08T21:06:43Z</DateUtc></FrequencyChange></FrequencyChanges></Clock>\n	Hungry_Donkey_bar_English_2-122-1	60.017	-33	1.0.0.18	1	-1685904002	Standard	2.0.10.353	2.0.10.353	09-08-2015	9/8/2015 9:06:43 PM	17:06:43	2.0.10.248	75	Bar50-50.bmp	48	4	?	10r_4g.bmp	0r_4g.bmp	2r_2g.bmp	0r_2g.bmp				0r_2g.bmp	TrialProc	TrialList	0	cvbn	-999999	16	236638	0	n	300	236938	232	-247	-15	-14	-26	1	24	3	8	75	-10	0	-2	0	4	4	2	2	0	2
Hungry_Donkey_bar_English_2	122	1	<?xml version="1.0"?>\n<Clock xmlns:dt="urn:schemas-microsoft-com:datatypes"><Description dt:dt="string">E-Prime Primary Realtime Clock</Description><StartTime><Timestamp dt:dt="int">0</Timestamp><DateUtc dt:dt="string">2015-09-08T21:06:43Z</DateUtc></StartTime><FrequencyChanges><FrequencyChange><Frequency dt:dt="r8">3507666</Frequency><Timestamp dt:dt="r8">311846019756</Timestamp><Current dt:dt="r8">0</Current><DateUtc dt:dt="string">2015-09-08T21:06:43Z</DateUtc></FrequencyChange></FrequencyChanges></Clock>\n	Hungry_Donkey_bar_English_2-122-1	60.017	-33	1.0.0.18	1	-1685904002	Standard	2.0.10.353	2.0.10.353	09-08-2015	9/8/2015 9:06:43 PM	17:06:43	2.0.10.248	76	Bar50-50.bmp	49	4	?	0r_4g.bmp	0r_4g.bmp	0r_2g.bmp	0r_2g.bmp				0r_2g.bmp	TrialProc	TrialList	0	cvbn	-999999	16	238971	0	n	303	239274	234	-247	-13	-14	-26	1	26	10	8	76	0	0	0	0	4	4	2	2	0	2
Hungry_Donkey_bar_English_2	122	1	<?xml version="1.0"?>\n<Clock xmlns:dt="urn:schemas-microsoft-com:datatypes"><Description dt:dt="string">E-Prime Primary Realtime Clock</Description><StartTime><Timestamp dt:dt="int">0</Timestamp><DateUtc dt:dt="string">2015-09-08T21:06:43Z</DateUtc></StartTime><FrequencyChanges><FrequencyChange><Frequency dt:dt="r8">3507666</Frequency><Timestamp dt:dt="r8">311846019756</Timestamp><Current dt:dt="r8">0</Current><DateUtc dt:dt="string">2015-09-08T21:06:43Z</DateUtc></FrequencyChange></FrequencyChanges></Clock>\n	Hungry_Donkey_bar_English_2-122-1	60.017	-33	1.0.0.18	1	-1685904002	Standard	2.0.10.353	2.0.10.353	09-08-2015	9/8/2015 9:06:43 PM	17:06:43	2.0.10.248	77	Bar50-50.bmp	48	4	?	8r_4g.bmp	50r_4g.bmp	1r_2g.bmp	10r_2g.bmp				10r_2g.bmp	TrialProc	TrialList	0	cvbn	-999999	16	241303	0	n	291	241594	236	-257	-21	-14	-26	1	18	1	8	77	-8	-50	-1	-10	4	4	2	2	-10	2
Hungry_Donkey_bar_English_2	122	1	<?xml version="1.0"?>\n<Clock xmlns:dt="urn:schemas-microsoft-com:datatypes"><Description dt:dt="string">E-Prime Primary Realtime Clock</Description><StartTime><Timestamp dt:dt="int">0</Timestamp><DateUtc dt:dt="string">2015-09-08T21:06:43Z</DateUtc></StartTime><FrequencyChanges><FrequencyChange><Frequency dt:dt="r8">3507666</Frequency><Timestamp dt:dt="r8">311846019756</Timestamp><Current dt:dt="r8">0</Current><DateUtc dt:dt="string">2015-09-08T21:06:43Z</DateUtc></FrequencyChange></FrequencyChanges></Clock>\n	Hungry_Donkey_bar_English_2-122-1	60.017	-33	1.0.0.18	1	-1685904002	Standard	2.0.10.353	2.0.10.353	09-08-2015	9/8/2015 9:06:43 PM	17:06:43	2.0.10.248	78	Bar50-50.bmp	48	2	?	0r_4g.bmp	0r_4g.bmp	0r_2g.bmp	0r_2g.bmp		0r_4g.bmp			TrialProc	TrialList	0	cvbn	-999999	16	243619	0	v	263	243882	240	-257	-17	-14	-22	1	18	7	8	78	0	0	0	0	4	4	2	2	0	4
Hungry_Donkey_bar_English_2	122	1	<?xml version="1.0"?>\n<Clock xmlns:dt="urn:schemas-microsoft-com:datatypes"><Description dt:dt="string">E-Prime Primary Realtime Clock</Description><StartTime><Timestamp dt:dt="int">0</Timestamp><DateUtc dt:dt="string">2015-09-08T21:06:43Z</DateUtc></StartTime><FrequencyChanges><FrequencyChange><Frequency dt:dt="r8">3507666</Frequency><Timestamp dt:dt="r8">311846019756</Timestamp><Current dt:dt="r8">0</Current><DateUtc dt:dt="string">2015-09-08T21:06:43Z</DateUtc></FrequencyChange></FrequencyChanges></Clock>\n	Hungry_Donkey_bar_English_2-122-1	60.017	-33	1.0.0.18	1	-1685904002	Standard	2.0.10.353	2.0.10.353	09-08-2015	9/8/2015 9:06:43 PM	17:06:43	2.0.10.248	79	Bar50-50.bmp	49	2	?	12r_4g.bmp	0r_4g.bmp	3r_2g.bmp	0r_2g.bmp		0r_4g.bmp			TrialProc	TrialList	0	cvbn	-999999	16	245919	0	v	251	246170	244	-257	-13	-14	-18	1	18	5	8	79	-12	0	-3	0	4	4	2	2	0	4
Hungry_Donkey_bar_English_2	122	1	<?xml version="1.0"?>\n<Clock xmlns:dt="urn:schemas-microsoft-com:datatypes"><Description dt:dt="string">E-Prime Primary Realtime Clock</Description><StartTime><Timestamp dt:dt="int">0</Timestamp><DateUtc dt:dt="string">2015-09-08T21:06:43Z</DateUtc></StartTime><FrequencyChanges><FrequencyChange><Frequency dt:dt="r8">3507666</Frequency><Timestamp dt:dt="r8">311846019756</Timestamp><Current dt:dt="r8">0</Current><DateUtc dt:dt="string">2015-09-08T21:06:43Z</DateUtc></FrequencyChange></FrequencyChanges></Clock>\n	Hungry_Donkey_bar_English_2-122-1	60.017	-33	1.0.0.18	1	-1685904002	Standard	2.0.10.353	2.0.10.353	09-08-2015	9/8/2015 9:06:43 PM	17:06:43	2.0.10.248	80	Bar50-50.bmp	49	2	?	0r_4g.bmp	0r_4g.bmp	0r_2g.bmp	0r_2g.bmp		0r_4g.bmp			TrialProc	TrialList	0	cvbn	-999999	16	248201	0	v	305	248506	248	-257	-9	-14	-14	1	18	8	8	80	0	0	0	0	4	4	2	2	0	4
Hungry_Donkey_bar_English_2	122	1	<?xml version="1.0"?>\n<Clock xmlns:dt="urn:schemas-microsoft-com:datatypes"><Description dt:dt="string">E-Prime Primary Realtime Clock</Description><StartTime><Timestamp dt:dt="int">0</Timestamp><DateUtc dt:dt="string">2015-09-08T21:06:43Z</DateUtc></StartTime><FrequencyChanges><FrequencyChange><Frequency dt:dt="r8">3507666</Frequency><Timestamp dt:dt="r8">311846019756</Timestamp><Current dt:dt="r8">0</Current><DateUtc dt:dt="string">2015-09-08T21:06:43Z</DateUtc></FrequencyChange></FrequencyChanges></Clock>\n	Hungry_Donkey_bar_English_2-122-1	60.017	-33	1.0.0.18	1	-1685904002	Standard	2.0.10.353	2.0.10.353	09-08-2015	9/8/2015 9:06:43 PM	17:06:43	2.0.10.248	81	Bar50-50.bmp	50	2	?	12r_4g.bmp	0r_4g.bmp	3r_2g.bmp	0r_2g.bmp		0r_4g.bmp			TrialProc	TrialList	0	cvbn	-999999	16	250534	0	v	308	250842	252	-257	-5	-14	-10	1	18	5	9	81	-12	0	-3	0	4	4	2	2	0	4
Hungry_Donkey_bar_English_2	122	1	<?xml version="1.0"?>\n<Clock xmlns:dt="urn:schemas-microsoft-com:datatypes"><Description dt:dt="string">E-Prime Primary Realtime Clock</Description><StartTime><Timestamp dt:dt="int">0</Timestamp><DateUtc dt:dt="string">2015-09-08T21:06:43Z</DateUtc></StartTime><FrequencyChanges><FrequencyChange><Frequency dt:dt="r8">3507666</Frequency><Timestamp dt:dt="r8">311846019756</Timestamp><Current dt:dt="r8">0</Current><DateUtc dt:dt="string">2015-09-08T21:06:43Z</DateUtc></FrequencyChange></FrequencyChanges></Clock>\n	Hungry_Donkey_bar_English_2-122-1	60.017	-33	1.0.0.18	1	-1685904002	Standard	2.0.10.353	2.0.10.353	09-08-2015	9/8/2015 9:06:43 PM	17:06:43	2.0.10.248	82	Bar50-50.bmp	50	2	?	10r_4g.bmp	0r_4g.bmp	2r_2g.bmp	0r_2g.bmp		0r_4g.bmp			TrialProc	TrialList	0	cvbn	-999999	16	252867	0	v	311	253178	256	-257	-1	-14	-6	1	18	3	9	82	-10	0	-2	0	4	4	2	2	0	4
Hungry_Donkey_bar_English_2	122	1	<?xml version="1.0"?>\n<Clock xmlns:dt="urn:schemas-microsoft-com:datatypes"><Description dt:dt="string">E-Prime Primary Realtime Clock</Description><StartTime><Timestamp dt:dt="int">0</Timestamp><DateUtc dt:dt="string">2015-09-08T21:06:43Z</DateUtc></StartTime><FrequencyChanges><FrequencyChange><Frequency dt:dt="r8">3507666</Frequency><Timestamp dt:dt="r8">311846019756</Timestamp><Current dt:dt="r8">0</Current><DateUtc dt:dt="string">2015-09-08T21:06:43Z</DateUtc></FrequencyChange></FrequencyChanges></Clock>\n	Hungry_Donkey_bar_English_2-122-1	60.017	-33	1.0.0.18	1	-1685904002	Standard	2.0.10.353	2.0.10.353	09-08-2015	9/8/2015 9:06:43 PM	17:06:43	2.0.10.248	83	Bar50-50.bmp	50	2	?	0r_4g.bmp	0r_4g.bmp	0r_2g.bmp	0r_2g.bmp		0r_4g.bmp			TrialProc	TrialList	0	cvbn	-999999	16	255216	0	v	313	255529	260	-257	3	-14	-2	1	18	6	9	83	0	0	0	0	4	4	2	2	0	4
Hungry_Donkey_bar_English_2	122	1	<?xml version="1.0"?>\n<Clock xmlns:dt="urn:schemas-microsoft-com:datatypes"><Description dt:dt="string">E-Prime Primary Realtime Clock</Description><StartTime><Timestamp dt:dt="int">0</Timestamp><DateUtc dt:dt="string">2015-09-08T21:06:43Z</DateUtc></StartTime><FrequencyChanges><FrequencyChange><Frequency dt:dt="r8">3507666</Frequency><Timestamp dt:dt="r8">311846019756</Timestamp><Current dt:dt="r8">0</Current><DateUtc dt:dt="string">2015-09-08T21:06:43Z</DateUtc></FrequencyChange></FrequencyChanges></Clock>\n	Hungry_Donkey_bar_English_2-122-1	60.017	-33	1.0.0.18	1	-1685904002	Standard	2.0.10.353	2.0.10.353	09-08-2015	9/8/2015 9:06:43 PM	17:06:43	2.0.10.248	84	Bar50-50.bmp	51	2	?	0r_4g.bmp	0r_4g.bmp	0r_2g.bmp	0r_2g.bmp		0r_4g.bmp			TrialProc	TrialList	0	cvbn	-999999	16	257565	0	v	412	257977	264	-257	7	-14	2	1	18	8	9	84	0	0	0	0	4	4	2	2	0	4
Hungry_Donkey_bar_English_2	122	1	<?xml version="1.0"?>\n<Clock xmlns:dt="urn:schemas-microsoft-com:datatypes"><Description dt:dt="string">E-Prime Primary Realtime Clock</Description><StartTime><Timestamp dt:dt="int">0</Timestamp><DateUtc dt:dt="string">2015-09-08T21:06:43Z</DateUtc></StartTime><FrequencyChanges><FrequencyChange><Frequency dt:dt="r8">3507666</Frequency><Timestamp dt:dt="r8">311846019756</Timestamp><Current dt:dt="r8">0</Current><DateUtc dt:dt="string">2015-09-08T21:06:43Z</DateUtc></FrequencyChange></FrequencyChanges></Clock>\n	Hungry_Donkey_bar_English_2-122-1	60.017	-33	1.0.0.18	1	-1685904002	Standard	2.0.10.353	2.0.10.353	09-08-2015	9/8/2015 9:06:43 PM	17:06:43	2.0.10.248	85	Bar50-50.bmp	51	2	?	0r_4g.bmp	0r_4g.bmp	0r_2g.bmp	0r_2g.bmp		0r_4g.bmp			TrialProc	TrialList	0	cvbn	-999999	16	260015	0	v	474	260489	268	-257	11	-14	6	1	18	7	9	85	0	0	0	0	4	4	2	2	0	4
Hungry_Donkey_bar_English_2	122	1	<?xml version="1.0"?>\n<Clock xmlns:dt="urn:schemas-microsoft-com:datatypes"><Description dt:dt="string">E-Prime Primary Realtime Clock</Description><StartTime><Timestamp dt:dt="int">0</Timestamp><DateUtc dt:dt="string">2015-09-08T21:06:43Z</DateUtc></StartTime><FrequencyChanges><FrequencyChange><Frequency dt:dt="r8">3507666</Frequency><Timestamp dt:dt="r8">311846019756</Timestamp><Current dt:dt="r8">0</Current><DateUtc dt:dt="string">2015-09-08T21:06:43Z</DateUtc></FrequencyChange></FrequencyChanges></Clock>\n	Hungry_Donkey_bar_English_2-122-1	60.017	-33	1.0.0.18	1	-1685904002	Standard	2.0.10.353	2.0.10.353	09-08-2015	9/8/2015 9:06:43 PM	17:06:43	2.0.10.248	86	Bar50-50.bmp	51	2	?	0r_4g.bmp	0r_4g.bmp	0r_2g.bmp	0r_2g.bmp		0r_4g.bmp			TrialProc	TrialList	0	cvbn	-999999	16	262514	0	v	375	262889	272	-257	15	-14	10	1	18	9	9	86	0	0	0	0	4	4	2	2	0	4
Hungry_Donkey_bar_English_2	122	1	<?xml version="1.0"?>\n<Clock xmlns:dt="urn:schemas-microsoft-com:datatypes"><Description dt:dt="string">E-Prime Primary Realtime Clock</Description><StartTime><Timestamp dt:dt="int">0</Timestamp><DateUtc dt:dt="string">2015-09-08T21:06:43Z</DateUtc></StartTime><FrequencyChanges><FrequencyChange><Frequency dt:dt="r8">3507666</Frequency><Timestamp dt:dt="r8">311846019756</Timestamp><Current dt:dt="r8">0</Current><DateUtc dt:dt="string">2015-09-08T21:06:43Z</DateUtc></FrequencyChange></FrequencyChanges></Clock>\n	Hungry_Donkey_bar_English_2-122-1	60.017	-33	1.0.0.18	1	-1685904002	Standard	2.0.10.353	2.0.10.353	09-08-2015	9/8/2015 9:06:43 PM	17:06:43	2.0.10.248	87	Bar50-50.bmp	52	2	?	10r_4g.bmp	0r_4g.bmp	2r_2g.bmp	0r_2g.bmp		0r_4g.bmp			TrialProc	TrialList	0	cvbn	-999999	16	264913	0	v	360	265273	276	-257	19	-14	14	1	18	2	9	87	-10	0	-2	0	4	4	2	2	0	4
Hungry_Donkey_bar_English_2	122	1	<?xml version="1.0"?>\n<Clock xmlns:dt="urn:schemas-microsoft-com:datatypes"><Description dt:dt="string">E-Prime Primary Realtime Clock</Description><StartTime><Timestamp dt:dt="int">0</Timestamp><DateUtc dt:dt="string">2015-09-08T21:06:43Z</DateUtc></StartTime><FrequencyChanges><FrequencyChange><Frequency dt:dt="r8">3507666</Frequency><Timestamp dt:dt="r8">311846019756</Timestamp><Current dt:dt="r8">0</Current><DateUtc dt:dt="string">2015-09-08T21:06:43Z</DateUtc></FrequencyChange></FrequencyChanges></Clock>\n	Hungry_Donkey_bar_English_2-122-1	60.017	-33	1.0.0.18	1	-1685904002	Standard	2.0.10.353	2.0.10.353	09-08-2015	9/8/2015 9:06:43 PM	17:06:43	2.0.10.248	88	Bar50-50.bmp	52	2	?	0r_4g.bmp	0r_4g.bmp	0r_2g.bmp	0r_2g.bmp		0r_4g.bmp			TrialProc	TrialList	0	cvbn	-999999	17	267313	0	v	280	267593	280	-257	23	-14	18	1	18	10	9	88	0	0	0	0	4	4	2	2	0	4
Hungry_Donkey_bar_English_2	122	1	<?xml version="1.0"?>\n<Clock xmlns:dt="urn:schemas-microsoft-com:datatypes"><Description dt:dt="string">E-Prime Primary Realtime Clock</Description><StartTime><Timestamp dt:dt="int">0</Timestamp><DateUtc dt:dt="string">2015-09-08T21:06:43Z</DateUtc></StartTime><FrequencyChanges><FrequencyChange><Frequency dt:dt="r8">3507666</Frequency><Timestamp dt:dt="r8">311846019756</Timestamp><Current dt:dt="r8">0</Current><DateUtc dt:dt="string">2015-09-08T21:06:43Z</DateUtc></FrequencyChange></FrequencyChanges></Clock>\n	Hungry_Donkey_bar_English_2-122-1	60.017	-33	1.0.0.18	1	-1685904002	Standard	2.0.10.353	2.0.10.353	09-08-2015	9/8/2015 9:06:43 PM	17:06:43	2.0.10.248	89	Bar50-50.bmp	48	2	?	8r_4g.bmp	50r_4g.bmp	1r_2g.bmp	10r_2g.bmp		50r_4g.bmp			TrialProc	TrialList	0	cvbn	-999999	16	269629	0	v	380	270009	284	-307	-23	-14	-28	1	18	1	9	89	-8	-50	-1	-10	4	4	2	2	-50	4
Hungry_Donkey_bar_English_2	122	1	<?xml version="1.0"?>\n<Clock xmlns:dt="urn:schemas-microsoft-com:datatypes"><Description dt:dt="string">E-Prime Primary Realtime Clock</Description><StartTime><Timestamp dt:dt="int">0</Timestamp><DateUtc dt:dt="string">2015-09-08T21:06:43Z</DateUtc></StartTime><FrequencyChanges><FrequencyChange><Frequency dt:dt="r8">3507666</Frequency><Timestamp dt:dt="r8">311846019756</Timestamp><Current dt:dt="r8">0</Current><DateUtc dt:dt="string">2015-09-08T21:06:43Z</DateUtc></FrequencyChange></FrequencyChanges></Clock>\n	Hungry_Donkey_bar_English_2-122-1	60.017	-33	1.0.0.18	1	-1685904002	Standard	2.0.10.353	2.0.10.353	09-08-2015	9/8/2015 9:06:43 PM	17:06:43	2.0.10.248	90	Bar50-50.bmp	48	1	?	10r_4g.bmp	0r_4g.bmp	2r_2g.bmp	0r_2g.bmp	10r_4g.bmp				TrialProc	TrialList	0	cvbn	-999999	17	272045	0	c	332	272377	288	-317	-29	-20	-28	1	18	4	9	90	-10	0	-2	0	4	4	2	2	-10	4
Hungry_Donkey_bar_English_2	122	1	<?xml version="1.0"?>\n<Clock xmlns:dt="urn:schemas-microsoft-com:datatypes"><Description dt:dt="string">E-Prime Primary Realtime Clock</Description><StartTime><Timestamp dt:dt="int">0</Timestamp><DateUtc dt:dt="string">2015-09-08T21:06:43Z</DateUtc></StartTime><FrequencyChanges><FrequencyChange><Frequency dt:dt="r8">3507666</Frequency><Timestamp dt:dt="r8">311846019756</Timestamp><Current dt:dt="r8">0</Current><DateUtc dt:dt="string">2015-09-08T21:06:43Z</DateUtc></FrequencyChange></FrequencyChanges></Clock>\n	Hungry_Donkey_bar_English_2-122-1	60.017	-33	1.0.0.18	1	-1685904002	Standard	2.0.10.353	2.0.10.353	09-08-2015	9/8/2015 9:06:43 PM	17:06:43	2.0.10.248	91	Bar50-50.bmp	47	4	?	8r_4g.bmp	50r_4g.bmp	1r_2g.bmp	10r_2g.bmp				10r_2g.bmp	TrialProc	TrialList	0	cvbn	-999999	17	274411	0	n	126	274537	290	-327	-37	-20	-28	1	10	1	10	91	-8	-50	-1	-10	4	4	2	2	-10	2
Hungry_Donkey_bar_English_2	122	1	<?xml version="1.0"?>\n<Clock xmlns:dt="urn:schemas-microsoft-com:datatypes"><Description dt:dt="string">E-Prime Primary Realtime Clock</Description><StartTime><Timestamp dt:dt="int">0</Timestamp><DateUtc dt:dt="string">2015-09-08T21:06:43Z</DateUtc></StartTime><FrequencyChanges><FrequencyChange><Frequency dt:dt="r8">3507666</Frequency><Timestamp dt:dt="r8">311846019756</Timestamp><Current dt:dt="r8">0</Current><DateUtc dt:dt="string">2015-09-08T21:06:43Z</DateUtc></FrequencyChange></FrequencyChanges></Clock>\n	Hungry_Donkey_bar_English_2-122-1	60.017	-33	1.0.0.18	1	-1685904002	Standard	2.0.10.353	2.0.10.353	09-08-2015	9/8/2015 9:06:43 PM	17:06:43	2.0.10.248	92	Bar50-50.bmp	47	3	?	10r_4g.bmp	0r_4g.bmp	2r_2g.bmp	0r_2g.bmp			2r_2g.bmp		TrialProc	TrialList	0	cvbn	-999999	16	276577	0	b	1767	278344	292	-329	-37	-20	-28	1	10	4	10	92	-10	0	-2	0	4	4	2	2	-2	2
Hungry_Donkey_bar_English_2	122	1	<?xml version="1.0"?>\n<Clock xmlns:dt="urn:schemas-microsoft-com:datatypes"><Description dt:dt="string">E-Prime Primary Realtime Clock</Description><StartTime><Timestamp dt:dt="int">0</Timestamp><DateUtc dt:dt="string">2015-09-08T21:06:43Z</DateUtc></StartTime><FrequencyChanges><FrequencyChange><Frequency dt:dt="r8">3507666</Frequency><Timestamp dt:dt="r8">311846019756</Timestamp><Current dt:dt="r8">0</Current><DateUtc dt:dt="string">2015-09-08T21:06:43Z</DateUtc></FrequencyChange></FrequencyChanges></Clock>\n	Hungry_Donkey_bar_English_2-122-1	60.017	-33	1.0.0.18	1	-1685904002	Standard	2.0.10.353	2.0.10.353	09-08-2015	9/8/2015 9:06:43 PM	17:06:43	2.0.10.248	93	Bar50-50.bmp	47	4	?	10r_4g.bmp	0r_4g.bmp	2r_2g.bmp	0r_2g.bmp				0r_2g.bmp	TrialProc	TrialList	0	cvbn	-999999	17	280376	0	n	384	280760	294	-329	-35	-20	-28	1	12	2	10	93	-10	0	-2	0	4	4	2	2	0	2
Hungry_Donkey_bar_English_2	122	1	<?xml version="1.0"?>\n<Clock xmlns:dt="urn:schemas-microsoft-com:datatypes"><Description dt:dt="string">E-Prime Primary Realtime Clock</Description><StartTime><Timestamp dt:dt="int">0</Timestamp><DateUtc dt:dt="string">2015-09-08T21:06:43Z</DateUtc></StartTime><FrequencyChanges><FrequencyChange><Frequency dt:dt="r8">3507666</Frequency><Timestamp dt:dt="r8">311846019756</Timestamp><Current dt:dt="r8">0</Current><DateUtc dt:dt="string">2015-09-08T21:06:43Z</DateUtc></FrequencyChange></FrequencyChanges></Clock>\n	Hungry_Donkey_bar_English_2-122-1	60.017	-33	1.0.0.18	1	-1685904002	Standard	2.0.10.353	2.0.10.353	09-08-2015	9/8/2015 9:06:43 PM	17:06:43	2.0.10.248	94	Bar50-50.bmp	47	4	?	12r_4g.bmp	0r_4g.bmp	3r_2g.bmp	0r_2g.bmp				0r_2g.bmp	TrialProc	TrialList	0	cvbn	-999999	17	282792	0	n	336	283128	296	-329	-33	-20	-28	1	14	5	10	94	-12	0	-3	0	4	4	2	2	0	2
Hungry_Donkey_bar_English_2	122	1	<?xml version="1.0"?>\n<Clock xmlns:dt="urn:schemas-microsoft-com:datatypes"><Description dt:dt="string">E-Prime Primary Realtime Clock</Description><StartTime><Timestamp dt:dt="int">0</Timestamp><DateUtc dt:dt="string">2015-09-08T21:06:43Z</DateUtc></StartTime><FrequencyChanges><FrequencyChange><Frequency dt:dt="r8">3507666</Frequency><Timestamp dt:dt="r8">311846019756</Timestamp><Current dt:dt="r8">0</Current><DateUtc dt:dt="string">2015-09-08T21:06:43Z</DateUtc></FrequencyChange></FrequencyChanges></Clock>\n	Hungry_Donkey_bar_English_2-122-1	60.017	-33	1.0.0.18	1	-1685904002	Standard	2.0.10.353	2.0.10.353	09-08-2015	9/8/2015 9:06:43 PM	17:06:43	2.0.10.248	95	Bar50-50.bmp	48	4	?	0r_4g.bmp	0r_4g.bmp	0r_2g.bmp	0r_2g.bmp				0r_2g.bmp	TrialProc	TrialList	0	cvbn	-999999	17	285158	0	n	34	285192	298	-329	-31	-20	-28	1	16	9	10	95	0	0	0	0	4	4	2	2	0	2
Hungry_Donkey_bar_English_2	122	1	<?xml version="1.0"?>\n<Clock xmlns:dt="urn:schemas-microsoft-com:datatypes"><Description dt:dt="string">E-Prime Primary Realtime Clock</Description><StartTime><Timestamp dt:dt="int">0</Timestamp><DateUtc dt:dt="string">2015-09-08T21:06:43Z</DateUtc></StartTime><FrequencyChanges><FrequencyChange><Frequency dt:dt="r8">3507666</Frequency><Timestamp dt:dt="r8">311846019756</Timestamp><Current dt:dt="r8">0</Current><DateUtc dt:dt="string">2015-09-08T21:06:43Z</DateUtc></FrequencyChange></FrequencyChanges></Clock>\n	Hungry_Donkey_bar_English_2-122-1	60.017	-33	1.0.0.18	1	-1685904002	Standard	2.0.10.353	2.0.10.353	09-08-2015	9/8/2015 9:06:43 PM	17:06:43	2.0.10.248	96	Bar50-50.bmp	48	4	?	0r_4g.bmp	0r_4g.bmp	0r_2g.bmp	0r_2g.bmp				0r_2g.bmp	TrialProc	TrialList	0	cvbn	-999999	16	287224	0	n	80	287304	300	-329	-29	-20	-28	1	18	8	10	96	0	0	0	0	4	4	2	2	0	2
Hungry_Donkey_bar_English_2	122	1	<?xml version="1.0"?>\n<Clock xmlns:dt="urn:schemas-microsoft-com:datatypes"><Description dt:dt="string">E-Prime Primary Realtime Clock</Description><StartTime><Timestamp dt:dt="int">0</Timestamp><DateUtc dt:dt="string">2015-09-08T21:06:43Z</DateUtc></StartTime><FrequencyChanges><FrequencyChange><Frequency dt:dt="r8">3507666</Frequency><Timestamp dt:dt="r8">311846019756</Timestamp><Current dt:dt="r8">0</Current><DateUtc dt:dt="string">2015-09-08T21:06:43Z</DateUtc></FrequencyChange></FrequencyChanges></Clock>\n	Hungry_Donkey_bar_English_2-122-1	60.017	-33	1.0.0.18	1	-1685904002	Standard	2.0.10.353	2.0.10.353	09-08-2015	9/8/2015 9:06:43 PM	17:06:43	2.0.10.248	97	Bar50-50.bmp	48	4	?	0r_4g.bmp	0r_4g.bmp	0r_2g.bmp	0r_2g.bmp				0r_2g.bmp	TrialProc	TrialList	0	cvbn	-999999	16	289340	0	n	76	289416	302	-329	-27	-20	-28	1	20	10	10	97	0	0	0	0	4	4	2	2	0	2
Hungry_Donkey_bar_English_2	122	1	<?xml version="1.0"?>\n<Clock xmlns:dt="urn:schemas-microsoft-com:datatypes"><Description dt:dt="string">E-Prime Primary Realtime Clock</Description><StartTime><Timestamp dt:dt="int">0</Timestamp><DateUtc dt:dt="string">2015-09-08T21:06:43Z</DateUtc></StartTime><FrequencyChanges><FrequencyChange><Frequency dt:dt="r8">3507666</Frequency><Timestamp dt:dt="r8">311846019756</Timestamp><Current dt:dt="r8">0</Current><DateUtc dt:dt="string">2015-09-08T21:06:43Z</DateUtc></FrequencyChange></FrequencyChanges></Clock>\n	Hungry_Donkey_bar_English_2-122-1	60.017	-33	1.0.0.18	1	-1685904002	Standard	2.0.10.353	2.0.10.353	09-08-2015	9/8/2015 9:06:43 PM	17:06:43	2.0.10.248	98	Bar50-50.bmp	48	4	?	0r_4g.bmp	0r_4g.bmp	0r_2g.bmp	0r_2g.bmp				0r_2g.bmp	TrialProc	TrialList	0	cvbn	-999999	16	291439	0	n	281	291720	304	-329	-25	-20	-28	1	22	6	10	98	0	0	0	0	4	4	2	2	0	2
Hungry_Donkey_bar_English_2	122	1	<?xml version="1.0"?>\n<Clock xmlns:dt="urn:schemas-microsoft-com:datatypes"><Description dt:dt="string">E-Prime Primary Realtime Clock</Description><StartTime><Timestamp dt:dt="int">0</Timestamp><DateUtc dt:dt="string">2015-09-08T21:06:43Z</DateUtc></StartTime><FrequencyChanges><FrequencyChange><Frequency dt:dt="r8">3507666</Frequency><Timestamp dt:dt="r8">311846019756</Timestamp><Current dt:dt="r8">0</Current><DateUtc dt:dt="string">2015-09-08T21:06:43Z</DateUtc></FrequencyChange></FrequencyChanges></Clock>\n	Hungry_Donkey_bar_English_2-122-1	60.017	-33	1.0.0.18	1	-1685904002	Standard	2.0.10.353	2.0.10.353	09-08-2015	9/8/2015 9:06:43 PM	17:06:43	2.0.10.248	99	Bar50-50.bmp	48	4	?	10r_4g.bmp	0r_4g.bmp	2r_2g.bmp	0r_2g.bmp				0r_2g.bmp	TrialProc	TrialList	0	cvbn	-999999	16	293755	0	n	397	294152	306	-329	-23	-20	-28	1	24	3	10	99	-10	0	-2	0	4	4	2	2	0	2
Hungry_Donkey_bar_English_2	122	1	<?xml version="1.0"?>\n<Clock xmlns:dt="urn:schemas-microsoft-com:datatypes"><Description dt:dt="string">E-Prime Primary Realtime Clock</Description><StartTime><Timestamp dt:dt="int">0</Timestamp><DateUtc dt:dt="string">2015-09-08T21:06:43Z</DateUtc></StartTime><FrequencyChanges><FrequencyChange><Frequency dt:dt="r8">3507666</Frequency><Timestamp dt:dt="r8">311846019756</Timestamp><Current dt:dt="r8">0</Current><DateUtc dt:dt="string">2015-09-08T21:06:43Z</DateUtc></FrequencyChange></FrequencyChanges></Clock>\n	Hungry_Donkey_bar_English_2-122-1	60.017	-33	1.0.0.18	1	-1685904002	Standard	2.0.10.353	2.0.10.353	09-08-2015	9/8/2015 9:06:43 PM	17:06:43	2.0.10.248	100	Bar50-50.bmp	48	4	?	0r_4g.bmp	0r_4g.bmp	0r_2g.bmp	0r_2g.bmp				0r_2g.bmp	TrialProc	TrialList	0	cvbn	-999999	16	296188	0	n	188	296376	308	-329	-21	-20	-28	1	26	7	10	100	0	0	0	0	4	4	2	2	0	2
Hungry_Donkey_bar_English_2	122	1	<?xml version="1.0"?>\n<Clock xmlns:dt="urn:schemas-microsoft-com:datatypes"><Description dt:dt="string">E-Prime Primary Realtime Clock</Description><StartTime><Timestamp dt:dt="int">0</Timestamp><DateUtc dt:dt="string">2015-09-08T21:06:43Z</DateUtc></StartTime><FrequencyChanges><FrequencyChange><Frequency dt:dt="r8">3507666</Frequency><Timestamp dt:dt="r8">311846019756</Timestamp><Current dt:dt="r8">0</Current><DateUtc dt:dt="string">2015-09-08T21:06:43Z</DateUtc></FrequencyChange></FrequencyChanges></Clock>\n	Hungry_Donkey_bar_English_2-122-1	60.017	-33	1.0.0.18	1	-1685904002	Standard	2.0.10.353	2.0.10.353	09-08-2015	9/8/2015 9:06:43 PM	17:06:43	2.0.10.248	101	Bar50-50.bmp	49	4	?	0r_4g.bmp	0r_4g.bmp	0r_2g.bmp	0r_2g.bmp				0r_2g.bmp	TrialProc	TrialList	0	cvbn	-999999	16	298404	0	n	291	298695	310	-329	-19	-20	-28	1	28	9	11	101	0	0	0	0	4	4	2	2	0	2
Hungry_Donkey_bar_English_2	122	1	<?xml version="1.0"?>\n<Clock xmlns:dt="urn:schemas-microsoft-com:datatypes"><Description dt:dt="string">E-Prime Primary Realtime Clock</Description><StartTime><Timestamp dt:dt="int">0</Timestamp><DateUtc dt:dt="string">2015-09-08T21:06:43Z</DateUtc></StartTime><FrequencyChanges><FrequencyChange><Frequency dt:dt="r8">3507666</Frequency><Timestamp dt:dt="r8">311846019756</Timestamp><Current dt:dt="r8">0</Current><DateUtc dt:dt="string">2015-09-08T21:06:43Z</DateUtc></FrequencyChange></FrequencyChanges></Clock>\n	Hungry_Donkey_bar_English_2-122-1	60.017	-33	1.0.0.18	1	-1685904002	Standard	2.0.10.353	2.0.10.353	09-08-2015	9/8/2015 9:06:43 PM	17:06:43	2.0.10.248	102	Bar50-50.bmp	49	4	?	12r_4g.bmp	0r_4g.bmp	3r_2g.bmp	0r_2g.bmp				0r_2g.bmp	TrialProc	TrialList	0	cvbn	-999999	16	300720	0	n	263	300983	312	-329	-17	-20	-28	1	30	5	11	102	-12	0	-3	0	4	4	2	2	0	2
Hungry_Donkey_bar_English_2	122	1	<?xml version="1.0"?>\n<Clock xmlns:dt="urn:schemas-microsoft-com:datatypes"><Description dt:dt="string">E-Prime Primary Realtime Clock</Description><StartTime><Timestamp dt:dt="int">0</Timestamp><DateUtc dt:dt="string">2015-09-08T21:06:43Z</DateUtc></StartTime><FrequencyChanges><FrequencyChange><Frequency dt:dt="r8">3507666</Frequency><Timestamp dt:dt="r8">311846019756</Timestamp><Current dt:dt="r8">0</Current><DateUtc dt:dt="string">2015-09-08T21:06:43Z</DateUtc></FrequencyChange></FrequencyChanges></Clock>\n	Hungry_Donkey_bar_English_2-122-1	60.017	-33	1.0.0.18	1	-1685904002	Standard	2.0.10.353	2.0.10.353	09-08-2015	9/8/2015 9:06:43 PM	17:06:43	2.0.10.248	103	Bar50-50.bmp	49	4	?	10r_4g.bmp	0r_4g.bmp	2r_2g.bmp	0r_2g.bmp				0r_2g.bmp	TrialProc	TrialList	0	cvbn	-999999	16	303019	0	n	268	303287	314	-329	-15	-20	-28	1	32	3	11	103	-10	0	-2	0	4	4	2	2	0	2
Hungry_Donkey_bar_English_2	122	1	<?xml version="1.0"?>\n<Clock xmlns:dt="urn:schemas-microsoft-com:datatypes"><Description dt:dt="string">E-Prime Primary Realtime Clock</Description><StartTime><Timestamp dt:dt="int">0</Timestamp><DateUtc dt:dt="string">2015-09-08T21:06:43Z</DateUtc></StartTime><FrequencyChanges><FrequencyChange><Frequency dt:dt="r8">3507666</Frequency><Timestamp dt:dt="r8">311846019756</Timestamp><Current dt:dt="r8">0</Current><DateUtc dt:dt="string">2015-09-08T21:06:43Z</DateUtc></FrequencyChange></FrequencyChanges></Clock>\n	Hungry_Donkey_bar_English_2-122-1	60.017	-33	1.0.0.18	1	-1685904002	Standard	2.0.10.353	2.0.10.353	09-08-2015	9/8/2015 9:06:43 PM	17:06:43	2.0.10.248	104	Bar50-50.bmp	49	4	?	10r_4g.bmp	0r_4g.bmp	2r_2g.bmp	0r_2g.bmp				0r_2g.bmp	TrialProc	TrialList	0	cvbn	-999999	16	305318	0	n	337	305655	316	-329	-13	-20	-28	1	34	2	11	104	-10	0	-2	0	4	4	2	2	0	2
Hungry_Donkey_bar_English_2	122	1	<?xml version="1.0"?>\n<Clock xmlns:dt="urn:schemas-microsoft-com:datatypes"><Description dt:dt="string">E-Prime Primary Realtime Clock</Description><StartTime><Timestamp dt:dt="int">0</Timestamp><DateUtc dt:dt="string">2015-09-08T21:06:43Z</DateUtc></StartTime><FrequencyChanges><FrequencyChange><Frequency dt:dt="r8">3507666</Frequency><Timestamp dt:dt="r8">311846019756</Timestamp><Current dt:dt="r8">0</Current><DateUtc dt:dt="string">2015-09-08T21:06:43Z</DateUtc></FrequencyChange></FrequencyChanges></Clock>\n	Hungry_Donkey_bar_English_2-122-1	60.017	-33	1.0.0.18	1	-1685904002	Standard	2.0.10.353	2.0.10.353	09-08-2015	9/8/2015 9:06:43 PM	17:06:43	2.0.10.248	105	Bar50-50.bmp	49	4	?	0r_4g.bmp	0r_4g.bmp	0r_2g.bmp	0r_2g.bmp				0r_2g.bmp	TrialProc	TrialList	0	cvbn	-999999	16	307684	0	n	355	308039	318	-329	-11	-20	-28	1	36	6	11	105	0	0	0	0	4	4	2	2	0	2
Hungry_Donkey_bar_English_2	122	1	<?xml version="1.0"?>\n<Clock xmlns:dt="urn:schemas-microsoft-com:datatypes"><Description dt:dt="string">E-Prime Primary Realtime Clock</Description><StartTime><Timestamp dt:dt="int">0</Timestamp><DateUtc dt:dt="string">2015-09-08T21:06:43Z</DateUtc></StartTime><FrequencyChanges><FrequencyChange><Frequency dt:dt="r8">3507666</Frequency><Timestamp dt:dt="r8">311846019756</Timestamp><Current dt:dt="r8">0</Current><DateUtc dt:dt="string">2015-09-08T21:06:43Z</DateUtc></FrequencyChange></FrequencyChanges></Clock>\n	Hungry_Donkey_bar_English_2-122-1	60.017	-33	1.0.0.18	1	-1685904002	Standard	2.0.10.353	2.0.10.353	09-08-2015	9/8/2015 9:06:43 PM	17:06:43	2.0.10.248	106	Bar50-50.bmp	49	4	?	0r_4g.bmp	0r_4g.bmp	0r_2g.bmp	0r_2g.bmp				0r_2g.bmp	TrialProc	TrialList	0	cvbn	-999999	16	310067	0	n	276	310343	320	-329	-9	-20	-28	1	38	10	11	106	0	0	0	0	4	4	2	2	0	2
Hungry_Donkey_bar_English_2	122	1	<?xml version="1.0"?>\n<Clock xmlns:dt="urn:schemas-microsoft-com:datatypes"><Description dt:dt="string">E-Prime Primary Realtime Clock</Description><StartTime><Timestamp dt:dt="int">0</Timestamp><DateUtc dt:dt="string">2015-09-08T21:06:43Z</DateUtc></StartTime><FrequencyChanges><FrequencyChange><Frequency dt:dt="r8">3507666</Frequency><Timestamp dt:dt="r8">311846019756</Timestamp><Current dt:dt="r8">0</Current><DateUtc dt:dt="string">2015-09-08T21:06:43Z</DateUtc></FrequencyChange></FrequencyChanges></Clock>\n	Hungry_Donkey_bar_English_2-122-1	60.017	-33	1.0.0.18	1	-1685904002	Standard	2.0.10.353	2.0.10.353	09-08-2015	9/8/2015 9:06:43 PM	17:06:43	2.0.10.248	107	Bar50-50.bmp	49	4	?	10r_4g.bmp	0r_4g.bmp	2r_2g.bmp	0r_2g.bmp				0r_2g.bmp	TrialProc	TrialList	0	cvbn	-999999	16	312366	0	n	329	312695	322	-329	-7	-20	-28	1	40	4	11	107	-10	0	-2	0	4	4	2	2	0	2
Hungry_Donkey_bar_English_2	122	1	<?xml version="1.0"?>\n<Clock xmlns:dt="urn:schemas-microsoft-com:datatypes"><Description dt:dt="string">E-Prime Primary Realtime Clock</Description><StartTime><Timestamp dt:dt="int">0</Timestamp><DateUtc dt:dt="string">2015-09-08T21:06:43Z</DateUtc></StartTime><FrequencyChanges><FrequencyChange><Frequency dt:dt="r8">3507666</Frequency><Timestamp dt:dt="r8">311846019756</Timestamp><Current dt:dt="r8">0</Current><DateUtc dt:dt="string">2015-09-08T21:06:43Z</DateUtc></FrequencyChange></FrequencyChanges></Clock>\n	Hungry_Donkey_bar_English_2-122-1	60.017	-33	1.0.0.18	1	-1685904002	Standard	2.0.10.353	2.0.10.353	09-08-2015	9/8/2015 9:06:43 PM	17:06:43	2.0.10.248	108	Bar50-50.bmp	49	4	?	8r_4g.bmp	50r_4g.bmp	1r_2g.bmp	10r_2g.bmp				10r_2g.bmp	TrialProc	TrialList	0	cvbn	-999999	16	314732	0	n	523	315255	324	-339	-15	-20	-28	1	32	1	11	108	-8	-50	-1	-10	4	4	2	2	-10	2
Hungry_Donkey_bar_English_2	122	1	<?xml version="1.0"?>\n<Clock xmlns:dt="urn:schemas-microsoft-com:datatypes"><Description dt:dt="string">E-Prime Primary Realtime Clock</Description><StartTime><Timestamp dt:dt="int">0</Timestamp><DateUtc dt:dt="string">2015-09-08T21:06:43Z</DateUtc></StartTime><FrequencyChanges><FrequencyChange><Frequency dt:dt="r8">3507666</Frequency><Timestamp dt:dt="r8">311846019756</Timestamp><Current dt:dt="r8">0</Current><DateUtc dt:dt="string">2015-09-08T21:06:43Z</DateUtc></FrequencyChange></FrequencyChanges></Clock>\n	Hungry_Donkey_bar_English_2-122-1	60.017	-33	1.0.0.18	1	-1685904002	Standard	2.0.10.353	2.0.10.353	09-08-2015	9/8/2015 9:06:43 PM	17:06:43	2.0.10.248	109	Bar50-50.bmp	49	2	?	0r_4g.bmp	0r_4g.bmp	0r_2g.bmp	0r_2g.bmp		0r_4g.bmp			TrialProc	TrialList	0	cvbn	-999999	16	317282	0	v	613	317895	328	-339	-11	-20	-24	1	32	7	11	109	0	0	0	0	4	4	2	2	0	4
Hungry_Donkey_bar_English_2	122	1	<?xml version="1.0"?>\n<Clock xmlns:dt="urn:schemas-microsoft-com:datatypes"><Description dt:dt="string">E-Prime Primary Realtime Clock</Description><StartTime><Timestamp dt:dt="int">0</Timestamp><DateUtc dt:dt="string">2015-09-08T21:06:43Z</DateUtc></StartTime><FrequencyChanges><FrequencyChange><Frequency dt:dt="r8">3507666</Frequency><Timestamp dt:dt="r8">311846019756</Timestamp><Current dt:dt="r8">0</Current><DateUtc dt:dt="string">2015-09-08T21:06:43Z</DateUtc></FrequencyChange></FrequencyChanges></Clock>\n	Hungry_Donkey_bar_English_2-122-1	60.017	-33	1.0.0.18	1	-1685904002	Standard	2.0.10.353	2.0.10.353	09-08-2015	9/8/2015 9:06:43 PM	17:06:43	2.0.10.248	110	Bar50-50.bmp	49	2	?	0r_4g.bmp	0r_4g.bmp	0r_2g.bmp	0r_2g.bmp		0r_4g.bmp			TrialProc	TrialList	0	cvbn	-999999	16	319931	0	v	507	320438	332	-339	-7	-20	-20	1	32	8	11	110	0	0	0	0	4	4	2	2	0	4
Hungry_Donkey_bar_English_2	122	1	<?xml version="1.0"?>\n<Clock xmlns:dt="urn:schemas-microsoft-com:datatypes"><Description dt:dt="string">E-Prime Primary Realtime Clock</Description><StartTime><Timestamp dt:dt="int">0</Timestamp><DateUtc dt:dt="string">2015-09-08T21:06:43Z</DateUtc></StartTime><FrequencyChanges><FrequencyChange><Frequency dt:dt="r8">3507666</Frequency><Timestamp dt:dt="r8">311846019756</Timestamp><Current dt:dt="r8">0</Current><DateUtc dt:dt="string">2015-09-08T21:06:43Z</DateUtc></FrequencyChange></FrequencyChanges></Clock>\n	Hungry_Donkey_bar_English_2-122-1	60.017	-33	1.0.0.18	1	-1685904002	Standard	2.0.10.353	2.0.10.353	09-08-2015	9/8/2015 9:06:43 PM	17:06:43	2.0.10.248	111	Bar50-50.bmp	50	2	?	0r_4g.bmp	0r_4g.bmp	0r_2g.bmp	0r_2g.bmp		0r_4g.bmp			TrialProc	TrialList	0	cvbn	-999999	16	322464	0	v	326	322790	336	-339	-3	-20	-16	1	32	6	12	111	0	0	0	0	4	4	2	2	0	4
