ExperimentName	Subject	Session	Clock.Information	DataFile.Basename	Display.RefreshRate	Eindtotaal[Session]	ExperimentVersion	Group	RandomSeed	RuntimeCapabilities	RuntimeVersion	RuntimeVersionExpected	SessionDate	SessionStartDateTimeUtc	SessionTime	StudioVersion	Block	BarImage	BarTotalWinst	DoorChoice	Eindtotaal[Block]	FBDoor1	FBDoor2	FBDoor3	FBDoor4	Image1	Image2	Image3	Image4	Procedure	Running	spel.ACC	spel.CRESP	spel.DurationError	spel.OnsetDelay	spel.OnsetTime	spel.OnsetToOnsetTime	spel.RESP	spel.RT	spel.RTTime	TotalGain	TotalLose	Totalsum	TotalsumD1	TotalsumD2	TotalsumD3	TotalsumD4	TrialList	TrialList.Cycle	TrialList.Sample	varV1	varV2	varV3	varV4	varW1	varW2	varW3	varW4	Verliesbedrag	Winstbedrag
Hungry_Donkey_bar_English_2	107	2	<?xml version="1.0"?>\n<Clock xmlns:dt="urn:schemas-microsoft-com:datatypes"><Description dt:dt="string">E-Prime Primary Realtime Clock</Description><StartTime><Timestamp dt:dt="int">0</Timestamp><DateUtc dt:dt="string">2015-07-07T17:10:55Z</DateUtc></StartTime><FrequencyChanges><FrequencyChange><Frequency dt:dt="r8">3507685</Frequency><Timestamp dt:dt="r8">15047812691</Timestamp><Current dt:dt="r8">0</Current><DateUtc dt:dt="string">2015-07-07T17:10:55Z</DateUtc></FrequencyChange></FrequencyChanges></Clock>\n	Hungry_Donkey_bar_English_2-107-2	60.017	273	1.0.0.18	1	-2131358191	Standard	2.0.10.353	2.0.10.353	07-07-2015	7/7/2015 5:10:55 PM	13:10:55	2.0.10.248	1	Bar100-0.bmp	100	2	?	0r_4g.bmp	0r_4g.bmp	0r_2g.bmp	0r_2g.bmp		0r_4g.bmp			TrialProc	TrialList	0	cvbn	-999999	36	59845	0	v	10908	70753	4	0	4	0	4	0	0	7	1	1	0	0	0	0	4	4	2	2	0	4
Hungry_Donkey_bar_English_2	107	2	<?xml version="1.0"?>\n<Clock xmlns:dt="urn:schemas-microsoft-com:datatypes"><Description dt:dt="string">E-Prime Primary Realtime Clock</Description><StartTime><Timestamp dt:dt="int">0</Timestamp><DateUtc dt:dt="string">2015-07-07T17:10:55Z</DateUtc></StartTime><FrequencyChanges><FrequencyChange><Frequency dt:dt="r8">3507685</Frequency><Timestamp dt:dt="r8">15047812691</Timestamp><Current dt:dt="r8">0</Current><DateUtc dt:dt="string">2015-07-07T17:10:55Z</DateUtc></FrequencyChange></FrequencyChanges></Clock>\n	Hungry_Donkey_bar_English_2-107-2	60.017	273	1.0.0.18	1	-2131358191	Standard	2.0.10.353	2.0.10.353	07-07-2015	7/7/2015 5:10:55 PM	13:10:55	2.0.10.248	2	Bar100-0.bmp	100	4	?	12r_4g.bmp	0r_4g.bmp	3r_2g.bmp	0r_2g.bmp				0r_2g.bmp	TrialProc	TrialList	0	cvbn	-999999	16	72791	0	n	4457	77248	6	0	6	0	4	0	2	5	1	2	-12	0	-3	0	4	4	2	2	0	2
Hungry_Donkey_bar_English_2	107	2	<?xml version="1.0"?>\n<Clock xmlns:dt="urn:schemas-microsoft-com:datatypes"><Description dt:dt="string">E-Prime Primary Realtime Clock</Description><StartTime><Timestamp dt:dt="int">0</Timestamp><DateUtc dt:dt="string">2015-07-07T17:10:55Z</DateUtc></StartTime><FrequencyChanges><FrequencyChange><Frequency dt:dt="r8">3507685</Frequency><Timestamp dt:dt="r8">15047812691</Timestamp><Current dt:dt="r8">0</Current><DateUtc dt:dt="string">2015-07-07T17:10:55Z</DateUtc></FrequencyChange></FrequencyChanges></Clock>\n	Hungry_Donkey_bar_English_2-107-2	60.017	273	1.0.0.18	1	-2131358191	Standard	2.0.10.353	2.0.10.353	07-07-2015	7/7/2015 5:10:55 PM	13:10:55	2.0.10.248	3	Bar100-0.bmp	100	2	?	0r_4g.bmp	0r_4g.bmp	0r_2g.bmp	0r_2g.bmp		0r_4g.bmp			TrialProc	TrialList	0	cvbn	-999999	16	79289	0	v	2663	81952	10	0	10	0	8	0	2	10	1	3	0	0	0	0	4	4	2	2	0	4
Hungry_Donkey_bar_English_2	107	2	<?xml version="1.0"?>\n<Clock xmlns:dt="urn:schemas-microsoft-com:datatypes"><Description dt:dt="string">E-Prime Primary Realtime Clock</Description><StartTime><Timestamp dt:dt="int">0</Timestamp><DateUtc dt:dt="string">2015-07-07T17:10:55Z</DateUtc></StartTime><FrequencyChanges><FrequencyChange><Frequency dt:dt="r8">3507685</Frequency><Timestamp dt:dt="r8">15047812691</Timestamp><Current dt:dt="r8">0</Current><DateUtc dt:dt="string">2015-07-07T17:10:55Z</DateUtc></FrequencyChange></FrequencyChanges></Clock>\n	Hungry_Donkey_bar_English_2-107-2	60.017	273	1.0.0.18	1	-2131358191	Standard	2.0.10.353	2.0.10.353	07-07-2015	7/7/2015 5:10:55 PM	13:10:55	2.0.10.248	4	Bar63-37.bmp	64	1	?	8r_4g.bmp	50r_4g.bmp	1r_2g.bmp	10r_2g.bmp	8r_4g.bmp				TrialProc	TrialList	0	cvbn	-999999	16	83988	0	c	6956	90944	14	-8	6	-4	8	0	2	1	1	4	-8	-50	-1	-10	4	4	2	2	-8	4
Hungry_Donkey_bar_English_2	107	2	<?xml version="1.0"?>\n<Clock xmlns:dt="urn:schemas-microsoft-com:datatypes"><Description dt:dt="string">E-Prime Primary Realtime Clock</Description><StartTime><Timestamp dt:dt="int">0</Timestamp><DateUtc dt:dt="string">2015-07-07T17:10:55Z</DateUtc></StartTime><FrequencyChanges><FrequencyChange><Frequency dt:dt="r8">3507685</Frequency><Timestamp dt:dt="r8">15047812691</Timestamp><Current dt:dt="r8">0</Current><DateUtc dt:dt="string">2015-07-07T17:10:55Z</DateUtc></FrequencyChange></FrequencyChanges></Clock>\n	Hungry_Donkey_bar_English_2-107-2	60.017	273	1.0.0.18	1	-2131358191	Standard	2.0.10.353	2.0.10.353	07-07-2015	7/7/2015 5:10:55 PM	13:10:55	2.0.10.248	5	Bar63-37.bmp	62	3	?	10r_4g.bmp	0r_4g.bmp	2r_2g.bmp	0r_2g.bmp			2r_2g.bmp		TrialProc	TrialList	0	cvbn	-999999	16	92985	0	b	2519	95504	16	-10	6	-4	8	0	2	3	1	5	-10	0	-2	0	4	4	2	2	-2	2
Hungry_Donkey_bar_English_2	107	2	<?xml version="1.0"?>\n<Clock xmlns:dt="urn:schemas-microsoft-com:datatypes"><Description dt:dt="string">E-Prime Primary Realtime Clock</Description><StartTime><Timestamp dt:dt="int">0</Timestamp><DateUtc dt:dt="string">2015-07-07T17:10:55Z</DateUtc></StartTime><FrequencyChanges><FrequencyChange><Frequency dt:dt="r8">3507685</Frequency><Timestamp dt:dt="r8">15047812691</Timestamp><Current dt:dt="r8">0</Current><DateUtc dt:dt="string">2015-07-07T17:10:55Z</DateUtc></FrequencyChange></FrequencyChanges></Clock>\n	Hungry_Donkey_bar_English_2-107-2	60.017	273	1.0.0.18	1	-2131358191	Standard	2.0.10.353	2.0.10.353	07-07-2015	7/7/2015 5:10:55 PM	13:10:55	2.0.10.248	6	Bar63-37.bmp	64	4	?	0r_4g.bmp	0r_4g.bmp	0r_2g.bmp	0r_2g.bmp				0r_2g.bmp	TrialProc	TrialList	0	cvbn	-999999	16	97534	0	n	1553	99087	18	-10	8	-4	8	0	4	8	1	6	0	0	0	0	4	4	2	2	0	2
Hungry_Donkey_bar_English_2	107	2	<?xml version="1.0"?>\n<Clock xmlns:dt="urn:schemas-microsoft-com:datatypes"><Description dt:dt="string">E-Prime Primary Realtime Clock</Description><StartTime><Timestamp dt:dt="int">0</Timestamp><DateUtc dt:dt="string">2015-07-07T17:10:55Z</DateUtc></StartTime><FrequencyChanges><FrequencyChange><Frequency dt:dt="r8">3507685</Frequency><Timestamp dt:dt="r8">15047812691</Timestamp><Current dt:dt="r8">0</Current><DateUtc dt:dt="string">2015-07-07T17:10:55Z</DateUtc></FrequencyChange></FrequencyChanges></Clock>\n	Hungry_Donkey_bar_English_2-107-2	60.017	273	1.0.0.18	1	-2131358191	Standard	2.0.10.353	2.0.10.353	07-07-2015	7/7/2015 5:10:55 PM	13:10:55	2.0.10.248	7	Bar63-37.bmp	69	1	?	0r_4g.bmp	0r_4g.bmp	0r_2g.bmp	0r_2g.bmp	0r_4g.bmp				TrialProc	TrialList	0	cvbn	-999999	16	101116	0	c	2643	103759	22	-10	12	0	8	0	4	9	1	7	0	0	0	0	4	4	2	2	0	4
Hungry_Donkey_bar_English_2	107	2	<?xml version="1.0"?>\n<Clock xmlns:dt="urn:schemas-microsoft-com:datatypes"><Description dt:dt="string">E-Prime Primary Realtime Clock</Description><StartTime><Timestamp dt:dt="int">0</Timestamp><DateUtc dt:dt="string">2015-07-07T17:10:55Z</DateUtc></StartTime><FrequencyChanges><FrequencyChange><Frequency dt:dt="r8">3507685</Frequency><Timestamp dt:dt="r8">15047812691</Timestamp><Current dt:dt="r8">0</Current><DateUtc dt:dt="string">2015-07-07T17:10:55Z</DateUtc></FrequencyChange></FrequencyChanges></Clock>\n	Hungry_Donkey_bar_English_2-107-2	60.017	273	1.0.0.18	1	-2131358191	Standard	2.0.10.353	2.0.10.353	07-07-2015	7/7/2015 5:10:55 PM	13:10:55	2.0.10.248	8	Bar75-25.bmp	72	2	?	10r_4g.bmp	0r_4g.bmp	2r_2g.bmp	0r_2g.bmp		0r_4g.bmp			TrialProc	TrialList	0	cvbn	-999999	16	105798	0	v	1609	107407	26	-10	16	0	12	0	4	4	1	8	-10	0	-2	0	4	4	2	2	0	4
Hungry_Donkey_bar_English_2	107	2	<?xml version="1.0"?>\n<Clock xmlns:dt="urn:schemas-microsoft-com:datatypes"><Description dt:dt="string">E-Prime Primary Realtime Clock</Description><StartTime><Timestamp dt:dt="int">0</Timestamp><DateUtc dt:dt="string">2015-07-07T17:10:55Z</DateUtc></StartTime><FrequencyChanges><FrequencyChange><Frequency dt:dt="r8">3507685</Frequency><Timestamp dt:dt="r8">15047812691</Timestamp><Current dt:dt="r8">0</Current><DateUtc dt:dt="string">2015-07-07T17:10:55Z</DateUtc></FrequencyChange></FrequencyChanges></Clock>\n	Hungry_Donkey_bar_English_2-107-2	60.017	273	1.0.0.18	1	-2131358191	Standard	2.0.10.353	2.0.10.353	07-07-2015	7/7/2015 5:10:55 PM	13:10:55	2.0.10.248	9	Bar75-25.bmp	70	3	?	10r_4g.bmp	0r_4g.bmp	2r_2g.bmp	0r_2g.bmp			2r_2g.bmp		TrialProc	TrialList	0	cvbn	-999999	16	109447	0	b	600	110047	28	-12	16	0	12	0	4	2	1	9	-10	0	-2	0	4	4	2	2	-2	2
Hungry_Donkey_bar_English_2	107	2	<?xml version="1.0"?>\n<Clock xmlns:dt="urn:schemas-microsoft-com:datatypes"><Description dt:dt="string">E-Prime Primary Realtime Clock</Description><StartTime><Timestamp dt:dt="int">0</Timestamp><DateUtc dt:dt="string">2015-07-07T17:10:55Z</DateUtc></StartTime><FrequencyChanges><FrequencyChange><Frequency dt:dt="r8">3507685</Frequency><Timestamp dt:dt="r8">15047812691</Timestamp><Current dt:dt="r8">0</Current><DateUtc dt:dt="string">2015-07-07T17:10:55Z</DateUtc></FrequencyChange></FrequencyChanges></Clock>\n	Hungry_Donkey_bar_English_2-107-2	60.017	273	1.0.0.18	1	-2131358191	Standard	2.0.10.353	2.0.10.353	07-07-2015	7/7/2015 5:10:55 PM	13:10:55	2.0.10.248	10	Bar75-25.bmp	71	4	?	0r_4g.bmp	0r_4g.bmp	0r_2g.bmp	0r_2g.bmp				0r_2g.bmp	TrialProc	TrialList	0	cvbn	-999999	16	112080	0	n	1711	113791	30	-12	18	0	12	0	6	6	1	10	0	0	0	0	4	4	2	2	0	2
Hungry_Donkey_bar_English_2	107	2	<?xml version="1.0"?>\n<Clock xmlns:dt="urn:schemas-microsoft-com:datatypes"><Description dt:dt="string">E-Prime Primary Realtime Clock</Description><StartTime><Timestamp dt:dt="int">0</Timestamp><DateUtc dt:dt="string">2015-07-07T17:10:55Z</DateUtc></StartTime><FrequencyChanges><FrequencyChange><Frequency dt:dt="r8">3507685</Frequency><Timestamp dt:dt="r8">15047812691</Timestamp><Current dt:dt="r8">0</Current><DateUtc dt:dt="string">2015-07-07T17:10:55Z</DateUtc></FrequencyChange></FrequencyChanges></Clock>\n	Hungry_Donkey_bar_English_2-107-2	60.017	273	1.0.0.18	1	-2131358191	Standard	2.0.10.353	2.0.10.353	07-07-2015	7/7/2015 5:10:55 PM	13:10:55	2.0.10.248	11	Bar63-37.bmp	61	1	?	10r_4g.bmp	0r_4g.bmp	2r_2g.bmp	0r_2g.bmp	10r_4g.bmp				TrialProc	TrialList	0	cvbn	-999999	16	115829	0	c	1001	116830	34	-22	12	-6	12	0	6	3	2	11	-10	0	-2	0	4	4	2	2	-10	4
Hungry_Donkey_bar_English_2	107	2	<?xml version="1.0"?>\n<Clock xmlns:dt="urn:schemas-microsoft-com:datatypes"><Description dt:dt="string">E-Prime Primary Realtime Clock</Description><StartTime><Timestamp dt:dt="int">0</Timestamp><DateUtc dt:dt="string">2015-07-07T17:10:55Z</DateUtc></StartTime><FrequencyChanges><FrequencyChange><Frequency dt:dt="r8">3507685</Frequency><Timestamp dt:dt="r8">15047812691</Timestamp><Current dt:dt="r8">0</Current><DateUtc dt:dt="string">2015-07-07T17:10:55Z</DateUtc></FrequencyChange></FrequencyChanges></Clock>\n	Hungry_Donkey_bar_English_2-107-2	60.017	273	1.0.0.18	1	-2131358191	Standard	2.0.10.353	2.0.10.353	07-07-2015	7/7/2015 5:10:55 PM	13:10:55	2.0.10.248	12	Bar63-37.bmp	63	2	?	12r_4g.bmp	0r_4g.bmp	3r_2g.bmp	0r_2g.bmp		0r_4g.bmp			TrialProc	TrialList	0	cvbn	-999999	16	118861	0	v	1681	120542	38	-22	16	-6	16	0	6	5	2	12	-12	0	-3	0	4	4	2	2	0	4
Hungry_Donkey_bar_English_2	107	2	<?xml version="1.0"?>\n<Clock xmlns:dt="urn:schemas-microsoft-com:datatypes"><Description dt:dt="string">E-Prime Primary Realtime Clock</Description><StartTime><Timestamp dt:dt="int">0</Timestamp><DateUtc dt:dt="string">2015-07-07T17:10:55Z</DateUtc></StartTime><FrequencyChanges><FrequencyChange><Frequency dt:dt="r8">3507685</Frequency><Timestamp dt:dt="r8">15047812691</Timestamp><Current dt:dt="r8">0</Current><DateUtc dt:dt="string">2015-07-07T17:10:55Z</DateUtc></FrequencyChange></FrequencyChanges></Clock>\n	Hungry_Donkey_bar_English_2-107-2	60.017	273	1.0.0.18	1	-2131358191	Standard	2.0.10.353	2.0.10.353	07-07-2015	7/7/2015 5:10:55 PM	13:10:55	2.0.10.248	13	Bar63-37.bmp	65	3	?	0r_4g.bmp	0r_4g.bmp	0r_2g.bmp	0r_2g.bmp			0r_2g.bmp		TrialProc	TrialList	0	cvbn	-999999	16	122577	0	b	1309	123886	40	-22	18	-6	16	2	6	7	2	13	0	0	0	0	4	4	2	2	0	2
Hungry_Donkey_bar_English_2	107	2	<?xml version="1.0"?>\n<Clock xmlns:dt="urn:schemas-microsoft-com:datatypes"><Description dt:dt="string">E-Prime Primary Realtime Clock</Description><StartTime><Timestamp dt:dt="int">0</Timestamp><DateUtc dt:dt="string">2015-07-07T17:10:55Z</DateUtc></StartTime><FrequencyChanges><FrequencyChange><Frequency dt:dt="r8">3507685</Frequency><Timestamp dt:dt="r8">15047812691</Timestamp><Current dt:dt="r8">0</Current><DateUtc dt:dt="string">2015-07-07T17:10:55Z</DateUtc></FrequencyChange></FrequencyChanges></Clock>\n	Hungry_Donkey_bar_English_2-107-2	60.017	273	1.0.0.18	1	-2131358191	Standard	2.0.10.353	2.0.10.353	07-07-2015	7/7/2015 5:10:55 PM	13:10:55	2.0.10.248	14	Bar63-37.bmp	59	1	?	8r_4g.bmp	50r_4g.bmp	1r_2g.bmp	10r_2g.bmp	8r_4g.bmp				TrialProc	TrialList	0	cvbn	-999999	16	125909	0	c	4617	130526	44	-30	14	-10	16	2	6	1	2	14	-8	-50	-1	-10	4	4	2	2	-8	4
Hungry_Donkey_bar_English_2	107	2	<?xml version="1.0"?>\n<Clock xmlns:dt="urn:schemas-microsoft-com:datatypes"><Description dt:dt="string">E-Prime Primary Realtime Clock</Description><StartTime><Timestamp dt:dt="int">0</Timestamp><DateUtc dt:dt="string">2015-07-07T17:10:55Z</DateUtc></StartTime><FrequencyChanges><FrequencyChange><Frequency dt:dt="r8">3507685</Frequency><Timestamp dt:dt="r8">15047812691</Timestamp><Current dt:dt="r8">0</Current><DateUtc dt:dt="string">2015-07-07T17:10:55Z</DateUtc></FrequencyChange></FrequencyChanges></Clock>\n	Hungry_Donkey_bar_English_2-107-2	60.017	273	1.0.0.18	1	-2131358191	Standard	2.0.10.353	2.0.10.353	07-07-2015	7/7/2015 5:10:55 PM	13:10:55	2.0.10.248	15	Bar63-37.bmp	62	2	?	0r_4g.bmp	0r_4g.bmp	0r_2g.bmp	0r_2g.bmp		0r_4g.bmp			TrialProc	TrialList	0	cvbn	-999999	16	132557	0	v	1137	133694	48	-30	18	-10	20	2	6	6	2	15	0	0	0	0	4	4	2	2	0	4
Hungry_Donkey_bar_English_2	107	2	<?xml version="1.0"?>\n<Clock xmlns:dt="urn:schemas-microsoft-com:datatypes"><Description dt:dt="string">E-Prime Primary Realtime Clock</Description><StartTime><Timestamp dt:dt="int">0</Timestamp><DateUtc dt:dt="string">2015-07-07T17:10:55Z</DateUtc></StartTime><FrequencyChanges><FrequencyChange><Frequency dt:dt="r8">3507685</Frequency><Timestamp dt:dt="r8">15047812691</Timestamp><Current dt:dt="r8">0</Current><DateUtc dt:dt="string">2015-07-07T17:10:55Z</DateUtc></FrequencyChange></FrequencyChanges></Clock>\n	Hungry_Donkey_bar_English_2-107-2	60.017	273	1.0.0.18	1	-2131358191	Standard	2.0.10.353	2.0.10.353	07-07-2015	7/7/2015 5:10:55 PM	13:10:55	2.0.10.248	16	Bar63-37.bmp	62	3	?	0r_4g.bmp	0r_4g.bmp	0r_2g.bmp	0r_2g.bmp			0r_2g.bmp		TrialProc	TrialList	0	cvbn	-999999	16	135723	0	b	642	136365	50	-30	20	-10	20	4	6	10	2	16	0	0	0	0	4	4	2	2	0	2
Hungry_Donkey_bar_English_2	107	2	<?xml version="1.0"?>\n<Clock xmlns:dt="urn:schemas-microsoft-com:datatypes"><Description dt:dt="string">E-Prime Primary Realtime Clock</Description><StartTime><Timestamp dt:dt="int">0</Timestamp><DateUtc dt:dt="string">2015-07-07T17:10:55Z</DateUtc></StartTime><FrequencyChanges><FrequencyChange><Frequency dt:dt="r8">3507685</Frequency><Timestamp dt:dt="r8">15047812691</Timestamp><Current dt:dt="r8">0</Current><DateUtc dt:dt="string">2015-07-07T17:10:55Z</DateUtc></FrequencyChange></FrequencyChanges></Clock>\n	Hungry_Donkey_bar_English_2-107-2	60.017	273	1.0.0.18	1	-2131358191	Standard	2.0.10.353	2.0.10.353	07-07-2015	7/7/2015 5:10:55 PM	13:10:55	2.0.10.248	17	Bar63-37.bmp	63	4	?	10r_4g.bmp	0r_4g.bmp	2r_2g.bmp	0r_2g.bmp				0r_2g.bmp	TrialProc	TrialList	0	cvbn	-999999	17	138406	0	n	1111	139517	52	-30	22	-10	20	4	8	2	2	17	-10	0	-2	0	4	4	2	2	0	2
Hungry_Donkey_bar_English_2	107	2	<?xml version="1.0"?>\n<Clock xmlns:dt="urn:schemas-microsoft-com:datatypes"><Description dt:dt="string">E-Prime Primary Realtime Clock</Description><StartTime><Timestamp dt:dt="int">0</Timestamp><DateUtc dt:dt="string">2015-07-07T17:10:55Z</DateUtc></StartTime><FrequencyChanges><FrequencyChange><Frequency dt:dt="r8">3507685</Frequency><Timestamp dt:dt="r8">15047812691</Timestamp><Current dt:dt="r8">0</Current><DateUtc dt:dt="string">2015-07-07T17:10:55Z</DateUtc></FrequencyChange></FrequencyChanges></Clock>\n	Hungry_Donkey_bar_English_2-107-2	60.017	273	1.0.0.18	1	-2131358191	Standard	2.0.10.353	2.0.10.353	07-07-2015	7/7/2015 5:10:55 PM	13:10:55	2.0.10.248	18	Bar63-37.bmp	65	1	?	0r_4g.bmp	0r_4g.bmp	0r_2g.bmp	0r_2g.bmp	0r_4g.bmp				TrialProc	TrialList	0	cvbn	-999999	16	141555	0	c	442	141997	56	-30	26	-6	20	4	8	8	2	18	0	0	0	0	4	4	2	2	0	4
Hungry_Donkey_bar_English_2	107	2	<?xml version="1.0"?>\n<Clock xmlns:dt="urn:schemas-microsoft-com:datatypes"><Description dt:dt="string">E-Prime Primary Realtime Clock</Description><StartTime><Timestamp dt:dt="int">0</Timestamp><DateUtc dt:dt="string">2015-07-07T17:10:55Z</DateUtc></StartTime><FrequencyChanges><FrequencyChange><Frequency dt:dt="r8">3507685</Frequency><Timestamp dt:dt="r8">15047812691</Timestamp><Current dt:dt="r8">0</Current><DateUtc dt:dt="string">2015-07-07T17:10:55Z</DateUtc></FrequencyChange></FrequencyChanges></Clock>\n	Hungry_Donkey_bar_English_2-107-2	60.017	273	1.0.0.18	1	-2131358191	Standard	2.0.10.353	2.0.10.353	07-07-2015	7/7/2015 5:10:55 PM	13:10:55	2.0.10.248	19	Bar63-37.bmp	67	2	?	0r_4g.bmp	0r_4g.bmp	0r_2g.bmp	0r_2g.bmp		0r_4g.bmp			TrialProc	TrialList	0	cvbn	-999999	16	144037	0	v	88	144125	60	-30	30	-6	24	4	8	9	2	19	0	0	0	0	4	4	2	2	0	4
Hungry_Donkey_bar_English_2	107	2	<?xml version="1.0"?>\n<Clock xmlns:dt="urn:schemas-microsoft-com:datatypes"><Description dt:dt="string">E-Prime Primary Realtime Clock</Description><StartTime><Timestamp dt:dt="int">0</Timestamp><DateUtc dt:dt="string">2015-07-07T17:10:55Z</DateUtc></StartTime><FrequencyChanges><FrequencyChange><Frequency dt:dt="r8">3507685</Frequency><Timestamp dt:dt="r8">15047812691</Timestamp><Current dt:dt="r8">0</Current><DateUtc dt:dt="string">2015-07-07T17:10:55Z</DateUtc></FrequencyChange></FrequencyChanges></Clock>\n	Hungry_Donkey_bar_English_2-107-2	60.017	273	1.0.0.18	1	-2131358191	Standard	2.0.10.353	2.0.10.353	07-07-2015	7/7/2015 5:10:55 PM	13:10:55	2.0.10.248	20	Bar63-37.bmp	66	3	?	10r_4g.bmp	0r_4g.bmp	2r_2g.bmp	0r_2g.bmp			2r_2g.bmp		TrialProc	TrialList	0	cvbn	-999999	16	146153	0	b	1300	147453	62	-32	30	-6	24	4	8	4	2	20	-10	0	-2	0	4	4	2	2	-2	2
Hungry_Donkey_bar_English_2	107	2	<?xml version="1.0"?>\n<Clock xmlns:dt="urn:schemas-microsoft-com:datatypes"><Description dt:dt="string">E-Prime Primary Realtime Clock</Description><StartTime><Timestamp dt:dt="int">0</Timestamp><DateUtc dt:dt="string">2015-07-07T17:10:55Z</DateUtc></StartTime><FrequencyChanges><FrequencyChange><Frequency dt:dt="r8">3507685</Frequency><Timestamp dt:dt="r8">15047812691</Timestamp><Current dt:dt="r8">0</Current><DateUtc dt:dt="string">2015-07-07T17:10:55Z</DateUtc></FrequencyChange></FrequencyChanges></Clock>\n	Hungry_Donkey_bar_English_2-107-2	60.017	273	1.0.0.18	1	-2131358191	Standard	2.0.10.353	2.0.10.353	07-07-2015	7/7/2015 5:10:55 PM	13:10:55	2.0.10.248	21	Bar63-37.bmp	67	4	?	0r_4g.bmp	0r_4g.bmp	0r_2g.bmp	0r_2g.bmp				0r_2g.bmp	TrialProc	TrialList	0	cvbn	-999999	16	149486	0	n	799	150285	64	-32	32	-6	24	4	10	10	3	21	0	0	0	0	4	4	2	2	0	2
Hungry_Donkey_bar_English_2	107	2	<?xml version="1.0"?>\n<Clock xmlns:dt="urn:schemas-microsoft-com:datatypes"><Description dt:dt="string">E-Prime Primary Realtime Clock</Description><StartTime><Timestamp dt:dt="int">0</Timestamp><DateUtc dt:dt="string">2015-07-07T17:10:55Z</DateUtc></StartTime><FrequencyChanges><FrequencyChange><Frequency dt:dt="r8">3507685</Frequency><Timestamp dt:dt="r8">15047812691</Timestamp><Current dt:dt="r8">0</Current><DateUtc dt:dt="string">2015-07-07T17:10:55Z</DateUtc></FrequencyChange></FrequencyChanges></Clock>\n	Hungry_Donkey_bar_English_2-107-2	60.017	273	1.0.0.18	1	-2131358191	Standard	2.0.10.353	2.0.10.353	07-07-2015	7/7/2015 5:10:55 PM	13:10:55	2.0.10.248	22	Bar63-37.bmp	62	1	?	10r_4g.bmp	0r_4g.bmp	2r_2g.bmp	0r_2g.bmp	10r_4g.bmp				TrialProc	TrialList	0	cvbn	-999999	16	152318	0	c	1087	153405	68	-42	26	-12	24	4	10	2	3	22	-10	0	-2	0	4	4	2	2	-10	4
Hungry_Donkey_bar_English_2	107	2	<?xml version="1.0"?>\n<Clock xmlns:dt="urn:schemas-microsoft-com:datatypes"><Description dt:dt="string">E-Prime Primary Realtime Clock</Description><StartTime><Timestamp dt:dt="int">0</Timestamp><DateUtc dt:dt="string">2015-07-07T17:10:55Z</DateUtc></StartTime><FrequencyChanges><FrequencyChange><Frequency dt:dt="r8">3507685</Frequency><Timestamp dt:dt="r8">15047812691</Timestamp><Current dt:dt="r8">0</Current><DateUtc dt:dt="string">2015-07-07T17:10:55Z</DateUtc></FrequencyChange></FrequencyChanges></Clock>\n	Hungry_Donkey_bar_English_2-107-2	60.017	273	1.0.0.18	1	-2131358191	Standard	2.0.10.353	2.0.10.353	07-07-2015	7/7/2015 5:10:55 PM	13:10:55	2.0.10.248	23	Bar63-37.bmp	61	3	?	12r_4g.bmp	0r_4g.bmp	3r_2g.bmp	0r_2g.bmp			3r_2g.bmp		TrialProc	TrialList	0	cvbn	-999999	16	155434	0	b	962	156396	70	-45	25	-12	24	3	10	5	3	23	-12	0	-3	0	4	4	2	2	-3	2
Hungry_Donkey_bar_English_2	107	2	<?xml version="1.0"?>\n<Clock xmlns:dt="urn:schemas-microsoft-com:datatypes"><Description dt:dt="string">E-Prime Primary Realtime Clock</Description><StartTime><Timestamp dt:dt="int">0</Timestamp><DateUtc dt:dt="string">2015-07-07T17:10:55Z</DateUtc></StartTime><FrequencyChanges><FrequencyChange><Frequency dt:dt="r8">3507685</Frequency><Timestamp dt:dt="r8">15047812691</Timestamp><Current dt:dt="r8">0</Current><DateUtc dt:dt="string">2015-07-07T17:10:55Z</DateUtc></FrequencyChange></FrequencyChanges></Clock>\n	Hungry_Donkey_bar_English_2-107-2	60.017	273	1.0.0.18	1	-2131358191	Standard	2.0.10.353	2.0.10.353	07-07-2015	7/7/2015 5:10:55 PM	13:10:55	2.0.10.248	24	Bar63-37.bmp	62	2	?	10r_4g.bmp	0r_4g.bmp	2r_2g.bmp	0r_2g.bmp		0r_4g.bmp			TrialProc	TrialList	0	cvbn	-999999	16	158433	0	v	1419	159852	74	-45	29	-12	28	3	10	3	3	24	-10	0	-2	0	4	4	2	2	0	4
Hungry_Donkey_bar_English_2	107	2	<?xml version="1.0"?>\n<Clock xmlns:dt="urn:schemas-microsoft-com:datatypes"><Description dt:dt="string">E-Prime Primary Realtime Clock</Description><StartTime><Timestamp dt:dt="int">0</Timestamp><DateUtc dt:dt="string">2015-07-07T17:10:55Z</DateUtc></StartTime><FrequencyChanges><FrequencyChange><Frequency dt:dt="r8">3507685</Frequency><Timestamp dt:dt="r8">15047812691</Timestamp><Current dt:dt="r8">0</Current><DateUtc dt:dt="string">2015-07-07T17:10:55Z</DateUtc></FrequencyChange></FrequencyChanges></Clock>\n	Hungry_Donkey_bar_English_2-107-2	60.017	273	1.0.0.18	1	-2131358191	Standard	2.0.10.353	2.0.10.353	07-07-2015	7/7/2015 5:10:55 PM	13:10:55	2.0.10.248	25	Bar63-37.bmp	58	4	?	8r_4g.bmp	50r_4g.bmp	1r_2g.bmp	10r_2g.bmp				10r_2g.bmp	TrialProc	TrialList	0	cvbn	-999999	16	161882	0	n	834	162716	76	-55	21	-12	28	3	2	1	3	25	-8	-50	-1	-10	4	4	2	2	-10	2
Hungry_Donkey_bar_English_2	107	2	<?xml version="1.0"?>\n<Clock xmlns:dt="urn:schemas-microsoft-com:datatypes"><Description dt:dt="string">E-Prime Primary Realtime Clock</Description><StartTime><Timestamp dt:dt="int">0</Timestamp><DateUtc dt:dt="string">2015-07-07T17:10:55Z</DateUtc></StartTime><FrequencyChanges><FrequencyChange><Frequency dt:dt="r8">3507685</Frequency><Timestamp dt:dt="r8">15047812691</Timestamp><Current dt:dt="r8">0</Current><DateUtc dt:dt="string">2015-07-07T17:10:55Z</DateUtc></FrequencyChange></FrequencyChanges></Clock>\n	Hungry_Donkey_bar_English_2-107-2	60.017	273	1.0.0.18	1	-2131358191	Standard	2.0.10.353	2.0.10.353	07-07-2015	7/7/2015 5:10:55 PM	13:10:55	2.0.10.248	26	Bar50-50.bmp	55	1	?	10r_4g.bmp	0r_4g.bmp	2r_2g.bmp	0r_2g.bmp	10r_4g.bmp				TrialProc	TrialList	0	cvbn	-999999	16	164748	0	c	912	165660	80	-65	15	-18	28	3	2	4	3	26	-10	0	-2	0	4	4	2	2	-10	4
Hungry_Donkey_bar_English_2	107	2	<?xml version="1.0"?>\n<Clock xmlns:dt="urn:schemas-microsoft-com:datatypes"><Description dt:dt="string">E-Prime Primary Realtime Clock</Description><StartTime><Timestamp dt:dt="int">0</Timestamp><DateUtc dt:dt="string">2015-07-07T17:10:55Z</DateUtc></StartTime><FrequencyChanges><FrequencyChange><Frequency dt:dt="r8">3507685</Frequency><Timestamp dt:dt="r8">15047812691</Timestamp><Current dt:dt="r8">0</Current><DateUtc dt:dt="string">2015-07-07T17:10:55Z</DateUtc></FrequencyChange></FrequencyChanges></Clock>\n	Hungry_Donkey_bar_English_2-107-2	60.017	273	1.0.0.18	1	-2131358191	Standard	2.0.10.353	2.0.10.353	07-07-2015	7/7/2015 5:10:55 PM	13:10:55	2.0.10.248	27	Bar50-50.bmp	56	3	?	0r_4g.bmp	0r_4g.bmp	0r_2g.bmp	0r_2g.bmp			0r_2g.bmp		TrialProc	TrialList	0	cvbn	-999999	16	167697	0	b	1515	169212	82	-65	17	-18	28	5	2	6	3	27	0	0	0	0	4	4	2	2	0	2
Hungry_Donkey_bar_English_2	107	2	<?xml version="1.0"?>\n<Clock xmlns:dt="urn:schemas-microsoft-com:datatypes"><Description dt:dt="string">E-Prime Primary Realtime Clock</Description><StartTime><Timestamp dt:dt="int">0</Timestamp><DateUtc dt:dt="string">2015-07-07T17:10:55Z</DateUtc></StartTime><FrequencyChanges><FrequencyChange><Frequency dt:dt="r8">3507685</Frequency><Timestamp dt:dt="r8">15047812691</Timestamp><Current dt:dt="r8">0</Current><DateUtc dt:dt="string">2015-07-07T17:10:55Z</DateUtc></FrequencyChange></FrequencyChanges></Clock>\n	Hungry_Donkey_bar_English_2-107-2	60.017	273	1.0.0.18	1	-2131358191	Standard	2.0.10.353	2.0.10.353	07-07-2015	7/7/2015 5:10:55 PM	13:10:55	2.0.10.248	28	Bar50-50.bmp	56	4	?	0r_4g.bmp	0r_4g.bmp	0r_2g.bmp	0r_2g.bmp				0r_2g.bmp	TrialProc	TrialList	0	cvbn	-999999	16	171246	0	n	1710	172956	84	-65	19	-18	28	5	4	8	3	28	0	0	0	0	4	4	2	2	0	2
Hungry_Donkey_bar_English_2	107	2	<?xml version="1.0"?>\n<Clock xmlns:dt="urn:schemas-microsoft-com:datatypes"><Description dt:dt="string">E-Prime Primary Realtime Clock</Description><StartTime><Timestamp dt:dt="int">0</Timestamp><DateUtc dt:dt="string">2015-07-07T17:10:55Z</DateUtc></StartTime><FrequencyChanges><FrequencyChange><Frequency dt:dt="r8">3507685</Frequency><Timestamp dt:dt="r8">15047812691</Timestamp><Current dt:dt="r8">0</Current><DateUtc dt:dt="string">2015-07-07T17:10:55Z</DateUtc></FrequencyChange></FrequencyChanges></Clock>\n	Hungry_Donkey_bar_English_2-107-2	60.017	273	1.0.0.18	1	-2131358191	Standard	2.0.10.353	2.0.10.353	07-07-2015	7/7/2015 5:10:55 PM	13:10:55	2.0.10.248	29	Bar63-37.bmp	57	4	?	0r_4g.bmp	0r_4g.bmp	0r_2g.bmp	0r_2g.bmp				0r_2g.bmp	TrialProc	TrialList	0	cvbn	-999999	16	174995	0	n	840	175835	86	-65	21	-18	28	5	6	7	3	29	0	0	0	0	4	4	2	2	0	2
Hungry_Donkey_bar_English_2	107	2	<?xml version="1.0"?>\n<Clock xmlns:dt="urn:schemas-microsoft-com:datatypes"><Description dt:dt="string">E-Prime Primary Realtime Clock</Description><StartTime><Timestamp dt:dt="int">0</Timestamp><DateUtc dt:dt="string">2015-07-07T17:10:55Z</DateUtc></StartTime><FrequencyChanges><FrequencyChange><Frequency dt:dt="r8">3507685</Frequency><Timestamp dt:dt="r8">15047812691</Timestamp><Current dt:dt="r8">0</Current><DateUtc dt:dt="string">2015-07-07T17:10:55Z</DateUtc></FrequencyChange></FrequencyChanges></Clock>\n	Hungry_Donkey_bar_English_2-107-2	60.017	273	1.0.0.18	1	-2131358191	Standard	2.0.10.353	2.0.10.353	07-07-2015	7/7/2015 5:10:55 PM	13:10:55	2.0.10.248	30	Bar63-37.bmp	58	2	?	0r_4g.bmp	0r_4g.bmp	0r_2g.bmp	0r_2g.bmp		0r_4g.bmp			TrialProc	TrialList	0	cvbn	-999999	16	177861	0	v	2438	180299	90	-65	25	-18	32	5	6	9	3	30	0	0	0	0	4	4	2	2	0	4
Hungry_Donkey_bar_English_2	107	2	<?xml version="1.0"?>\n<Clock xmlns:dt="urn:schemas-microsoft-com:datatypes"><Description dt:dt="string">E-Prime Primary Realtime Clock</Description><StartTime><Timestamp dt:dt="int">0</Timestamp><DateUtc dt:dt="string">2015-07-07T17:10:55Z</DateUtc></StartTime><FrequencyChanges><FrequencyChange><Frequency dt:dt="r8">3507685</Frequency><Timestamp dt:dt="r8">15047812691</Timestamp><Current dt:dt="r8">0</Current><DateUtc dt:dt="string">2015-07-07T17:10:55Z</DateUtc></FrequencyChange></FrequencyChanges></Clock>\n	Hungry_Donkey_bar_English_2-107-2	60.017	273	1.0.0.18	1	-2131358191	Standard	2.0.10.353	2.0.10.353	07-07-2015	7/7/2015 5:10:55 PM	13:10:55	2.0.10.248	31	Bar63-37.bmp	59	1	?	0r_4g.bmp	0r_4g.bmp	0r_2g.bmp	0r_2g.bmp	0r_4g.bmp				TrialProc	TrialList	0	cvbn	-999999	16	182326	0	c	869	183195	94	-65	29	-14	32	5	6	10	4	31	0	0	0	0	4	4	2	2	0	4
Hungry_Donkey_bar_English_2	107	2	<?xml version="1.0"?>\n<Clock xmlns:dt="urn:schemas-microsoft-com:datatypes"><Description dt:dt="string">E-Prime Primary Realtime Clock</Description><StartTime><Timestamp dt:dt="int">0</Timestamp><DateUtc dt:dt="string">2015-07-07T17:10:55Z</DateUtc></StartTime><FrequencyChanges><FrequencyChange><Frequency dt:dt="r8">3507685</Frequency><Timestamp dt:dt="r8">15047812691</Timestamp><Current dt:dt="r8">0</Current><DateUtc dt:dt="string">2015-07-07T17:10:55Z</DateUtc></FrequencyChange></FrequencyChanges></Clock>\n	Hungry_Donkey_bar_English_2-107-2	60.017	273	1.0.0.18	1	-2131358191	Standard	2.0.10.353	2.0.10.353	07-07-2015	7/7/2015 5:10:55 PM	13:10:55	2.0.10.248	32	Bar63-37.bmp	60	2	?	10r_4g.bmp	0r_4g.bmp	2r_2g.bmp	0r_2g.bmp		0r_4g.bmp			TrialProc	TrialList	0	cvbn	-999999	16	185225	0	v	1458	186683	98	-65	33	-14	36	5	6	4	4	32	-10	0	-2	0	4	4	2	2	0	4
Hungry_Donkey_bar_English_2	107	2	<?xml version="1.0"?>\n<Clock xmlns:dt="urn:schemas-microsoft-com:datatypes"><Description dt:dt="string">E-Prime Primary Realtime Clock</Description><StartTime><Timestamp dt:dt="int">0</Timestamp><DateUtc dt:dt="string">2015-07-07T17:10:55Z</DateUtc></StartTime><FrequencyChanges><FrequencyChange><Frequency dt:dt="r8">3507685</Frequency><Timestamp dt:dt="r8">15047812691</Timestamp><Current dt:dt="r8">0</Current><DateUtc dt:dt="string">2015-07-07T17:10:55Z</DateUtc></FrequencyChange></FrequencyChanges></Clock>\n	Hungry_Donkey_bar_English_2-107-2	60.017	273	1.0.0.18	1	-2131358191	Standard	2.0.10.353	2.0.10.353	07-07-2015	7/7/2015 5:10:55 PM	13:10:55	2.0.10.248	33	Bar63-37.bmp	61	4	?	0r_4g.bmp	0r_4g.bmp	0r_2g.bmp	0r_2g.bmp				0r_2g.bmp	TrialProc	TrialList	0	cvbn	-999999	16	188708	0	n	71	188779	100	-65	35	-14	36	5	8	9	4	33	0	0	0	0	4	4	2	2	0	2
Hungry_Donkey_bar_English_2	107	2	<?xml version="1.0"?>\n<Clock xmlns:dt="urn:schemas-microsoft-com:datatypes"><Description dt:dt="string">E-Prime Primary Realtime Clock</Description><StartTime><Timestamp dt:dt="int">0</Timestamp><DateUtc dt:dt="string">2015-07-07T17:10:55Z</DateUtc></StartTime><FrequencyChanges><FrequencyChange><Frequency dt:dt="r8">3507685</Frequency><Timestamp dt:dt="r8">15047812691</Timestamp><Current dt:dt="r8">0</Current><DateUtc dt:dt="string">2015-07-07T17:10:55Z</DateUtc></FrequencyChange></FrequencyChanges></Clock>\n	Hungry_Donkey_bar_English_2-107-2	60.017	273	1.0.0.18	1	-2131358191	Standard	2.0.10.353	2.0.10.353	07-07-2015	7/7/2015 5:10:55 PM	13:10:55	2.0.10.248	34	Bar63-37.bmp	62	2	?	10r_4g.bmp	0r_4g.bmp	2r_2g.bmp	0r_2g.bmp		0r_4g.bmp			TrialProc	TrialList	0	cvbn	-999999	16	190807	0	v	1028	191835	104	-65	39	-14	40	5	8	2	4	34	-10	0	-2	0	4	4	2	2	0	4
Hungry_Donkey_bar_English_2	107	2	<?xml version="1.0"?>\n<Clock xmlns:dt="urn:schemas-microsoft-com:datatypes"><Description dt:dt="string">E-Prime Primary Realtime Clock</Description><StartTime><Timestamp dt:dt="int">0</Timestamp><DateUtc dt:dt="string">2015-07-07T17:10:55Z</DateUtc></StartTime><FrequencyChanges><FrequencyChange><Frequency dt:dt="r8">3507685</Frequency><Timestamp dt:dt="r8">15047812691</Timestamp><Current dt:dt="r8">0</Current><DateUtc dt:dt="string">2015-07-07T17:10:55Z</DateUtc></FrequencyChange></FrequencyChanges></Clock>\n	Hungry_Donkey_bar_English_2-107-2	60.017	273	1.0.0.18	1	-2131358191	Standard	2.0.10.353	2.0.10.353	07-07-2015	7/7/2015 5:10:55 PM	13:10:55	2.0.10.248	35	Bar63-37.bmp	58	1	?	12r_4g.bmp	0r_4g.bmp	3r_2g.bmp	0r_2g.bmp	12r_4g.bmp				TrialProc	TrialList	0	cvbn	-999999	16	193873	0	c	2345	196218	108	-77	31	-22	40	5	8	5	4	35	-12	0	-3	0	4	4	2	2	-12	4
Hungry_Donkey_bar_English_2	107	2	<?xml version="1.0"?>\n<Clock xmlns:dt="urn:schemas-microsoft-com:datatypes"><Description dt:dt="string">E-Prime Primary Realtime Clock</Description><StartTime><Timestamp dt:dt="int">0</Timestamp><DateUtc dt:dt="string">2015-07-07T17:10:55Z</DateUtc></StartTime><FrequencyChanges><FrequencyChange><Frequency dt:dt="r8">3507685</Frequency><Timestamp dt:dt="r8">15047812691</Timestamp><Current dt:dt="r8">0</Current><DateUtc dt:dt="string">2015-07-07T17:10:55Z</DateUtc></FrequencyChange></FrequencyChanges></Clock>\n	Hungry_Donkey_bar_English_2-107-2	60.017	273	1.0.0.18	1	-2131358191	Standard	2.0.10.353	2.0.10.353	07-07-2015	7/7/2015 5:10:55 PM	13:10:55	2.0.10.248	36	Bar63-37.bmp	59	3	?	8r_4g.bmp	50r_4g.bmp	1r_2g.bmp	10r_2g.bmp			1r_2g.bmp		TrialProc	TrialList	0	cvbn	-999999	16	198255	0	b	2939	201194	110	-78	32	-22	40	6	8	1	4	36	-8	-50	-1	-10	4	4	2	2	-1	2
Hungry_Donkey_bar_English_2	107	2	<?xml version="1.0"?>\n<Clock xmlns:dt="urn:schemas-microsoft-com:datatypes"><Description dt:dt="string">E-Prime Primary Realtime Clock</Description><StartTime><Timestamp dt:dt="int">0</Timestamp><DateUtc dt:dt="string">2015-07-07T17:10:55Z</DateUtc></StartTime><FrequencyChanges><FrequencyChange><Frequency dt:dt="r8">3507685</Frequency><Timestamp dt:dt="r8">15047812691</Timestamp><Current dt:dt="r8">0</Current><DateUtc dt:dt="string">2015-07-07T17:10:55Z</DateUtc></FrequencyChange></FrequencyChanges></Clock>\n	Hungry_Donkey_bar_English_2-107-2	60.017	273	1.0.0.18	1	-2131358191	Standard	2.0.10.353	2.0.10.353	07-07-2015	7/7/2015 5:10:55 PM	13:10:55	2.0.10.248	37	Bar63-37.bmp	59	2	?	10r_4g.bmp	0r_4g.bmp	2r_2g.bmp	0r_2g.bmp		0r_4g.bmp			TrialProc	TrialList	0	cvbn	-999999	16	203237	0	v	1957	205194	114	-78	36	-22	44	6	8	3	4	37	-10	0	-2	0	4	4	2	2	0	4
Hungry_Donkey_bar_English_2	107	2	<?xml version="1.0"?>\n<Clock xmlns:dt="urn:schemas-microsoft-com:datatypes"><Description dt:dt="string">E-Prime Primary Realtime Clock</Description><StartTime><Timestamp dt:dt="int">0</Timestamp><DateUtc dt:dt="string">2015-07-07T17:10:55Z</DateUtc></StartTime><FrequencyChanges><FrequencyChange><Frequency dt:dt="r8">3507685</Frequency><Timestamp dt:dt="r8">15047812691</Timestamp><Current dt:dt="r8">0</Current><DateUtc dt:dt="string">2015-07-07T17:10:55Z</DateUtc></FrequencyChange></FrequencyChanges></Clock>\n	Hungry_Donkey_bar_English_2-107-2	60.017	273	1.0.0.18	1	-2131358191	Standard	2.0.10.353	2.0.10.353	07-07-2015	7/7/2015 5:10:55 PM	13:10:55	2.0.10.248	38	Bar63-37.bmp	60	4	?	0r_4g.bmp	0r_4g.bmp	0r_2g.bmp	0r_2g.bmp				0r_2g.bmp	TrialProc	TrialList	0	cvbn	-999999	16	207219	0	n	2119	209338	116	-78	38	-22	44	6	10	8	4	38	0	0	0	0	4	4	2	2	0	2
Hungry_Donkey_bar_English_2	107	2	<?xml version="1.0"?>\n<Clock xmlns:dt="urn:schemas-microsoft-com:datatypes"><Description dt:dt="string">E-Prime Primary Realtime Clock</Description><StartTime><Timestamp dt:dt="int">0</Timestamp><DateUtc dt:dt="string">2015-07-07T17:10:55Z</DateUtc></StartTime><FrequencyChanges><FrequencyChange><Frequency dt:dt="r8">3507685</Frequency><Timestamp dt:dt="r8">15047812691</Timestamp><Current dt:dt="r8">0</Current><DateUtc dt:dt="string">2015-07-07T17:10:55Z</DateUtc></FrequencyChange></FrequencyChanges></Clock>\n	Hungry_Donkey_bar_English_2-107-2	60.017	273	1.0.0.18	1	-2131358191	Standard	2.0.10.353	2.0.10.353	07-07-2015	7/7/2015 5:10:55 PM	13:10:55	2.0.10.248	39	Bar63-37.bmp	61	2	?	0r_4g.bmp	0r_4g.bmp	0r_2g.bmp	0r_2g.bmp		0r_4g.bmp			TrialProc	TrialList	0	cvbn	-999999	16	211368	0	v	1714	213082	120	-78	42	-22	48	6	10	6	4	39	0	0	0	0	4	4	2	2	0	4
Hungry_Donkey_bar_English_2	107	2	<?xml version="1.0"?>\n<Clock xmlns:dt="urn:schemas-microsoft-com:datatypes"><Description dt:dt="string">E-Prime Primary Realtime Clock</Description><StartTime><Timestamp dt:dt="int">0</Timestamp><DateUtc dt:dt="string">2015-07-07T17:10:55Z</DateUtc></StartTime><FrequencyChanges><FrequencyChange><Frequency dt:dt="r8">3507685</Frequency><Timestamp dt:dt="r8">15047812691</Timestamp><Current dt:dt="r8">0</Current><DateUtc dt:dt="string">2015-07-07T17:10:55Z</DateUtc></FrequencyChange></FrequencyChanges></Clock>\n	Hungry_Donkey_bar_English_2-107-2	60.017	273	1.0.0.18	1	-2131358191	Standard	2.0.10.353	2.0.10.353	07-07-2015	7/7/2015 5:10:55 PM	13:10:55	2.0.10.248	40	Bar63-37.bmp	61	1	?	0r_4g.bmp	0r_4g.bmp	0r_2g.bmp	0r_2g.bmp	0r_4g.bmp				TrialProc	TrialList	0	cvbn	-999999	16	215117	0	c	1084	216201	124	-78	46	-18	48	6	10	7	4	40	0	0	0	0	4	4	2	2	0	4
Hungry_Donkey_bar_English_2	107	2	<?xml version="1.0"?>\n<Clock xmlns:dt="urn:schemas-microsoft-com:datatypes"><Description dt:dt="string">E-Prime Primary Realtime Clock</Description><StartTime><Timestamp dt:dt="int">0</Timestamp><DateUtc dt:dt="string">2015-07-07T17:10:55Z</DateUtc></StartTime><FrequencyChanges><FrequencyChange><Frequency dt:dt="r8">3507685</Frequency><Timestamp dt:dt="r8">15047812691</Timestamp><Current dt:dt="r8">0</Current><DateUtc dt:dt="string">2015-07-07T17:10:55Z</DateUtc></FrequencyChange></FrequencyChanges></Clock>\n	Hungry_Donkey_bar_English_2-107-2	60.017	273	1.0.0.18	1	-2131358191	Standard	2.0.10.353	2.0.10.353	07-07-2015	7/7/2015 5:10:55 PM	13:10:55	2.0.10.248	41	Bar63-37.bmp	62	3	?	0r_4g.bmp	0r_4g.bmp	0r_2g.bmp	0r_2g.bmp			0r_2g.bmp		TrialProc	TrialList	0	cvbn	-999999	17	218233	0	b	2528	220761	126	-78	48	-18	48	8	10	10	5	41	0	0	0	0	4	4	2	2	0	2
Hungry_Donkey_bar_English_2	107	2	<?xml version="1.0"?>\n<Clock xmlns:dt="urn:schemas-microsoft-com:datatypes"><Description dt:dt="string">E-Prime Primary Realtime Clock</Description><StartTime><Timestamp dt:dt="int">0</Timestamp><DateUtc dt:dt="string">2015-07-07T17:10:55Z</DateUtc></StartTime><FrequencyChanges><FrequencyChange><Frequency dt:dt="r8">3507685</Frequency><Timestamp dt:dt="r8">15047812691</Timestamp><Current dt:dt="r8">0</Current><DateUtc dt:dt="string">2015-07-07T17:10:55Z</DateUtc></FrequencyChange></FrequencyChanges></Clock>\n	Hungry_Donkey_bar_English_2-107-2	60.017	273	1.0.0.18	1	-2131358191	Standard	2.0.10.353	2.0.10.353	07-07-2015	7/7/2015 5:10:55 PM	13:10:55	2.0.10.248	42	Bar63-37.bmp	62	4	?	10r_4g.bmp	0r_4g.bmp	2r_2g.bmp	0r_2g.bmp				0r_2g.bmp	TrialProc	TrialList	0	cvbn	-999999	16	222798	0	n	2171	224969	128	-78	50	-18	48	8	12	2	5	42	-10	0	-2	0	4	4	2	2	0	2
Hungry_Donkey_bar_English_2	107	2	<?xml version="1.0"?>\n<Clock xmlns:dt="urn:schemas-microsoft-com:datatypes"><Description dt:dt="string">E-Prime Primary Realtime Clock</Description><StartTime><Timestamp dt:dt="int">0</Timestamp><DateUtc dt:dt="string">2015-07-07T17:10:55Z</DateUtc></StartTime><FrequencyChanges><FrequencyChange><Frequency dt:dt="r8">3507685</Frequency><Timestamp dt:dt="r8">15047812691</Timestamp><Current dt:dt="r8">0</Current><DateUtc dt:dt="string">2015-07-07T17:10:55Z</DateUtc></FrequencyChange></FrequencyChanges></Clock>\n	Hungry_Donkey_bar_English_2-107-2	60.017	273	1.0.0.18	1	-2131358191	Standard	2.0.10.353	2.0.10.353	07-07-2015	7/7/2015 5:10:55 PM	13:10:55	2.0.10.248	43	Bar63-37.bmp	63	2	?	0r_4g.bmp	0r_4g.bmp	0r_2g.bmp	0r_2g.bmp		0r_4g.bmp			TrialProc	TrialList	0	cvbn	-999999	16	226997	0	v	1428	228425	132	-78	54	-18	52	8	12	6	5	43	0	0	0	0	4	4	2	2	0	4
Hungry_Donkey_bar_English_2	107	2	<?xml version="1.0"?>\n<Clock xmlns:dt="urn:schemas-microsoft-com:datatypes"><Description dt:dt="string">E-Prime Primary Realtime Clock</Description><StartTime><Timestamp dt:dt="int">0</Timestamp><DateUtc dt:dt="string">2015-07-07T17:10:55Z</DateUtc></StartTime><FrequencyChanges><FrequencyChange><Frequency dt:dt="r8">3507685</Frequency><Timestamp dt:dt="r8">15047812691</Timestamp><Current dt:dt="r8">0</Current><DateUtc dt:dt="string">2015-07-07T17:10:55Z</DateUtc></FrequencyChange></FrequencyChanges></Clock>\n	Hungry_Donkey_bar_English_2-107-2	60.017	273	1.0.0.18	1	-2131358191	Standard	2.0.10.353	2.0.10.353	07-07-2015	7/7/2015 5:10:55 PM	13:10:55	2.0.10.248	44	Bar63-37.bmp	61	1	?	10r_4g.bmp	0r_4g.bmp	2r_2g.bmp	0r_2g.bmp	10r_4g.bmp				TrialProc	TrialList	0	cvbn	-999999	16	230462	0	c	1227	231689	136	-88	48	-24	52	8	12	4	5	44	-10	0	-2	0	4	4	2	2	-10	4
Hungry_Donkey_bar_English_2	107	2	<?xml version="1.0"?>\n<Clock xmlns:dt="urn:schemas-microsoft-com:datatypes"><Description dt:dt="string">E-Prime Primary Realtime Clock</Description><StartTime><Timestamp dt:dt="int">0</Timestamp><DateUtc dt:dt="string">2015-07-07T17:10:55Z</DateUtc></StartTime><FrequencyChanges><FrequencyChange><Frequency dt:dt="r8">3507685</Frequency><Timestamp dt:dt="r8">15047812691</Timestamp><Current dt:dt="r8">0</Current><DateUtc dt:dt="string">2015-07-07T17:10:55Z</DateUtc></FrequencyChange></FrequencyChanges></Clock>\n	Hungry_Donkey_bar_English_2-107-2	60.017	273	1.0.0.18	1	-2131358191	Standard	2.0.10.353	2.0.10.353	07-07-2015	7/7/2015 5:10:55 PM	13:10:55	2.0.10.248	45	Bar63-37.bmp	61	2	?	10r_4g.bmp	0r_4g.bmp	2r_2g.bmp	0r_2g.bmp		0r_4g.bmp			TrialProc	TrialList	0	cvbn	-999999	16	233728	0	v	1256	234984	140	-88	52	-24	56	8	12	3	5	45	-10	0	-2	0	4	4	2	2	0	4
Hungry_Donkey_bar_English_2	107	2	<?xml version="1.0"?>\n<Clock xmlns:dt="urn:schemas-microsoft-com:datatypes"><Description dt:dt="string">E-Prime Primary Realtime Clock</Description><StartTime><Timestamp dt:dt="int">0</Timestamp><DateUtc dt:dt="string">2015-07-07T17:10:55Z</DateUtc></StartTime><FrequencyChanges><FrequencyChange><Frequency dt:dt="r8">3507685</Frequency><Timestamp dt:dt="r8">15047812691</Timestamp><Current dt:dt="r8">0</Current><DateUtc dt:dt="string">2015-07-07T17:10:55Z</DateUtc></FrequencyChange></FrequencyChanges></Clock>\n	Hungry_Donkey_bar_English_2-107-2	60.017	273	1.0.0.18	1	-2131358191	Standard	2.0.10.353	2.0.10.353	07-07-2015	7/7/2015 5:10:55 PM	13:10:55	2.0.10.248	46	Bar63-37.bmp	61	3	?	8r_4g.bmp	50r_4g.bmp	1r_2g.bmp	10r_2g.bmp			1r_2g.bmp		TrialProc	TrialList	0	cvbn	-999999	16	237010	0	b	710	237720	142	-89	53	-24	56	9	12	1	5	46	-8	-50	-1	-10	4	4	2	2	-1	2
Hungry_Donkey_bar_English_2	107	2	<?xml version="1.0"?>\n<Clock xmlns:dt="urn:schemas-microsoft-com:datatypes"><Description dt:dt="string">E-Prime Primary Realtime Clock</Description><StartTime><Timestamp dt:dt="int">0</Timestamp><DateUtc dt:dt="string">2015-07-07T17:10:55Z</DateUtc></StartTime><FrequencyChanges><FrequencyChange><Frequency dt:dt="r8">3507685</Frequency><Timestamp dt:dt="r8">15047812691</Timestamp><Current dt:dt="r8">0</Current><DateUtc dt:dt="string">2015-07-07T17:10:55Z</DateUtc></FrequencyChange></FrequencyChanges></Clock>\n	Hungry_Donkey_bar_English_2-107-2	60.017	273	1.0.0.18	1	-2131358191	Standard	2.0.10.353	2.0.10.353	07-07-2015	7/7/2015 5:10:55 PM	13:10:55	2.0.10.248	47	Bar63-37.bmp	62	4	?	0r_4g.bmp	0r_4g.bmp	0r_2g.bmp	0r_2g.bmp				0r_2g.bmp	TrialProc	TrialList	0	cvbn	-999999	16	239760	0	n	952	240712	144	-89	55	-24	56	9	14	8	5	47	0	0	0	0	4	4	2	2	0	2
Hungry_Donkey_bar_English_2	107	2	<?xml version="1.0"?>\n<Clock xmlns:dt="urn:schemas-microsoft-com:datatypes"><Description dt:dt="string">E-Prime Primary Realtime Clock</Description><StartTime><Timestamp dt:dt="int">0</Timestamp><DateUtc dt:dt="string">2015-07-07T17:10:55Z</DateUtc></StartTime><FrequencyChanges><FrequencyChange><Frequency dt:dt="r8">3507685</Frequency><Timestamp dt:dt="r8">15047812691</Timestamp><Current dt:dt="r8">0</Current><DateUtc dt:dt="string">2015-07-07T17:10:55Z</DateUtc></FrequencyChange></FrequencyChanges></Clock>\n	Hungry_Donkey_bar_English_2-107-2	60.017	273	1.0.0.18	1	-2131358191	Standard	2.0.10.353	2.0.10.353	07-07-2015	7/7/2015 5:10:55 PM	13:10:55	2.0.10.248	48	Bar63-37.bmp	62	2	?	0r_4g.bmp	0r_4g.bmp	0r_2g.bmp	0r_2g.bmp		0r_4g.bmp			TrialProc	TrialList	0	cvbn	-999999	16	242742	0	v	1346	244088	148	-89	59	-24	60	9	14	9	5	48	0	0	0	0	4	4	2	2	0	4
Hungry_Donkey_bar_English_2	107	2	<?xml version="1.0"?>\n<Clock xmlns:dt="urn:schemas-microsoft-com:datatypes"><Description dt:dt="string">E-Prime Primary Realtime Clock</Description><StartTime><Timestamp dt:dt="int">0</Timestamp><DateUtc dt:dt="string">2015-07-07T17:10:55Z</DateUtc></StartTime><FrequencyChanges><FrequencyChange><Frequency dt:dt="r8">3507685</Frequency><Timestamp dt:dt="r8">15047812691</Timestamp><Current dt:dt="r8">0</Current><DateUtc dt:dt="string">2015-07-07T17:10:55Z</DateUtc></FrequencyChange></FrequencyChanges></Clock>\n	Hungry_Donkey_bar_English_2-107-2	60.017	273	1.0.0.18	1	-2131358191	Standard	2.0.10.353	2.0.10.353	07-07-2015	7/7/2015 5:10:55 PM	13:10:55	2.0.10.248	49	Bar63-37.bmp	62	3	?	12r_4g.bmp	0r_4g.bmp	3r_2g.bmp	0r_2g.bmp			3r_2g.bmp		TrialProc	TrialList	0	cvbn	-999999	16	246124	0	b	1052	247176	150	-92	58	-24	60	8	14	5	5	49	-12	0	-3	0	4	4	2	2	-3	2
Hungry_Donkey_bar_English_2	107	2	<?xml version="1.0"?>\n<Clock xmlns:dt="urn:schemas-microsoft-com:datatypes"><Description dt:dt="string">E-Prime Primary Realtime Clock</Description><StartTime><Timestamp dt:dt="int">0</Timestamp><DateUtc dt:dt="string">2015-07-07T17:10:55Z</DateUtc></StartTime><FrequencyChanges><FrequencyChange><Frequency dt:dt="r8">3507685</Frequency><Timestamp dt:dt="r8">15047812691</Timestamp><Current dt:dt="r8">0</Current><DateUtc dt:dt="string">2015-07-07T17:10:55Z</DateUtc></FrequencyChange></FrequencyChanges></Clock>\n	Hungry_Donkey_bar_English_2-107-2	60.017	273	1.0.0.18	1	-2131358191	Standard	2.0.10.353	2.0.10.353	07-07-2015	7/7/2015 5:10:55 PM	13:10:55	2.0.10.248	50	Bar63-37.bmp	63	1	?	0r_4g.bmp	0r_4g.bmp	0r_2g.bmp	0r_2g.bmp	0r_4g.bmp				TrialProc	TrialList	0	cvbn	-999999	16	249207	0	c	1089	250296	154	-92	62	-20	60	8	14	7	5	50	0	0	0	0	4	4	2	2	0	4
Hungry_Donkey_bar_English_2	107	2	<?xml version="1.0"?>\n<Clock xmlns:dt="urn:schemas-microsoft-com:datatypes"><Description dt:dt="string">E-Prime Primary Realtime Clock</Description><StartTime><Timestamp dt:dt="int">0</Timestamp><DateUtc dt:dt="string">2015-07-07T17:10:55Z</DateUtc></StartTime><FrequencyChanges><FrequencyChange><Frequency dt:dt="r8">3507685</Frequency><Timestamp dt:dt="r8">15047812691</Timestamp><Current dt:dt="r8">0</Current><DateUtc dt:dt="string">2015-07-07T17:10:55Z</DateUtc></FrequencyChange></FrequencyChanges></Clock>\n	Hungry_Donkey_bar_English_2-107-2	60.017	273	1.0.0.18	1	-2131358191	Standard	2.0.10.353	2.0.10.353	07-07-2015	7/7/2015 5:10:55 PM	13:10:55	2.0.10.248	51	Bar63-37.bmp	63	4	?	0r_4g.bmp	0r_4g.bmp	0r_2g.bmp	0r_2g.bmp				0r_2g.bmp	TrialProc	TrialList	0	cvbn	-999999	16	252323	0	n	3076	255399	156	-92	64	-20	60	8	16	10	6	51	0	0	0	0	4	4	2	2	0	2
Hungry_Donkey_bar_English_2	107	2	<?xml version="1.0"?>\n<Clock xmlns:dt="urn:schemas-microsoft-com:datatypes"><Description dt:dt="string">E-Prime Primary Realtime Clock</Description><StartTime><Timestamp dt:dt="int">0</Timestamp><DateUtc dt:dt="string">2015-07-07T17:10:55Z</DateUtc></StartTime><FrequencyChanges><FrequencyChange><Frequency dt:dt="r8">3507685</Frequency><Timestamp dt:dt="r8">15047812691</Timestamp><Current dt:dt="r8">0</Current><DateUtc dt:dt="string">2015-07-07T17:10:55Z</DateUtc></FrequencyChange></FrequencyChanges></Clock>\n	Hungry_Donkey_bar_English_2-107-2	60.017	273	1.0.0.18	1	-2131358191	Standard	2.0.10.353	2.0.10.353	07-07-2015	7/7/2015 5:10:55 PM	13:10:55	2.0.10.248	52	Bar63-37.bmp	63	3	?	10r_4g.bmp	0r_4g.bmp	2r_2g.bmp	0r_2g.bmp			2r_2g.bmp		TrialProc	TrialList	0	cvbn	-999999	16	257438	0	b	1305	258743	158	-94	64	-20	60	8	16	2	6	52	-10	0	-2	0	4	4	2	2	-2	2
Hungry_Donkey_bar_English_2	107	2	<?xml version="1.0"?>\n<Clock xmlns:dt="urn:schemas-microsoft-com:datatypes"><Description dt:dt="string">E-Prime Primary Realtime Clock</Description><StartTime><Timestamp dt:dt="int">0</Timestamp><DateUtc dt:dt="string">2015-07-07T17:10:55Z</DateUtc></StartTime><FrequencyChanges><FrequencyChange><Frequency dt:dt="r8">3507685</Frequency><Timestamp dt:dt="r8">15047812691</Timestamp><Current dt:dt="r8">0</Current><DateUtc dt:dt="string">2015-07-07T17:10:55Z</DateUtc></FrequencyChange></FrequencyChanges></Clock>\n	Hungry_Donkey_bar_English_2-107-2	60.017	273	1.0.0.18	1	-2131358191	Standard	2.0.10.353	2.0.10.353	07-07-2015	7/7/2015 5:10:55 PM	13:10:55	2.0.10.248	53	Bar63-37.bmp	63	2	?	0r_4g.bmp	0r_4g.bmp	0r_2g.bmp	0r_2g.bmp		0r_4g.bmp			TrialProc	TrialList	0	cvbn	-999999	16	260770	0	v	1141	261911	162	-94	68	-20	64	8	16	9	6	53	0	0	0	0	4	4	2	2	0	4
Hungry_Donkey_bar_English_2	107	2	<?xml version="1.0"?>\n<Clock xmlns:dt="urn:schemas-microsoft-com:datatypes"><Description dt:dt="string">E-Prime Primary Realtime Clock</Description><StartTime><Timestamp dt:dt="int">0</Timestamp><DateUtc dt:dt="string">2015-07-07T17:10:55Z</DateUtc></StartTime><FrequencyChanges><FrequencyChange><Frequency dt:dt="r8">3507685</Frequency><Timestamp dt:dt="r8">15047812691</Timestamp><Current dt:dt="r8">0</Current><DateUtc dt:dt="string">2015-07-07T17:10:55Z</DateUtc></FrequencyChange></FrequencyChanges></Clock>\n	Hungry_Donkey_bar_English_2-107-2	60.017	273	1.0.0.18	1	-2131358191	Standard	2.0.10.353	2.0.10.353	07-07-2015	7/7/2015 5:10:55 PM	13:10:55	2.0.10.248	54	Bar63-37.bmp	64	1	?	0r_4g.bmp	0r_4g.bmp	0r_2g.bmp	0r_2g.bmp	0r_4g.bmp				TrialProc	TrialList	0	cvbn	-999999	16	263936	0	c	1015	264951	166	-94	72	-16	64	8	16	8	6	54	0	0	0	0	4	4	2	2	0	4
Hungry_Donkey_bar_English_2	107	2	<?xml version="1.0"?>\n<Clock xmlns:dt="urn:schemas-microsoft-com:datatypes"><Description dt:dt="string">E-Prime Primary Realtime Clock</Description><StartTime><Timestamp dt:dt="int">0</Timestamp><DateUtc dt:dt="string">2015-07-07T17:10:55Z</DateUtc></StartTime><FrequencyChanges><FrequencyChange><Frequency dt:dt="r8">3507685</Frequency><Timestamp dt:dt="r8">15047812691</Timestamp><Current dt:dt="r8">0</Current><DateUtc dt:dt="string">2015-07-07T17:10:55Z</DateUtc></FrequencyChange></FrequencyChanges></Clock>\n	Hungry_Donkey_bar_English_2-107-2	60.017	273	1.0.0.18	1	-2131358191	Standard	2.0.10.353	2.0.10.353	07-07-2015	7/7/2015 5:10:55 PM	13:10:55	2.0.10.248	55	Bar63-37.bmp	64	4	?	10r_4g.bmp	0r_4g.bmp	2r_2g.bmp	0r_2g.bmp				0r_2g.bmp	TrialProc	TrialList	0	cvbn	-999999	16	266985	0	n	1758	268743	168	-94	74	-16	64	8	18	3	6	55	-10	0	-2	0	4	4	2	2	0	2
Hungry_Donkey_bar_English_2	107	2	<?xml version="1.0"?>\n<Clock xmlns:dt="urn:schemas-microsoft-com:datatypes"><Description dt:dt="string">E-Prime Primary Realtime Clock</Description><StartTime><Timestamp dt:dt="int">0</Timestamp><DateUtc dt:dt="string">2015-07-07T17:10:55Z</DateUtc></StartTime><FrequencyChanges><FrequencyChange><Frequency dt:dt="r8">3507685</Frequency><Timestamp dt:dt="r8">15047812691</Timestamp><Current dt:dt="r8">0</Current><DateUtc dt:dt="string">2015-07-07T17:10:55Z</DateUtc></FrequencyChange></FrequencyChanges></Clock>\n	Hungry_Donkey_bar_English_2-107-2	60.017	273	1.0.0.18	1	-2131358191	Standard	2.0.10.353	2.0.10.353	07-07-2015	7/7/2015 5:10:55 PM	13:10:55	2.0.10.248	56	Bar63-37.bmp	64	3	?	0r_4g.bmp	0r_4g.bmp	0r_2g.bmp	0r_2g.bmp			0r_2g.bmp		TrialProc	TrialList	0	cvbn	-999999	16	270767	0	b	2407	273174	170	-94	76	-16	64	10	18	6	6	56	0	0	0	0	4	4	2	2	0	2
Hungry_Donkey_bar_English_2	107	2	<?xml version="1.0"?>\n<Clock xmlns:dt="urn:schemas-microsoft-com:datatypes"><Description dt:dt="string">E-Prime Primary Realtime Clock</Description><StartTime><Timestamp dt:dt="int">0</Timestamp><DateUtc dt:dt="string">2015-07-07T17:10:55Z</DateUtc></StartTime><FrequencyChanges><FrequencyChange><Frequency dt:dt="r8">3507685</Frequency><Timestamp dt:dt="r8">15047812691</Timestamp><Current dt:dt="r8">0</Current><DateUtc dt:dt="string">2015-07-07T17:10:55Z</DateUtc></FrequencyChange></FrequencyChanges></Clock>\n	Hungry_Donkey_bar_English_2-107-2	60.017	273	1.0.0.18	1	-2131358191	Standard	2.0.10.353	2.0.10.353	07-07-2015	7/7/2015 5:10:55 PM	13:10:55	2.0.10.248	57	Bar63-37.bmp	65	2	?	12r_4g.bmp	0r_4g.bmp	3r_2g.bmp	0r_2g.bmp		0r_4g.bmp			TrialProc	TrialList	0	cvbn	-999999	16	275216	0	v	1062	276278	174	-94	80	-16	68	10	18	5	6	57	-12	0	-3	0	4	4	2	2	0	4
Hungry_Donkey_bar_English_2	107	2	<?xml version="1.0"?>\n<Clock xmlns:dt="urn:schemas-microsoft-com:datatypes"><Description dt:dt="string">E-Prime Primary Realtime Clock</Description><StartTime><Timestamp dt:dt="int">0</Timestamp><DateUtc dt:dt="string">2015-07-07T17:10:55Z</DateUtc></StartTime><FrequencyChanges><FrequencyChange><Frequency dt:dt="r8">3507685</Frequency><Timestamp dt:dt="r8">15047812691</Timestamp><Current dt:dt="r8">0</Current><DateUtc dt:dt="string">2015-07-07T17:10:55Z</DateUtc></FrequencyChange></FrequencyChanges></Clock>\n	Hungry_Donkey_bar_English_2-107-2	60.017	273	1.0.0.18	1	-2131358191	Standard	2.0.10.353	2.0.10.353	07-07-2015	7/7/2015 5:10:55 PM	13:10:55	2.0.10.248	58	Bar63-37.bmp	65	1	?	0r_4g.bmp	0r_4g.bmp	0r_2g.bmp	0r_2g.bmp	0r_4g.bmp				TrialProc	TrialList	0	cvbn	-999999	16	278315	0	c	1035	279350	178	-94	84	-12	68	10	18	7	6	58	0	0	0	0	4	4	2	2	0	4
Hungry_Donkey_bar_English_2	107	2	<?xml version="1.0"?>\n<Clock xmlns:dt="urn:schemas-microsoft-com:datatypes"><Description dt:dt="string">E-Prime Primary Realtime Clock</Description><StartTime><Timestamp dt:dt="int">0</Timestamp><DateUtc dt:dt="string">2015-07-07T17:10:55Z</DateUtc></StartTime><FrequencyChanges><FrequencyChange><Frequency dt:dt="r8">3507685</Frequency><Timestamp dt:dt="r8">15047812691</Timestamp><Current dt:dt="r8">0</Current><DateUtc dt:dt="string">2015-07-07T17:10:55Z</DateUtc></FrequencyChange></FrequencyChanges></Clock>\n	Hungry_Donkey_bar_English_2-107-2	60.017	273	1.0.0.18	1	-2131358191	Standard	2.0.10.353	2.0.10.353	07-07-2015	7/7/2015 5:10:55 PM	13:10:55	2.0.10.248	59	Bar63-37.bmp	66	2	?	10r_4g.bmp	0r_4g.bmp	2r_2g.bmp	0r_2g.bmp		0r_4g.bmp			TrialProc	TrialList	0	cvbn	-999999	16	281381	0	v	1665	283046	182	-94	88	-12	72	10	18	4	6	59	-10	0	-2	0	4	4	2	2	0	4
Hungry_Donkey_bar_English_2	107	2	<?xml version="1.0"?>\n<Clock xmlns:dt="urn:schemas-microsoft-com:datatypes"><Description dt:dt="string">E-Prime Primary Realtime Clock</Description><StartTime><Timestamp dt:dt="int">0</Timestamp><DateUtc dt:dt="string">2015-07-07T17:10:55Z</DateUtc></StartTime><FrequencyChanges><FrequencyChange><Frequency dt:dt="r8">3507685</Frequency><Timestamp dt:dt="r8">15047812691</Timestamp><Current dt:dt="r8">0</Current><DateUtc dt:dt="string">2015-07-07T17:10:55Z</DateUtc></FrequencyChange></FrequencyChanges></Clock>\n	Hungry_Donkey_bar_English_2-107-2	60.017	273	1.0.0.18	1	-2131358191	Standard	2.0.10.353	2.0.10.353	07-07-2015	7/7/2015 5:10:55 PM	13:10:55	2.0.10.248	60	Bar63-37.bmp	64	4	?	8r_4g.bmp	50r_4g.bmp	1r_2g.bmp	10r_2g.bmp				10r_2g.bmp	TrialProc	TrialList	0	cvbn	-999999	16	285080	0	n	7613	292693	184	-104	80	-12	72	10	10	1	6	60	-8	-50	-1	-10	4	4	2	2	-10	2
Hungry_Donkey_bar_English_2	107	2	<?xml version="1.0"?>\n<Clock xmlns:dt="urn:schemas-microsoft-com:datatypes"><Description dt:dt="string">E-Prime Primary Realtime Clock</Description><StartTime><Timestamp dt:dt="int">0</Timestamp><DateUtc dt:dt="string">2015-07-07T17:10:55Z</DateUtc></StartTime><FrequencyChanges><FrequencyChange><Frequency dt:dt="r8">3507685</Frequency><Timestamp dt:dt="r8">15047812691</Timestamp><Current dt:dt="r8">0</Current><DateUtc dt:dt="string">2015-07-07T17:10:55Z</DateUtc></FrequencyChange></FrequencyChanges></Clock>\n	Hungry_Donkey_bar_English_2-107-2	60.017	273	1.0.0.18	1	-2131358191	Standard	2.0.10.353	2.0.10.353	07-07-2015	7/7/2015 5:10:55 PM	13:10:55	2.0.10.248	61	Bar63-37.bmp	64	2	?	0r_4g.bmp	0r_4g.bmp	0r_2g.bmp	0r_2g.bmp		0r_4g.bmp			TrialProc	TrialList	0	cvbn	-999999	16	294727	0	v	2142	296869	188	-104	84	-12	76	10	10	8	7	61	0	0	0	0	4	4	2	2	0	4
Hungry_Donkey_bar_English_2	107	2	<?xml version="1.0"?>\n<Clock xmlns:dt="urn:schemas-microsoft-com:datatypes"><Description dt:dt="string">E-Prime Primary Realtime Clock</Description><StartTime><Timestamp dt:dt="int">0</Timestamp><DateUtc dt:dt="string">2015-07-07T17:10:55Z</DateUtc></StartTime><FrequencyChanges><FrequencyChange><Frequency dt:dt="r8">3507685</Frequency><Timestamp dt:dt="r8">15047812691</Timestamp><Current dt:dt="r8">0</Current><DateUtc dt:dt="string">2015-07-07T17:10:55Z</DateUtc></FrequencyChange></FrequencyChanges></Clock>\n	Hungry_Donkey_bar_English_2-107-2	60.017	273	1.0.0.18	1	-2131358191	Standard	2.0.10.353	2.0.10.353	07-07-2015	7/7/2015 5:10:55 PM	13:10:55	2.0.10.248	62	Bar63-37.bmp	65	1	?	0r_4g.bmp	0r_4g.bmp	0r_2g.bmp	0r_2g.bmp	0r_4g.bmp				TrialProc	TrialList	0	cvbn	-999999	16	298893	0	c	824	299717	192	-104	88	-8	76	10	10	10	7	62	0	0	0	0	4	4	2	2	0	4
Hungry_Donkey_bar_English_2	107	2	<?xml version="1.0"?>\n<Clock xmlns:dt="urn:schemas-microsoft-com:datatypes"><Description dt:dt="string">E-Prime Primary Realtime Clock</Description><StartTime><Timestamp dt:dt="int">0</Timestamp><DateUtc dt:dt="string">2015-07-07T17:10:55Z</DateUtc></StartTime><FrequencyChanges><FrequencyChange><Frequency dt:dt="r8">3507685</Frequency><Timestamp dt:dt="r8">15047812691</Timestamp><Current dt:dt="r8">0</Current><DateUtc dt:dt="string">2015-07-07T17:10:55Z</DateUtc></FrequencyChange></FrequencyChanges></Clock>\n	Hungry_Donkey_bar_English_2-107-2	60.017	273	1.0.0.18	1	-2131358191	Standard	2.0.10.353	2.0.10.353	07-07-2015	7/7/2015 5:10:55 PM	13:10:55	2.0.10.248	63	Bar63-37.bmp	65	3	?	0r_4g.bmp	0r_4g.bmp	0r_2g.bmp	0r_2g.bmp			0r_2g.bmp		TrialProc	TrialList	0	cvbn	-999999	16	301742	0	b	39	301781	194	-104	90	-8	76	12	10	6	7	63	0	0	0	0	4	4	2	2	0	2
Hungry_Donkey_bar_English_2	107	2	<?xml version="1.0"?>\n<Clock xmlns:dt="urn:schemas-microsoft-com:datatypes"><Description dt:dt="string">E-Prime Primary Realtime Clock</Description><StartTime><Timestamp dt:dt="int">0</Timestamp><DateUtc dt:dt="string">2015-07-07T17:10:55Z</DateUtc></StartTime><FrequencyChanges><FrequencyChange><Frequency dt:dt="r8">3507685</Frequency><Timestamp dt:dt="r8">15047812691</Timestamp><Current dt:dt="r8">0</Current><DateUtc dt:dt="string">2015-07-07T17:10:55Z</DateUtc></FrequencyChange></FrequencyChanges></Clock>\n	Hungry_Donkey_bar_English_2-107-2	60.017	273	1.0.0.18	1	-2131358191	Standard	2.0.10.353	2.0.10.353	07-07-2015	7/7/2015 5:10:55 PM	13:10:55	2.0.10.248	64	Bar63-37.bmp	64	1	?	8r_4g.bmp	50r_4g.bmp	1r_2g.bmp	10r_2g.bmp	8r_4g.bmp				TrialProc	TrialList	0	cvbn	-999999	16	303808	0	c	1541	305349	198	-112	86	-12	76	12	10	1	7	64	-8	-50	-1	-10	4	4	2	2	-8	4
Hungry_Donkey_bar_English_2	107	2	<?xml version="1.0"?>\n<Clock xmlns:dt="urn:schemas-microsoft-com:datatypes"><Description dt:dt="string">E-Prime Primary Realtime Clock</Description><StartTime><Timestamp dt:dt="int">0</Timestamp><DateUtc dt:dt="string">2015-07-07T17:10:55Z</DateUtc></StartTime><FrequencyChanges><FrequencyChange><Frequency dt:dt="r8">3507685</Frequency><Timestamp dt:dt="r8">15047812691</Timestamp><Current dt:dt="r8">0</Current><DateUtc dt:dt="string">2015-07-07T17:10:55Z</DateUtc></FrequencyChange></FrequencyChanges></Clock>\n	Hungry_Donkey_bar_English_2-107-2	60.017	273	1.0.0.18	1	-2131358191	Standard	2.0.10.353	2.0.10.353	07-07-2015	7/7/2015 5:10:55 PM	13:10:55	2.0.10.248	65	Bar63-37.bmp	64	2	?	12r_4g.bmp	0r_4g.bmp	3r_2g.bmp	0r_2g.bmp		0r_4g.bmp			TrialProc	TrialList	0	cvbn	-999999	16	307373	0	v	1064	308437	202	-112	90	-12	80	12	10	5	7	65	-12	0	-3	0	4	4	2	2	0	4
Hungry_Donkey_bar_English_2	107	2	<?xml version="1.0"?>\n<Clock xmlns:dt="urn:schemas-microsoft-com:datatypes"><Description dt:dt="string">E-Prime Primary Realtime Clock</Description><StartTime><Timestamp dt:dt="int">0</Timestamp><DateUtc dt:dt="string">2015-07-07T17:10:55Z</DateUtc></StartTime><FrequencyChanges><FrequencyChange><Frequency dt:dt="r8">3507685</Frequency><Timestamp dt:dt="r8">15047812691</Timestamp><Current dt:dt="r8">0</Current><DateUtc dt:dt="string">2015-07-07T17:10:55Z</DateUtc></FrequencyChange></FrequencyChanges></Clock>\n	Hungry_Donkey_bar_English_2-107-2	60.017	273	1.0.0.18	1	-2131358191	Standard	2.0.10.353	2.0.10.353	07-07-2015	7/7/2015 5:10:55 PM	13:10:55	2.0.10.248	66	Bar63-37.bmp	64	3	?	10r_4g.bmp	0r_4g.bmp	2r_2g.bmp	0r_2g.bmp			2r_2g.bmp		TrialProc	TrialList	0	cvbn	-999999	17	310473	0	b	348	310821	204	-114	90	-12	80	12	10	3	7	66	-10	0	-2	0	4	4	2	2	-2	2
Hungry_Donkey_bar_English_2	107	2	<?xml version="1.0"?>\n<Clock xmlns:dt="urn:schemas-microsoft-com:datatypes"><Description dt:dt="string">E-Prime Primary Realtime Clock</Description><StartTime><Timestamp dt:dt="int">0</Timestamp><DateUtc dt:dt="string">2015-07-07T17:10:55Z</DateUtc></StartTime><FrequencyChanges><FrequencyChange><Frequency dt:dt="r8">3507685</Frequency><Timestamp dt:dt="r8">15047812691</Timestamp><Current dt:dt="r8">0</Current><DateUtc dt:dt="string">2015-07-07T17:10:55Z</DateUtc></FrequencyChange></FrequencyChanges></Clock>\n	Hungry_Donkey_bar_English_2-107-2	60.017	273	1.0.0.18	1	-2131358191	Standard	2.0.10.353	2.0.10.353	07-07-2015	7/7/2015 5:10:55 PM	13:10:55	2.0.10.248	67	Bar63-37.bmp	64	4	?	10r_4g.bmp	0r_4g.bmp	2r_2g.bmp	0r_2g.bmp				0r_2g.bmp	TrialProc	TrialList	0	cvbn	-999999	16	312855	0	n	141	312996	206	-114	92	-12	80	12	12	2	7	67	-10	0	-2	0	4	4	2	2	0	2
Hungry_Donkey_bar_English_2	107	2	<?xml version="1.0"?>\n<Clock xmlns:dt="urn:schemas-microsoft-com:datatypes"><Description dt:dt="string">E-Prime Primary Realtime Clock</Description><StartTime><Timestamp dt:dt="int">0</Timestamp><DateUtc dt:dt="string">2015-07-07T17:10:55Z</DateUtc></StartTime><FrequencyChanges><FrequencyChange><Frequency dt:dt="r8">3507685</Frequency><Timestamp dt:dt="r8">15047812691</Timestamp><Current dt:dt="r8">0</Current><DateUtc dt:dt="string">2015-07-07T17:10:55Z</DateUtc></FrequencyChange></FrequencyChanges></Clock>\n	Hungry_Donkey_bar_English_2-107-2	60.017	273	1.0.0.18	1	-2131358191	Standard	2.0.10.353	2.0.10.353	07-07-2015	7/7/2015 5:10:55 PM	13:10:55	2.0.10.248	68	Bar63-37.bmp	63	1	?	10r_4g.bmp	0r_4g.bmp	2r_2g.bmp	0r_2g.bmp	10r_4g.bmp				TrialProc	TrialList	0	cvbn	-999999	16	315021	0	c	487	315508	210	-124	86	-18	80	12	12	4	7	68	-10	0	-2	0	4	4	2	2	-10	4
Hungry_Donkey_bar_English_2	107	2	<?xml version="1.0"?>\n<Clock xmlns:dt="urn:schemas-microsoft-com:datatypes"><Description dt:dt="string">E-Prime Primary Realtime Clock</Description><StartTime><Timestamp dt:dt="int">0</Timestamp><DateUtc dt:dt="string">2015-07-07T17:10:55Z</DateUtc></StartTime><FrequencyChanges><FrequencyChange><Frequency dt:dt="r8">3507685</Frequency><Timestamp dt:dt="r8">15047812691</Timestamp><Current dt:dt="r8">0</Current><DateUtc dt:dt="string">2015-07-07T17:10:55Z</DateUtc></FrequencyChange></FrequencyChanges></Clock>\n	Hungry_Donkey_bar_English_2-107-2	60.017	273	1.0.0.18	1	-2131358191	Standard	2.0.10.353	2.0.10.353	07-07-2015	7/7/2015 5:10:55 PM	13:10:55	2.0.10.248	69	Bar63-37.bmp	63	2	?	0r_4g.bmp	0r_4g.bmp	0r_2g.bmp	0r_2g.bmp		0r_4g.bmp			TrialProc	TrialList	0	cvbn	-999999	16	317537	0	v	1763	319300	214	-124	90	-18	84	12	12	7	7	69	0	0	0	0	4	4	2	2	0	4
Hungry_Donkey_bar_English_2	107	2	<?xml version="1.0"?>\n<Clock xmlns:dt="urn:schemas-microsoft-com:datatypes"><Description dt:dt="string">E-Prime Primary Realtime Clock</Description><StartTime><Timestamp dt:dt="int">0</Timestamp><DateUtc dt:dt="string">2015-07-07T17:10:55Z</DateUtc></StartTime><FrequencyChanges><FrequencyChange><Frequency dt:dt="r8">3507685</Frequency><Timestamp dt:dt="r8">15047812691</Timestamp><Current dt:dt="r8">0</Current><DateUtc dt:dt="string">2015-07-07T17:10:55Z</DateUtc></FrequencyChange></FrequencyChanges></Clock>\n	Hungry_Donkey_bar_English_2-107-2	60.017	273	1.0.0.18	1	-2131358191	Standard	2.0.10.353	2.0.10.353	07-07-2015	7/7/2015 5:10:55 PM	13:10:55	2.0.10.248	70	Bar63-37.bmp	64	3	?	0r_4g.bmp	0r_4g.bmp	0r_2g.bmp	0r_2g.bmp			0r_2g.bmp		TrialProc	TrialList	0	cvbn	-999999	16	321336	0	b	732	322068	216	-124	92	-18	84	14	12	9	7	70	0	0	0	0	4	4	2	2	0	2
Hungry_Donkey_bar_English_2	107	2	<?xml version="1.0"?>\n<Clock xmlns:dt="urn:schemas-microsoft-com:datatypes"><Description dt:dt="string">E-Prime Primary Realtime Clock</Description><StartTime><Timestamp dt:dt="int">0</Timestamp><DateUtc dt:dt="string">2015-07-07T17:10:55Z</DateUtc></StartTime><FrequencyChanges><FrequencyChange><Frequency dt:dt="r8">3507685</Frequency><Timestamp dt:dt="r8">15047812691</Timestamp><Current dt:dt="r8">0</Current><DateUtc dt:dt="string">2015-07-07T17:10:55Z</DateUtc></FrequencyChange></FrequencyChanges></Clock>\n	Hungry_Donkey_bar_English_2-107-2	60.017	273	1.0.0.18	1	-2131358191	Standard	2.0.10.353	2.0.10.353	07-07-2015	7/7/2015 5:10:55 PM	13:10:55	2.0.10.248	71	Bar63-37.bmp	64	3	?	8r_4g.bmp	50r_4g.bmp	1r_2g.bmp	10r_2g.bmp			1r_2g.bmp		TrialProc	TrialList	0	cvbn	-999999	16	324102	0	b	1982	326084	218	-125	93	-18	84	15	12	1	8	71	-8	-50	-1	-10	4	4	2	2	-1	2
Hungry_Donkey_bar_English_2	107	2	<?xml version="1.0"?>\n<Clock xmlns:dt="urn:schemas-microsoft-com:datatypes"><Description dt:dt="string">E-Prime Primary Realtime Clock</Description><StartTime><Timestamp dt:dt="int">0</Timestamp><DateUtc dt:dt="string">2015-07-07T17:10:55Z</DateUtc></StartTime><FrequencyChanges><FrequencyChange><Frequency dt:dt="r8">3507685</Frequency><Timestamp dt:dt="r8">15047812691</Timestamp><Current dt:dt="r8">0</Current><DateUtc dt:dt="string">2015-07-07T17:10:55Z</DateUtc></FrequencyChange></FrequencyChanges></Clock>\n	Hungry_Donkey_bar_English_2-107-2	60.017	273	1.0.0.18	1	-2131358191	Standard	2.0.10.353	2.0.10.353	07-07-2015	7/7/2015 5:10:55 PM	13:10:55	2.0.10.248	72	Bar63-37.bmp	64	1	?	0r_4g.bmp	0r_4g.bmp	0r_2g.bmp	0r_2g.bmp	0r_4g.bmp				TrialProc	TrialList	0	cvbn	-999999	16	328117	0	c	1903	330020	222	-125	97	-14	84	15	12	9	8	72	0	0	0	0	4	4	2	2	0	4
Hungry_Donkey_bar_English_2	107	2	<?xml version="1.0"?>\n<Clock xmlns:dt="urn:schemas-microsoft-com:datatypes"><Description dt:dt="string">E-Prime Primary Realtime Clock</Description><StartTime><Timestamp dt:dt="int">0</Timestamp><DateUtc dt:dt="string">2015-07-07T17:10:55Z</DateUtc></StartTime><FrequencyChanges><FrequencyChange><Frequency dt:dt="r8">3507685</Frequency><Timestamp dt:dt="r8">15047812691</Timestamp><Current dt:dt="r8">0</Current><DateUtc dt:dt="string">2015-07-07T17:10:55Z</DateUtc></FrequencyChange></FrequencyChanges></Clock>\n	Hungry_Donkey_bar_English_2-107-2	60.017	273	1.0.0.18	1	-2131358191	Standard	2.0.10.353	2.0.10.353	07-07-2015	7/7/2015 5:10:55 PM	13:10:55	2.0.10.248	73	Bar63-37.bmp	64	2	?	0r_4g.bmp	0r_4g.bmp	0r_2g.bmp	0r_2g.bmp		0r_4g.bmp			TrialProc	TrialList	0	cvbn	-999999	16	332050	0	v	1137	333187	226	-125	101	-14	88	15	12	8	8	73	0	0	0	0	4	4	2	2	0	4
Hungry_Donkey_bar_English_2	107	2	<?xml version="1.0"?>\n<Clock xmlns:dt="urn:schemas-microsoft-com:datatypes"><Description dt:dt="string">E-Prime Primary Realtime Clock</Description><StartTime><Timestamp dt:dt="int">0</Timestamp><DateUtc dt:dt="string">2015-07-07T17:10:55Z</DateUtc></StartTime><FrequencyChanges><FrequencyChange><Frequency dt:dt="r8">3507685</Frequency><Timestamp dt:dt="r8">15047812691</Timestamp><Current dt:dt="r8">0</Current><DateUtc dt:dt="string">2015-07-07T17:10:55Z</DateUtc></FrequencyChange></FrequencyChanges></Clock>\n	Hungry_Donkey_bar_English_2-107-2	60.017	273	1.0.0.18	1	-2131358191	Standard	2.0.10.353	2.0.10.353	07-07-2015	7/7/2015 5:10:55 PM	13:10:55	2.0.10.248	74	Bar63-37.bmp	64	3	?	10r_4g.bmp	0r_4g.bmp	2r_2g.bmp	0r_2g.bmp			2r_2g.bmp		TrialProc	TrialList	0	cvbn	-999999	16	335215	0	b	916	336131	228	-127	101	-14	88	15	12	3	8	74	-10	0	-2	0	4	4	2	2	-2	2
Hungry_Donkey_bar_English_2	107	2	<?xml version="1.0"?>\n<Clock xmlns:dt="urn:schemas-microsoft-com:datatypes"><Description dt:dt="string">E-Prime Primary Realtime Clock</Description><StartTime><Timestamp dt:dt="int">0</Timestamp><DateUtc dt:dt="string">2015-07-07T17:10:55Z</DateUtc></StartTime><FrequencyChanges><FrequencyChange><Frequency dt:dt="r8">3507685</Frequency><Timestamp dt:dt="r8">15047812691</Timestamp><Current dt:dt="r8">0</Current><DateUtc dt:dt="string">2015-07-07T17:10:55Z</DateUtc></FrequencyChange></FrequencyChanges></Clock>\n	Hungry_Donkey_bar_English_2-107-2	60.017	273	1.0.0.18	1	-2131358191	Standard	2.0.10.353	2.0.10.353	07-07-2015	7/7/2015 5:10:55 PM	13:10:55	2.0.10.248	75	Bar63-37.bmp	64	4	?	12r_4g.bmp	0r_4g.bmp	3r_2g.bmp	0r_2g.bmp				0r_2g.bmp	TrialProc	TrialList	0	cvbn	-999999	17	338165	0	n	750	338915	230	-127	103	-14	88	15	14	5	8	75	-12	0	-3	0	4	4	2	2	0	2
Hungry_Donkey_bar_English_2	107	2	<?xml version="1.0"?>\n<Clock xmlns:dt="urn:schemas-microsoft-com:datatypes"><Description dt:dt="string">E-Prime Primary Realtime Clock</Description><StartTime><Timestamp dt:dt="int">0</Timestamp><DateUtc dt:dt="string">2015-07-07T17:10:55Z</DateUtc></StartTime><FrequencyChanges><FrequencyChange><Frequency dt:dt="r8">3507685</Frequency><Timestamp dt:dt="r8">15047812691</Timestamp><Current dt:dt="r8">0</Current><DateUtc dt:dt="string">2015-07-07T17:10:55Z</DateUtc></FrequencyChange></FrequencyChanges></Clock>\n	Hungry_Donkey_bar_English_2-107-2	60.017	273	1.0.0.18	1	-2131358191	Standard	2.0.10.353	2.0.10.353	07-07-2015	7/7/2015 5:10:55 PM	13:10:55	2.0.10.248	76	Bar63-37.bmp	65	1	?	0r_4g.bmp	0r_4g.bmp	0r_2g.bmp	0r_2g.bmp	0r_4g.bmp				TrialProc	TrialList	0	cvbn	-999999	16	340947	0	c	1792	342739	234	-127	107	-10	88	15	14	10	8	76	0	0	0	0	4	4	2	2	0	4
Hungry_Donkey_bar_English_2	107	2	<?xml version="1.0"?>\n<Clock xmlns:dt="urn:schemas-microsoft-com:datatypes"><Description dt:dt="string">E-Prime Primary Realtime Clock</Description><StartTime><Timestamp dt:dt="int">0</Timestamp><DateUtc dt:dt="string">2015-07-07T17:10:55Z</DateUtc></StartTime><FrequencyChanges><FrequencyChange><Frequency dt:dt="r8">3507685</Frequency><Timestamp dt:dt="r8">15047812691</Timestamp><Current dt:dt="r8">0</Current><DateUtc dt:dt="string">2015-07-07T17:10:55Z</DateUtc></FrequencyChange></FrequencyChanges></Clock>\n	Hungry_Donkey_bar_English_2-107-2	60.017	273	1.0.0.18	1	-2131358191	Standard	2.0.10.353	2.0.10.353	07-07-2015	7/7/2015 5:10:55 PM	13:10:55	2.0.10.248	77	Bar63-37.bmp	65	2	?	10r_4g.bmp	0r_4g.bmp	2r_2g.bmp	0r_2g.bmp		0r_4g.bmp			TrialProc	TrialList	0	cvbn	-999999	16	344779	0	v	648	345427	238	-127	111	-10	92	15	14	2	8	77	-10	0	-2	0	4	4	2	2	0	4
Hungry_Donkey_bar_English_2	107	2	<?xml version="1.0"?>\n<Clock xmlns:dt="urn:schemas-microsoft-com:datatypes"><Description dt:dt="string">E-Prime Primary Realtime Clock</Description><StartTime><Timestamp dt:dt="int">0</Timestamp><DateUtc dt:dt="string">2015-07-07T17:10:55Z</DateUtc></StartTime><FrequencyChanges><FrequencyChange><Frequency dt:dt="r8">3507685</Frequency><Timestamp dt:dt="r8">15047812691</Timestamp><Current dt:dt="r8">0</Current><DateUtc dt:dt="string">2015-07-07T17:10:55Z</DateUtc></FrequencyChange></FrequencyChanges></Clock>\n	Hungry_Donkey_bar_English_2-107-2	60.017	273	1.0.0.18	1	-2131358191	Standard	2.0.10.353	2.0.10.353	07-07-2015	7/7/2015 5:10:55 PM	13:10:55	2.0.10.248	78	Bar63-37.bmp	65	3	?	10r_4g.bmp	0r_4g.bmp	2r_2g.bmp	0r_2g.bmp			2r_2g.bmp		TrialProc	TrialList	0	cvbn	-999999	16	347462	0	b	685	348147	240	-129	111	-10	92	15	14	4	8	78	-10	0	-2	0	4	4	2	2	-2	2
Hungry_Donkey_bar_English_2	107	2	<?xml version="1.0"?>\n<Clock xmlns:dt="urn:schemas-microsoft-com:datatypes"><Description dt:dt="string">E-Prime Primary Realtime Clock</Description><StartTime><Timestamp dt:dt="int">0</Timestamp><DateUtc dt:dt="string">2015-07-07T17:10:55Z</DateUtc></StartTime><FrequencyChanges><FrequencyChange><Frequency dt:dt="r8">3507685</Frequency><Timestamp dt:dt="r8">15047812691</Timestamp><Current dt:dt="r8">0</Current><DateUtc dt:dt="string">2015-07-07T17:10:55Z</DateUtc></FrequencyChange></FrequencyChanges></Clock>\n	Hungry_Donkey_bar_English_2-107-2	60.017	273	1.0.0.18	1	-2131358191	Standard	2.0.10.353	2.0.10.353	07-07-2015	7/7/2015 5:10:55 PM	13:10:55	2.0.10.248	79	Bar63-37.bmp	65	4	?	0r_4g.bmp	0r_4g.bmp	0r_2g.bmp	0r_2g.bmp				0r_2g.bmp	TrialProc	TrialList	0	cvbn	-999999	16	350178	0	n	912	351090	242	-129	113	-10	92	15	16	6	8	79	0	0	0	0	4	4	2	2	0	2
Hungry_Donkey_bar_English_2	107	2	<?xml version="1.0"?>\n<Clock xmlns:dt="urn:schemas-microsoft-com:datatypes"><Description dt:dt="string">E-Prime Primary Realtime Clock</Description><StartTime><Timestamp dt:dt="int">0</Timestamp><DateUtc dt:dt="string">2015-07-07T17:10:55Z</DateUtc></StartTime><FrequencyChanges><FrequencyChange><Frequency dt:dt="r8">3507685</Frequency><Timestamp dt:dt="r8">15047812691</Timestamp><Current dt:dt="r8">0</Current><DateUtc dt:dt="string">2015-07-07T17:10:55Z</DateUtc></FrequencyChange></FrequencyChanges></Clock>\n	Hungry_Donkey_bar_English_2-107-2	60.017	273	1.0.0.18	1	-2131358191	Standard	2.0.10.353	2.0.10.353	07-07-2015	7/7/2015 5:10:55 PM	13:10:55	2.0.10.248	80	Bar63-37.bmp	66	1	?	0r_4g.bmp	0r_4g.bmp	0r_2g.bmp	0r_2g.bmp	0r_4g.bmp				TrialProc	TrialList	0	cvbn	-999999	16	353127	0	c	171	353298	246	-129	117	-6	92	15	16	7	8	80	0	0	0	0	4	4	2	2	0	4
Hungry_Donkey_bar_English_2	107	2	<?xml version="1.0"?>\n<Clock xmlns:dt="urn:schemas-microsoft-com:datatypes"><Description dt:dt="string">E-Prime Primary Realtime Clock</Description><StartTime><Timestamp dt:dt="int">0</Timestamp><DateUtc dt:dt="string">2015-07-07T17:10:55Z</DateUtc></StartTime><FrequencyChanges><FrequencyChange><Frequency dt:dt="r8">3507685</Frequency><Timestamp dt:dt="r8">15047812691</Timestamp><Current dt:dt="r8">0</Current><DateUtc dt:dt="string">2015-07-07T17:10:55Z</DateUtc></FrequencyChange></FrequencyChanges></Clock>\n	Hungry_Donkey_bar_English_2-107-2	60.017	273	1.0.0.18	1	-2131358191	Standard	2.0.10.353	2.0.10.353	07-07-2015	7/7/2015 5:10:55 PM	13:10:55	2.0.10.248	81	Bar63-37.bmp	66	2	?	12r_4g.bmp	0r_4g.bmp	3r_2g.bmp	0r_2g.bmp		0r_4g.bmp			TrialProc	TrialList	0	cvbn	-999999	16	355326	0	v	4	355330	250	-129	121	-6	96	15	16	5	9	81	-12	0	-3	0	4	4	2	2	0	4
Hungry_Donkey_bar_English_2	107	2	<?xml version="1.0"?>\n<Clock xmlns:dt="urn:schemas-microsoft-com:datatypes"><Description dt:dt="string">E-Prime Primary Realtime Clock</Description><StartTime><Timestamp dt:dt="int">0</Timestamp><DateUtc dt:dt="string">2015-07-07T17:10:55Z</DateUtc></StartTime><FrequencyChanges><FrequencyChange><Frequency dt:dt="r8">3507685</Frequency><Timestamp dt:dt="r8">15047812691</Timestamp><Current dt:dt="r8">0</Current><DateUtc dt:dt="string">2015-07-07T17:10:55Z</DateUtc></FrequencyChange></FrequencyChanges></Clock>\n	Hungry_Donkey_bar_English_2-107-2	60.017	273	1.0.0.18	1	-2131358191	Standard	2.0.10.353	2.0.10.353	07-07-2015	7/7/2015 5:10:55 PM	13:10:55	2.0.10.248	82	Bar63-37.bmp	66	3	?	0r_4g.bmp	0r_4g.bmp	0r_2g.bmp	0r_2g.bmp			0r_2g.bmp		TrialProc	TrialList	0	cvbn	-999999	16	357359	0	b	979	358338	252	-129	123	-6	96	17	16	9	9	82	0	0	0	0	4	4	2	2	0	2
Hungry_Donkey_bar_English_2	107	2	<?xml version="1.0"?>\n<Clock xmlns:dt="urn:schemas-microsoft-com:datatypes"><Description dt:dt="string">E-Prime Primary Realtime Clock</Description><StartTime><Timestamp dt:dt="int">0</Timestamp><DateUtc dt:dt="string">2015-07-07T17:10:55Z</DateUtc></StartTime><FrequencyChanges><FrequencyChange><Frequency dt:dt="r8">3507685</Frequency><Timestamp dt:dt="r8">15047812691</Timestamp><Current dt:dt="r8">0</Current><DateUtc dt:dt="string">2015-07-07T17:10:55Z</DateUtc></FrequencyChange></FrequencyChanges></Clock>\n	Hungry_Donkey_bar_English_2-107-2	60.017	273	1.0.0.18	1	-2131358191	Standard	2.0.10.353	2.0.10.353	07-07-2015	7/7/2015 5:10:55 PM	13:10:55	2.0.10.248	83	Bar63-37.bmp	65	4	?	8r_4g.bmp	50r_4g.bmp	1r_2g.bmp	10r_2g.bmp				10r_2g.bmp	TrialProc	TrialList	0	cvbn	-999999	16	360375	0	n	3515	363890	254	-139	115	-6	96	17	8	1	9	83	-8	-50	-1	-10	4	4	2	2	-10	2
Hungry_Donkey_bar_English_2	107	2	<?xml version="1.0"?>\n<Clock xmlns:dt="urn:schemas-microsoft-com:datatypes"><Description dt:dt="string">E-Prime Primary Realtime Clock</Description><StartTime><Timestamp dt:dt="int">0</Timestamp><DateUtc dt:dt="string">2015-07-07T17:10:55Z</DateUtc></StartTime><FrequencyChanges><FrequencyChange><Frequency dt:dt="r8">3507685</Frequency><Timestamp dt:dt="r8">15047812691</Timestamp><Current dt:dt="r8">0</Current><DateUtc dt:dt="string">2015-07-07T17:10:55Z</DateUtc></FrequencyChange></FrequencyChanges></Clock>\n	Hungry_Donkey_bar_English_2-107-2	60.017	273	1.0.0.18	1	-2131358191	Standard	2.0.10.353	2.0.10.353	07-07-2015	7/7/2015 5:10:55 PM	13:10:55	2.0.10.248	84	Bar63-37.bmp	65	1	?	0r_4g.bmp	0r_4g.bmp	0r_2g.bmp	0r_2g.bmp	0r_4g.bmp				TrialProc	TrialList	0	cvbn	-999999	16	365923	0	c	1487	367410	258	-139	119	-2	96	17	8	6	9	84	0	0	0	0	4	4	2	2	0	4
Hungry_Donkey_bar_English_2	107	2	<?xml version="1.0"?>\n<Clock xmlns:dt="urn:schemas-microsoft-com:datatypes"><Description dt:dt="string">E-Prime Primary Realtime Clock</Description><StartTime><Timestamp dt:dt="int">0</Timestamp><DateUtc dt:dt="string">2015-07-07T17:10:55Z</DateUtc></StartTime><FrequencyChanges><FrequencyChange><Frequency dt:dt="r8">3507685</Frequency><Timestamp dt:dt="r8">15047812691</Timestamp><Current dt:dt="r8">0</Current><DateUtc dt:dt="string">2015-07-07T17:10:55Z</DateUtc></FrequencyChange></FrequencyChanges></Clock>\n	Hungry_Donkey_bar_English_2-107-2	60.017	273	1.0.0.18	1	-2131358191	Standard	2.0.10.353	2.0.10.353	07-07-2015	7/7/2015 5:10:55 PM	13:10:55	2.0.10.248	85	Bar63-37.bmp	65	2	?	0r_4g.bmp	0r_4g.bmp	0r_2g.bmp	0r_2g.bmp		0r_4g.bmp			TrialProc	TrialList	0	cvbn	-999999	16	369439	0	v	579	370018	262	-139	123	-2	100	17	8	8	9	85	0	0	0	0	4	4	2	2	0	4
Hungry_Donkey_bar_English_2	107	2	<?xml version="1.0"?>\n<Clock xmlns:dt="urn:schemas-microsoft-com:datatypes"><Description dt:dt="string">E-Prime Primary Realtime Clock</Description><StartTime><Timestamp dt:dt="int">0</Timestamp><DateUtc dt:dt="string">2015-07-07T17:10:55Z</DateUtc></StartTime><FrequencyChanges><FrequencyChange><Frequency dt:dt="r8">3507685</Frequency><Timestamp dt:dt="r8">15047812691</Timestamp><Current dt:dt="r8">0</Current><DateUtc dt:dt="string">2015-07-07T17:10:55Z</DateUtc></FrequencyChange></FrequencyChanges></Clock>\n	Hungry_Donkey_bar_English_2-107-2	60.017	273	1.0.0.18	1	-2131358191	Standard	2.0.10.353	2.0.10.353	07-07-2015	7/7/2015 5:10:55 PM	13:10:55	2.0.10.248	86	Bar63-37.bmp	65	3	?	10r_4g.bmp	0r_4g.bmp	2r_2g.bmp	0r_2g.bmp			2r_2g.bmp		TrialProc	TrialList	0	cvbn	-999999	16	372055	0	b	794	372849	264	-141	123	-2	100	17	8	3	9	86	-10	0	-2	0	4	4	2	2	-2	2
Hungry_Donkey_bar_English_2	107	2	<?xml version="1.0"?>\n<Clock xmlns:dt="urn:schemas-microsoft-com:datatypes"><Description dt:dt="string">E-Prime Primary Realtime Clock</Description><StartTime><Timestamp dt:dt="int">0</Timestamp><DateUtc dt:dt="string">2015-07-07T17:10:55Z</DateUtc></StartTime><FrequencyChanges><FrequencyChange><Frequency dt:dt="r8">3507685</Frequency><Timestamp dt:dt="r8">15047812691</Timestamp><Current dt:dt="r8">0</Current><DateUtc dt:dt="string">2015-07-07T17:10:55Z</DateUtc></FrequencyChange></FrequencyChanges></Clock>\n	Hungry_Donkey_bar_English_2-107-2	60.017	273	1.0.0.18	1	-2131358191	Standard	2.0.10.353	2.0.10.353	07-07-2015	7/7/2015 5:10:55 PM	13:10:55	2.0.10.248	87	Bar63-37.bmp	65	4	?	0r_4g.bmp	0r_4g.bmp	0r_2g.bmp	0r_2g.bmp				0r_2g.bmp	TrialProc	TrialList	0	cvbn	-999999	16	374887	0	n	938	375825	266	-141	125	-2	100	17	10	10	9	87	0	0	0	0	4	4	2	2	0	2
Hungry_Donkey_bar_English_2	107	2	<?xml version="1.0"?>\n<Clock xmlns:dt="urn:schemas-microsoft-com:datatypes"><Description dt:dt="string">E-Prime Primary Realtime Clock</Description><StartTime><Timestamp dt:dt="int">0</Timestamp><DateUtc dt:dt="string">2015-07-07T17:10:55Z</DateUtc></StartTime><FrequencyChanges><FrequencyChange><Frequency dt:dt="r8">3507685</Frequency><Timestamp dt:dt="r8">15047812691</Timestamp><Current dt:dt="r8">0</Current><DateUtc dt:dt="string">2015-07-07T17:10:55Z</DateUtc></FrequencyChange></FrequencyChanges></Clock>\n	Hungry_Donkey_bar_English_2-107-2	60.017	273	1.0.0.18	1	-2131358191	Standard	2.0.10.353	2.0.10.353	07-07-2015	7/7/2015 5:10:55 PM	13:10:55	2.0.10.248	88	Bar63-37.bmp	66	1	?	0r_4g.bmp	0r_4g.bmp	0r_2g.bmp	0r_2g.bmp	0r_4g.bmp				TrialProc	TrialList	0	cvbn	-999999	16	377853	0	c	628	378481	270	-141	129	2	100	17	10	7	9	88	0	0	0	0	4	4	2	2	0	4
Hungry_Donkey_bar_English_2	107	2	<?xml version="1.0"?>\n<Clock xmlns:dt="urn:schemas-microsoft-com:datatypes"><Description dt:dt="string">E-Prime Primary Realtime Clock</Description><StartTime><Timestamp dt:dt="int">0</Timestamp><DateUtc dt:dt="string">2015-07-07T17:10:55Z</DateUtc></StartTime><FrequencyChanges><FrequencyChange><Frequency dt:dt="r8">3507685</Frequency><Timestamp dt:dt="r8">15047812691</Timestamp><Current dt:dt="r8">0</Current><DateUtc dt:dt="string">2015-07-07T17:10:55Z</DateUtc></FrequencyChange></FrequencyChanges></Clock>\n	Hungry_Donkey_bar_English_2-107-2	60.017	273	1.0.0.18	1	-2131358191	Standard	2.0.10.353	2.0.10.353	07-07-2015	7/7/2015 5:10:55 PM	13:10:55	2.0.10.248	89	Bar63-37.bmp	66	2	?	10r_4g.bmp	0r_4g.bmp	2r_2g.bmp	0r_2g.bmp		0r_4g.bmp			TrialProc	TrialList	0	cvbn	-999999	16	380519	0	v	810	381329	274	-141	133	2	104	17	10	2	9	89	-10	0	-2	0	4	4	2	2	0	4
Hungry_Donkey_bar_English_2	107	2	<?xml version="1.0"?>\n<Clock xmlns:dt="urn:schemas-microsoft-com:datatypes"><Description dt:dt="string">E-Prime Primary Realtime Clock</Description><StartTime><Timestamp dt:dt="int">0</Timestamp><DateUtc dt:dt="string">2015-07-07T17:10:55Z</DateUtc></StartTime><FrequencyChanges><FrequencyChange><Frequency dt:dt="r8">3507685</Frequency><Timestamp dt:dt="r8">15047812691</Timestamp><Current dt:dt="r8">0</Current><DateUtc dt:dt="string">2015-07-07T17:10:55Z</DateUtc></FrequencyChange></FrequencyChanges></Clock>\n	Hungry_Donkey_bar_English_2-107-2	60.017	273	1.0.0.18	1	-2131358191	Standard	2.0.10.353	2.0.10.353	07-07-2015	7/7/2015 5:10:55 PM	13:10:55	2.0.10.248	90	Bar63-37.bmp	66	3	?	10r_4g.bmp	0r_4g.bmp	2r_2g.bmp	0r_2g.bmp			2r_2g.bmp		TrialProc	TrialList	0	cvbn	-999999	16	383368	0	b	649	384017	276	-143	133	2	104	17	10	4	9	90	-10	0	-2	0	4	4	2	2	-2	2
Hungry_Donkey_bar_English_2	107	2	<?xml version="1.0"?>\n<Clock xmlns:dt="urn:schemas-microsoft-com:datatypes"><Description dt:dt="string">E-Prime Primary Realtime Clock</Description><StartTime><Timestamp dt:dt="int">0</Timestamp><DateUtc dt:dt="string">2015-07-07T17:10:55Z</DateUtc></StartTime><FrequencyChanges><FrequencyChange><Frequency dt:dt="r8">3507685</Frequency><Timestamp dt:dt="r8">15047812691</Timestamp><Current dt:dt="r8">0</Current><DateUtc dt:dt="string">2015-07-07T17:10:55Z</DateUtc></FrequencyChange></FrequencyChanges></Clock>\n	Hungry_Donkey_bar_English_2-107-2	60.017	273	1.0.0.18	1	-2131358191	Standard	2.0.10.353	2.0.10.353	07-07-2015	7/7/2015 5:10:55 PM	13:10:55	2.0.10.248	91	Bar63-37.bmp	66	4	?	0r_4g.bmp	0r_4g.bmp	0r_2g.bmp	0r_2g.bmp				0r_2g.bmp	TrialProc	TrialList	0	cvbn	-999999	16	386051	0	n	718	386769	278	-143	135	2	104	17	12	10	10	91	0	0	0	0	4	4	2	2	0	2
Hungry_Donkey_bar_English_2	107	2	<?xml version="1.0"?>\n<Clock xmlns:dt="urn:schemas-microsoft-com:datatypes"><Description dt:dt="string">E-Prime Primary Realtime Clock</Description><StartTime><Timestamp dt:dt="int">0</Timestamp><DateUtc dt:dt="string">2015-07-07T17:10:55Z</DateUtc></StartTime><FrequencyChanges><FrequencyChange><Frequency dt:dt="r8">3507685</Frequency><Timestamp dt:dt="r8">15047812691</Timestamp><Current dt:dt="r8">0</Current><DateUtc dt:dt="string">2015-07-07T17:10:55Z</DateUtc></FrequencyChange></FrequencyChanges></Clock>\n	Hungry_Donkey_bar_English_2-107-2	60.017	273	1.0.0.18	1	-2131358191	Standard	2.0.10.353	2.0.10.353	07-07-2015	7/7/2015 5:10:55 PM	13:10:55	2.0.10.248	92	Bar63-37.bmp	66	1	?	0r_4g.bmp	0r_4g.bmp	0r_2g.bmp	0r_2g.bmp	0r_4g.bmp				TrialProc	TrialList	0	cvbn	-999999	16	388800	0	c	1136	389936	282	-143	139	6	104	17	12	9	10	92	0	0	0	0	4	4	2	2	0	4
Hungry_Donkey_bar_English_2	107	2	<?xml version="1.0"?>\n<Clock xmlns:dt="urn:schemas-microsoft-com:datatypes"><Description dt:dt="string">E-Prime Primary Realtime Clock</Description><StartTime><Timestamp dt:dt="int">0</Timestamp><DateUtc dt:dt="string">2015-07-07T17:10:55Z</DateUtc></StartTime><FrequencyChanges><FrequencyChange><Frequency dt:dt="r8">3507685</Frequency><Timestamp dt:dt="r8">15047812691</Timestamp><Current dt:dt="r8">0</Current><DateUtc dt:dt="string">2015-07-07T17:10:55Z</DateUtc></FrequencyChange></FrequencyChanges></Clock>\n	Hungry_Donkey_bar_English_2-107-2	60.017	273	1.0.0.18	1	-2131358191	Standard	2.0.10.353	2.0.10.353	07-07-2015	7/7/2015 5:10:55 PM	13:10:55	2.0.10.248	93	Bar63-37.bmp	67	2	?	10r_4g.bmp	0r_4g.bmp	2r_2g.bmp	0r_2g.bmp		0r_4g.bmp			TrialProc	TrialList	0	cvbn	-999999	16	391966	0	v	386	392352	286	-143	143	6	108	17	12	4	10	93	-10	0	-2	0	4	4	2	2	0	4
Hungry_Donkey_bar_English_2	107	2	<?xml version="1.0"?>\n<Clock xmlns:dt="urn:schemas-microsoft-com:datatypes"><Description dt:dt="string">E-Prime Primary Realtime Clock</Description><StartTime><Timestamp dt:dt="int">0</Timestamp><DateUtc dt:dt="string">2015-07-07T17:10:55Z</DateUtc></StartTime><FrequencyChanges><FrequencyChange><Frequency dt:dt="r8">3507685</Frequency><Timestamp dt:dt="r8">15047812691</Timestamp><Current dt:dt="r8">0</Current><DateUtc dt:dt="string">2015-07-07T17:10:55Z</DateUtc></FrequencyChange></FrequencyChanges></Clock>\n	Hungry_Donkey_bar_English_2-107-2	60.017	273	1.0.0.18	1	-2131358191	Standard	2.0.10.353	2.0.10.353	07-07-2015	7/7/2015 5:10:55 PM	13:10:55	2.0.10.248	94	Bar63-37.bmp	67	3	?	0r_4g.bmp	0r_4g.bmp	0r_2g.bmp	0r_2g.bmp			0r_2g.bmp		TrialProc	TrialList	0	cvbn	-999999	16	394382	0	b	1634	396016	288	-143	145	6	108	19	12	6	10	94	0	0	0	0	4	4	2	2	0	2
Hungry_Donkey_bar_English_2	107	2	<?xml version="1.0"?>\n<Clock xmlns:dt="urn:schemas-microsoft-com:datatypes"><Description dt:dt="string">E-Prime Primary Realtime Clock</Description><StartTime><Timestamp dt:dt="int">0</Timestamp><DateUtc dt:dt="string">2015-07-07T17:10:55Z</DateUtc></StartTime><FrequencyChanges><FrequencyChange><Frequency dt:dt="r8">3507685</Frequency><Timestamp dt:dt="r8">15047812691</Timestamp><Current dt:dt="r8">0</Current><DateUtc dt:dt="string">2015-07-07T17:10:55Z</DateUtc></FrequencyChange></FrequencyChanges></Clock>\n	Hungry_Donkey_bar_English_2-107-2	60.017	273	1.0.0.18	1	-2131358191	Standard	2.0.10.353	2.0.10.353	07-07-2015	7/7/2015 5:10:55 PM	13:10:55	2.0.10.248	95	Bar63-37.bmp	67	4	?	10r_4g.bmp	0r_4g.bmp	2r_2g.bmp	0r_2g.bmp				0r_2g.bmp	TrialProc	TrialList	0	cvbn	-999999	16	398047	0	n	673	398720	290	-143	147	6	108	19	14	2	10	95	-10	0	-2	0	4	4	2	2	0	2
Hungry_Donkey_bar_English_2	107	2	<?xml version="1.0"?>\n<Clock xmlns:dt="urn:schemas-microsoft-com:datatypes"><Description dt:dt="string">E-Prime Primary Realtime Clock</Description><StartTime><Timestamp dt:dt="int">0</Timestamp><DateUtc dt:dt="string">2015-07-07T17:10:55Z</DateUtc></StartTime><FrequencyChanges><FrequencyChange><Frequency dt:dt="r8">3507685</Frequency><Timestamp dt:dt="r8">15047812691</Timestamp><Current dt:dt="r8">0</Current><DateUtc dt:dt="string">2015-07-07T17:10:55Z</DateUtc></FrequencyChange></FrequencyChanges></Clock>\n	Hungry_Donkey_bar_English_2-107-2	60.017	273	1.0.0.18	1	-2131358191	Standard	2.0.10.353	2.0.10.353	07-07-2015	7/7/2015 5:10:55 PM	13:10:55	2.0.10.248	96	Bar63-37.bmp	65	1	?	12r_4g.bmp	0r_4g.bmp	3r_2g.bmp	0r_2g.bmp	12r_4g.bmp				TrialProc	TrialList	0	cvbn	-999999	16	400746	0	c	230	400976	294	-155	139	-2	108	19	14	5	10	96	-12	0	-3	0	4	4	2	2	-12	4
Hungry_Donkey_bar_English_2	107	2	<?xml version="1.0"?>\n<Clock xmlns:dt="urn:schemas-microsoft-com:datatypes"><Description dt:dt="string">E-Prime Primary Realtime Clock</Description><StartTime><Timestamp dt:dt="int">0</Timestamp><DateUtc dt:dt="string">2015-07-07T17:10:55Z</DateUtc></StartTime><FrequencyChanges><FrequencyChange><Frequency dt:dt="r8">3507685</Frequency><Timestamp dt:dt="r8">15047812691</Timestamp><Current dt:dt="r8">0</Current><DateUtc dt:dt="string">2015-07-07T17:10:55Z</DateUtc></FrequencyChange></FrequencyChanges></Clock>\n	Hungry_Donkey_bar_English_2-107-2	60.017	273	1.0.0.18	1	-2131358191	Standard	2.0.10.353	2.0.10.353	07-07-2015	7/7/2015 5:10:55 PM	13:10:55	2.0.10.248	97	Bar63-37.bmp	66	2	?	0r_4g.bmp	0r_4g.bmp	0r_2g.bmp	0r_2g.bmp		0r_4g.bmp			TrialProc	TrialList	0	cvbn	-999999	17	403013	0	v	1387	404400	298	-155	143	-2	112	19	14	7	10	97	0	0	0	0	4	4	2	2	0	4
Hungry_Donkey_bar_English_2	107	2	<?xml version="1.0"?>\n<Clock xmlns:dt="urn:schemas-microsoft-com:datatypes"><Description dt:dt="string">E-Prime Primary Realtime Clock</Description><StartTime><Timestamp dt:dt="int">0</Timestamp><DateUtc dt:dt="string">2015-07-07T17:10:55Z</DateUtc></StartTime><FrequencyChanges><FrequencyChange><Frequency dt:dt="r8">3507685</Frequency><Timestamp dt:dt="r8">15047812691</Timestamp><Current dt:dt="r8">0</Current><DateUtc dt:dt="string">2015-07-07T17:10:55Z</DateUtc></FrequencyChange></FrequencyChanges></Clock>\n	Hungry_Donkey_bar_English_2-107-2	60.017	273	1.0.0.18	1	-2131358191	Standard	2.0.10.353	2.0.10.353	07-07-2015	7/7/2015 5:10:55 PM	13:10:55	2.0.10.248	98	Bar63-37.bmp	66	3	?	8r_4g.bmp	50r_4g.bmp	1r_2g.bmp	10r_2g.bmp			1r_2g.bmp		TrialProc	TrialList	0	cvbn	-999999	16	406428	0	b	692	407120	300	-156	144	-2	112	20	14	1	10	98	-8	-50	-1	-10	4	4	2	2	-1	2
Hungry_Donkey_bar_English_2	107	2	<?xml version="1.0"?>\n<Clock xmlns:dt="urn:schemas-microsoft-com:datatypes"><Description dt:dt="string">E-Prime Primary Realtime Clock</Description><StartTime><Timestamp dt:dt="int">0</Timestamp><DateUtc dt:dt="string">2015-07-07T17:10:55Z</DateUtc></StartTime><FrequencyChanges><FrequencyChange><Frequency dt:dt="r8">3507685</Frequency><Timestamp dt:dt="r8">15047812691</Timestamp><Current dt:dt="r8">0</Current><DateUtc dt:dt="string">2015-07-07T17:10:55Z</DateUtc></FrequencyChange></FrequencyChanges></Clock>\n	Hungry_Donkey_bar_English_2-107-2	60.017	273	1.0.0.18	1	-2131358191	Standard	2.0.10.353	2.0.10.353	07-07-2015	7/7/2015 5:10:55 PM	13:10:55	2.0.10.248	99	Bar63-37.bmp	66	4	?	0r_4g.bmp	0r_4g.bmp	0r_2g.bmp	0r_2g.bmp				0r_2g.bmp	TrialProc	TrialList	0	cvbn	-999999	16	409144	0	n	567	409711	302	-156	146	-2	112	20	16	8	10	99	0	0	0	0	4	4	2	2	0	2
Hungry_Donkey_bar_English_2	107	2	<?xml version="1.0"?>\n<Clock xmlns:dt="urn:schemas-microsoft-com:datatypes"><Description dt:dt="string">E-Prime Primary Realtime Clock</Description><StartTime><Timestamp dt:dt="int">0</Timestamp><DateUtc dt:dt="string">2015-07-07T17:10:55Z</DateUtc></StartTime><FrequencyChanges><FrequencyChange><Frequency dt:dt="r8">3507685</Frequency><Timestamp dt:dt="r8">15047812691</Timestamp><Current dt:dt="r8">0</Current><DateUtc dt:dt="string">2015-07-07T17:10:55Z</DateUtc></FrequencyChange></FrequencyChanges></Clock>\n	Hungry_Donkey_bar_English_2-107-2	60.017	273	1.0.0.18	1	-2131358191	Standard	2.0.10.353	2.0.10.353	07-07-2015	7/7/2015 5:10:55 PM	13:10:55	2.0.10.248	100	Bar63-37.bmp	66	2	?	10r_4g.bmp	0r_4g.bmp	2r_2g.bmp	0r_2g.bmp		0r_4g.bmp			TrialProc	TrialList	0	cvbn	-999999	16	411743	0	v	1760	413503	306	-156	150	-2	116	20	16	3	10	100	-10	0	-2	0	4	4	2	2	0	4
Hungry_Donkey_bar_English_2	107	2	<?xml version="1.0"?>\n<Clock xmlns:dt="urn:schemas-microsoft-com:datatypes"><Description dt:dt="string">E-Prime Primary Realtime Clock</Description><StartTime><Timestamp dt:dt="int">0</Timestamp><DateUtc dt:dt="string">2015-07-07T17:10:55Z</DateUtc></StartTime><FrequencyChanges><FrequencyChange><Frequency dt:dt="r8">3507685</Frequency><Timestamp dt:dt="r8">15047812691</Timestamp><Current dt:dt="r8">0</Current><DateUtc dt:dt="string">2015-07-07T17:10:55Z</DateUtc></FrequencyChange></FrequencyChanges></Clock>\n	Hungry_Donkey_bar_English_2-107-2	60.017	273	1.0.0.18	1	-2131358191	Standard	2.0.10.353	2.0.10.353	07-07-2015	7/7/2015 5:10:55 PM	13:10:55	2.0.10.248	101	Bar63-37.bmp	67	1	?	0r_4g.bmp	0r_4g.bmp	0r_2g.bmp	0r_2g.bmp	0r_4g.bmp				TrialProc	TrialList	0	cvbn	-999999	16	415542	0	c	1001	416543	310	-156	154	2	116	20	16	7	11	101	0	0	0	0	4	4	2	2	0	4
Hungry_Donkey_bar_English_2	107	2	<?xml version="1.0"?>\n<Clock xmlns:dt="urn:schemas-microsoft-com:datatypes"><Description dt:dt="string">E-Prime Primary Realtime Clock</Description><StartTime><Timestamp dt:dt="int">0</Timestamp><DateUtc dt:dt="string">2015-07-07T17:10:55Z</DateUtc></StartTime><FrequencyChanges><FrequencyChange><Frequency dt:dt="r8">3507685</Frequency><Timestamp dt:dt="r8">15047812691</Timestamp><Current dt:dt="r8">0</Current><DateUtc dt:dt="string">2015-07-07T17:10:55Z</DateUtc></FrequencyChange></FrequencyChanges></Clock>\n	Hungry_Donkey_bar_English_2-107-2	60.017	273	1.0.0.18	1	-2131358191	Standard	2.0.10.353	2.0.10.353	07-07-2015	7/7/2015 5:10:55 PM	13:10:55	2.0.10.248	102	Bar63-37.bmp	65	4	?	8r_4g.bmp	50r_4g.bmp	1r_2g.bmp	10r_2g.bmp				10r_2g.bmp	TrialProc	TrialList	0	cvbn	-999999	16	418575	0	n	1152	419727	312	-166	146	2	116	20	8	1	11	102	-8	-50	-1	-10	4	4	2	2	-10	2
Hungry_Donkey_bar_English_2	107	2	<?xml version="1.0"?>\n<Clock xmlns:dt="urn:schemas-microsoft-com:datatypes"><Description dt:dt="string">E-Prime Primary Realtime Clock</Description><StartTime><Timestamp dt:dt="int">0</Timestamp><DateUtc dt:dt="string">2015-07-07T17:10:55Z</DateUtc></StartTime><FrequencyChanges><FrequencyChange><Frequency dt:dt="r8">3507685</Frequency><Timestamp dt:dt="r8">15047812691</Timestamp><Current dt:dt="r8">0</Current><DateUtc dt:dt="string">2015-07-07T17:10:55Z</DateUtc></FrequencyChange></FrequencyChanges></Clock>\n	Hungry_Donkey_bar_English_2-107-2	60.017	273	1.0.0.18	1	-2131358191	Standard	2.0.10.353	2.0.10.353	07-07-2015	7/7/2015 5:10:55 PM	13:10:55	2.0.10.248	103	Bar63-37.bmp	65	3	?	0r_4g.bmp	0r_4g.bmp	0r_2g.bmp	0r_2g.bmp			0r_2g.bmp		TrialProc	TrialList	0	cvbn	-999999	16	421757	0	b	1058	422815	314	-166	148	2	116	22	8	9	11	103	0	0	0	0	4	4	2	2	0	2
Hungry_Donkey_bar_English_2	107	2	<?xml version="1.0"?>\n<Clock xmlns:dt="urn:schemas-microsoft-com:datatypes"><Description dt:dt="string">E-Prime Primary Realtime Clock</Description><StartTime><Timestamp dt:dt="int">0</Timestamp><DateUtc dt:dt="string">2015-07-07T17:10:55Z</DateUtc></StartTime><FrequencyChanges><FrequencyChange><Frequency dt:dt="r8">3507685</Frequency><Timestamp dt:dt="r8">15047812691</Timestamp><Current dt:dt="r8">0</Current><DateUtc dt:dt="string">2015-07-07T17:10:55Z</DateUtc></FrequencyChange></FrequencyChanges></Clock>\n	Hungry_Donkey_bar_English_2-107-2	60.017	273	1.0.0.18	1	-2131358191	Standard	2.0.10.353	2.0.10.353	07-07-2015	7/7/2015 5:10:55 PM	13:10:55	2.0.10.248	104	Bar63-37.bmp	66	1	?	0r_4g.bmp	0r_4g.bmp	0r_2g.bmp	0r_2g.bmp	0r_4g.bmp				TrialProc	TrialList	0	cvbn	-999999	17	424840	0	c	887	425727	318	-166	152	6	116	22	8	6	11	104	0	0	0	0	4	4	2	2	0	4
Hungry_Donkey_bar_English_2	107	2	<?xml version="1.0"?>\n<Clock xmlns:dt="urn:schemas-microsoft-com:datatypes"><Description dt:dt="string">E-Prime Primary Realtime Clock</Description><StartTime><Timestamp dt:dt="int">0</Timestamp><DateUtc dt:dt="string">2015-07-07T17:10:55Z</DateUtc></StartTime><FrequencyChanges><FrequencyChange><Frequency dt:dt="r8">3507685</Frequency><Timestamp dt:dt="r8">15047812691</Timestamp><Current dt:dt="r8">0</Current><DateUtc dt:dt="string">2015-07-07T17:10:55Z</DateUtc></FrequencyChange></FrequencyChanges></Clock>\n	Hungry_Donkey_bar_English_2-107-2	60.017	273	1.0.0.18	1	-2131358191	Standard	2.0.10.353	2.0.10.353	07-07-2015	7/7/2015 5:10:55 PM	13:10:55	2.0.10.248	105	Bar63-37.bmp	65	1	?	10r_4g.bmp	0r_4g.bmp	2r_2g.bmp	0r_2g.bmp	10r_4g.bmp				TrialProc	TrialList	0	cvbn	-999999	16	427755	0	c	516	428271	322	-176	146	0	116	22	8	3	11	105	-10	0	-2	0	4	4	2	2	-10	4
Hungry_Donkey_bar_English_2	107	2	<?xml version="1.0"?>\n<Clock xmlns:dt="urn:schemas-microsoft-com:datatypes"><Description dt:dt="string">E-Prime Primary Realtime Clock</Description><StartTime><Timestamp dt:dt="int">0</Timestamp><DateUtc dt:dt="string">2015-07-07T17:10:55Z</DateUtc></StartTime><FrequencyChanges><FrequencyChange><Frequency dt:dt="r8">3507685</Frequency><Timestamp dt:dt="r8">15047812691</Timestamp><Current dt:dt="r8">0</Current><DateUtc dt:dt="string">2015-07-07T17:10:55Z</DateUtc></FrequencyChange></FrequencyChanges></Clock>\n	Hungry_Donkey_bar_English_2-107-2	60.017	273	1.0.0.18	1	-2131358191	Standard	2.0.10.353	2.0.10.353	07-07-2015	7/7/2015 5:10:55 PM	13:10:55	2.0.10.248	106	Bar63-37.bmp	65	2	?	10r_4g.bmp	0r_4g.bmp	2r_2g.bmp	0r_2g.bmp		0r_4g.bmp			TrialProc	TrialList	0	cvbn	-999999	16	430305	0	v	877	431182	326	-176	150	0	120	22	8	4	11	106	-10	0	-2	0	4	4	2	2	0	4
Hungry_Donkey_bar_English_2	107	2	<?xml version="1.0"?>\n<Clock xmlns:dt="urn:schemas-microsoft-com:datatypes"><Description dt:dt="string">E-Prime Primary Realtime Clock</Description><StartTime><Timestamp dt:dt="int">0</Timestamp><DateUtc dt:dt="string">2015-07-07T17:10:55Z</DateUtc></StartTime><FrequencyChanges><FrequencyChange><Frequency dt:dt="r8">3507685</Frequency><Timestamp dt:dt="r8">15047812691</Timestamp><Current dt:dt="r8">0</Current><DateUtc dt:dt="string">2015-07-07T17:10:55Z</DateUtc></FrequencyChange></FrequencyChanges></Clock>\n	Hungry_Donkey_bar_English_2-107-2	60.017	273	1.0.0.18	1	-2131358191	Standard	2.0.10.353	2.0.10.353	07-07-2015	7/7/2015 5:10:55 PM	13:10:55	2.0.10.248	107	Bar63-37.bmp	65	2	?	0r_4g.bmp	0r_4g.bmp	0r_2g.bmp	0r_2g.bmp		0r_4g.bmp			TrialProc	TrialList	0	cvbn	-999999	16	433220	0	v	922	434142	330	-176	154	0	124	22	8	10	11	107	0	0	0	0	4	4	2	2	0	4
Hungry_Donkey_bar_English_2	107	2	<?xml version="1.0"?>\n<Clock xmlns:dt="urn:schemas-microsoft-com:datatypes"><Description dt:dt="string">E-Prime Primary Realtime Clock</Description><StartTime><Timestamp dt:dt="int">0</Timestamp><DateUtc dt:dt="string">2015-07-07T17:10:55Z</DateUtc></StartTime><FrequencyChanges><FrequencyChange><Frequency dt:dt="r8">3507685</Frequency><Timestamp dt:dt="r8">15047812691</Timestamp><Current dt:dt="r8">0</Current><DateUtc dt:dt="string">2015-07-07T17:10:55Z</DateUtc></FrequencyChange></FrequencyChanges></Clock>\n	Hungry_Donkey_bar_English_2-107-2	60.017	273	1.0.0.18	1	-2131358191	Standard	2.0.10.353	2.0.10.353	07-07-2015	7/7/2015 5:10:55 PM	13:10:55	2.0.10.248	108	Bar63-37.bmp	65	3	?	12r_4g.bmp	0r_4g.bmp	3r_2g.bmp	0r_2g.bmp			3r_2g.bmp		TrialProc	TrialList	0	cvbn	-999999	16	436170	0	b	1060	437230	332	-179	153	0	124	21	8	5	11	108	-12	0	-3	0	4	4	2	2	-3	2
Hungry_Donkey_bar_English_2	107	2	<?xml version="1.0"?>\n<Clock xmlns:dt="urn:schemas-microsoft-com:datatypes"><Description dt:dt="string">E-Prime Primary Realtime Clock</Description><StartTime><Timestamp dt:dt="int">0</Timestamp><DateUtc dt:dt="string">2015-07-07T17:10:55Z</DateUtc></StartTime><FrequencyChanges><FrequencyChange><Frequency dt:dt="r8">3507685</Frequency><Timestamp dt:dt="r8">15047812691</Timestamp><Current dt:dt="r8">0</Current><DateUtc dt:dt="string">2015-07-07T17:10:55Z</DateUtc></FrequencyChange></FrequencyChanges></Clock>\n	Hungry_Donkey_bar_English_2-107-2	60.017	273	1.0.0.18	1	-2131358191	Standard	2.0.10.353	2.0.10.353	07-07-2015	7/7/2015 5:10:55 PM	13:10:55	2.0.10.248	109	Bar63-37.bmp	65	2	?	0r_4g.bmp	0r_4g.bmp	0r_2g.bmp	0r_2g.bmp		0r_4g.bmp			TrialProc	TrialList	0	cvbn	-999999	16	439269	0	v	1305	440574	336	-179	157	0	128	21	8	8	11	109	0	0	0	0	4	4	2	2	0	4
Hungry_Donkey_bar_English_2	107	2	<?xml version="1.0"?>\n<Clock xmlns:dt="urn:schemas-microsoft-com:datatypes"><Description dt:dt="string">E-Prime Primary Realtime Clock</Description><StartTime><Timestamp dt:dt="int">0</Timestamp><DateUtc dt:dt="string">2015-07-07T17:10:55Z</DateUtc></StartTime><FrequencyChanges><FrequencyChange><Frequency dt:dt="r8">3507685</Frequency><Timestamp dt:dt="r8">15047812691</Timestamp><Current dt:dt="r8">0</Current><DateUtc dt:dt="string">2015-07-07T17:10:55Z</DateUtc></FrequencyChange></FrequencyChanges></Clock>\n	Hungry_Donkey_bar_English_2-107-2	60.017	273	1.0.0.18	1	-2131358191	Standard	2.0.10.353	2.0.10.353	07-07-2015	7/7/2015 5:10:55 PM	13:10:55	2.0.10.248	110	Bar63-37.bmp	65	4	?	10r_4g.bmp	0r_4g.bmp	2r_2g.bmp	0r_2g.bmp				0r_2g.bmp	TrialProc	TrialList	0	cvbn	-999999	16	442601	0	n	1189	443790	338	-179	159	0	128	21	10	2	11	110	-10	0	-2	0	4	4	2	2	0	2
Hungry_Donkey_bar_English_2	107	2	<?xml version="1.0"?>\n<Clock xmlns:dt="urn:schemas-microsoft-com:datatypes"><Description dt:dt="string">E-Prime Primary Realtime Clock</Description><StartTime><Timestamp dt:dt="int">0</Timestamp><DateUtc dt:dt="string">2015-07-07T17:10:55Z</DateUtc></StartTime><FrequencyChanges><FrequencyChange><Frequency dt:dt="r8">3507685</Frequency><Timestamp dt:dt="r8">15047812691</Timestamp><Current dt:dt="r8">0</Current><DateUtc dt:dt="string">2015-07-07T17:10:55Z</DateUtc></FrequencyChange></FrequencyChanges></Clock>\n	Hungry_Donkey_bar_English_2-107-2	60.017	273	1.0.0.18	1	-2131358191	Standard	2.0.10.353	2.0.10.353	07-07-2015	7/7/2015 5:10:55 PM	13:10:55	2.0.10.248	111	Bar63-37.bmp	66	1	?	0r_4g.bmp	0r_4g.bmp	0r_2g.bmp	0r_2g.bmp	0r_4g.bmp				TrialProc	TrialList	0	cvbn	-999999	16	445817	0	c	1077	446894	342	-179	163	4	128	21	10	6	12	111	0	0	0	0	4	4	2	2	0	4
