ExperimentName	Subject	Session	Clock.Information	DataFile.Basename	Display.RefreshRate	Eindtotaal[Session]	ExperimentVersion	Group	RandomSeed	RuntimeCapabilities	RuntimeVersion	RuntimeVersionExpected	SessionDate	SessionStartDateTimeUtc	SessionTime	StudioVersion	Block	BarImage	BarTotalWinst	DoorChoice	Eindtotaal[Block]	FBDoor1	FBDoor2	FBDoor3	FBDoor4	Image1	Image2	Image3	Image4	Procedure	Running	spel.ACC	spel.CRESP	spel.DurationError	spel.OnsetDelay	spel.OnsetTime	spel.OnsetToOnsetTime	spel.RESP	spel.RT	spel.RTTime	TotalGain	TotalLose	Totalsum	TotalsumD1	TotalsumD2	TotalsumD3	TotalsumD4	TrialList	TrialList.Cycle	TrialList.Sample	varV1	varV2	varV3	varV4	varW1	varW2	varW3	varW4	Verliesbedrag	Winstbedrag
Hungry_Donkey_bar_English_2	126	1	<?xml version="1.0"?>\n<Clock xmlns:dt="urn:schemas-microsoft-com:datatypes"><Description dt:dt="string">E-Prime Primary Realtime Clock</Description><StartTime><Timestamp dt:dt="int">0</Timestamp><DateUtc dt:dt="string">2015-08-31T21:01:05Z</DateUtc></StartTime><FrequencyChanges><FrequencyChange><Frequency dt:dt="r8">3507734</Frequency><Timestamp dt:dt="r8">1885761177584</Timestamp><Current dt:dt="r8">0</Current><DateUtc dt:dt="string">2015-08-31T21:01:05Z</DateUtc></FrequencyChange></FrequencyChanges></Clock>\n	Hungry_Donkey_bar_English_2-126-1	60.018	-20	1.0.0.18	1	271202765	Standard	2.0.10.353	2.0.10.353	08-31-2015	8/31/2015 9:01:05 PM	17:01:05	2.0.10.248	1	Bar100-0.bmp	100	1	?	0r_4g.bmp	0r_4g.bmp	0r_2g.bmp	0r_2g.bmp	0r_4g.bmp				TrialProc	TrialList	0	cvbn	-999999	16	43842	0	c	1872	45714	4	0	4	4	0	0	0	8	1	1	0	0	0	0	4	4	2	2	0	4
Hungry_Donkey_bar_English_2	126	1	<?xml version="1.0"?>\n<Clock xmlns:dt="urn:schemas-microsoft-com:datatypes"><Description dt:dt="string">E-Prime Primary Realtime Clock</Description><StartTime><Timestamp dt:dt="int">0</Timestamp><DateUtc dt:dt="string">2015-08-31T21:01:05Z</DateUtc></StartTime><FrequencyChanges><FrequencyChange><Frequency dt:dt="r8">3507734</Frequency><Timestamp dt:dt="r8">1885761177584</Timestamp><Current dt:dt="r8">0</Current><DateUtc dt:dt="string">2015-08-31T21:01:05Z</DateUtc></FrequencyChange></FrequencyChanges></Clock>\n	Hungry_Donkey_bar_English_2-126-1	60.018	-20	1.0.0.18	1	271202765	Standard	2.0.10.353	2.0.10.353	08-31-2015	8/31/2015 9:01:05 PM	17:01:05	2.0.10.248	2	Bar100-0.bmp	100	2	?	10r_4g.bmp	0r_4g.bmp	2r_2g.bmp	0r_2g.bmp		0r_4g.bmp			TrialProc	TrialList	0	cvbn	-999999	17	47758	0	v	1524	49282	8	0	8	4	4	0	0	2	1	2	-10	0	-2	0	4	4	2	2	0	4
Hungry_Donkey_bar_English_2	126	1	<?xml version="1.0"?>\n<Clock xmlns:dt="urn:schemas-microsoft-com:datatypes"><Description dt:dt="string">E-Prime Primary Realtime Clock</Description><StartTime><Timestamp dt:dt="int">0</Timestamp><DateUtc dt:dt="string">2015-08-31T21:01:05Z</DateUtc></StartTime><FrequencyChanges><FrequencyChange><Frequency dt:dt="r8">3507734</Frequency><Timestamp dt:dt="r8">1885761177584</Timestamp><Current dt:dt="r8">0</Current><DateUtc dt:dt="string">2015-08-31T21:01:05Z</DateUtc></FrequencyChange></FrequencyChanges></Clock>\n	Hungry_Donkey_bar_English_2-126-1	60.018	-20	1.0.0.18	1	271202765	Standard	2.0.10.353	2.0.10.353	08-31-2015	8/31/2015 9:01:05 PM	17:01:05	2.0.10.248	3	Bar100-0.bmp	100	3	?	0r_4g.bmp	0r_4g.bmp	0r_2g.bmp	0r_2g.bmp			0r_2g.bmp		TrialProc	TrialList	0	cvbn	-999999	16	51323	0	b	503	51826	10	0	10	4	4	2	0	6	1	3	0	0	0	0	4	4	2	2	0	2
Hungry_Donkey_bar_English_2	126	1	<?xml version="1.0"?>\n<Clock xmlns:dt="urn:schemas-microsoft-com:datatypes"><Description dt:dt="string">E-Prime Primary Realtime Clock</Description><StartTime><Timestamp dt:dt="int">0</Timestamp><DateUtc dt:dt="string">2015-08-31T21:01:05Z</DateUtc></StartTime><FrequencyChanges><FrequencyChange><Frequency dt:dt="r8">3507734</Frequency><Timestamp dt:dt="r8">1885761177584</Timestamp><Current dt:dt="r8">0</Current><DateUtc dt:dt="string">2015-08-31T21:01:05Z</DateUtc></FrequencyChange></FrequencyChanges></Clock>\n	Hungry_Donkey_bar_English_2-126-1	60.018	-20	1.0.0.18	1	271202765	Standard	2.0.10.353	2.0.10.353	08-31-2015	8/31/2015 9:01:05 PM	17:01:05	2.0.10.248	4	Bar50-50.bmp	55	4	?	8r_4g.bmp	50r_4g.bmp	1r_2g.bmp	10r_2g.bmp				10r_2g.bmp	TrialProc	TrialList	0	cvbn	-999999	16	53856	0	n	465	54321	12	-10	2	4	4	2	-8	1	1	4	-8	-50	-1	-10	4	4	2	2	-10	2
Hungry_Donkey_bar_English_2	126	1	<?xml version="1.0"?>\n<Clock xmlns:dt="urn:schemas-microsoft-com:datatypes"><Description dt:dt="string">E-Prime Primary Realtime Clock</Description><StartTime><Timestamp dt:dt="int">0</Timestamp><DateUtc dt:dt="string">2015-08-31T21:01:05Z</DateUtc></StartTime><FrequencyChanges><FrequencyChange><Frequency dt:dt="r8">3507734</Frequency><Timestamp dt:dt="r8">1885761177584</Timestamp><Current dt:dt="r8">0</Current><DateUtc dt:dt="string">2015-08-31T21:01:05Z</DateUtc></FrequencyChange></FrequencyChanges></Clock>\n	Hungry_Donkey_bar_English_2-126-1	60.018	-20	1.0.0.18	1	271202765	Standard	2.0.10.353	2.0.10.353	08-31-2015	8/31/2015 9:01:05 PM	17:01:05	2.0.10.248	5	Bar50-50.bmp	44	1	?	10r_4g.bmp	0r_4g.bmp	2r_2g.bmp	0r_2g.bmp	10r_4g.bmp				TrialProc	TrialList	0	cvbn	-999999	16	56355	0	c	750	57105	16	-20	-4	-2	4	2	-8	4	1	5	-10	0	-2	0	4	4	2	2	-10	4
Hungry_Donkey_bar_English_2	126	1	<?xml version="1.0"?>\n<Clock xmlns:dt="urn:schemas-microsoft-com:datatypes"><Description dt:dt="string">E-Prime Primary Realtime Clock</Description><StartTime><Timestamp dt:dt="int">0</Timestamp><DateUtc dt:dt="string">2015-08-31T21:01:05Z</DateUtc></StartTime><FrequencyChanges><FrequencyChange><Frequency dt:dt="r8">3507734</Frequency><Timestamp dt:dt="r8">1885761177584</Timestamp><Current dt:dt="r8">0</Current><DateUtc dt:dt="string">2015-08-31T21:01:05Z</DateUtc></FrequencyChange></FrequencyChanges></Clock>\n	Hungry_Donkey_bar_English_2-126-1	60.018	-20	1.0.0.18	1	271202765	Standard	2.0.10.353	2.0.10.353	08-31-2015	8/31/2015 9:01:05 PM	17:01:05	2.0.10.248	6	Bar50-50.bmp	50	2	?	10r_4g.bmp	0r_4g.bmp	2r_2g.bmp	0r_2g.bmp		0r_4g.bmp			TrialProc	TrialList	0	cvbn	-999999	16	59137	0	v	576	59713	20	-20	0	-2	8	2	-8	3	1	6	-10	0	-2	0	4	4	2	2	0	4
Hungry_Donkey_bar_English_2	126	1	<?xml version="1.0"?>\n<Clock xmlns:dt="urn:schemas-microsoft-com:datatypes"><Description dt:dt="string">E-Prime Primary Realtime Clock</Description><StartTime><Timestamp dt:dt="int">0</Timestamp><DateUtc dt:dt="string">2015-08-31T21:01:05Z</DateUtc></StartTime><FrequencyChanges><FrequencyChange><Frequency dt:dt="r8">3507734</Frequency><Timestamp dt:dt="r8">1885761177584</Timestamp><Current dt:dt="r8">0</Current><DateUtc dt:dt="string">2015-08-31T21:01:05Z</DateUtc></FrequencyChange></FrequencyChanges></Clock>\n	Hungry_Donkey_bar_English_2-126-1	60.018	-20	1.0.0.18	1	271202765	Standard	2.0.10.353	2.0.10.353	08-31-2015	8/31/2015 9:01:05 PM	17:01:05	2.0.10.248	7	Bar50-50.bmp	52	3	?	0r_4g.bmp	0r_4g.bmp	0r_2g.bmp	0r_2g.bmp			0r_2g.bmp		TrialProc	TrialList	0	cvbn	-999999	16	61737	0	b	696	62433	22	-20	2	-2	8	4	-8	7	1	7	0	0	0	0	4	4	2	2	0	2
Hungry_Donkey_bar_English_2	126	1	<?xml version="1.0"?>\n<Clock xmlns:dt="urn:schemas-microsoft-com:datatypes"><Description dt:dt="string">E-Prime Primary Realtime Clock</Description><StartTime><Timestamp dt:dt="int">0</Timestamp><DateUtc dt:dt="string">2015-08-31T21:01:05Z</DateUtc></StartTime><FrequencyChanges><FrequencyChange><Frequency dt:dt="r8">3507734</Frequency><Timestamp dt:dt="r8">1885761177584</Timestamp><Current dt:dt="r8">0</Current><DateUtc dt:dt="string">2015-08-31T21:01:05Z</DateUtc></FrequencyChange></FrequencyChanges></Clock>\n	Hungry_Donkey_bar_English_2-126-1	60.018	-20	1.0.0.18	1	271202765	Standard	2.0.10.353	2.0.10.353	08-31-2015	8/31/2015 9:01:05 PM	17:01:05	2.0.10.248	8	Bar50-50.bmp	55	4	?	0r_4g.bmp	0r_4g.bmp	0r_2g.bmp	0r_2g.bmp				0r_2g.bmp	TrialProc	TrialList	0	cvbn	-999999	16	64469	0	n	444	64913	24	-20	4	-2	8	4	-6	9	1	8	0	0	0	0	4	4	2	2	0	2
Hungry_Donkey_bar_English_2	126	1	<?xml version="1.0"?>\n<Clock xmlns:dt="urn:schemas-microsoft-com:datatypes"><Description dt:dt="string">E-Prime Primary Realtime Clock</Description><StartTime><Timestamp dt:dt="int">0</Timestamp><DateUtc dt:dt="string">2015-08-31T21:01:05Z</DateUtc></StartTime><FrequencyChanges><FrequencyChange><Frequency dt:dt="r8">3507734</Frequency><Timestamp dt:dt="r8">1885761177584</Timestamp><Current dt:dt="r8">0</Current><DateUtc dt:dt="string">2015-08-31T21:01:05Z</DateUtc></FrequencyChange></FrequencyChanges></Clock>\n	Hungry_Donkey_bar_English_2-126-1	60.018	-20	1.0.0.18	1	271202765	Standard	2.0.10.353	2.0.10.353	08-31-2015	8/31/2015 9:01:05 PM	17:01:05	2.0.10.248	9	Bar63-37.bmp	58	2	?	12r_4g.bmp	0r_4g.bmp	3r_2g.bmp	0r_2g.bmp		0r_4g.bmp			TrialProc	TrialList	0	cvbn	-999999	16	66952	0	v	409	67361	28	-20	8	-2	12	4	-6	5	1	9	-12	0	-3	0	4	4	2	2	0	4
Hungry_Donkey_bar_English_2	126	1	<?xml version="1.0"?>\n<Clock xmlns:dt="urn:schemas-microsoft-com:datatypes"><Description dt:dt="string">E-Prime Primary Realtime Clock</Description><StartTime><Timestamp dt:dt="int">0</Timestamp><DateUtc dt:dt="string">2015-08-31T21:01:05Z</DateUtc></StartTime><FrequencyChanges><FrequencyChange><Frequency dt:dt="r8">3507734</Frequency><Timestamp dt:dt="r8">1885761177584</Timestamp><Current dt:dt="r8">0</Current><DateUtc dt:dt="string">2015-08-31T21:01:05Z</DateUtc></FrequencyChange></FrequencyChanges></Clock>\n	Hungry_Donkey_bar_English_2-126-1	60.018	-20	1.0.0.18	1	271202765	Standard	2.0.10.353	2.0.10.353	08-31-2015	8/31/2015 9:01:05 PM	17:01:05	2.0.10.248	10	Bar63-37.bmp	60	4	?	0r_4g.bmp	0r_4g.bmp	0r_2g.bmp	0r_2g.bmp				0r_2g.bmp	TrialProc	TrialList	0	cvbn	-999999	16	69384	0	n	440	69824	30	-20	10	-2	12	4	-4	10	1	10	0	0	0	0	4	4	2	2	0	2
Hungry_Donkey_bar_English_2	126	1	<?xml version="1.0"?>\n<Clock xmlns:dt="urn:schemas-microsoft-com:datatypes"><Description dt:dt="string">E-Prime Primary Realtime Clock</Description><StartTime><Timestamp dt:dt="int">0</Timestamp><DateUtc dt:dt="string">2015-08-31T21:01:05Z</DateUtc></StartTime><FrequencyChanges><FrequencyChange><Frequency dt:dt="r8">3507734</Frequency><Timestamp dt:dt="r8">1885761177584</Timestamp><Current dt:dt="r8">0</Current><DateUtc dt:dt="string">2015-08-31T21:01:05Z</DateUtc></FrequencyChange></FrequencyChanges></Clock>\n	Hungry_Donkey_bar_English_2-126-1	60.018	-20	1.0.0.18	1	271202765	Standard	2.0.10.353	2.0.10.353	08-31-2015	8/31/2015 9:01:05 PM	17:01:05	2.0.10.248	11	Bar63-37.bmp	62	3	?	0r_4g.bmp	0r_4g.bmp	0r_2g.bmp	0r_2g.bmp			0r_2g.bmp		TrialProc	TrialList	0	cvbn	-999999	16	71850	0	b	358	72208	32	-20	12	-2	12	6	-4	10	2	11	0	0	0	0	4	4	2	2	0	2
Hungry_Donkey_bar_English_2	126	1	<?xml version="1.0"?>\n<Clock xmlns:dt="urn:schemas-microsoft-com:datatypes"><Description dt:dt="string">E-Prime Primary Realtime Clock</Description><StartTime><Timestamp dt:dt="int">0</Timestamp><DateUtc dt:dt="string">2015-08-31T21:01:05Z</DateUtc></StartTime><FrequencyChanges><FrequencyChange><Frequency dt:dt="r8">3507734</Frequency><Timestamp dt:dt="r8">1885761177584</Timestamp><Current dt:dt="r8">0</Current><DateUtc dt:dt="string">2015-08-31T21:01:05Z</DateUtc></FrequencyChange></FrequencyChanges></Clock>\n	Hungry_Donkey_bar_English_2-126-1	60.018	-20	1.0.0.18	1	271202765	Standard	2.0.10.353	2.0.10.353	08-31-2015	8/31/2015 9:01:05 PM	17:01:05	2.0.10.248	12	Bar63-37.bmp	64	1	?	0r_4g.bmp	0r_4g.bmp	0r_2g.bmp	0r_2g.bmp	0r_4g.bmp				TrialProc	TrialList	0	cvbn	-999999	16	74233	0	c	359	74592	36	-20	16	2	12	6	-4	8	2	12	0	0	0	0	4	4	2	2	0	4
Hungry_Donkey_bar_English_2	126	1	<?xml version="1.0"?>\n<Clock xmlns:dt="urn:schemas-microsoft-com:datatypes"><Description dt:dt="string">E-Prime Primary Realtime Clock</Description><StartTime><Timestamp dt:dt="int">0</Timestamp><DateUtc dt:dt="string">2015-08-31T21:01:05Z</DateUtc></StartTime><FrequencyChanges><FrequencyChange><Frequency dt:dt="r8">3507734</Frequency><Timestamp dt:dt="r8">1885761177584</Timestamp><Current dt:dt="r8">0</Current><DateUtc dt:dt="string">2015-08-31T21:01:05Z</DateUtc></FrequencyChange></FrequencyChanges></Clock>\n	Hungry_Donkey_bar_English_2-126-1	60.018	-20	1.0.0.18	1	271202765	Standard	2.0.10.353	2.0.10.353	08-31-2015	8/31/2015 9:01:05 PM	17:01:05	2.0.10.248	13	Bar63-37.bmp	64	3	?	8r_4g.bmp	50r_4g.bmp	1r_2g.bmp	10r_2g.bmp			1r_2g.bmp		TrialProc	TrialList	0	cvbn	-999999	16	76632	0	b	344	76976	38	-21	17	2	12	7	-4	1	2	13	-8	-50	-1	-10	4	4	2	2	-1	2
Hungry_Donkey_bar_English_2	126	1	<?xml version="1.0"?>\n<Clock xmlns:dt="urn:schemas-microsoft-com:datatypes"><Description dt:dt="string">E-Prime Primary Realtime Clock</Description><StartTime><Timestamp dt:dt="int">0</Timestamp><DateUtc dt:dt="string">2015-08-31T21:01:05Z</DateUtc></StartTime><FrequencyChanges><FrequencyChange><Frequency dt:dt="r8">3507734</Frequency><Timestamp dt:dt="r8">1885761177584</Timestamp><Current dt:dt="r8">0</Current><DateUtc dt:dt="string">2015-08-31T21:01:05Z</DateUtc></FrequencyChange></FrequencyChanges></Clock>\n	Hungry_Donkey_bar_English_2-126-1	60.018	-20	1.0.0.18	1	271202765	Standard	2.0.10.353	2.0.10.353	08-31-2015	8/31/2015 9:01:05 PM	17:01:05	2.0.10.248	14	Bar63-37.bmp	67	2	?	0r_4g.bmp	0r_4g.bmp	0r_2g.bmp	0r_2g.bmp		0r_4g.bmp			TrialProc	TrialList	0	cvbn	-999999	16	79015	0	v	537	79552	42	-21	21	2	16	7	-4	9	2	14	0	0	0	0	4	4	2	2	0	4
Hungry_Donkey_bar_English_2	126	1	<?xml version="1.0"?>\n<Clock xmlns:dt="urn:schemas-microsoft-com:datatypes"><Description dt:dt="string">E-Prime Primary Realtime Clock</Description><StartTime><Timestamp dt:dt="int">0</Timestamp><DateUtc dt:dt="string">2015-08-31T21:01:05Z</DateUtc></StartTime><FrequencyChanges><FrequencyChange><Frequency dt:dt="r8">3507734</Frequency><Timestamp dt:dt="r8">1885761177584</Timestamp><Current dt:dt="r8">0</Current><DateUtc dt:dt="string">2015-08-31T21:01:05Z</DateUtc></FrequencyChange></FrequencyChanges></Clock>\n	Hungry_Donkey_bar_English_2-126-1	60.018	-20	1.0.0.18	1	271202765	Standard	2.0.10.353	2.0.10.353	08-31-2015	8/31/2015 9:01:05 PM	17:01:05	2.0.10.248	15	Bar63-37.bmp	68	4	?	10r_4g.bmp	0r_4g.bmp	2r_2g.bmp	0r_2g.bmp				0r_2g.bmp	TrialProc	TrialList	0	cvbn	-999999	16	81581	0	n	515	82096	44	-21	23	2	16	7	-2	4	2	15	-10	0	-2	0	4	4	2	2	0	2
Hungry_Donkey_bar_English_2	126	1	<?xml version="1.0"?>\n<Clock xmlns:dt="urn:schemas-microsoft-com:datatypes"><Description dt:dt="string">E-Prime Primary Realtime Clock</Description><StartTime><Timestamp dt:dt="int">0</Timestamp><DateUtc dt:dt="string">2015-08-31T21:01:05Z</DateUtc></StartTime><FrequencyChanges><FrequencyChange><Frequency dt:dt="r8">3507734</Frequency><Timestamp dt:dt="r8">1885761177584</Timestamp><Current dt:dt="r8">0</Current><DateUtc dt:dt="string">2015-08-31T21:01:05Z</DateUtc></FrequencyChange></FrequencyChanges></Clock>\n	Hungry_Donkey_bar_English_2-126-1	60.018	-20	1.0.0.18	1	271202765	Standard	2.0.10.353	2.0.10.353	08-31-2015	8/31/2015 9:01:05 PM	17:01:05	2.0.10.248	16	Bar75-25.bmp	70	2	?	0r_4g.bmp	0r_4g.bmp	0r_2g.bmp	0r_2g.bmp		0r_4g.bmp			TrialProc	TrialList	0	cvbn	-999999	16	84130	0	v	317	84447	48	-21	27	2	20	7	-2	6	2	16	0	0	0	0	4	4	2	2	0	4
Hungry_Donkey_bar_English_2	126	1	<?xml version="1.0"?>\n<Clock xmlns:dt="urn:schemas-microsoft-com:datatypes"><Description dt:dt="string">E-Prime Primary Realtime Clock</Description><StartTime><Timestamp dt:dt="int">0</Timestamp><DateUtc dt:dt="string">2015-08-31T21:01:05Z</DateUtc></StartTime><FrequencyChanges><FrequencyChange><Frequency dt:dt="r8">3507734</Frequency><Timestamp dt:dt="r8">1885761177584</Timestamp><Current dt:dt="r8">0</Current><DateUtc dt:dt="string">2015-08-31T21:01:05Z</DateUtc></FrequencyChange></FrequencyChanges></Clock>\n	Hungry_Donkey_bar_English_2-126-1	60.018	-20	1.0.0.18	1	271202765	Standard	2.0.10.353	2.0.10.353	08-31-2015	8/31/2015 9:01:05 PM	17:01:05	2.0.10.248	17	Bar75-25.bmp	70	3	?	0r_4g.bmp	0r_4g.bmp	0r_2g.bmp	0r_2g.bmp			0r_2g.bmp		TrialProc	TrialList	0	cvbn	-999999	16	86479	0	b	480	86959	50	-21	29	2	20	9	-2	7	2	17	0	0	0	0	4	4	2	2	0	2
Hungry_Donkey_bar_English_2	126	1	<?xml version="1.0"?>\n<Clock xmlns:dt="urn:schemas-microsoft-com:datatypes"><Description dt:dt="string">E-Prime Primary Realtime Clock</Description><StartTime><Timestamp dt:dt="int">0</Timestamp><DateUtc dt:dt="string">2015-08-31T21:01:05Z</DateUtc></StartTime><FrequencyChanges><FrequencyChange><Frequency dt:dt="r8">3507734</Frequency><Timestamp dt:dt="r8">1885761177584</Timestamp><Current dt:dt="r8">0</Current><DateUtc dt:dt="string">2015-08-31T21:01:05Z</DateUtc></FrequencyChange></FrequencyChanges></Clock>\n	Hungry_Donkey_bar_English_2-126-1	60.018	-20	1.0.0.18	1	271202765	Standard	2.0.10.353	2.0.10.353	08-31-2015	8/31/2015 9:01:05 PM	17:01:05	2.0.10.248	18	Bar63-37.bmp	64	1	?	10r_4g.bmp	0r_4g.bmp	2r_2g.bmp	0r_2g.bmp	10r_4g.bmp				TrialProc	TrialList	0	cvbn	-999999	16	88995	0	c	316	89311	54	-31	23	-4	20	9	-2	3	2	18	-10	0	-2	0	4	4	2	2	-10	4
Hungry_Donkey_bar_English_2	126	1	<?xml version="1.0"?>\n<Clock xmlns:dt="urn:schemas-microsoft-com:datatypes"><Description dt:dt="string">E-Prime Primary Realtime Clock</Description><StartTime><Timestamp dt:dt="int">0</Timestamp><DateUtc dt:dt="string">2015-08-31T21:01:05Z</DateUtc></StartTime><FrequencyChanges><FrequencyChange><Frequency dt:dt="r8">3507734</Frequency><Timestamp dt:dt="r8">1885761177584</Timestamp><Current dt:dt="r8">0</Current><DateUtc dt:dt="string">2015-08-31T21:01:05Z</DateUtc></FrequencyChange></FrequencyChanges></Clock>\n	Hungry_Donkey_bar_English_2-126-1	60.018	-20	1.0.0.18	1	271202765	Standard	2.0.10.353	2.0.10.353	08-31-2015	8/31/2015 9:01:05 PM	17:01:05	2.0.10.248	19	Bar63-37.bmp	64	4	?	10r_4g.bmp	0r_4g.bmp	2r_2g.bmp	0r_2g.bmp				0r_2g.bmp	TrialProc	TrialList	0	cvbn	-999999	16	91344	0	n	831	92175	56	-31	25	-4	20	9	0	2	2	19	-10	0	-2	0	4	4	2	2	0	2
Hungry_Donkey_bar_English_2	126	1	<?xml version="1.0"?>\n<Clock xmlns:dt="urn:schemas-microsoft-com:datatypes"><Description dt:dt="string">E-Prime Primary Realtime Clock</Description><StartTime><Timestamp dt:dt="int">0</Timestamp><DateUtc dt:dt="string">2015-08-31T21:01:05Z</DateUtc></StartTime><FrequencyChanges><FrequencyChange><Frequency dt:dt="r8">3507734</Frequency><Timestamp dt:dt="r8">1885761177584</Timestamp><Current dt:dt="r8">0</Current><DateUtc dt:dt="string">2015-08-31T21:01:05Z</DateUtc></FrequencyChange></FrequencyChanges></Clock>\n	Hungry_Donkey_bar_English_2-126-1	60.018	-20	1.0.0.18	1	271202765	Standard	2.0.10.353	2.0.10.353	08-31-2015	8/31/2015 9:01:05 PM	17:01:05	2.0.10.248	20	Bar63-37.bmp	66	2	?	12r_4g.bmp	0r_4g.bmp	3r_2g.bmp	0r_2g.bmp		0r_4g.bmp			TrialProc	TrialList	0	cvbn	-999999	16	94210	0	v	13	94223	60	-31	29	-4	24	9	0	5	2	20	-12	0	-3	0	4	4	2	2	0	4
Hungry_Donkey_bar_English_2	126	1	<?xml version="1.0"?>\n<Clock xmlns:dt="urn:schemas-microsoft-com:datatypes"><Description dt:dt="string">E-Prime Primary Realtime Clock</Description><StartTime><Timestamp dt:dt="int">0</Timestamp><DateUtc dt:dt="string">2015-08-31T21:01:05Z</DateUtc></StartTime><FrequencyChanges><FrequencyChange><Frequency dt:dt="r8">3507734</Frequency><Timestamp dt:dt="r8">1885761177584</Timestamp><Current dt:dt="r8">0</Current><DateUtc dt:dt="string">2015-08-31T21:01:05Z</DateUtc></FrequencyChange></FrequencyChanges></Clock>\n	Hungry_Donkey_bar_English_2-126-1	60.018	-20	1.0.0.18	1	271202765	Standard	2.0.10.353	2.0.10.353	08-31-2015	8/31/2015 9:01:05 PM	17:01:05	2.0.10.248	21	Bar63-37.bmp	67	3	?	0r_4g.bmp	0r_4g.bmp	0r_2g.bmp	0r_2g.bmp			0r_2g.bmp		TrialProc	TrialList	0	cvbn	-999999	17	96260	0	b	27	96287	62	-31	31	-4	24	11	0	7	3	21	0	0	0	0	4	4	2	2	0	2
Hungry_Donkey_bar_English_2	126	1	<?xml version="1.0"?>\n<Clock xmlns:dt="urn:schemas-microsoft-com:datatypes"><Description dt:dt="string">E-Prime Primary Realtime Clock</Description><StartTime><Timestamp dt:dt="int">0</Timestamp><DateUtc dt:dt="string">2015-08-31T21:01:05Z</DateUtc></StartTime><FrequencyChanges><FrequencyChange><Frequency dt:dt="r8">3507734</Frequency><Timestamp dt:dt="r8">1885761177584</Timestamp><Current dt:dt="r8">0</Current><DateUtc dt:dt="string">2015-08-31T21:01:05Z</DateUtc></FrequencyChange></FrequencyChanges></Clock>\n	Hungry_Donkey_bar_English_2-126-1	60.018	-20	1.0.0.18	1	271202765	Standard	2.0.10.353	2.0.10.353	08-31-2015	8/31/2015 9:01:05 PM	17:01:05	2.0.10.248	22	Bar63-37.bmp	62	1	?	10r_4g.bmp	0r_4g.bmp	2r_2g.bmp	0r_2g.bmp	10r_4g.bmp				TrialProc	TrialList	0	cvbn	-999999	16	98326	0	c	537	98863	66	-41	25	-10	24	11	0	4	3	22	-10	0	-2	0	4	4	2	2	-10	4
Hungry_Donkey_bar_English_2	126	1	<?xml version="1.0"?>\n<Clock xmlns:dt="urn:schemas-microsoft-com:datatypes"><Description dt:dt="string">E-Prime Primary Realtime Clock</Description><StartTime><Timestamp dt:dt="int">0</Timestamp><DateUtc dt:dt="string">2015-08-31T21:01:05Z</DateUtc></StartTime><FrequencyChanges><FrequencyChange><Frequency dt:dt="r8">3507734</Frequency><Timestamp dt:dt="r8">1885761177584</Timestamp><Current dt:dt="r8">0</Current><DateUtc dt:dt="string">2015-08-31T21:01:05Z</DateUtc></FrequencyChange></FrequencyChanges></Clock>\n	Hungry_Donkey_bar_English_2-126-1	60.018	-20	1.0.0.18	1	271202765	Standard	2.0.10.353	2.0.10.353	08-31-2015	8/31/2015 9:01:05 PM	17:01:05	2.0.10.248	23	Bar63-37.bmp	62	4	?	0r_4g.bmp	0r_4g.bmp	0r_2g.bmp	0r_2g.bmp				0r_2g.bmp	TrialProc	TrialList	0	cvbn	-999999	16	100891	0	n	483	101374	68	-41	27	-10	24	11	2	6	3	23	0	0	0	0	4	4	2	2	0	2
Hungry_Donkey_bar_English_2	126	1	<?xml version="1.0"?>\n<Clock xmlns:dt="urn:schemas-microsoft-com:datatypes"><Description dt:dt="string">E-Prime Primary Realtime Clock</Description><StartTime><Timestamp dt:dt="int">0</Timestamp><DateUtc dt:dt="string">2015-08-31T21:01:05Z</DateUtc></StartTime><FrequencyChanges><FrequencyChange><Frequency dt:dt="r8">3507734</Frequency><Timestamp dt:dt="r8">1885761177584</Timestamp><Current dt:dt="r8">0</Current><DateUtc dt:dt="string">2015-08-31T21:01:05Z</DateUtc></FrequencyChange></FrequencyChanges></Clock>\n	Hungry_Donkey_bar_English_2-126-1	60.018	-20	1.0.0.18	1	271202765	Standard	2.0.10.353	2.0.10.353	08-31-2015	8/31/2015 9:01:05 PM	17:01:05	2.0.10.248	24	Bar63-37.bmp	63	3	?	0r_4g.bmp	0r_4g.bmp	0r_2g.bmp	0r_2g.bmp			0r_2g.bmp		TrialProc	TrialList	0	cvbn	-999999	16	103407	0	b	815	104222	70	-41	29	-10	24	13	2	8	3	24	0	0	0	0	4	4	2	2	0	2
Hungry_Donkey_bar_English_2	126	1	<?xml version="1.0"?>\n<Clock xmlns:dt="urn:schemas-microsoft-com:datatypes"><Description dt:dt="string">E-Prime Primary Realtime Clock</Description><StartTime><Timestamp dt:dt="int">0</Timestamp><DateUtc dt:dt="string">2015-08-31T21:01:05Z</DateUtc></StartTime><FrequencyChanges><FrequencyChange><Frequency dt:dt="r8">3507734</Frequency><Timestamp dt:dt="r8">1885761177584</Timestamp><Current dt:dt="r8">0</Current><DateUtc dt:dt="string">2015-08-31T21:01:05Z</DateUtc></FrequencyChange></FrequencyChanges></Clock>\n	Hungry_Donkey_bar_English_2-126-1	60.018	-20	1.0.0.18	1	271202765	Standard	2.0.10.353	2.0.10.353	08-31-2015	8/31/2015 9:01:05 PM	17:01:05	2.0.10.248	25	Bar63-37.bmp	64	2	?	10r_4g.bmp	0r_4g.bmp	2r_2g.bmp	0r_2g.bmp		0r_4g.bmp			TrialProc	TrialList	0	cvbn	-999999	17	106257	0	v	461	106718	74	-41	33	-10	28	13	2	2	3	25	-10	0	-2	0	4	4	2	2	0	4
Hungry_Donkey_bar_English_2	126	1	<?xml version="1.0"?>\n<Clock xmlns:dt="urn:schemas-microsoft-com:datatypes"><Description dt:dt="string">E-Prime Primary Realtime Clock</Description><StartTime><Timestamp dt:dt="int">0</Timestamp><DateUtc dt:dt="string">2015-08-31T21:01:05Z</DateUtc></StartTime><FrequencyChanges><FrequencyChange><Frequency dt:dt="r8">3507734</Frequency><Timestamp dt:dt="r8">1885761177584</Timestamp><Current dt:dt="r8">0</Current><DateUtc dt:dt="string">2015-08-31T21:01:05Z</DateUtc></FrequencyChange></FrequencyChanges></Clock>\n	Hungry_Donkey_bar_English_2-126-1	60.018	-20	1.0.0.18	1	271202765	Standard	2.0.10.353	2.0.10.353	08-31-2015	8/31/2015 9:01:05 PM	17:01:05	2.0.10.248	26	Bar63-37.bmp	61	1	?	8r_4g.bmp	50r_4g.bmp	1r_2g.bmp	10r_2g.bmp	8r_4g.bmp				TrialProc	TrialList	0	cvbn	-999999	16	108756	0	c	362	109118	78	-49	29	-14	28	13	2	1	3	26	-8	-50	-1	-10	4	4	2	2	-8	4
Hungry_Donkey_bar_English_2	126	1	<?xml version="1.0"?>\n<Clock xmlns:dt="urn:schemas-microsoft-com:datatypes"><Description dt:dt="string">E-Prime Primary Realtime Clock</Description><StartTime><Timestamp dt:dt="int">0</Timestamp><DateUtc dt:dt="string">2015-08-31T21:01:05Z</DateUtc></StartTime><FrequencyChanges><FrequencyChange><Frequency dt:dt="r8">3507734</Frequency><Timestamp dt:dt="r8">1885761177584</Timestamp><Current dt:dt="r8">0</Current><DateUtc dt:dt="string">2015-08-31T21:01:05Z</DateUtc></FrequencyChange></FrequencyChanges></Clock>\n	Hungry_Donkey_bar_English_2-126-1	60.018	-20	1.0.0.18	1	271202765	Standard	2.0.10.353	2.0.10.353	08-31-2015	8/31/2015 9:01:05 PM	17:01:05	2.0.10.248	27	Bar63-37.bmp	62	4	?	0r_4g.bmp	0r_4g.bmp	0r_2g.bmp	0r_2g.bmp				0r_2g.bmp	TrialProc	TrialList	0	cvbn	-999999	16	111155	0	n	379	111534	80	-49	31	-14	28	13	4	9	3	27	0	0	0	0	4	4	2	2	0	2
Hungry_Donkey_bar_English_2	126	1	<?xml version="1.0"?>\n<Clock xmlns:dt="urn:schemas-microsoft-com:datatypes"><Description dt:dt="string">E-Prime Primary Realtime Clock</Description><StartTime><Timestamp dt:dt="int">0</Timestamp><DateUtc dt:dt="string">2015-08-31T21:01:05Z</DateUtc></StartTime><FrequencyChanges><FrequencyChange><Frequency dt:dt="r8">3507734</Frequency><Timestamp dt:dt="r8">1885761177584</Timestamp><Current dt:dt="r8">0</Current><DateUtc dt:dt="string">2015-08-31T21:01:05Z</DateUtc></FrequencyChange></FrequencyChanges></Clock>\n	Hungry_Donkey_bar_English_2-126-1	60.018	-20	1.0.0.18	1	271202765	Standard	2.0.10.353	2.0.10.353	08-31-2015	8/31/2015 9:01:05 PM	17:01:05	2.0.10.248	28	Bar63-37.bmp	61	3	?	12r_4g.bmp	0r_4g.bmp	3r_2g.bmp	0r_2g.bmp			3r_2g.bmp		TrialProc	TrialList	0	cvbn	-999999	16	113571	0	b	203	113774	82	-52	30	-14	28	12	4	5	3	28	-12	0	-3	0	4	4	2	2	-3	2
Hungry_Donkey_bar_English_2	126	1	<?xml version="1.0"?>\n<Clock xmlns:dt="urn:schemas-microsoft-com:datatypes"><Description dt:dt="string">E-Prime Primary Realtime Clock</Description><StartTime><Timestamp dt:dt="int">0</Timestamp><DateUtc dt:dt="string">2015-08-31T21:01:05Z</DateUtc></StartTime><FrequencyChanges><FrequencyChange><Frequency dt:dt="r8">3507734</Frequency><Timestamp dt:dt="r8">1885761177584</Timestamp><Current dt:dt="r8">0</Current><DateUtc dt:dt="string">2015-08-31T21:01:05Z</DateUtc></FrequencyChange></FrequencyChanges></Clock>\n	Hungry_Donkey_bar_English_2-126-1	60.018	-20	1.0.0.18	1	271202765	Standard	2.0.10.353	2.0.10.353	08-31-2015	8/31/2015 9:01:05 PM	17:01:05	2.0.10.248	29	Bar63-37.bmp	62	3	?	0r_4g.bmp	0r_4g.bmp	0r_2g.bmp	0r_2g.bmp			0r_2g.bmp		TrialProc	TrialList	0	cvbn	-999999	16	115804	0	b	353	116157	84	-52	32	-14	28	14	4	10	3	29	0	0	0	0	4	4	2	2	0	2
Hungry_Donkey_bar_English_2	126	1	<?xml version="1.0"?>\n<Clock xmlns:dt="urn:schemas-microsoft-com:datatypes"><Description dt:dt="string">E-Prime Primary Realtime Clock</Description><StartTime><Timestamp dt:dt="int">0</Timestamp><DateUtc dt:dt="string">2015-08-31T21:01:05Z</DateUtc></StartTime><FrequencyChanges><FrequencyChange><Frequency dt:dt="r8">3507734</Frequency><Timestamp dt:dt="r8">1885761177584</Timestamp><Current dt:dt="r8">0</Current><DateUtc dt:dt="string">2015-08-31T21:01:05Z</DateUtc></FrequencyChange></FrequencyChanges></Clock>\n	Hungry_Donkey_bar_English_2-126-1	60.018	-20	1.0.0.18	1	271202765	Standard	2.0.10.353	2.0.10.353	08-31-2015	8/31/2015 9:01:05 PM	17:01:05	2.0.10.248	30	Bar63-37.bmp	59	1	?	10r_4g.bmp	0r_4g.bmp	2r_2g.bmp	0r_2g.bmp	10r_4g.bmp				TrialProc	TrialList	0	cvbn	-999999	16	118186	0	c	1555	119741	88	-62	26	-20	28	14	4	3	3	30	-10	0	-2	0	4	4	2	2	-10	4
Hungry_Donkey_bar_English_2	126	1	<?xml version="1.0"?>\n<Clock xmlns:dt="urn:schemas-microsoft-com:datatypes"><Description dt:dt="string">E-Prime Primary Realtime Clock</Description><StartTime><Timestamp dt:dt="int">0</Timestamp><DateUtc dt:dt="string">2015-08-31T21:01:05Z</DateUtc></StartTime><FrequencyChanges><FrequencyChange><Frequency dt:dt="r8">3507734</Frequency><Timestamp dt:dt="r8">1885761177584</Timestamp><Current dt:dt="r8">0</Current><DateUtc dt:dt="string">2015-08-31T21:01:05Z</DateUtc></FrequencyChange></FrequencyChanges></Clock>\n	Hungry_Donkey_bar_English_2-126-1	60.018	-20	1.0.0.18	1	271202765	Standard	2.0.10.353	2.0.10.353	08-31-2015	8/31/2015 9:01:05 PM	17:01:05	2.0.10.248	31	Bar63-37.bmp	59	4	?	0r_4g.bmp	0r_4g.bmp	0r_2g.bmp	0r_2g.bmp				0r_2g.bmp	TrialProc	TrialList	0	cvbn	-999999	16	121768	0	n	581	122349	90	-62	28	-20	28	14	6	8	4	31	0	0	0	0	4	4	2	2	0	2
Hungry_Donkey_bar_English_2	126	1	<?xml version="1.0"?>\n<Clock xmlns:dt="urn:schemas-microsoft-com:datatypes"><Description dt:dt="string">E-Prime Primary Realtime Clock</Description><StartTime><Timestamp dt:dt="int">0</Timestamp><DateUtc dt:dt="string">2015-08-31T21:01:05Z</DateUtc></StartTime><FrequencyChanges><FrequencyChange><Frequency dt:dt="r8">3507734</Frequency><Timestamp dt:dt="r8">1885761177584</Timestamp><Current dt:dt="r8">0</Current><DateUtc dt:dt="string">2015-08-31T21:01:05Z</DateUtc></FrequencyChange></FrequencyChanges></Clock>\n	Hungry_Donkey_bar_English_2-126-1	60.018	-20	1.0.0.18	1	271202765	Standard	2.0.10.353	2.0.10.353	08-31-2015	8/31/2015 9:01:05 PM	17:01:05	2.0.10.248	32	Bar63-37.bmp	59	3	?	10r_4g.bmp	0r_4g.bmp	2r_2g.bmp	0r_2g.bmp			2r_2g.bmp		TrialProc	TrialList	0	cvbn	-999999	16	124384	0	b	333	124717	92	-64	28	-20	28	14	6	3	4	32	-10	0	-2	0	4	4	2	2	-2	2
Hungry_Donkey_bar_English_2	126	1	<?xml version="1.0"?>\n<Clock xmlns:dt="urn:schemas-microsoft-com:datatypes"><Description dt:dt="string">E-Prime Primary Realtime Clock</Description><StartTime><Timestamp dt:dt="int">0</Timestamp><DateUtc dt:dt="string">2015-08-31T21:01:05Z</DateUtc></StartTime><FrequencyChanges><FrequencyChange><Frequency dt:dt="r8">3507734</Frequency><Timestamp dt:dt="r8">1885761177584</Timestamp><Current dt:dt="r8">0</Current><DateUtc dt:dt="string">2015-08-31T21:01:05Z</DateUtc></FrequencyChange></FrequencyChanges></Clock>\n	Hungry_Donkey_bar_English_2-126-1	60.018	-20	1.0.0.18	1	271202765	Standard	2.0.10.353	2.0.10.353	08-31-2015	8/31/2015 9:01:05 PM	17:01:05	2.0.10.248	33	Bar63-37.bmp	60	2	?	12r_4g.bmp	0r_4g.bmp	3r_2g.bmp	0r_2g.bmp		0r_4g.bmp			TrialProc	TrialList	0	cvbn	-999999	16	126750	0	v	623	127373	96	-64	32	-20	32	14	6	5	4	33	-12	0	-3	0	4	4	2	2	0	4
Hungry_Donkey_bar_English_2	126	1	<?xml version="1.0"?>\n<Clock xmlns:dt="urn:schemas-microsoft-com:datatypes"><Description dt:dt="string">E-Prime Primary Realtime Clock</Description><StartTime><Timestamp dt:dt="int">0</Timestamp><DateUtc dt:dt="string">2015-08-31T21:01:05Z</DateUtc></StartTime><FrequencyChanges><FrequencyChange><Frequency dt:dt="r8">3507734</Frequency><Timestamp dt:dt="r8">1885761177584</Timestamp><Current dt:dt="r8">0</Current><DateUtc dt:dt="string">2015-08-31T21:01:05Z</DateUtc></FrequencyChange></FrequencyChanges></Clock>\n	Hungry_Donkey_bar_English_2-126-1	60.018	-20	1.0.0.18	1	271202765	Standard	2.0.10.353	2.0.10.353	08-31-2015	8/31/2015 9:01:05 PM	17:01:05	2.0.10.248	34	Bar63-37.bmp	61	1	?	0r_4g.bmp	0r_4g.bmp	0r_2g.bmp	0r_2g.bmp	0r_4g.bmp				TrialProc	TrialList	0	cvbn	-999999	16	129399	0	c	470	129869	100	-64	36	-16	32	14	6	6	4	34	0	0	0	0	4	4	2	2	0	4
Hungry_Donkey_bar_English_2	126	1	<?xml version="1.0"?>\n<Clock xmlns:dt="urn:schemas-microsoft-com:datatypes"><Description dt:dt="string">E-Prime Primary Realtime Clock</Description><StartTime><Timestamp dt:dt="int">0</Timestamp><DateUtc dt:dt="string">2015-08-31T21:01:05Z</DateUtc></StartTime><FrequencyChanges><FrequencyChange><Frequency dt:dt="r8">3507734</Frequency><Timestamp dt:dt="r8">1885761177584</Timestamp><Current dt:dt="r8">0</Current><DateUtc dt:dt="string">2015-08-31T21:01:05Z</DateUtc></FrequencyChange></FrequencyChanges></Clock>\n	Hungry_Donkey_bar_English_2-126-1	60.018	-20	1.0.0.18	1	271202765	Standard	2.0.10.353	2.0.10.353	08-31-2015	8/31/2015 9:01:05 PM	17:01:05	2.0.10.248	35	Bar63-37.bmp	61	4	?	10r_4g.bmp	0r_4g.bmp	2r_2g.bmp	0r_2g.bmp				0r_2g.bmp	TrialProc	TrialList	0	cvbn	-999999	16	131899	0	n	305	132204	102	-64	38	-16	32	14	8	2	4	35	-10	0	-2	0	4	4	2	2	0	2
Hungry_Donkey_bar_English_2	126	1	<?xml version="1.0"?>\n<Clock xmlns:dt="urn:schemas-microsoft-com:datatypes"><Description dt:dt="string">E-Prime Primary Realtime Clock</Description><StartTime><Timestamp dt:dt="int">0</Timestamp><DateUtc dt:dt="string">2015-08-31T21:01:05Z</DateUtc></StartTime><FrequencyChanges><FrequencyChange><Frequency dt:dt="r8">3507734</Frequency><Timestamp dt:dt="r8">1885761177584</Timestamp><Current dt:dt="r8">0</Current><DateUtc dt:dt="string">2015-08-31T21:01:05Z</DateUtc></FrequencyChange></FrequencyChanges></Clock>\n	Hungry_Donkey_bar_English_2-126-1	60.018	-20	1.0.0.18	1	271202765	Standard	2.0.10.353	2.0.10.353	08-31-2015	8/31/2015 9:01:05 PM	17:01:05	2.0.10.248	36	Bar50-50.bmp	48	2	?	8r_4g.bmp	50r_4g.bmp	1r_2g.bmp	10r_2g.bmp		50r_4g.bmp			TrialProc	TrialList	0	cvbn	-999999	16	134231	0	v	421	134652	106	-114	-8	-16	-14	14	8	1	4	36	-8	-50	-1	-10	4	4	2	2	-50	4
Hungry_Donkey_bar_English_2	126	1	<?xml version="1.0"?>\n<Clock xmlns:dt="urn:schemas-microsoft-com:datatypes"><Description dt:dt="string">E-Prime Primary Realtime Clock</Description><StartTime><Timestamp dt:dt="int">0</Timestamp><DateUtc dt:dt="string">2015-08-31T21:01:05Z</DateUtc></StartTime><FrequencyChanges><FrequencyChange><Frequency dt:dt="r8">3507734</Frequency><Timestamp dt:dt="r8">1885761177584</Timestamp><Current dt:dt="r8">0</Current><DateUtc dt:dt="string">2015-08-31T21:01:05Z</DateUtc></FrequencyChange></FrequencyChanges></Clock>\n	Hungry_Donkey_bar_English_2-126-1	60.018	-20	1.0.0.18	1	271202765	Standard	2.0.10.353	2.0.10.353	08-31-2015	8/31/2015 9:01:05 PM	17:01:05	2.0.10.248	37	Bar50-50.bmp	49	4	?	0r_4g.bmp	0r_4g.bmp	0r_2g.bmp	0r_2g.bmp				0r_2g.bmp	TrialProc	TrialList	0	cvbn	-999999	16	136681	0	n	1747	138428	108	-114	-6	-16	-14	14	10	9	4	37	0	0	0	0	4	4	2	2	0	2
Hungry_Donkey_bar_English_2	126	1	<?xml version="1.0"?>\n<Clock xmlns:dt="urn:schemas-microsoft-com:datatypes"><Description dt:dt="string">E-Prime Primary Realtime Clock</Description><StartTime><Timestamp dt:dt="int">0</Timestamp><DateUtc dt:dt="string">2015-08-31T21:01:05Z</DateUtc></StartTime><FrequencyChanges><FrequencyChange><Frequency dt:dt="r8">3507734</Frequency><Timestamp dt:dt="r8">1885761177584</Timestamp><Current dt:dt="r8">0</Current><DateUtc dt:dt="string">2015-08-31T21:01:05Z</DateUtc></FrequencyChange></FrequencyChanges></Clock>\n	Hungry_Donkey_bar_English_2-126-1	60.018	-20	1.0.0.18	1	271202765	Standard	2.0.10.353	2.0.10.353	08-31-2015	8/31/2015 9:01:05 PM	17:01:05	2.0.10.248	38	Bar50-50.bmp	50	1	?	0r_4g.bmp	0r_4g.bmp	0r_2g.bmp	0r_2g.bmp	0r_4g.bmp				TrialProc	TrialList	0	cvbn	-999999	16	140463	0	c	61	140524	112	-114	-2	-12	-14	14	10	7	4	38	0	0	0	0	4	4	2	2	0	4
Hungry_Donkey_bar_English_2	126	1	<?xml version="1.0"?>\n<Clock xmlns:dt="urn:schemas-microsoft-com:datatypes"><Description dt:dt="string">E-Prime Primary Realtime Clock</Description><StartTime><Timestamp dt:dt="int">0</Timestamp><DateUtc dt:dt="string">2015-08-31T21:01:05Z</DateUtc></StartTime><FrequencyChanges><FrequencyChange><Frequency dt:dt="r8">3507734</Frequency><Timestamp dt:dt="r8">1885761177584</Timestamp><Current dt:dt="r8">0</Current><DateUtc dt:dt="string">2015-08-31T21:01:05Z</DateUtc></FrequencyChange></FrequencyChanges></Clock>\n	Hungry_Donkey_bar_English_2-126-1	60.018	-20	1.0.0.18	1	271202765	Standard	2.0.10.353	2.0.10.353	08-31-2015	8/31/2015 9:01:05 PM	17:01:05	2.0.10.248	39	Bar50-50.bmp	50	2	?	0r_4g.bmp	0r_4g.bmp	0r_2g.bmp	0r_2g.bmp		0r_4g.bmp			TrialProc	TrialList	0	cvbn	-999999	16	142562	0	v	458	143020	116	-114	2	-12	-10	14	10	10	4	39	0	0	0	0	4	4	2	2	0	4
Hungry_Donkey_bar_English_2	126	1	<?xml version="1.0"?>\n<Clock xmlns:dt="urn:schemas-microsoft-com:datatypes"><Description dt:dt="string">E-Prime Primary Realtime Clock</Description><StartTime><Timestamp dt:dt="int">0</Timestamp><DateUtc dt:dt="string">2015-08-31T21:01:05Z</DateUtc></StartTime><FrequencyChanges><FrequencyChange><Frequency dt:dt="r8">3507734</Frequency><Timestamp dt:dt="r8">1885761177584</Timestamp><Current dt:dt="r8">0</Current><DateUtc dt:dt="string">2015-08-31T21:01:05Z</DateUtc></FrequencyChange></FrequencyChanges></Clock>\n	Hungry_Donkey_bar_English_2-126-1	60.018	-20	1.0.0.18	1	271202765	Standard	2.0.10.353	2.0.10.353	08-31-2015	8/31/2015 9:01:05 PM	17:01:05	2.0.10.248	40	Bar50-50.bmp	51	4	?	10r_4g.bmp	0r_4g.bmp	2r_2g.bmp	0r_2g.bmp				0r_2g.bmp	TrialProc	TrialList	0	cvbn	-999999	16	145045	0	n	374	145419	118	-114	4	-12	-10	14	12	4	4	40	-10	0	-2	0	4	4	2	2	0	2
Hungry_Donkey_bar_English_2	126	1	<?xml version="1.0"?>\n<Clock xmlns:dt="urn:schemas-microsoft-com:datatypes"><Description dt:dt="string">E-Prime Primary Realtime Clock</Description><StartTime><Timestamp dt:dt="int">0</Timestamp><DateUtc dt:dt="string">2015-08-31T21:01:05Z</DateUtc></StartTime><FrequencyChanges><FrequencyChange><Frequency dt:dt="r8">3507734</Frequency><Timestamp dt:dt="r8">1885761177584</Timestamp><Current dt:dt="r8">0</Current><DateUtc dt:dt="string">2015-08-31T21:01:05Z</DateUtc></FrequencyChange></FrequencyChanges></Clock>\n	Hungry_Donkey_bar_English_2-126-1	60.018	-20	1.0.0.18	1	271202765	Standard	2.0.10.353	2.0.10.353	08-31-2015	8/31/2015 9:01:05 PM	17:01:05	2.0.10.248	41	Bar50-50.bmp	52	2	?	0r_4g.bmp	0r_4g.bmp	0r_2g.bmp	0r_2g.bmp		0r_4g.bmp			TrialProc	TrialList	0	cvbn	-999999	16	147444	0	v	295	147739	122	-114	8	-12	-6	14	12	8	5	41	0	0	0	0	4	4	2	2	0	4
Hungry_Donkey_bar_English_2	126	1	<?xml version="1.0"?>\n<Clock xmlns:dt="urn:schemas-microsoft-com:datatypes"><Description dt:dt="string">E-Prime Primary Realtime Clock</Description><StartTime><Timestamp dt:dt="int">0</Timestamp><DateUtc dt:dt="string">2015-08-31T21:01:05Z</DateUtc></StartTime><FrequencyChanges><FrequencyChange><Frequency dt:dt="r8">3507734</Frequency><Timestamp dt:dt="r8">1885761177584</Timestamp><Current dt:dt="r8">0</Current><DateUtc dt:dt="string">2015-08-31T21:01:05Z</DateUtc></FrequencyChange></FrequencyChanges></Clock>\n	Hungry_Donkey_bar_English_2-126-1	60.018	-20	1.0.0.18	1	271202765	Standard	2.0.10.353	2.0.10.353	08-31-2015	8/31/2015 9:01:05 PM	17:01:05	2.0.10.248	42	Bar50-50.bmp	52	3	?	8r_4g.bmp	50r_4g.bmp	1r_2g.bmp	10r_2g.bmp			1r_2g.bmp		TrialProc	TrialList	0	cvbn	-999999	16	149777	0	b	314	150091	124	-115	9	-12	-6	15	12	1	5	42	-8	-50	-1	-10	4	4	2	2	-1	2
Hungry_Donkey_bar_English_2	126	1	<?xml version="1.0"?>\n<Clock xmlns:dt="urn:schemas-microsoft-com:datatypes"><Description dt:dt="string">E-Prime Primary Realtime Clock</Description><StartTime><Timestamp dt:dt="int">0</Timestamp><DateUtc dt:dt="string">2015-08-31T21:01:05Z</DateUtc></StartTime><FrequencyChanges><FrequencyChange><Frequency dt:dt="r8">3507734</Frequency><Timestamp dt:dt="r8">1885761177584</Timestamp><Current dt:dt="r8">0</Current><DateUtc dt:dt="string">2015-08-31T21:01:05Z</DateUtc></FrequencyChange></FrequencyChanges></Clock>\n	Hungry_Donkey_bar_English_2-126-1	60.018	-20	1.0.0.18	1	271202765	Standard	2.0.10.353	2.0.10.353	08-31-2015	8/31/2015 9:01:05 PM	17:01:05	2.0.10.248	43	Bar50-50.bmp	53	1	?	0r_4g.bmp	0r_4g.bmp	0r_2g.bmp	0r_2g.bmp	0r_4g.bmp				TrialProc	TrialList	0	cvbn	-999999	16	152126	0	c	365	152491	128	-115	13	-8	-6	15	12	6	5	43	0	0	0	0	4	4	2	2	0	4
Hungry_Donkey_bar_English_2	126	1	<?xml version="1.0"?>\n<Clock xmlns:dt="urn:schemas-microsoft-com:datatypes"><Description dt:dt="string">E-Prime Primary Realtime Clock</Description><StartTime><Timestamp dt:dt="int">0</Timestamp><DateUtc dt:dt="string">2015-08-31T21:01:05Z</DateUtc></StartTime><FrequencyChanges><FrequencyChange><Frequency dt:dt="r8">3507734</Frequency><Timestamp dt:dt="r8">1885761177584</Timestamp><Current dt:dt="r8">0</Current><DateUtc dt:dt="string">2015-08-31T21:01:05Z</DateUtc></FrequencyChange></FrequencyChanges></Clock>\n	Hungry_Donkey_bar_English_2-126-1	60.018	-20	1.0.0.18	1	271202765	Standard	2.0.10.353	2.0.10.353	08-31-2015	8/31/2015 9:01:05 PM	17:01:05	2.0.10.248	44	Bar50-50.bmp	53	4	?	0r_4g.bmp	0r_4g.bmp	0r_2g.bmp	0r_2g.bmp				0r_2g.bmp	TrialProc	TrialList	0	cvbn	-999999	16	154525	0	n	334	154859	130	-115	15	-8	-6	15	14	10	5	44	0	0	0	0	4	4	2	2	0	2
Hungry_Donkey_bar_English_2	126	1	<?xml version="1.0"?>\n<Clock xmlns:dt="urn:schemas-microsoft-com:datatypes"><Description dt:dt="string">E-Prime Primary Realtime Clock</Description><StartTime><Timestamp dt:dt="int">0</Timestamp><DateUtc dt:dt="string">2015-08-31T21:01:05Z</DateUtc></StartTime><FrequencyChanges><FrequencyChange><Frequency dt:dt="r8">3507734</Frequency><Timestamp dt:dt="r8">1885761177584</Timestamp><Current dt:dt="r8">0</Current><DateUtc dt:dt="string">2015-08-31T21:01:05Z</DateUtc></FrequencyChange></FrequencyChanges></Clock>\n	Hungry_Donkey_bar_English_2-126-1	60.018	-20	1.0.0.18	1	271202765	Standard	2.0.10.353	2.0.10.353	08-31-2015	8/31/2015 9:01:05 PM	17:01:05	2.0.10.248	45	Bar50-50.bmp	54	1	?	0r_4g.bmp	0r_4g.bmp	0r_2g.bmp	0r_2g.bmp	0r_4g.bmp				TrialProc	TrialList	0	cvbn	-999999	16	156891	0	c	384	157275	134	-115	19	-4	-6	15	14	7	5	45	0	0	0	0	4	4	2	2	0	4
Hungry_Donkey_bar_English_2	126	1	<?xml version="1.0"?>\n<Clock xmlns:dt="urn:schemas-microsoft-com:datatypes"><Description dt:dt="string">E-Prime Primary Realtime Clock</Description><StartTime><Timestamp dt:dt="int">0</Timestamp><DateUtc dt:dt="string">2015-08-31T21:01:05Z</DateUtc></StartTime><FrequencyChanges><FrequencyChange><Frequency dt:dt="r8">3507734</Frequency><Timestamp dt:dt="r8">1885761177584</Timestamp><Current dt:dt="r8">0</Current><DateUtc dt:dt="string">2015-08-31T21:01:05Z</DateUtc></FrequencyChange></FrequencyChanges></Clock>\n	Hungry_Donkey_bar_English_2-126-1	60.018	-20	1.0.0.18	1	271202765	Standard	2.0.10.353	2.0.10.353	08-31-2015	8/31/2015 9:01:05 PM	17:01:05	2.0.10.248	46	Bar50-50.bmp	54	4	?	10r_4g.bmp	0r_4g.bmp	2r_2g.bmp	0r_2g.bmp				0r_2g.bmp	TrialProc	TrialList	0	cvbn	-999999	16	159307	0	n	320	159627	136	-115	21	-4	-6	15	16	4	5	46	-10	0	-2	0	4	4	2	2	0	2
Hungry_Donkey_bar_English_2	126	1	<?xml version="1.0"?>\n<Clock xmlns:dt="urn:schemas-microsoft-com:datatypes"><Description dt:dt="string">E-Prime Primary Realtime Clock</Description><StartTime><Timestamp dt:dt="int">0</Timestamp><DateUtc dt:dt="string">2015-08-31T21:01:05Z</DateUtc></StartTime><FrequencyChanges><FrequencyChange><Frequency dt:dt="r8">3507734</Frequency><Timestamp dt:dt="r8">1885761177584</Timestamp><Current dt:dt="r8">0</Current><DateUtc dt:dt="string">2015-08-31T21:01:05Z</DateUtc></FrequencyChange></FrequencyChanges></Clock>\n	Hungry_Donkey_bar_English_2-126-1	60.018	-20	1.0.0.18	1	271202765	Standard	2.0.10.353	2.0.10.353	08-31-2015	8/31/2015 9:01:05 PM	17:01:05	2.0.10.248	47	Bar50-50.bmp	53	1	?	10r_4g.bmp	0r_4g.bmp	2r_2g.bmp	0r_2g.bmp	10r_4g.bmp				TrialProc	TrialList	0	cvbn	-999999	16	161656	0	c	450	162106	140	-125	15	-10	-6	15	16	2	5	47	-10	0	-2	0	4	4	2	2	-10	4
Hungry_Donkey_bar_English_2	126	1	<?xml version="1.0"?>\n<Clock xmlns:dt="urn:schemas-microsoft-com:datatypes"><Description dt:dt="string">E-Prime Primary Realtime Clock</Description><StartTime><Timestamp dt:dt="int">0</Timestamp><DateUtc dt:dt="string">2015-08-31T21:01:05Z</DateUtc></StartTime><FrequencyChanges><FrequencyChange><Frequency dt:dt="r8">3507734</Frequency><Timestamp dt:dt="r8">1885761177584</Timestamp><Current dt:dt="r8">0</Current><DateUtc dt:dt="string">2015-08-31T21:01:05Z</DateUtc></FrequencyChange></FrequencyChanges></Clock>\n	Hungry_Donkey_bar_English_2-126-1	60.018	-20	1.0.0.18	1	271202765	Standard	2.0.10.353	2.0.10.353	08-31-2015	8/31/2015 9:01:05 PM	17:01:05	2.0.10.248	48	Bar50-50.bmp	53	3	?	0r_4g.bmp	0r_4g.bmp	0r_2g.bmp	0r_2g.bmp			0r_2g.bmp		TrialProc	TrialList	0	cvbn	-999999	16	164139	0	b	287	164426	142	-125	17	-10	-6	17	16	9	5	48	0	0	0	0	4	4	2	2	0	2
Hungry_Donkey_bar_English_2	126	1	<?xml version="1.0"?>\n<Clock xmlns:dt="urn:schemas-microsoft-com:datatypes"><Description dt:dt="string">E-Prime Primary Realtime Clock</Description><StartTime><Timestamp dt:dt="int">0</Timestamp><DateUtc dt:dt="string">2015-08-31T21:01:05Z</DateUtc></StartTime><FrequencyChanges><FrequencyChange><Frequency dt:dt="r8">3507734</Frequency><Timestamp dt:dt="r8">1885761177584</Timestamp><Current dt:dt="r8">0</Current><DateUtc dt:dt="string">2015-08-31T21:01:05Z</DateUtc></FrequencyChange></FrequencyChanges></Clock>\n	Hungry_Donkey_bar_English_2-126-1	60.018	-20	1.0.0.18	1	271202765	Standard	2.0.10.353	2.0.10.353	08-31-2015	8/31/2015 9:01:05 PM	17:01:05	2.0.10.248	49	Bar50-50.bmp	54	2	?	12r_4g.bmp	0r_4g.bmp	3r_2g.bmp	0r_2g.bmp		0r_4g.bmp			TrialProc	TrialList	0	cvbn	-999999	16	166455	0	v	275	166730	146	-125	21	-10	-2	17	16	5	5	49	-12	0	-3	0	4	4	2	2	0	4
Hungry_Donkey_bar_English_2	126	1	<?xml version="1.0"?>\n<Clock xmlns:dt="urn:schemas-microsoft-com:datatypes"><Description dt:dt="string">E-Prime Primary Realtime Clock</Description><StartTime><Timestamp dt:dt="int">0</Timestamp><DateUtc dt:dt="string">2015-08-31T21:01:05Z</DateUtc></StartTime><FrequencyChanges><FrequencyChange><Frequency dt:dt="r8">3507734</Frequency><Timestamp dt:dt="r8">1885761177584</Timestamp><Current dt:dt="r8">0</Current><DateUtc dt:dt="string">2015-08-31T21:01:05Z</DateUtc></FrequencyChange></FrequencyChanges></Clock>\n	Hungry_Donkey_bar_English_2-126-1	60.018	-20	1.0.0.18	1	271202765	Standard	2.0.10.353	2.0.10.353	08-31-2015	8/31/2015 9:01:05 PM	17:01:05	2.0.10.248	50	Bar50-50.bmp	53	1	?	10r_4g.bmp	0r_4g.bmp	2r_2g.bmp	0r_2g.bmp	10r_4g.bmp				TrialProc	TrialList	0	cvbn	-999999	16	168754	0	c	312	169066	150	-135	15	-16	-2	17	16	3	5	50	-10	0	-2	0	4	4	2	2	-10	4
Hungry_Donkey_bar_English_2	126	1	<?xml version="1.0"?>\n<Clock xmlns:dt="urn:schemas-microsoft-com:datatypes"><Description dt:dt="string">E-Prime Primary Realtime Clock</Description><StartTime><Timestamp dt:dt="int">0</Timestamp><DateUtc dt:dt="string">2015-08-31T21:01:05Z</DateUtc></StartTime><FrequencyChanges><FrequencyChange><Frequency dt:dt="r8">3507734</Frequency><Timestamp dt:dt="r8">1885761177584</Timestamp><Current dt:dt="r8">0</Current><DateUtc dt:dt="string">2015-08-31T21:01:05Z</DateUtc></FrequencyChange></FrequencyChanges></Clock>\n	Hungry_Donkey_bar_English_2-126-1	60.018	-20	1.0.0.18	1	271202765	Standard	2.0.10.353	2.0.10.353	08-31-2015	8/31/2015 9:01:05 PM	17:01:05	2.0.10.248	51	Bar50-50.bmp	53	4	?	0r_4g.bmp	0r_4g.bmp	0r_2g.bmp	0r_2g.bmp				0r_2g.bmp	TrialProc	TrialList	0	cvbn	-999999	17	171104	0	n	362	171466	152	-135	17	-16	-2	17	18	6	6	51	0	0	0	0	4	4	2	2	0	2
Hungry_Donkey_bar_English_2	126	1	<?xml version="1.0"?>\n<Clock xmlns:dt="urn:schemas-microsoft-com:datatypes"><Description dt:dt="string">E-Prime Primary Realtime Clock</Description><StartTime><Timestamp dt:dt="int">0</Timestamp><DateUtc dt:dt="string">2015-08-31T21:01:05Z</DateUtc></StartTime><FrequencyChanges><FrequencyChange><Frequency dt:dt="r8">3507734</Frequency><Timestamp dt:dt="r8">1885761177584</Timestamp><Current dt:dt="r8">0</Current><DateUtc dt:dt="string">2015-08-31T21:01:05Z</DateUtc></FrequencyChange></FrequencyChanges></Clock>\n	Hungry_Donkey_bar_English_2-126-1	60.018	-20	1.0.0.18	1	271202765	Standard	2.0.10.353	2.0.10.353	08-31-2015	8/31/2015 9:01:05 PM	17:01:05	2.0.10.248	52	Bar50-50.bmp	54	2	?	0r_4g.bmp	0r_4g.bmp	0r_2g.bmp	0r_2g.bmp		0r_4g.bmp			TrialProc	TrialList	0	cvbn	-999999	16	173503	0	v	283	173786	156	-135	21	-16	2	17	18	9	6	52	0	0	0	0	4	4	2	2	0	4
Hungry_Donkey_bar_English_2	126	1	<?xml version="1.0"?>\n<Clock xmlns:dt="urn:schemas-microsoft-com:datatypes"><Description dt:dt="string">E-Prime Primary Realtime Clock</Description><StartTime><Timestamp dt:dt="int">0</Timestamp><DateUtc dt:dt="string">2015-08-31T21:01:05Z</DateUtc></StartTime><FrequencyChanges><FrequencyChange><Frequency dt:dt="r8">3507734</Frequency><Timestamp dt:dt="r8">1885761177584</Timestamp><Current dt:dt="r8">0</Current><DateUtc dt:dt="string">2015-08-31T21:01:05Z</DateUtc></FrequencyChange></FrequencyChanges></Clock>\n	Hungry_Donkey_bar_English_2-126-1	60.018	-20	1.0.0.18	1	271202765	Standard	2.0.10.353	2.0.10.353	08-31-2015	8/31/2015 9:01:05 PM	17:01:05	2.0.10.248	53	Bar50-50.bmp	54	3	?	10r_4g.bmp	0r_4g.bmp	2r_2g.bmp	0r_2g.bmp			2r_2g.bmp		TrialProc	TrialList	0	cvbn	-999999	16	175819	0	b	510	176329	158	-137	21	-16	2	17	18	3	6	53	-10	0	-2	0	4	4	2	2	-2	2
Hungry_Donkey_bar_English_2	126	1	<?xml version="1.0"?>\n<Clock xmlns:dt="urn:schemas-microsoft-com:datatypes"><Description dt:dt="string">E-Prime Primary Realtime Clock</Description><StartTime><Timestamp dt:dt="int">0</Timestamp><DateUtc dt:dt="string">2015-08-31T21:01:05Z</DateUtc></StartTime><FrequencyChanges><FrequencyChange><Frequency dt:dt="r8">3507734</Frequency><Timestamp dt:dt="r8">1885761177584</Timestamp><Current dt:dt="r8">0</Current><DateUtc dt:dt="string">2015-08-31T21:01:05Z</DateUtc></FrequencyChange></FrequencyChanges></Clock>\n	Hungry_Donkey_bar_English_2-126-1	60.018	-20	1.0.0.18	1	271202765	Standard	2.0.10.353	2.0.10.353	08-31-2015	8/31/2015 9:01:05 PM	17:01:05	2.0.10.248	54	Bar50-50.bmp	54	4	?	0r_4g.bmp	0r_4g.bmp	0r_2g.bmp	0r_2g.bmp				0r_2g.bmp	TrialProc	TrialList	0	cvbn	-999999	16	178368	0	n	505	178873	160	-137	23	-16	2	17	20	7	6	54	0	0	0	0	4	4	2	2	0	2
Hungry_Donkey_bar_English_2	126	1	<?xml version="1.0"?>\n<Clock xmlns:dt="urn:schemas-microsoft-com:datatypes"><Description dt:dt="string">E-Prime Primary Realtime Clock</Description><StartTime><Timestamp dt:dt="int">0</Timestamp><DateUtc dt:dt="string">2015-08-31T21:01:05Z</DateUtc></StartTime><FrequencyChanges><FrequencyChange><Frequency dt:dt="r8">3507734</Frequency><Timestamp dt:dt="r8">1885761177584</Timestamp><Current dt:dt="r8">0</Current><DateUtc dt:dt="string">2015-08-31T21:01:05Z</DateUtc></FrequencyChange></FrequencyChanges></Clock>\n	Hungry_Donkey_bar_English_2-126-1	60.018	-20	1.0.0.18	1	271202765	Standard	2.0.10.353	2.0.10.353	08-31-2015	8/31/2015 9:01:05 PM	17:01:05	2.0.10.248	55	Bar50-50.bmp	54	1	?	0r_4g.bmp	0r_4g.bmp	0r_2g.bmp	0r_2g.bmp	0r_4g.bmp				TrialProc	TrialList	0	cvbn	-999999	16	180901	0	c	612	181513	164	-137	27	-12	2	17	20	8	6	55	0	0	0	0	4	4	2	2	0	4
Hungry_Donkey_bar_English_2	126	1	<?xml version="1.0"?>\n<Clock xmlns:dt="urn:schemas-microsoft-com:datatypes"><Description dt:dt="string">E-Prime Primary Realtime Clock</Description><StartTime><Timestamp dt:dt="int">0</Timestamp><DateUtc dt:dt="string">2015-08-31T21:01:05Z</DateUtc></StartTime><FrequencyChanges><FrequencyChange><Frequency dt:dt="r8">3507734</Frequency><Timestamp dt:dt="r8">1885761177584</Timestamp><Current dt:dt="r8">0</Current><DateUtc dt:dt="string">2015-08-31T21:01:05Z</DateUtc></FrequencyChange></FrequencyChanges></Clock>\n	Hungry_Donkey_bar_English_2-126-1	60.018	-20	1.0.0.18	1	271202765	Standard	2.0.10.353	2.0.10.353	08-31-2015	8/31/2015 9:01:05 PM	17:01:05	2.0.10.248	56	Bar50-50.bmp	54	3	?	12r_4g.bmp	0r_4g.bmp	3r_2g.bmp	0r_2g.bmp			3r_2g.bmp		TrialProc	TrialList	0	cvbn	-999999	16	183550	0	b	395	183945	166	-140	26	-12	2	16	20	5	6	56	-12	0	-3	0	4	4	2	2	-3	2
Hungry_Donkey_bar_English_2	126	1	<?xml version="1.0"?>\n<Clock xmlns:dt="urn:schemas-microsoft-com:datatypes"><Description dt:dt="string">E-Prime Primary Realtime Clock</Description><StartTime><Timestamp dt:dt="int">0</Timestamp><DateUtc dt:dt="string">2015-08-31T21:01:05Z</DateUtc></StartTime><FrequencyChanges><FrequencyChange><Frequency dt:dt="r8">3507734</Frequency><Timestamp dt:dt="r8">1885761177584</Timestamp><Current dt:dt="r8">0</Current><DateUtc dt:dt="string">2015-08-31T21:01:05Z</DateUtc></FrequencyChange></FrequencyChanges></Clock>\n	Hungry_Donkey_bar_English_2-126-1	60.018	-20	1.0.0.18	1	271202765	Standard	2.0.10.353	2.0.10.353	08-31-2015	8/31/2015 9:01:05 PM	17:01:05	2.0.10.248	57	Bar50-50.bmp	53	1	?	8r_4g.bmp	50r_4g.bmp	1r_2g.bmp	10r_2g.bmp	8r_4g.bmp				TrialProc	TrialList	0	cvbn	-999999	16	185982	0	c	491	186473	170	-148	22	-16	2	16	20	1	6	57	-8	-50	-1	-10	4	4	2	2	-8	4
Hungry_Donkey_bar_English_2	126	1	<?xml version="1.0"?>\n<Clock xmlns:dt="urn:schemas-microsoft-com:datatypes"><Description dt:dt="string">E-Prime Primary Realtime Clock</Description><StartTime><Timestamp dt:dt="int">0</Timestamp><DateUtc dt:dt="string">2015-08-31T21:01:05Z</DateUtc></StartTime><FrequencyChanges><FrequencyChange><Frequency dt:dt="r8">3507734</Frequency><Timestamp dt:dt="r8">1885761177584</Timestamp><Current dt:dt="r8">0</Current><DateUtc dt:dt="string">2015-08-31T21:01:05Z</DateUtc></FrequencyChange></FrequencyChanges></Clock>\n	Hungry_Donkey_bar_English_2-126-1	60.018	-20	1.0.0.18	1	271202765	Standard	2.0.10.353	2.0.10.353	08-31-2015	8/31/2015 9:01:05 PM	17:01:05	2.0.10.248	58	Bar50-50.bmp	54	3	?	0r_4g.bmp	0r_4g.bmp	0r_2g.bmp	0r_2g.bmp			0r_2g.bmp		TrialProc	TrialList	0	cvbn	-999999	16	188498	0	b	791	189289	172	-148	24	-16	2	18	20	10	6	58	0	0	0	0	4	4	2	2	0	2
Hungry_Donkey_bar_English_2	126	1	<?xml version="1.0"?>\n<Clock xmlns:dt="urn:schemas-microsoft-com:datatypes"><Description dt:dt="string">E-Prime Primary Realtime Clock</Description><StartTime><Timestamp dt:dt="int">0</Timestamp><DateUtc dt:dt="string">2015-08-31T21:01:05Z</DateUtc></StartTime><FrequencyChanges><FrequencyChange><Frequency dt:dt="r8">3507734</Frequency><Timestamp dt:dt="r8">1885761177584</Timestamp><Current dt:dt="r8">0</Current><DateUtc dt:dt="string">2015-08-31T21:01:05Z</DateUtc></FrequencyChange></FrequencyChanges></Clock>\n	Hungry_Donkey_bar_English_2-126-1	60.018	-20	1.0.0.18	1	271202765	Standard	2.0.10.353	2.0.10.353	08-31-2015	8/31/2015 9:01:05 PM	17:01:05	2.0.10.248	59	Bar50-50.bmp	54	2	?	10r_4g.bmp	0r_4g.bmp	2r_2g.bmp	0r_2g.bmp		0r_4g.bmp			TrialProc	TrialList	0	cvbn	-999999	16	191314	0	v	310	191624	176	-148	28	-16	6	18	20	2	6	59	-10	0	-2	0	4	4	2	2	0	4
Hungry_Donkey_bar_English_2	126	1	<?xml version="1.0"?>\n<Clock xmlns:dt="urn:schemas-microsoft-com:datatypes"><Description dt:dt="string">E-Prime Primary Realtime Clock</Description><StartTime><Timestamp dt:dt="int">0</Timestamp><DateUtc dt:dt="string">2015-08-31T21:01:05Z</DateUtc></StartTime><FrequencyChanges><FrequencyChange><Frequency dt:dt="r8">3507734</Frequency><Timestamp dt:dt="r8">1885761177584</Timestamp><Current dt:dt="r8">0</Current><DateUtc dt:dt="string">2015-08-31T21:01:05Z</DateUtc></FrequencyChange></FrequencyChanges></Clock>\n	Hungry_Donkey_bar_English_2-126-1	60.018	-20	1.0.0.18	1	271202765	Standard	2.0.10.353	2.0.10.353	08-31-2015	8/31/2015 9:01:05 PM	17:01:05	2.0.10.248	60	Bar50-50.bmp	55	4	?	10r_4g.bmp	0r_4g.bmp	2r_2g.bmp	0r_2g.bmp				0r_2g.bmp	TrialProc	TrialList	0	cvbn	-999999	16	193663	0	n	265	193928	178	-148	30	-16	6	18	22	4	6	60	-10	0	-2	0	4	4	2	2	0	2
Hungry_Donkey_bar_English_2	126	1	<?xml version="1.0"?>\n<Clock xmlns:dt="urn:schemas-microsoft-com:datatypes"><Description dt:dt="string">E-Prime Primary Realtime Clock</Description><StartTime><Timestamp dt:dt="int">0</Timestamp><DateUtc dt:dt="string">2015-08-31T21:01:05Z</DateUtc></StartTime><FrequencyChanges><FrequencyChange><Frequency dt:dt="r8">3507734</Frequency><Timestamp dt:dt="r8">1885761177584</Timestamp><Current dt:dt="r8">0</Current><DateUtc dt:dt="string">2015-08-31T21:01:05Z</DateUtc></FrequencyChange></FrequencyChanges></Clock>\n	Hungry_Donkey_bar_English_2-126-1	60.018	-20	1.0.0.18	1	271202765	Standard	2.0.10.353	2.0.10.353	08-31-2015	8/31/2015 9:01:05 PM	17:01:05	2.0.10.248	61	Bar50-50.bmp	55	1	?	0r_4g.bmp	0r_4g.bmp	0r_2g.bmp	0r_2g.bmp	0r_4g.bmp				TrialProc	TrialList	0	cvbn	-999999	16	195963	0	c	429	196392	182	-148	34	-12	6	18	22	10	7	61	0	0	0	0	4	4	2	2	0	4
Hungry_Donkey_bar_English_2	126	1	<?xml version="1.0"?>\n<Clock xmlns:dt="urn:schemas-microsoft-com:datatypes"><Description dt:dt="string">E-Prime Primary Realtime Clock</Description><StartTime><Timestamp dt:dt="int">0</Timestamp><DateUtc dt:dt="string">2015-08-31T21:01:05Z</DateUtc></StartTime><FrequencyChanges><FrequencyChange><Frequency dt:dt="r8">3507734</Frequency><Timestamp dt:dt="r8">1885761177584</Timestamp><Current dt:dt="r8">0</Current><DateUtc dt:dt="string">2015-08-31T21:01:05Z</DateUtc></FrequencyChange></FrequencyChanges></Clock>\n	Hungry_Donkey_bar_English_2-126-1	60.018	-20	1.0.0.18	1	271202765	Standard	2.0.10.353	2.0.10.353	08-31-2015	8/31/2015 9:01:05 PM	17:01:05	2.0.10.248	62	Bar50-50.bmp	56	2	?	0r_4g.bmp	0r_4g.bmp	0r_2g.bmp	0r_2g.bmp		0r_4g.bmp			TrialProc	TrialList	0	cvbn	-999999	16	198429	0	v	491	198920	186	-148	38	-12	10	18	22	8	7	62	0	0	0	0	4	4	2	2	0	4
Hungry_Donkey_bar_English_2	126	1	<?xml version="1.0"?>\n<Clock xmlns:dt="urn:schemas-microsoft-com:datatypes"><Description dt:dt="string">E-Prime Primary Realtime Clock</Description><StartTime><Timestamp dt:dt="int">0</Timestamp><DateUtc dt:dt="string">2015-08-31T21:01:05Z</DateUtc></StartTime><FrequencyChanges><FrequencyChange><Frequency dt:dt="r8">3507734</Frequency><Timestamp dt:dt="r8">1885761177584</Timestamp><Current dt:dt="r8">0</Current><DateUtc dt:dt="string">2015-08-31T21:01:05Z</DateUtc></FrequencyChange></FrequencyChanges></Clock>\n	Hungry_Donkey_bar_English_2-126-1	60.018	-20	1.0.0.18	1	271202765	Standard	2.0.10.353	2.0.10.353	08-31-2015	8/31/2015 9:01:05 PM	17:01:05	2.0.10.248	63	Bar50-50.bmp	56	4	?	10r_4g.bmp	0r_4g.bmp	2r_2g.bmp	0r_2g.bmp				0r_2g.bmp	TrialProc	TrialList	0	cvbn	-999999	16	200945	0	n	599	201544	188	-148	40	-12	10	18	24	3	7	63	-10	0	-2	0	4	4	2	2	0	2
Hungry_Donkey_bar_English_2	126	1	<?xml version="1.0"?>\n<Clock xmlns:dt="urn:schemas-microsoft-com:datatypes"><Description dt:dt="string">E-Prime Primary Realtime Clock</Description><StartTime><Timestamp dt:dt="int">0</Timestamp><DateUtc dt:dt="string">2015-08-31T21:01:05Z</DateUtc></StartTime><FrequencyChanges><FrequencyChange><Frequency dt:dt="r8">3507734</Frequency><Timestamp dt:dt="r8">1885761177584</Timestamp><Current dt:dt="r8">0</Current><DateUtc dt:dt="string">2015-08-31T21:01:05Z</DateUtc></FrequencyChange></FrequencyChanges></Clock>\n	Hungry_Donkey_bar_English_2-126-1	60.018	-20	1.0.0.18	1	271202765	Standard	2.0.10.353	2.0.10.353	08-31-2015	8/31/2015 9:01:05 PM	17:01:05	2.0.10.248	64	Bar50-50.bmp	49	2	?	8r_4g.bmp	50r_4g.bmp	1r_2g.bmp	10r_2g.bmp		50r_4g.bmp			TrialProc	TrialList	0	cvbn	-999999	16	203577	0	v	559	204136	192	-198	-6	-12	-36	18	24	1	7	64	-8	-50	-1	-10	4	4	2	2	-50	4
Hungry_Donkey_bar_English_2	126	1	<?xml version="1.0"?>\n<Clock xmlns:dt="urn:schemas-microsoft-com:datatypes"><Description dt:dt="string">E-Prime Primary Realtime Clock</Description><StartTime><Timestamp dt:dt="int">0</Timestamp><DateUtc dt:dt="string">2015-08-31T21:01:05Z</DateUtc></StartTime><FrequencyChanges><FrequencyChange><Frequency dt:dt="r8">3507734</Frequency><Timestamp dt:dt="r8">1885761177584</Timestamp><Current dt:dt="r8">0</Current><DateUtc dt:dt="string">2015-08-31T21:01:05Z</DateUtc></FrequencyChange></FrequencyChanges></Clock>\n	Hungry_Donkey_bar_English_2-126-1	60.018	-20	1.0.0.18	1	271202765	Standard	2.0.10.353	2.0.10.353	08-31-2015	8/31/2015 9:01:05 PM	17:01:05	2.0.10.248	65	Bar50-50.bmp	49	4	?	0r_4g.bmp	0r_4g.bmp	0r_2g.bmp	0r_2g.bmp				0r_2g.bmp	TrialProc	TrialList	0	cvbn	-999999	16	206160	0	n	648	206808	194	-198	-4	-12	-36	18	26	9	7	65	0	0	0	0	4	4	2	2	0	2
Hungry_Donkey_bar_English_2	126	1	<?xml version="1.0"?>\n<Clock xmlns:dt="urn:schemas-microsoft-com:datatypes"><Description dt:dt="string">E-Prime Primary Realtime Clock</Description><StartTime><Timestamp dt:dt="int">0</Timestamp><DateUtc dt:dt="string">2015-08-31T21:01:05Z</DateUtc></StartTime><FrequencyChanges><FrequencyChange><Frequency dt:dt="r8">3507734</Frequency><Timestamp dt:dt="r8">1885761177584</Timestamp><Current dt:dt="r8">0</Current><DateUtc dt:dt="string">2015-08-31T21:01:05Z</DateUtc></FrequencyChange></FrequencyChanges></Clock>\n	Hungry_Donkey_bar_English_2-126-1	60.018	-20	1.0.0.18	1	271202765	Standard	2.0.10.353	2.0.10.353	08-31-2015	8/31/2015 9:01:05 PM	17:01:05	2.0.10.248	66	Bar50-50.bmp	49	3	?	10r_4g.bmp	0r_4g.bmp	2r_2g.bmp	0r_2g.bmp			2r_2g.bmp		TrialProc	TrialList	0	cvbn	-999999	16	208842	0	b	365	209207	196	-200	-4	-12	-36	18	26	4	7	66	-10	0	-2	0	4	4	2	2	-2	2
Hungry_Donkey_bar_English_2	126	1	<?xml version="1.0"?>\n<Clock xmlns:dt="urn:schemas-microsoft-com:datatypes"><Description dt:dt="string">E-Prime Primary Realtime Clock</Description><StartTime><Timestamp dt:dt="int">0</Timestamp><DateUtc dt:dt="string">2015-08-31T21:01:05Z</DateUtc></StartTime><FrequencyChanges><FrequencyChange><Frequency dt:dt="r8">3507734</Frequency><Timestamp dt:dt="r8">1885761177584</Timestamp><Current dt:dt="r8">0</Current><DateUtc dt:dt="string">2015-08-31T21:01:05Z</DateUtc></FrequencyChange></FrequencyChanges></Clock>\n	Hungry_Donkey_bar_English_2-126-1	60.018	-20	1.0.0.18	1	271202765	Standard	2.0.10.353	2.0.10.353	08-31-2015	8/31/2015 9:01:05 PM	17:01:05	2.0.10.248	67	Bar50-50.bmp	50	2	?	12r_4g.bmp	0r_4g.bmp	3r_2g.bmp	0r_2g.bmp		0r_4g.bmp			TrialProc	TrialList	0	cvbn	-999999	16	211241	0	v	334	211575	200	-200	0	-12	-32	18	26	5	7	67	-12	0	-3	0	4	4	2	2	0	4
Hungry_Donkey_bar_English_2	126	1	<?xml version="1.0"?>\n<Clock xmlns:dt="urn:schemas-microsoft-com:datatypes"><Description dt:dt="string">E-Prime Primary Realtime Clock</Description><StartTime><Timestamp dt:dt="int">0</Timestamp><DateUtc dt:dt="string">2015-08-31T21:01:05Z</DateUtc></StartTime><FrequencyChanges><FrequencyChange><Frequency dt:dt="r8">3507734</Frequency><Timestamp dt:dt="r8">1885761177584</Timestamp><Current dt:dt="r8">0</Current><DateUtc dt:dt="string">2015-08-31T21:01:05Z</DateUtc></FrequencyChange></FrequencyChanges></Clock>\n	Hungry_Donkey_bar_English_2-126-1	60.018	-20	1.0.0.18	1	271202765	Standard	2.0.10.353	2.0.10.353	08-31-2015	8/31/2015 9:01:05 PM	17:01:05	2.0.10.248	68	Bar50-50.bmp	50	1	?	0r_4g.bmp	0r_4g.bmp	0r_2g.bmp	0r_2g.bmp	0r_4g.bmp				TrialProc	TrialList	0	cvbn	-999999	16	213607	0	c	528	214135	204	-200	4	-8	-32	18	26	7	7	68	0	0	0	0	4	4	2	2	0	4
Hungry_Donkey_bar_English_2	126	1	<?xml version="1.0"?>\n<Clock xmlns:dt="urn:schemas-microsoft-com:datatypes"><Description dt:dt="string">E-Prime Primary Realtime Clock</Description><StartTime><Timestamp dt:dt="int">0</Timestamp><DateUtc dt:dt="string">2015-08-31T21:01:05Z</DateUtc></StartTime><FrequencyChanges><FrequencyChange><Frequency dt:dt="r8">3507734</Frequency><Timestamp dt:dt="r8">1885761177584</Timestamp><Current dt:dt="r8">0</Current><DateUtc dt:dt="string">2015-08-31T21:01:05Z</DateUtc></FrequencyChange></FrequencyChanges></Clock>\n	Hungry_Donkey_bar_English_2-126-1	60.018	-20	1.0.0.18	1	271202765	Standard	2.0.10.353	2.0.10.353	08-31-2015	8/31/2015 9:01:05 PM	17:01:05	2.0.10.248	69	Bar50-50.bmp	51	4	?	10r_4g.bmp	0r_4g.bmp	2r_2g.bmp	0r_2g.bmp				0r_2g.bmp	TrialProc	TrialList	0	cvbn	-999999	16	216173	0	n	298	216471	206	-200	6	-8	-32	18	28	2	7	69	-10	0	-2	0	4	4	2	2	0	2
Hungry_Donkey_bar_English_2	126	1	<?xml version="1.0"?>\n<Clock xmlns:dt="urn:schemas-microsoft-com:datatypes"><Description dt:dt="string">E-Prime Primary Realtime Clock</Description><StartTime><Timestamp dt:dt="int">0</Timestamp><DateUtc dt:dt="string">2015-08-31T21:01:05Z</DateUtc></StartTime><FrequencyChanges><FrequencyChange><Frequency dt:dt="r8">3507734</Frequency><Timestamp dt:dt="r8">1885761177584</Timestamp><Current dt:dt="r8">0</Current><DateUtc dt:dt="string">2015-08-31T21:01:05Z</DateUtc></FrequencyChange></FrequencyChanges></Clock>\n	Hungry_Donkey_bar_English_2-126-1	60.018	-20	1.0.0.18	1	271202765	Standard	2.0.10.353	2.0.10.353	08-31-2015	8/31/2015 9:01:05 PM	17:01:05	2.0.10.248	70	Bar50-50.bmp	51	1	?	0r_4g.bmp	0r_4g.bmp	0r_2g.bmp	0r_2g.bmp	0r_4g.bmp				TrialProc	TrialList	0	cvbn	-999999	16	218506	0	c	1085	219591	210	-200	10	-4	-32	18	28	6	7	70	0	0	0	0	4	4	2	2	0	4
Hungry_Donkey_bar_English_2	126	1	<?xml version="1.0"?>\n<Clock xmlns:dt="urn:schemas-microsoft-com:datatypes"><Description dt:dt="string">E-Prime Primary Realtime Clock</Description><StartTime><Timestamp dt:dt="int">0</Timestamp><DateUtc dt:dt="string">2015-08-31T21:01:05Z</DateUtc></StartTime><FrequencyChanges><FrequencyChange><Frequency dt:dt="r8">3507734</Frequency><Timestamp dt:dt="r8">1885761177584</Timestamp><Current dt:dt="r8">0</Current><DateUtc dt:dt="string">2015-08-31T21:01:05Z</DateUtc></FrequencyChange></FrequencyChanges></Clock>\n	Hungry_Donkey_bar_English_2-126-1	60.018	-20	1.0.0.18	1	271202765	Standard	2.0.10.353	2.0.10.353	08-31-2015	8/31/2015 9:01:05 PM	17:01:05	2.0.10.248	71	Bar50-50.bmp	51	4	?	0r_4g.bmp	0r_4g.bmp	0r_2g.bmp	0r_2g.bmp				0r_2g.bmp	TrialProc	TrialList	0	cvbn	-999999	16	221622	0	n	353	221975	212	-200	12	-4	-32	18	30	9	8	71	0	0	0	0	4	4	2	2	0	2
Hungry_Donkey_bar_English_2	126	1	<?xml version="1.0"?>\n<Clock xmlns:dt="urn:schemas-microsoft-com:datatypes"><Description dt:dt="string">E-Prime Primary Realtime Clock</Description><StartTime><Timestamp dt:dt="int">0</Timestamp><DateUtc dt:dt="string">2015-08-31T21:01:05Z</DateUtc></StartTime><FrequencyChanges><FrequencyChange><Frequency dt:dt="r8">3507734</Frequency><Timestamp dt:dt="r8">1885761177584</Timestamp><Current dt:dt="r8">0</Current><DateUtc dt:dt="string">2015-08-31T21:01:05Z</DateUtc></FrequencyChange></FrequencyChanges></Clock>\n	Hungry_Donkey_bar_English_2-126-1	60.018	-20	1.0.0.18	1	271202765	Standard	2.0.10.353	2.0.10.353	08-31-2015	8/31/2015 9:01:05 PM	17:01:05	2.0.10.248	72	Bar50-50.bmp	52	2	?	0r_4g.bmp	0r_4g.bmp	0r_2g.bmp	0r_2g.bmp		0r_4g.bmp			TrialProc	TrialList	0	cvbn	-999999	16	224004	0	v	338	224342	216	-200	16	-4	-28	18	30	8	8	72	0	0	0	0	4	4	2	2	0	4
Hungry_Donkey_bar_English_2	126	1	<?xml version="1.0"?>\n<Clock xmlns:dt="urn:schemas-microsoft-com:datatypes"><Description dt:dt="string">E-Prime Primary Realtime Clock</Description><StartTime><Timestamp dt:dt="int">0</Timestamp><DateUtc dt:dt="string">2015-08-31T21:01:05Z</DateUtc></StartTime><FrequencyChanges><FrequencyChange><Frequency dt:dt="r8">3507734</Frequency><Timestamp dt:dt="r8">1885761177584</Timestamp><Current dt:dt="r8">0</Current><DateUtc dt:dt="string">2015-08-31T21:01:05Z</DateUtc></FrequencyChange></FrequencyChanges></Clock>\n	Hungry_Donkey_bar_English_2-126-1	60.018	-20	1.0.0.18	1	271202765	Standard	2.0.10.353	2.0.10.353	08-31-2015	8/31/2015 9:01:05 PM	17:01:05	2.0.10.248	73	Bar50-50.bmp	52	4	?	0r_4g.bmp	0r_4g.bmp	0r_2g.bmp	0r_2g.bmp				0r_2g.bmp	TrialProc	TrialList	0	cvbn	-999999	16	226370	0	n	260	226630	218	-200	18	-4	-28	18	32	10	8	73	0	0	0	0	4	4	2	2	0	2
Hungry_Donkey_bar_English_2	126	1	<?xml version="1.0"?>\n<Clock xmlns:dt="urn:schemas-microsoft-com:datatypes"><Description dt:dt="string">E-Prime Primary Realtime Clock</Description><StartTime><Timestamp dt:dt="int">0</Timestamp><DateUtc dt:dt="string">2015-08-31T21:01:05Z</DateUtc></StartTime><FrequencyChanges><FrequencyChange><Frequency dt:dt="r8">3507734</Frequency><Timestamp dt:dt="r8">1885761177584</Timestamp><Current dt:dt="r8">0</Current><DateUtc dt:dt="string">2015-08-31T21:01:05Z</DateUtc></FrequencyChange></FrequencyChanges></Clock>\n	Hungry_Donkey_bar_English_2-126-1	60.018	-20	1.0.0.18	1	271202765	Standard	2.0.10.353	2.0.10.353	08-31-2015	8/31/2015 9:01:05 PM	17:01:05	2.0.10.248	74	Bar50-50.bmp	51	1	?	10r_4g.bmp	0r_4g.bmp	2r_2g.bmp	0r_2g.bmp	10r_4g.bmp				TrialProc	TrialList	0	cvbn	-999999	16	228653	0	c	377	229030	222	-210	12	-10	-28	18	32	4	8	74	-10	0	-2	0	4	4	2	2	-10	4
Hungry_Donkey_bar_English_2	126	1	<?xml version="1.0"?>\n<Clock xmlns:dt="urn:schemas-microsoft-com:datatypes"><Description dt:dt="string">E-Prime Primary Realtime Clock</Description><StartTime><Timestamp dt:dt="int">0</Timestamp><DateUtc dt:dt="string">2015-08-31T21:01:05Z</DateUtc></StartTime><FrequencyChanges><FrequencyChange><Frequency dt:dt="r8">3507734</Frequency><Timestamp dt:dt="r8">1885761177584</Timestamp><Current dt:dt="r8">0</Current><DateUtc dt:dt="string">2015-08-31T21:01:05Z</DateUtc></FrequencyChange></FrequencyChanges></Clock>\n	Hungry_Donkey_bar_English_2-126-1	60.018	-20	1.0.0.18	1	271202765	Standard	2.0.10.353	2.0.10.353	08-31-2015	8/31/2015 9:01:05 PM	17:01:05	2.0.10.248	75	Bar50-50.bmp	52	4	?	12r_4g.bmp	0r_4g.bmp	3r_2g.bmp	0r_2g.bmp				0r_2g.bmp	TrialProc	TrialList	0	cvbn	-999999	16	231069	0	n	409	231478	224	-210	14	-10	-28	18	34	5	8	75	-12	0	-3	0	4	4	2	2	0	2
Hungry_Donkey_bar_English_2	126	1	<?xml version="1.0"?>\n<Clock xmlns:dt="urn:schemas-microsoft-com:datatypes"><Description dt:dt="string">E-Prime Primary Realtime Clock</Description><StartTime><Timestamp dt:dt="int">0</Timestamp><DateUtc dt:dt="string">2015-08-31T21:01:05Z</DateUtc></StartTime><FrequencyChanges><FrequencyChange><Frequency dt:dt="r8">3507734</Frequency><Timestamp dt:dt="r8">1885761177584</Timestamp><Current dt:dt="r8">0</Current><DateUtc dt:dt="string">2015-08-31T21:01:05Z</DateUtc></FrequencyChange></FrequencyChanges></Clock>\n	Hungry_Donkey_bar_English_2-126-1	60.018	-20	1.0.0.18	1	271202765	Standard	2.0.10.353	2.0.10.353	08-31-2015	8/31/2015 9:01:05 PM	17:01:05	2.0.10.248	76	Bar50-50.bmp	52	3	?	10r_4g.bmp	0r_4g.bmp	2r_2g.bmp	0r_2g.bmp			2r_2g.bmp		TrialProc	TrialList	0	cvbn	-999999	16	233501	0	b	345	233846	226	-212	14	-10	-28	18	34	2	8	76	-10	0	-2	0	4	4	2	2	-2	2
Hungry_Donkey_bar_English_2	126	1	<?xml version="1.0"?>\n<Clock xmlns:dt="urn:schemas-microsoft-com:datatypes"><Description dt:dt="string">E-Prime Primary Realtime Clock</Description><StartTime><Timestamp dt:dt="int">0</Timestamp><DateUtc dt:dt="string">2015-08-31T21:01:05Z</DateUtc></StartTime><FrequencyChanges><FrequencyChange><Frequency dt:dt="r8">3507734</Frequency><Timestamp dt:dt="r8">1885761177584</Timestamp><Current dt:dt="r8">0</Current><DateUtc dt:dt="string">2015-08-31T21:01:05Z</DateUtc></FrequencyChange></FrequencyChanges></Clock>\n	Hungry_Donkey_bar_English_2-126-1	60.018	-20	1.0.0.18	1	271202765	Standard	2.0.10.353	2.0.10.353	08-31-2015	8/31/2015 9:01:05 PM	17:01:05	2.0.10.248	77	Bar50-50.bmp	52	2	?	10r_4g.bmp	0r_4g.bmp	2r_2g.bmp	0r_2g.bmp		0r_4g.bmp			TrialProc	TrialList	0	cvbn	-999999	16	235884	0	v	330	236214	230	-212	18	-10	-24	18	34	3	8	77	-10	0	-2	0	4	4	2	2	0	4
Hungry_Donkey_bar_English_2	126	1	<?xml version="1.0"?>\n<Clock xmlns:dt="urn:schemas-microsoft-com:datatypes"><Description dt:dt="string">E-Prime Primary Realtime Clock</Description><StartTime><Timestamp dt:dt="int">0</Timestamp><DateUtc dt:dt="string">2015-08-31T21:01:05Z</DateUtc></StartTime><FrequencyChanges><FrequencyChange><Frequency dt:dt="r8">3507734</Frequency><Timestamp dt:dt="r8">1885761177584</Timestamp><Current dt:dt="r8">0</Current><DateUtc dt:dt="string">2015-08-31T21:01:05Z</DateUtc></FrequencyChange></FrequencyChanges></Clock>\n	Hungry_Donkey_bar_English_2-126-1	60.018	-20	1.0.0.18	1	271202765	Standard	2.0.10.353	2.0.10.353	08-31-2015	8/31/2015 9:01:05 PM	17:01:05	2.0.10.248	78	Bar50-50.bmp	52	4	?	0r_4g.bmp	0r_4g.bmp	0r_2g.bmp	0r_2g.bmp				0r_2g.bmp	TrialProc	TrialList	0	cvbn	-999999	16	238250	0	n	379	238629	232	-212	20	-10	-24	18	36	7	8	78	0	0	0	0	4	4	2	2	0	2
Hungry_Donkey_bar_English_2	126	1	<?xml version="1.0"?>\n<Clock xmlns:dt="urn:schemas-microsoft-com:datatypes"><Description dt:dt="string">E-Prime Primary Realtime Clock</Description><StartTime><Timestamp dt:dt="int">0</Timestamp><DateUtc dt:dt="string">2015-08-31T21:01:05Z</DateUtc></StartTime><FrequencyChanges><FrequencyChange><Frequency dt:dt="r8">3507734</Frequency><Timestamp dt:dt="r8">1885761177584</Timestamp><Current dt:dt="r8">0</Current><DateUtc dt:dt="string">2015-08-31T21:01:05Z</DateUtc></FrequencyChange></FrequencyChanges></Clock>\n	Hungry_Donkey_bar_English_2-126-1	60.018	-20	1.0.0.18	1	271202765	Standard	2.0.10.353	2.0.10.353	08-31-2015	8/31/2015 9:01:05 PM	17:01:05	2.0.10.248	79	Bar50-50.bmp	53	1	?	0r_4g.bmp	0r_4g.bmp	0r_2g.bmp	0r_2g.bmp	0r_4g.bmp				TrialProc	TrialList	0	cvbn	-999999	16	240666	0	c	443	241109	236	-212	24	-6	-24	18	36	6	8	79	0	0	0	0	4	4	2	2	0	4
Hungry_Donkey_bar_English_2	126	1	<?xml version="1.0"?>\n<Clock xmlns:dt="urn:schemas-microsoft-com:datatypes"><Description dt:dt="string">E-Prime Primary Realtime Clock</Description><StartTime><Timestamp dt:dt="int">0</Timestamp><DateUtc dt:dt="string">2015-08-31T21:01:05Z</DateUtc></StartTime><FrequencyChanges><FrequencyChange><Frequency dt:dt="r8">3507734</Frequency><Timestamp dt:dt="r8">1885761177584</Timestamp><Current dt:dt="r8">0</Current><DateUtc dt:dt="string">2015-08-31T21:01:05Z</DateUtc></FrequencyChange></FrequencyChanges></Clock>\n	Hungry_Donkey_bar_English_2-126-1	60.018	-20	1.0.0.18	1	271202765	Standard	2.0.10.353	2.0.10.353	08-31-2015	8/31/2015 9:01:05 PM	17:01:05	2.0.10.248	80	Bar50-50.bmp	52	4	?	8r_4g.bmp	50r_4g.bmp	1r_2g.bmp	10r_2g.bmp				10r_2g.bmp	TrialProc	TrialList	0	cvbn	-999999	16	243148	0	n	361	243509	238	-222	16	-6	-24	18	28	1	8	80	-8	-50	-1	-10	4	4	2	2	-10	2
Hungry_Donkey_bar_English_2	126	1	<?xml version="1.0"?>\n<Clock xmlns:dt="urn:schemas-microsoft-com:datatypes"><Description dt:dt="string">E-Prime Primary Realtime Clock</Description><StartTime><Timestamp dt:dt="int">0</Timestamp><DateUtc dt:dt="string">2015-08-31T21:01:05Z</DateUtc></StartTime><FrequencyChanges><FrequencyChange><Frequency dt:dt="r8">3507734</Frequency><Timestamp dt:dt="r8">1885761177584</Timestamp><Current dt:dt="r8">0</Current><DateUtc dt:dt="string">2015-08-31T21:01:05Z</DateUtc></FrequencyChange></FrequencyChanges></Clock>\n	Hungry_Donkey_bar_English_2-126-1	60.018	-20	1.0.0.18	1	271202765	Standard	2.0.10.353	2.0.10.353	08-31-2015	8/31/2015 9:01:05 PM	17:01:05	2.0.10.248	81	Bar50-50.bmp	52	2	?	0r_4g.bmp	0r_4g.bmp	0r_2g.bmp	0r_2g.bmp		0r_4g.bmp			TrialProc	TrialList	0	cvbn	-999999	16	245548	0	v	649	246197	242	-222	20	-6	-20	18	28	8	9	81	0	0	0	0	4	4	2	2	0	4
Hungry_Donkey_bar_English_2	126	1	<?xml version="1.0"?>\n<Clock xmlns:dt="urn:schemas-microsoft-com:datatypes"><Description dt:dt="string">E-Prime Primary Realtime Clock</Description><StartTime><Timestamp dt:dt="int">0</Timestamp><DateUtc dt:dt="string">2015-08-31T21:01:05Z</DateUtc></StartTime><FrequencyChanges><FrequencyChange><Frequency dt:dt="r8">3507734</Frequency><Timestamp dt:dt="r8">1885761177584</Timestamp><Current dt:dt="r8">0</Current><DateUtc dt:dt="string">2015-08-31T21:01:05Z</DateUtc></FrequencyChange></FrequencyChanges></Clock>\n	Hungry_Donkey_bar_English_2-126-1	60.018	-20	1.0.0.18	1	271202765	Standard	2.0.10.353	2.0.10.353	08-31-2015	8/31/2015 9:01:05 PM	17:01:05	2.0.10.248	82	Bar50-50.bmp	52	3	?	0r_4g.bmp	0r_4g.bmp	0r_2g.bmp	0r_2g.bmp			0r_2g.bmp		TrialProc	TrialList	0	cvbn	-999999	16	248230	0	b	367	248597	244	-222	22	-6	-20	20	28	6	9	82	0	0	0	0	4	4	2	2	0	2
Hungry_Donkey_bar_English_2	126	1	<?xml version="1.0"?>\n<Clock xmlns:dt="urn:schemas-microsoft-com:datatypes"><Description dt:dt="string">E-Prime Primary Realtime Clock</Description><StartTime><Timestamp dt:dt="int">0</Timestamp><DateUtc dt:dt="string">2015-08-31T21:01:05Z</DateUtc></StartTime><FrequencyChanges><FrequencyChange><Frequency dt:dt="r8">3507734</Frequency><Timestamp dt:dt="r8">1885761177584</Timestamp><Current dt:dt="r8">0</Current><DateUtc dt:dt="string">2015-08-31T21:01:05Z</DateUtc></FrequencyChange></FrequencyChanges></Clock>\n	Hungry_Donkey_bar_English_2-126-1	60.018	-20	1.0.0.18	1	271202765	Standard	2.0.10.353	2.0.10.353	08-31-2015	8/31/2015 9:01:05 PM	17:01:05	2.0.10.248	83	Bar50-50.bmp	53	1	?	0r_4g.bmp	0r_4g.bmp	0r_2g.bmp	0r_2g.bmp	0r_4g.bmp				TrialProc	TrialList	0	cvbn	-999999	16	250629	0	c	368	250997	248	-222	26	-2	-20	20	28	7	9	83	0	0	0	0	4	4	2	2	0	4
Hungry_Donkey_bar_English_2	126	1	<?xml version="1.0"?>\n<Clock xmlns:dt="urn:schemas-microsoft-com:datatypes"><Description dt:dt="string">E-Prime Primary Realtime Clock</Description><StartTime><Timestamp dt:dt="int">0</Timestamp><DateUtc dt:dt="string">2015-08-31T21:01:05Z</DateUtc></StartTime><FrequencyChanges><FrequencyChange><Frequency dt:dt="r8">3507734</Frequency><Timestamp dt:dt="r8">1885761177584</Timestamp><Current dt:dt="r8">0</Current><DateUtc dt:dt="string">2015-08-31T21:01:05Z</DateUtc></FrequencyChange></FrequencyChanges></Clock>\n	Hungry_Donkey_bar_English_2-126-1	60.018	-20	1.0.0.18	1	271202765	Standard	2.0.10.353	2.0.10.353	08-31-2015	8/31/2015 9:01:05 PM	17:01:05	2.0.10.248	84	Bar50-50.bmp	53	4	?	12r_4g.bmp	0r_4g.bmp	3r_2g.bmp	0r_2g.bmp				0r_2g.bmp	TrialProc	TrialList	0	cvbn	-999999	16	253029	0	n	319	253348	250	-222	28	-2	-20	20	30	5	9	84	-12	0	-3	0	4	4	2	2	0	2
Hungry_Donkey_bar_English_2	126	1	<?xml version="1.0"?>\n<Clock xmlns:dt="urn:schemas-microsoft-com:datatypes"><Description dt:dt="string">E-Prime Primary Realtime Clock</Description><StartTime><Timestamp dt:dt="int">0</Timestamp><DateUtc dt:dt="string">2015-08-31T21:01:05Z</DateUtc></StartTime><FrequencyChanges><FrequencyChange><Frequency dt:dt="r8">3507734</Frequency><Timestamp dt:dt="r8">1885761177584</Timestamp><Current dt:dt="r8">0</Current><DateUtc dt:dt="string">2015-08-31T21:01:05Z</DateUtc></FrequencyChange></FrequencyChanges></Clock>\n	Hungry_Donkey_bar_English_2-126-1	60.018	-20	1.0.0.18	1	271202765	Standard	2.0.10.353	2.0.10.353	08-31-2015	8/31/2015 9:01:05 PM	17:01:05	2.0.10.248	85	Bar50-50.bmp	53	2	?	10r_4g.bmp	0r_4g.bmp	2r_2g.bmp	0r_2g.bmp		0r_4g.bmp			TrialProc	TrialList	0	cvbn	-999999	16	255378	0	v	306	255684	254	-222	32	-2	-16	20	30	2	9	85	-10	0	-2	0	4	4	2	2	0	4
Hungry_Donkey_bar_English_2	126	1	<?xml version="1.0"?>\n<Clock xmlns:dt="urn:schemas-microsoft-com:datatypes"><Description dt:dt="string">E-Prime Primary Realtime Clock</Description><StartTime><Timestamp dt:dt="int">0</Timestamp><DateUtc dt:dt="string">2015-08-31T21:01:05Z</DateUtc></StartTime><FrequencyChanges><FrequencyChange><Frequency dt:dt="r8">3507734</Frequency><Timestamp dt:dt="r8">1885761177584</Timestamp><Current dt:dt="r8">0</Current><DateUtc dt:dt="string">2015-08-31T21:01:05Z</DateUtc></FrequencyChange></FrequencyChanges></Clock>\n	Hungry_Donkey_bar_English_2-126-1	60.018	-20	1.0.0.18	1	271202765	Standard	2.0.10.353	2.0.10.353	08-31-2015	8/31/2015 9:01:05 PM	17:01:05	2.0.10.248	86	Bar50-50.bmp	54	3	?	0r_4g.bmp	0r_4g.bmp	0r_2g.bmp	0r_2g.bmp			0r_2g.bmp		TrialProc	TrialList	0	cvbn	-999999	16	257711	0	b	309	258020	256	-222	34	-2	-16	22	30	10	9	86	0	0	0	0	4	4	2	2	0	2
Hungry_Donkey_bar_English_2	126	1	<?xml version="1.0"?>\n<Clock xmlns:dt="urn:schemas-microsoft-com:datatypes"><Description dt:dt="string">E-Prime Primary Realtime Clock</Description><StartTime><Timestamp dt:dt="int">0</Timestamp><DateUtc dt:dt="string">2015-08-31T21:01:05Z</DateUtc></StartTime><FrequencyChanges><FrequencyChange><Frequency dt:dt="r8">3507734</Frequency><Timestamp dt:dt="r8">1885761177584</Timestamp><Current dt:dt="r8">0</Current><DateUtc dt:dt="string">2015-08-31T21:01:05Z</DateUtc></FrequencyChange></FrequencyChanges></Clock>\n	Hungry_Donkey_bar_English_2-126-1	60.018	-20	1.0.0.18	1	271202765	Standard	2.0.10.353	2.0.10.353	08-31-2015	8/31/2015 9:01:05 PM	17:01:05	2.0.10.248	87	Bar50-50.bmp	49	2	?	8r_4g.bmp	50r_4g.bmp	1r_2g.bmp	10r_2g.bmp		50r_4g.bmp			TrialProc	TrialList	0	cvbn	-999999	16	260043	0	v	345	260388	260	-272	-12	-2	-62	22	30	1	9	87	-8	-50	-1	-10	4	4	2	2	-50	4
Hungry_Donkey_bar_English_2	126	1	<?xml version="1.0"?>\n<Clock xmlns:dt="urn:schemas-microsoft-com:datatypes"><Description dt:dt="string">E-Prime Primary Realtime Clock</Description><StartTime><Timestamp dt:dt="int">0</Timestamp><DateUtc dt:dt="string">2015-08-31T21:01:05Z</DateUtc></StartTime><FrequencyChanges><FrequencyChange><Frequency dt:dt="r8">3507734</Frequency><Timestamp dt:dt="r8">1885761177584</Timestamp><Current dt:dt="r8">0</Current><DateUtc dt:dt="string">2015-08-31T21:01:05Z</DateUtc></FrequencyChange></FrequencyChanges></Clock>\n	Hungry_Donkey_bar_English_2-126-1	60.018	-20	1.0.0.18	1	271202765	Standard	2.0.10.353	2.0.10.353	08-31-2015	8/31/2015 9:01:05 PM	17:01:05	2.0.10.248	88	Bar50-50.bmp	49	4	?	10r_4g.bmp	0r_4g.bmp	2r_2g.bmp	0r_2g.bmp				0r_2g.bmp	TrialProc	TrialList	0	cvbn	-999999	16	262426	0	n	746	263172	262	-272	-10	-2	-62	22	32	4	9	88	-10	0	-2	0	4	4	2	2	0	2
Hungry_Donkey_bar_English_2	126	1	<?xml version="1.0"?>\n<Clock xmlns:dt="urn:schemas-microsoft-com:datatypes"><Description dt:dt="string">E-Prime Primary Realtime Clock</Description><StartTime><Timestamp dt:dt="int">0</Timestamp><DateUtc dt:dt="string">2015-08-31T21:01:05Z</DateUtc></StartTime><FrequencyChanges><FrequencyChange><Frequency dt:dt="r8">3507734</Frequency><Timestamp dt:dt="r8">1885761177584</Timestamp><Current dt:dt="r8">0</Current><DateUtc dt:dt="string">2015-08-31T21:01:05Z</DateUtc></FrequencyChange></FrequencyChanges></Clock>\n	Hungry_Donkey_bar_English_2-126-1	60.018	-20	1.0.0.18	1	271202765	Standard	2.0.10.353	2.0.10.353	08-31-2015	8/31/2015 9:01:05 PM	17:01:05	2.0.10.248	89	Bar50-50.bmp	49	1	?	0r_4g.bmp	0r_4g.bmp	0r_2g.bmp	0r_2g.bmp	0r_4g.bmp				TrialProc	TrialList	0	cvbn	-999999	16	265208	0	c	284	265492	266	-272	-6	2	-62	22	32	9	9	89	0	0	0	0	4	4	2	2	0	4
Hungry_Donkey_bar_English_2	126	1	<?xml version="1.0"?>\n<Clock xmlns:dt="urn:schemas-microsoft-com:datatypes"><Description dt:dt="string">E-Prime Primary Realtime Clock</Description><StartTime><Timestamp dt:dt="int">0</Timestamp><DateUtc dt:dt="string">2015-08-31T21:01:05Z</DateUtc></StartTime><FrequencyChanges><FrequencyChange><Frequency dt:dt="r8">3507734</Frequency><Timestamp dt:dt="r8">1885761177584</Timestamp><Current dt:dt="r8">0</Current><DateUtc dt:dt="string">2015-08-31T21:01:05Z</DateUtc></FrequencyChange></FrequencyChanges></Clock>\n	Hungry_Donkey_bar_English_2-126-1	60.018	-20	1.0.0.18	1	271202765	Standard	2.0.10.353	2.0.10.353	08-31-2015	8/31/2015 9:01:05 PM	17:01:05	2.0.10.248	90	Bar50-50.bmp	50	4	?	10r_4g.bmp	0r_4g.bmp	2r_2g.bmp	0r_2g.bmp				0r_2g.bmp	TrialProc	TrialList	0	cvbn	-999999	16	267524	0	n	560	268084	268	-272	-4	2	-62	22	34	3	9	90	-10	0	-2	0	4	4	2	2	0	2
Hungry_Donkey_bar_English_2	126	1	<?xml version="1.0"?>\n<Clock xmlns:dt="urn:schemas-microsoft-com:datatypes"><Description dt:dt="string">E-Prime Primary Realtime Clock</Description><StartTime><Timestamp dt:dt="int">0</Timestamp><DateUtc dt:dt="string">2015-08-31T21:01:05Z</DateUtc></StartTime><FrequencyChanges><FrequencyChange><Frequency dt:dt="r8">3507734</Frequency><Timestamp dt:dt="r8">1885761177584</Timestamp><Current dt:dt="r8">0</Current><DateUtc dt:dt="string">2015-08-31T21:01:05Z</DateUtc></FrequencyChange></FrequencyChanges></Clock>\n	Hungry_Donkey_bar_English_2-126-1	60.018	-20	1.0.0.18	1	271202765	Standard	2.0.10.353	2.0.10.353	08-31-2015	8/31/2015 9:01:05 PM	17:01:05	2.0.10.248	91	Bar50-50.bmp	50	2	?	0r_4g.bmp	0r_4g.bmp	0r_2g.bmp	0r_2g.bmp		0r_4g.bmp			TrialProc	TrialList	0	cvbn	-999999	16	270107	0	v	328	270435	272	-272	0	2	-58	22	34	9	10	91	0	0	0	0	4	4	2	2	0	4
Hungry_Donkey_bar_English_2	126	1	<?xml version="1.0"?>\n<Clock xmlns:dt="urn:schemas-microsoft-com:datatypes"><Description dt:dt="string">E-Prime Primary Realtime Clock</Description><StartTime><Timestamp dt:dt="int">0</Timestamp><DateUtc dt:dt="string">2015-08-31T21:01:05Z</DateUtc></StartTime><FrequencyChanges><FrequencyChange><Frequency dt:dt="r8">3507734</Frequency><Timestamp dt:dt="r8">1885761177584</Timestamp><Current dt:dt="r8">0</Current><DateUtc dt:dt="string">2015-08-31T21:01:05Z</DateUtc></FrequencyChange></FrequencyChanges></Clock>\n	Hungry_Donkey_bar_English_2-126-1	60.018	-20	1.0.0.18	1	271202765	Standard	2.0.10.353	2.0.10.353	08-31-2015	8/31/2015 9:01:05 PM	17:01:05	2.0.10.248	92	Bar50-50.bmp	50	4	?	10r_4g.bmp	0r_4g.bmp	2r_2g.bmp	0r_2g.bmp				0r_2g.bmp	TrialProc	TrialList	0	cvbn	-999999	16	272473	0	n	26	272499	274	-272	2	2	-58	22	36	3	10	92	-10	0	-2	0	4	4	2	2	0	2
Hungry_Donkey_bar_English_2	126	1	<?xml version="1.0"?>\n<Clock xmlns:dt="urn:schemas-microsoft-com:datatypes"><Description dt:dt="string">E-Prime Primary Realtime Clock</Description><StartTime><Timestamp dt:dt="int">0</Timestamp><DateUtc dt:dt="string">2015-08-31T21:01:05Z</DateUtc></StartTime><FrequencyChanges><FrequencyChange><Frequency dt:dt="r8">3507734</Frequency><Timestamp dt:dt="r8">1885761177584</Timestamp><Current dt:dt="r8">0</Current><DateUtc dt:dt="string">2015-08-31T21:01:05Z</DateUtc></FrequencyChange></FrequencyChanges></Clock>\n	Hungry_Donkey_bar_English_2-126-1	60.018	-20	1.0.0.18	1	271202765	Standard	2.0.10.353	2.0.10.353	08-31-2015	8/31/2015 9:01:05 PM	17:01:05	2.0.10.248	93	Bar50-50.bmp	51	2	?	10r_4g.bmp	0r_4g.bmp	2r_2g.bmp	0r_2g.bmp		0r_4g.bmp			TrialProc	TrialList	0	cvbn	-999999	15	274522	0	v	297	274819	278	-272	6	2	-54	22	36	2	10	93	-10	0	-2	0	4	4	2	2	0	4
Hungry_Donkey_bar_English_2	126	1	<?xml version="1.0"?>\n<Clock xmlns:dt="urn:schemas-microsoft-com:datatypes"><Description dt:dt="string">E-Prime Primary Realtime Clock</Description><StartTime><Timestamp dt:dt="int">0</Timestamp><DateUtc dt:dt="string">2015-08-31T21:01:05Z</DateUtc></StartTime><FrequencyChanges><FrequencyChange><Frequency dt:dt="r8">3507734</Frequency><Timestamp dt:dt="r8">1885761177584</Timestamp><Current dt:dt="r8">0</Current><DateUtc dt:dt="string">2015-08-31T21:01:05Z</DateUtc></FrequencyChange></FrequencyChanges></Clock>\n	Hungry_Donkey_bar_English_2-126-1	60.018	-20	1.0.0.18	1	271202765	Standard	2.0.10.353	2.0.10.353	08-31-2015	8/31/2015 9:01:05 PM	17:01:05	2.0.10.248	94	Bar50-50.bmp	51	3	?	8r_4g.bmp	50r_4g.bmp	1r_2g.bmp	10r_2g.bmp			1r_2g.bmp		TrialProc	TrialList	0	cvbn	-999999	16	276855	0	b	460	277315	280	-273	7	2	-54	23	36	1	10	94	-8	-50	-1	-10	4	4	2	2	-1	2
Hungry_Donkey_bar_English_2	126	1	<?xml version="1.0"?>\n<Clock xmlns:dt="urn:schemas-microsoft-com:datatypes"><Description dt:dt="string">E-Prime Primary Realtime Clock</Description><StartTime><Timestamp dt:dt="int">0</Timestamp><DateUtc dt:dt="string">2015-08-31T21:01:05Z</DateUtc></StartTime><FrequencyChanges><FrequencyChange><Frequency dt:dt="r8">3507734</Frequency><Timestamp dt:dt="r8">1885761177584</Timestamp><Current dt:dt="r8">0</Current><DateUtc dt:dt="string">2015-08-31T21:01:05Z</DateUtc></FrequencyChange></FrequencyChanges></Clock>\n	Hungry_Donkey_bar_English_2-126-1	60.018	-20	1.0.0.18	1	271202765	Standard	2.0.10.353	2.0.10.353	08-31-2015	8/31/2015 9:01:05 PM	17:01:05	2.0.10.248	95	Bar50-50.bmp	51	1	?	0r_4g.bmp	0r_4g.bmp	0r_2g.bmp	0r_2g.bmp	0r_4g.bmp				TrialProc	TrialList	0	cvbn	-999999	16	279354	0	c	361	279715	284	-273	11	6	-54	23	36	8	10	95	0	0	0	0	4	4	2	2	0	4
Hungry_Donkey_bar_English_2	126	1	<?xml version="1.0"?>\n<Clock xmlns:dt="urn:schemas-microsoft-com:datatypes"><Description dt:dt="string">E-Prime Primary Realtime Clock</Description><StartTime><Timestamp dt:dt="int">0</Timestamp><DateUtc dt:dt="string">2015-08-31T21:01:05Z</DateUtc></StartTime><FrequencyChanges><FrequencyChange><Frequency dt:dt="r8">3507734</Frequency><Timestamp dt:dt="r8">1885761177584</Timestamp><Current dt:dt="r8">0</Current><DateUtc dt:dt="string">2015-08-31T21:01:05Z</DateUtc></FrequencyChange></FrequencyChanges></Clock>\n	Hungry_Donkey_bar_English_2-126-1	60.018	-20	1.0.0.18	1	271202765	Standard	2.0.10.353	2.0.10.353	08-31-2015	8/31/2015 9:01:05 PM	17:01:05	2.0.10.248	96	Bar50-50.bmp	51	4	?	0r_4g.bmp	0r_4g.bmp	0r_2g.bmp	0r_2g.bmp				0r_2g.bmp	TrialProc	TrialList	0	cvbn	-999999	16	281753	0	n	314	282067	286	-273	13	6	-54	23	38	10	10	96	0	0	0	0	4	4	2	2	0	2
Hungry_Donkey_bar_English_2	126	1	<?xml version="1.0"?>\n<Clock xmlns:dt="urn:schemas-microsoft-com:datatypes"><Description dt:dt="string">E-Prime Primary Realtime Clock</Description><StartTime><Timestamp dt:dt="int">0</Timestamp><DateUtc dt:dt="string">2015-08-31T21:01:05Z</DateUtc></StartTime><FrequencyChanges><FrequencyChange><Frequency dt:dt="r8">3507734</Frequency><Timestamp dt:dt="r8">1885761177584</Timestamp><Current dt:dt="r8">0</Current><DateUtc dt:dt="string">2015-08-31T21:01:05Z</DateUtc></FrequencyChange></FrequencyChanges></Clock>\n	Hungry_Donkey_bar_English_2-126-1	60.018	-20	1.0.0.18	1	271202765	Standard	2.0.10.353	2.0.10.353	08-31-2015	8/31/2015 9:01:05 PM	17:01:05	2.0.10.248	97	Bar50-50.bmp	52	2	?	10r_4g.bmp	0r_4g.bmp	2r_2g.bmp	0r_2g.bmp		0r_4g.bmp			TrialProc	TrialList	0	cvbn	-999999	16	284103	0	v	27	284130	290	-273	17	6	-50	23	38	4	10	97	-10	0	-2	0	4	4	2	2	0	4
Hungry_Donkey_bar_English_2	126	1	<?xml version="1.0"?>\n<Clock xmlns:dt="urn:schemas-microsoft-com:datatypes"><Description dt:dt="string">E-Prime Primary Realtime Clock</Description><StartTime><Timestamp dt:dt="int">0</Timestamp><DateUtc dt:dt="string">2015-08-31T21:01:05Z</DateUtc></StartTime><FrequencyChanges><FrequencyChange><Frequency dt:dt="r8">3507734</Frequency><Timestamp dt:dt="r8">1885761177584</Timestamp><Current dt:dt="r8">0</Current><DateUtc dt:dt="string">2015-08-31T21:01:05Z</DateUtc></FrequencyChange></FrequencyChanges></Clock>\n	Hungry_Donkey_bar_English_2-126-1	60.018	-20	1.0.0.18	1	271202765	Standard	2.0.10.353	2.0.10.353	08-31-2015	8/31/2015 9:01:05 PM	17:01:05	2.0.10.248	98	Bar50-50.bmp	52	3	?	0r_4g.bmp	0r_4g.bmp	0r_2g.bmp	0r_2g.bmp			0r_2g.bmp		TrialProc	TrialList	0	cvbn	-999999	16	286169	0	b	73	286242	292	-273	19	6	-50	25	38	7	10	98	0	0	0	0	4	4	2	2	0	2
Hungry_Donkey_bar_English_2	126	1	<?xml version="1.0"?>\n<Clock xmlns:dt="urn:schemas-microsoft-com:datatypes"><Description dt:dt="string">E-Prime Primary Realtime Clock</Description><StartTime><Timestamp dt:dt="int">0</Timestamp><DateUtc dt:dt="string">2015-08-31T21:01:05Z</DateUtc></StartTime><FrequencyChanges><FrequencyChange><Frequency dt:dt="r8">3507734</Frequency><Timestamp dt:dt="r8">1885761177584</Timestamp><Current dt:dt="r8">0</Current><DateUtc dt:dt="string">2015-08-31T21:01:05Z</DateUtc></FrequencyChange></FrequencyChanges></Clock>\n	Hungry_Donkey_bar_English_2-126-1	60.018	-20	1.0.0.18	1	271202765	Standard	2.0.10.353	2.0.10.353	08-31-2015	8/31/2015 9:01:05 PM	17:01:05	2.0.10.248	99	Bar50-50.bmp	51	1	?	12r_4g.bmp	0r_4g.bmp	3r_2g.bmp	0r_2g.bmp	12r_4g.bmp				TrialProc	TrialList	0	cvbn	-999999	16	288268	0	c	358	288626	296	-285	11	-2	-50	25	38	5	10	99	-12	0	-3	0	4	4	2	2	-12	4
Hungry_Donkey_bar_English_2	126	1	<?xml version="1.0"?>\n<Clock xmlns:dt="urn:schemas-microsoft-com:datatypes"><Description dt:dt="string">E-Prime Primary Realtime Clock</Description><StartTime><Timestamp dt:dt="int">0</Timestamp><DateUtc dt:dt="string">2015-08-31T21:01:05Z</DateUtc></StartTime><FrequencyChanges><FrequencyChange><Frequency dt:dt="r8">3507734</Frequency><Timestamp dt:dt="r8">1885761177584</Timestamp><Current dt:dt="r8">0</Current><DateUtc dt:dt="string">2015-08-31T21:01:05Z</DateUtc></FrequencyChange></FrequencyChanges></Clock>\n	Hungry_Donkey_bar_English_2-126-1	60.018	-20	1.0.0.18	1	271202765	Standard	2.0.10.353	2.0.10.353	08-31-2015	8/31/2015 9:01:05 PM	17:01:05	2.0.10.248	100	Bar50-50.bmp	51	4	?	0r_4g.bmp	0r_4g.bmp	0r_2g.bmp	0r_2g.bmp				0r_2g.bmp	TrialProc	TrialList	0	cvbn	-999999	16	290651	0	n	471	291122	298	-285	13	-2	-50	25	40	6	10	100	0	0	0	0	4	4	2	2	0	2
Hungry_Donkey_bar_English_2	126	1	<?xml version="1.0"?>\n<Clock xmlns:dt="urn:schemas-microsoft-com:datatypes"><Description dt:dt="string">E-Prime Primary Realtime Clock</Description><StartTime><Timestamp dt:dt="int">0</Timestamp><DateUtc dt:dt="string">2015-08-31T21:01:05Z</DateUtc></StartTime><FrequencyChanges><FrequencyChange><Frequency dt:dt="r8">3507734</Frequency><Timestamp dt:dt="r8">1885761177584</Timestamp><Current dt:dt="r8">0</Current><DateUtc dt:dt="string">2015-08-31T21:01:05Z</DateUtc></FrequencyChange></FrequencyChanges></Clock>\n	Hungry_Donkey_bar_English_2-126-1	60.018	-20	1.0.0.18	1	271202765	Standard	2.0.10.353	2.0.10.353	08-31-2015	8/31/2015 9:01:05 PM	17:01:05	2.0.10.248	101	Bar50-50.bmp	51	2	?	0r_4g.bmp	0r_4g.bmp	0r_2g.bmp	0r_2g.bmp		0r_4g.bmp			TrialProc	TrialList	0	cvbn	-999999	16	293150	0	v	324	293474	302	-285	17	-2	-46	25	40	10	11	101	0	0	0	0	4	4	2	2	0	4
Hungry_Donkey_bar_English_2	126	1	<?xml version="1.0"?>\n<Clock xmlns:dt="urn:schemas-microsoft-com:datatypes"><Description dt:dt="string">E-Prime Primary Realtime Clock</Description><StartTime><Timestamp dt:dt="int">0</Timestamp><DateUtc dt:dt="string">2015-08-31T21:01:05Z</DateUtc></StartTime><FrequencyChanges><FrequencyChange><Frequency dt:dt="r8">3507734</Frequency><Timestamp dt:dt="r8">1885761177584</Timestamp><Current dt:dt="r8">0</Current><DateUtc dt:dt="string">2015-08-31T21:01:05Z</DateUtc></FrequencyChange></FrequencyChanges></Clock>\n	Hungry_Donkey_bar_English_2-126-1	60.018	-20	1.0.0.18	1	271202765	Standard	2.0.10.353	2.0.10.353	08-31-2015	8/31/2015 9:01:05 PM	17:01:05	2.0.10.248	102	Bar50-50.bmp	52	4	?	10r_4g.bmp	0r_4g.bmp	2r_2g.bmp	0r_2g.bmp				0r_2g.bmp	TrialProc	TrialList	0	cvbn	-999999	16	295499	0	n	455	295954	304	-285	19	-2	-46	25	42	4	11	102	-10	0	-2	0	4	4	2	2	0	2
Hungry_Donkey_bar_English_2	126	1	<?xml version="1.0"?>\n<Clock xmlns:dt="urn:schemas-microsoft-com:datatypes"><Description dt:dt="string">E-Prime Primary Realtime Clock</Description><StartTime><Timestamp dt:dt="int">0</Timestamp><DateUtc dt:dt="string">2015-08-31T21:01:05Z</DateUtc></StartTime><FrequencyChanges><FrequencyChange><Frequency dt:dt="r8">3507734</Frequency><Timestamp dt:dt="r8">1885761177584</Timestamp><Current dt:dt="r8">0</Current><DateUtc dt:dt="string">2015-08-31T21:01:05Z</DateUtc></FrequencyChange></FrequencyChanges></Clock>\n	Hungry_Donkey_bar_English_2-126-1	60.018	-20	1.0.0.18	1	271202765	Standard	2.0.10.353	2.0.10.353	08-31-2015	8/31/2015 9:01:05 PM	17:01:05	2.0.10.248	103	Bar50-50.bmp	52	2	?	0r_4g.bmp	0r_4g.bmp	0r_2g.bmp	0r_2g.bmp		0r_4g.bmp			TrialProc	TrialList	0	cvbn	-999999	16	297982	0	v	4	297986	308	-285	23	-2	-42	25	42	9	11	103	0	0	0	0	4	4	2	2	0	4
Hungry_Donkey_bar_English_2	126	1	<?xml version="1.0"?>\n<Clock xmlns:dt="urn:schemas-microsoft-com:datatypes"><Description dt:dt="string">E-Prime Primary Realtime Clock</Description><StartTime><Timestamp dt:dt="int">0</Timestamp><DateUtc dt:dt="string">2015-08-31T21:01:05Z</DateUtc></StartTime><FrequencyChanges><FrequencyChange><Frequency dt:dt="r8">3507734</Frequency><Timestamp dt:dt="r8">1885761177584</Timestamp><Current dt:dt="r8">0</Current><DateUtc dt:dt="string">2015-08-31T21:01:05Z</DateUtc></FrequencyChange></FrequencyChanges></Clock>\n	Hungry_Donkey_bar_English_2-126-1	60.018	-20	1.0.0.18	1	271202765	Standard	2.0.10.353	2.0.10.353	08-31-2015	8/31/2015 9:01:05 PM	17:01:05	2.0.10.248	104	Bar50-50.bmp	52	1	?	8r_4g.bmp	50r_4g.bmp	1r_2g.bmp	10r_2g.bmp	8r_4g.bmp				TrialProc	TrialList	0	cvbn	-999999	17	300015	0	c	3218	303233	312	-293	19	-6	-42	25	42	1	11	104	-8	-50	-1	-10	4	4	2	2	-8	4
Hungry_Donkey_bar_English_2	126	1	<?xml version="1.0"?>\n<Clock xmlns:dt="urn:schemas-microsoft-com:datatypes"><Description dt:dt="string">E-Prime Primary Realtime Clock</Description><StartTime><Timestamp dt:dt="int">0</Timestamp><DateUtc dt:dt="string">2015-08-31T21:01:05Z</DateUtc></StartTime><FrequencyChanges><FrequencyChange><Frequency dt:dt="r8">3507734</Frequency><Timestamp dt:dt="r8">1885761177584</Timestamp><Current dt:dt="r8">0</Current><DateUtc dt:dt="string">2015-08-31T21:01:05Z</DateUtc></FrequencyChange></FrequencyChanges></Clock>\n	Hungry_Donkey_bar_English_2-126-1	60.018	-20	1.0.0.18	1	271202765	Standard	2.0.10.353	2.0.10.353	08-31-2015	8/31/2015 9:01:05 PM	17:01:05	2.0.10.248	105	Bar50-50.bmp	52	4	?	12r_4g.bmp	0r_4g.bmp	3r_2g.bmp	0r_2g.bmp				0r_2g.bmp	TrialProc	TrialList	0	cvbn	-999999	16	305263	0	n	546	305809	314	-293	21	-6	-42	25	44	5	11	105	-12	0	-3	0	4	4	2	2	0	2
Hungry_Donkey_bar_English_2	126	1	<?xml version="1.0"?>\n<Clock xmlns:dt="urn:schemas-microsoft-com:datatypes"><Description dt:dt="string">E-Prime Primary Realtime Clock</Description><StartTime><Timestamp dt:dt="int">0</Timestamp><DateUtc dt:dt="string">2015-08-31T21:01:05Z</DateUtc></StartTime><FrequencyChanges><FrequencyChange><Frequency dt:dt="r8">3507734</Frequency><Timestamp dt:dt="r8">1885761177584</Timestamp><Current dt:dt="r8">0</Current><DateUtc dt:dt="string">2015-08-31T21:01:05Z</DateUtc></FrequencyChange></FrequencyChanges></Clock>\n	Hungry_Donkey_bar_English_2-126-1	60.018	-20	1.0.0.18	1	271202765	Standard	2.0.10.353	2.0.10.353	08-31-2015	8/31/2015 9:01:05 PM	17:01:05	2.0.10.248	106	Bar50-50.bmp	52	2	?	0r_4g.bmp	0r_4g.bmp	0r_2g.bmp	0r_2g.bmp		0r_4g.bmp			TrialProc	TrialList	0	cvbn	-999999	16	307845	0	v	380	308225	318	-293	25	-6	-38	25	44	6	11	106	0	0	0	0	4	4	2	2	0	4
Hungry_Donkey_bar_English_2	126	1	<?xml version="1.0"?>\n<Clock xmlns:dt="urn:schemas-microsoft-com:datatypes"><Description dt:dt="string">E-Prime Primary Realtime Clock</Description><StartTime><Timestamp dt:dt="int">0</Timestamp><DateUtc dt:dt="string">2015-08-31T21:01:05Z</DateUtc></StartTime><FrequencyChanges><FrequencyChange><Frequency dt:dt="r8">3507734</Frequency><Timestamp dt:dt="r8">1885761177584</Timestamp><Current dt:dt="r8">0</Current><DateUtc dt:dt="string">2015-08-31T21:01:05Z</DateUtc></FrequencyChange></FrequencyChanges></Clock>\n	Hungry_Donkey_bar_English_2-126-1	60.018	-20	1.0.0.18	1	271202765	Standard	2.0.10.353	2.0.10.353	08-31-2015	8/31/2015 9:01:05 PM	17:01:05	2.0.10.248	107	Bar50-50.bmp	52	3	?	10r_4g.bmp	0r_4g.bmp	2r_2g.bmp	0r_2g.bmp			2r_2g.bmp		TrialProc	TrialList	0	cvbn	-999999	16	310261	0	b	508	310769	320	-295	25	-6	-38	25	44	3	11	107	-10	0	-2	0	4	4	2	2	-2	2
Hungry_Donkey_bar_English_2	126	1	<?xml version="1.0"?>\n<Clock xmlns:dt="urn:schemas-microsoft-com:datatypes"><Description dt:dt="string">E-Prime Primary Realtime Clock</Description><StartTime><Timestamp dt:dt="int">0</Timestamp><DateUtc dt:dt="string">2015-08-31T21:01:05Z</DateUtc></StartTime><FrequencyChanges><FrequencyChange><Frequency dt:dt="r8">3507734</Frequency><Timestamp dt:dt="r8">1885761177584</Timestamp><Current dt:dt="r8">0</Current><DateUtc dt:dt="string">2015-08-31T21:01:05Z</DateUtc></FrequencyChange></FrequencyChanges></Clock>\n	Hungry_Donkey_bar_English_2-126-1	60.018	-20	1.0.0.18	1	271202765	Standard	2.0.10.353	2.0.10.353	08-31-2015	8/31/2015 9:01:05 PM	17:01:05	2.0.10.248	108	Bar50-50.bmp	52	1	?	0r_4g.bmp	0r_4g.bmp	0r_2g.bmp	0r_2g.bmp	0r_4g.bmp				TrialProc	TrialList	0	cvbn	-999999	16	312794	0	c	743	313537	324	-295	29	-2	-38	25	44	8	11	108	0	0	0	0	4	4	2	2	0	4
Hungry_Donkey_bar_English_2	126	1	<?xml version="1.0"?>\n<Clock xmlns:dt="urn:schemas-microsoft-com:datatypes"><Description dt:dt="string">E-Prime Primary Realtime Clock</Description><StartTime><Timestamp dt:dt="int">0</Timestamp><DateUtc dt:dt="string">2015-08-31T21:01:05Z</DateUtc></StartTime><FrequencyChanges><FrequencyChange><Frequency dt:dt="r8">3507734</Frequency><Timestamp dt:dt="r8">1885761177584</Timestamp><Current dt:dt="r8">0</Current><DateUtc dt:dt="string">2015-08-31T21:01:05Z</DateUtc></FrequencyChange></FrequencyChanges></Clock>\n	Hungry_Donkey_bar_English_2-126-1	60.018	-20	1.0.0.18	1	271202765	Standard	2.0.10.353	2.0.10.353	08-31-2015	8/31/2015 9:01:05 PM	17:01:05	2.0.10.248	109	Bar50-50.bmp	52	4	?	10r_4g.bmp	0r_4g.bmp	2r_2g.bmp	0r_2g.bmp				0r_2g.bmp	TrialProc	TrialList	0	cvbn	-999999	16	315576	0	n	856	316432	326	-295	31	-2	-38	25	46	2	11	109	-10	0	-2	0	4	4	2	2	0	2
Hungry_Donkey_bar_English_2	126	1	<?xml version="1.0"?>\n<Clock xmlns:dt="urn:schemas-microsoft-com:datatypes"><Description dt:dt="string">E-Prime Primary Realtime Clock</Description><StartTime><Timestamp dt:dt="int">0</Timestamp><DateUtc dt:dt="string">2015-08-31T21:01:05Z</DateUtc></StartTime><FrequencyChanges><FrequencyChange><Frequency dt:dt="r8">3507734</Frequency><Timestamp dt:dt="r8">1885761177584</Timestamp><Current dt:dt="r8">0</Current><DateUtc dt:dt="string">2015-08-31T21:01:05Z</DateUtc></FrequencyChange></FrequencyChanges></Clock>\n	Hungry_Donkey_bar_English_2-126-1	60.018	-20	1.0.0.18	1	271202765	Standard	2.0.10.353	2.0.10.353	08-31-2015	8/31/2015 9:01:05 PM	17:01:05	2.0.10.248	110	Bar50-50.bmp	53	2	?	0r_4g.bmp	0r_4g.bmp	0r_2g.bmp	0r_2g.bmp		0r_4g.bmp			TrialProc	TrialList	0	cvbn	-999999	16	318459	0	v	421	318880	330	-295	35	-2	-34	25	46	7	11	110	0	0	0	0	4	4	2	2	0	4
Hungry_Donkey_bar_English_2	126	1	<?xml version="1.0"?>\n<Clock xmlns:dt="urn:schemas-microsoft-com:datatypes"><Description dt:dt="string">E-Prime Primary Realtime Clock</Description><StartTime><Timestamp dt:dt="int">0</Timestamp><DateUtc dt:dt="string">2015-08-31T21:01:05Z</DateUtc></StartTime><FrequencyChanges><FrequencyChange><Frequency dt:dt="r8">3507734</Frequency><Timestamp dt:dt="r8">1885761177584</Timestamp><Current dt:dt="r8">0</Current><DateUtc dt:dt="string">2015-08-31T21:01:05Z</DateUtc></FrequencyChange></FrequencyChanges></Clock>\n	Hungry_Donkey_bar_English_2-126-1	60.018	-20	1.0.0.18	1	271202765	Standard	2.0.10.353	2.0.10.353	08-31-2015	8/31/2015 9:01:05 PM	17:01:05	2.0.10.248	111	Bar50-50.bmp	53	3	?	10r_4g.bmp	0r_4g.bmp	2r_2g.bmp	0r_2g.bmp			2r_2g.bmp		TrialProc	TrialList	0	cvbn	-999999	16	320908	0	b	628	321536	332	-297	35	-2	-34	25	46	3	12	111	-10	0	-2	0	4	4	2	2	-2	2
