ExperimentName	Subject	Session	Clock.Information	DataFile.Basename	Display.RefreshRate	Eindtotaal[Session]	ExperimentVersion	Group	RandomSeed	RuntimeCapabilities	RuntimeVersion	RuntimeVersionExpected	SessionDate	SessionStartDateTimeUtc	SessionTime	StudioVersion	Block	BarImage	BarTotalWinst	DoorChoice	Eindtotaal[Block]	FBDoor1	FBDoor2	FBDoor3	FBDoor4	Image1	Image2	Image3	Image4	Procedure	Running	spel.ACC	spel.CRESP	spel.DurationError	spel.OnsetDelay	spel.OnsetTime	spel.OnsetToOnsetTime	spel.RESP	spel.RT	spel.RTTime	TotalGain	TotalLose	Totalsum	TotalsumD1	TotalsumD2	TotalsumD3	TotalsumD4	TrialList	TrialList.Cycle	TrialList.Sample	varV1	varV2	varV3	varV4	varW1	varW2	varW3	varW4	Verliesbedrag	Winstbedrag
Hungry_Donkey_bar_English_2	125	1	<?xml version="1.0"?>\n<Clock xmlns:dt="urn:schemas-microsoft-com:datatypes"><Description dt:dt="string">E-Prime Primary Realtime Clock</Description><StartTime><Timestamp dt:dt="int">0</Timestamp><DateUtc dt:dt="string">2015-07-27T21:30:09Z</DateUtc></StartTime><FrequencyChanges><FrequencyChange><Frequency dt:dt="r8">3507695</Frequency><Timestamp dt:dt="r8">1539462110288</Timestamp><Current dt:dt="r8">0</Current><DateUtc dt:dt="string">2015-07-27T21:30:09Z</DateUtc></FrequencyChange></FrequencyChanges></Clock>\n	Hungry_Donkey_bar_English_2-125-1	60.018	76	1.0.0.18	1	1864529620	Standard	2.0.10.353	2.0.10.353	07-27-2015	7/27/2015 9:30:09 PM	17:30:09	2.0.10.248	1	Bar13-87.bmp	7	2	?	8r_4g.bmp	50r_4g.bmp	1r_2g.bmp	10r_2g.bmp		50r_4g.bmp			TrialProc	TrialList	0	cvbn	-999999	27	57243	0	v	2773	60016	4	-50	-46	0	-46	0	0	1	1	1	-8	-50	-1	-10	4	4	2	2	-50	4
Hungry_Donkey_bar_English_2	125	1	<?xml version="1.0"?>\n<Clock xmlns:dt="urn:schemas-microsoft-com:datatypes"><Description dt:dt="string">E-Prime Primary Realtime Clock</Description><StartTime><Timestamp dt:dt="int">0</Timestamp><DateUtc dt:dt="string">2015-07-27T21:30:09Z</DateUtc></StartTime><FrequencyChanges><FrequencyChange><Frequency dt:dt="r8">3507695</Frequency><Timestamp dt:dt="r8">1539462110288</Timestamp><Current dt:dt="r8">0</Current><DateUtc dt:dt="string">2015-07-27T21:30:09Z</DateUtc></FrequencyChange></FrequencyChanges></Clock>\n	Hungry_Donkey_bar_English_2-125-1	60.018	76	1.0.0.18	1	1864529620	Standard	2.0.10.353	2.0.10.353	07-27-2015	7/27/2015 9:30:09 PM	17:30:09	2.0.10.248	2	Bar13-87.bmp	14	2	?	0r_4g.bmp	0r_4g.bmp	0r_2g.bmp	0r_2g.bmp		0r_4g.bmp			TrialProc	TrialList	0	cvbn	-999999	16	62059	0	v	2101	64160	8	-50	-42	0	-42	0	0	9	1	2	0	0	0	0	4	4	2	2	0	4
Hungry_Donkey_bar_English_2	125	1	<?xml version="1.0"?>\n<Clock xmlns:dt="urn:schemas-microsoft-com:datatypes"><Description dt:dt="string">E-Prime Primary Realtime Clock</Description><StartTime><Timestamp dt:dt="int">0</Timestamp><DateUtc dt:dt="string">2015-07-27T21:30:09Z</DateUtc></StartTime><FrequencyChanges><FrequencyChange><Frequency dt:dt="r8">3507695</Frequency><Timestamp dt:dt="r8">1539462110288</Timestamp><Current dt:dt="r8">0</Current><DateUtc dt:dt="string">2015-07-27T21:30:09Z</DateUtc></FrequencyChange></FrequencyChanges></Clock>\n	Hungry_Donkey_bar_English_2-125-1	60.018	76	1.0.0.18	1	1864529620	Standard	2.0.10.353	2.0.10.353	07-27-2015	7/27/2015 9:30:09 PM	17:30:09	2.0.10.248	3	Bar13-87.bmp	19	1	?	0r_4g.bmp	0r_4g.bmp	0r_2g.bmp	0r_2g.bmp	0r_4g.bmp				TrialProc	TrialList	0	cvbn	-999999	16	66191	0	c	1121	67312	12	-50	-38	4	-42	0	0	10	1	3	0	0	0	0	4	4	2	2	0	4
Hungry_Donkey_bar_English_2	125	1	<?xml version="1.0"?>\n<Clock xmlns:dt="urn:schemas-microsoft-com:datatypes"><Description dt:dt="string">E-Prime Primary Realtime Clock</Description><StartTime><Timestamp dt:dt="int">0</Timestamp><DateUtc dt:dt="string">2015-07-27T21:30:09Z</DateUtc></StartTime><FrequencyChanges><FrequencyChange><Frequency dt:dt="r8">3507695</Frequency><Timestamp dt:dt="r8">1539462110288</Timestamp><Current dt:dt="r8">0</Current><DateUtc dt:dt="string">2015-07-27T21:30:09Z</DateUtc></FrequencyChange></FrequencyChanges></Clock>\n	Hungry_Donkey_bar_English_2-125-1	60.018	76	1.0.0.18	1	1864529620	Standard	2.0.10.353	2.0.10.353	07-27-2015	7/27/2015 9:30:09 PM	17:30:09	2.0.10.248	4	Bar25-75.bmp	22	4	?	0r_4g.bmp	0r_4g.bmp	0r_2g.bmp	0r_2g.bmp				0r_2g.bmp	TrialProc	TrialList	0	cvbn	-999999	16	69340	0	n	739	70079	14	-50	-36	4	-42	0	2	8	1	4	0	0	0	0	4	4	2	2	0	2
Hungry_Donkey_bar_English_2	125	1	<?xml version="1.0"?>\n<Clock xmlns:dt="urn:schemas-microsoft-com:datatypes"><Description dt:dt="string">E-Prime Primary Realtime Clock</Description><StartTime><Timestamp dt:dt="int">0</Timestamp><DateUtc dt:dt="string">2015-07-27T21:30:09Z</DateUtc></StartTime><FrequencyChanges><FrequencyChange><Frequency dt:dt="r8">3507695</Frequency><Timestamp dt:dt="r8">1539462110288</Timestamp><Current dt:dt="r8">0</Current><DateUtc dt:dt="string">2015-07-27T21:30:09Z</DateUtc></FrequencyChange></FrequencyChanges></Clock>\n	Hungry_Donkey_bar_English_2-125-1	60.018	76	1.0.0.18	1	1864529620	Standard	2.0.10.353	2.0.10.353	07-27-2015	7/27/2015 9:30:09 PM	17:30:09	2.0.10.248	5	Bar25-75.bmp	24	3	?	10r_4g.bmp	0r_4g.bmp	2r_2g.bmp	0r_2g.bmp			2r_2g.bmp		TrialProc	TrialList	0	cvbn	-999999	16	72122	0	b	405	72527	16	-52	-36	4	-42	0	2	3	1	5	-10	0	-2	0	4	4	2	2	-2	2
Hungry_Donkey_bar_English_2	125	1	<?xml version="1.0"?>\n<Clock xmlns:dt="urn:schemas-microsoft-com:datatypes"><Description dt:dt="string">E-Prime Primary Realtime Clock</Description><StartTime><Timestamp dt:dt="int">0</Timestamp><DateUtc dt:dt="string">2015-07-27T21:30:09Z</DateUtc></StartTime><FrequencyChanges><FrequencyChange><Frequency dt:dt="r8">3507695</Frequency><Timestamp dt:dt="r8">1539462110288</Timestamp><Current dt:dt="r8">0</Current><DateUtc dt:dt="string">2015-07-27T21:30:09Z</DateUtc></FrequencyChange></FrequencyChanges></Clock>\n	Hungry_Donkey_bar_English_2-125-1	60.018	76	1.0.0.18	1	1864529620	Standard	2.0.10.353	2.0.10.353	07-27-2015	7/27/2015 9:30:09 PM	17:30:09	2.0.10.248	6	Bar25-75.bmp	28	2	?	12r_4g.bmp	0r_4g.bmp	3r_2g.bmp	0r_2g.bmp		0r_4g.bmp			TrialProc	TrialList	0	cvbn	-999999	16	74572	0	v	531	75103	20	-52	-32	4	-38	0	2	5	1	6	-12	0	-3	0	4	4	2	2	0	4
Hungry_Donkey_bar_English_2	125	1	<?xml version="1.0"?>\n<Clock xmlns:dt="urn:schemas-microsoft-com:datatypes"><Description dt:dt="string">E-Prime Primary Realtime Clock</Description><StartTime><Timestamp dt:dt="int">0</Timestamp><DateUtc dt:dt="string">2015-07-27T21:30:09Z</DateUtc></StartTime><FrequencyChanges><FrequencyChange><Frequency dt:dt="r8">3507695</Frequency><Timestamp dt:dt="r8">1539462110288</Timestamp><Current dt:dt="r8">0</Current><DateUtc dt:dt="string">2015-07-27T21:30:09Z</DateUtc></FrequencyChange></FrequencyChanges></Clock>\n	Hungry_Donkey_bar_English_2-125-1	60.018	76	1.0.0.18	1	1864529620	Standard	2.0.10.353	2.0.10.353	07-27-2015	7/27/2015 9:30:09 PM	17:30:09	2.0.10.248	7	Bar25-75.bmp	28	1	?	10r_4g.bmp	0r_4g.bmp	2r_2g.bmp	0r_2g.bmp	10r_4g.bmp				TrialProc	TrialList	0	cvbn	-999999	17	77138	0	c	253	77391	24	-62	-38	-2	-38	0	2	4	1	7	-10	0	-2	0	4	4	2	2	-10	4
Hungry_Donkey_bar_English_2	125	1	<?xml version="1.0"?>\n<Clock xmlns:dt="urn:schemas-microsoft-com:datatypes"><Description dt:dt="string">E-Prime Primary Realtime Clock</Description><StartTime><Timestamp dt:dt="int">0</Timestamp><DateUtc dt:dt="string">2015-07-27T21:30:09Z</DateUtc></StartTime><FrequencyChanges><FrequencyChange><Frequency dt:dt="r8">3507695</Frequency><Timestamp dt:dt="r8">1539462110288</Timestamp><Current dt:dt="r8">0</Current><DateUtc dt:dt="string">2015-07-27T21:30:09Z</DateUtc></FrequencyChange></FrequencyChanges></Clock>\n	Hungry_Donkey_bar_English_2-125-1	60.018	76	1.0.0.18	1	1864529620	Standard	2.0.10.353	2.0.10.353	07-27-2015	7/27/2015 9:30:09 PM	17:30:09	2.0.10.248	8	Bar25-75.bmp	29	3	?	10r_4g.bmp	0r_4g.bmp	2r_2g.bmp	0r_2g.bmp			2r_2g.bmp		TrialProc	TrialList	0	cvbn	-999999	16	79420	0	b	547	79967	26	-64	-38	-2	-38	0	2	2	1	8	-10	0	-2	0	4	4	2	2	-2	2
Hungry_Donkey_bar_English_2	125	1	<?xml version="1.0"?>\n<Clock xmlns:dt="urn:schemas-microsoft-com:datatypes"><Description dt:dt="string">E-Prime Primary Realtime Clock</Description><StartTime><Timestamp dt:dt="int">0</Timestamp><DateUtc dt:dt="string">2015-07-27T21:30:09Z</DateUtc></StartTime><FrequencyChanges><FrequencyChange><Frequency dt:dt="r8">3507695</Frequency><Timestamp dt:dt="r8">1539462110288</Timestamp><Current dt:dt="r8">0</Current><DateUtc dt:dt="string">2015-07-27T21:30:09Z</DateUtc></FrequencyChange></FrequencyChanges></Clock>\n	Hungry_Donkey_bar_English_2-125-1	60.018	76	1.0.0.18	1	1864529620	Standard	2.0.10.353	2.0.10.353	07-27-2015	7/27/2015 9:30:09 PM	17:30:09	2.0.10.248	9	Bar25-75.bmp	30	4	?	0r_4g.bmp	0r_4g.bmp	0r_2g.bmp	0r_2g.bmp				0r_2g.bmp	TrialProc	TrialList	0	cvbn	-999999	16	82003	0	n	460	82463	28	-64	-36	-2	-38	0	4	6	1	9	0	0	0	0	4	4	2	2	0	2
Hungry_Donkey_bar_English_2	125	1	<?xml version="1.0"?>\n<Clock xmlns:dt="urn:schemas-microsoft-com:datatypes"><Description dt:dt="string">E-Prime Primary Realtime Clock</Description><StartTime><Timestamp dt:dt="int">0</Timestamp><DateUtc dt:dt="string">2015-07-27T21:30:09Z</DateUtc></StartTime><FrequencyChanges><FrequencyChange><Frequency dt:dt="r8">3507695</Frequency><Timestamp dt:dt="r8">1539462110288</Timestamp><Current dt:dt="r8">0</Current><DateUtc dt:dt="string">2015-07-27T21:30:09Z</DateUtc></FrequencyChange></FrequencyChanges></Clock>\n	Hungry_Donkey_bar_English_2-125-1	60.018	76	1.0.0.18	1	1864529620	Standard	2.0.10.353	2.0.10.353	07-27-2015	7/27/2015 9:30:09 PM	17:30:09	2.0.10.248	10	Bar37-63.bmp	33	1	?	0r_4g.bmp	0r_4g.bmp	0r_2g.bmp	0r_2g.bmp	0r_4g.bmp				TrialProc	TrialList	0	cvbn	-999999	16	84502	0	c	441	84943	32	-64	-32	2	-38	0	4	7	1	10	0	0	0	0	4	4	2	2	0	4
Hungry_Donkey_bar_English_2	125	1	<?xml version="1.0"?>\n<Clock xmlns:dt="urn:schemas-microsoft-com:datatypes"><Description dt:dt="string">E-Prime Primary Realtime Clock</Description><StartTime><Timestamp dt:dt="int">0</Timestamp><DateUtc dt:dt="string">2015-07-27T21:30:09Z</DateUtc></StartTime><FrequencyChanges><FrequencyChange><Frequency dt:dt="r8">3507695</Frequency><Timestamp dt:dt="r8">1539462110288</Timestamp><Current dt:dt="r8">0</Current><DateUtc dt:dt="string">2015-07-27T21:30:09Z</DateUtc></FrequencyChange></FrequencyChanges></Clock>\n	Hungry_Donkey_bar_English_2-125-1	60.018	76	1.0.0.18	1	1864529620	Standard	2.0.10.353	2.0.10.353	07-27-2015	7/27/2015 9:30:09 PM	17:30:09	2.0.10.248	11	Bar37-63.bmp	36	2	?	10r_4g.bmp	0r_4g.bmp	2r_2g.bmp	0r_2g.bmp		0r_4g.bmp			TrialProc	TrialList	0	cvbn	-999999	16	86985	0	v	214	87199	36	-64	-28	2	-34	0	4	3	2	11	-10	0	-2	0	4	4	2	2	0	4
Hungry_Donkey_bar_English_2	125	1	<?xml version="1.0"?>\n<Clock xmlns:dt="urn:schemas-microsoft-com:datatypes"><Description dt:dt="string">E-Prime Primary Realtime Clock</Description><StartTime><Timestamp dt:dt="int">0</Timestamp><DateUtc dt:dt="string">2015-07-27T21:30:09Z</DateUtc></StartTime><FrequencyChanges><FrequencyChange><Frequency dt:dt="r8">3507695</Frequency><Timestamp dt:dt="r8">1539462110288</Timestamp><Current dt:dt="r8">0</Current><DateUtc dt:dt="string">2015-07-27T21:30:09Z</DateUtc></FrequencyChange></FrequencyChanges></Clock>\n	Hungry_Donkey_bar_English_2-125-1	60.018	76	1.0.0.18	1	1864529620	Standard	2.0.10.353	2.0.10.353	07-27-2015	7/27/2015 9:30:09 PM	17:30:09	2.0.10.248	12	Bar37-63.bmp	37	3	?	8r_4g.bmp	50r_4g.bmp	1r_2g.bmp	10r_2g.bmp			1r_2g.bmp		TrialProc	TrialList	0	cvbn	-999999	16	89234	0	b	332	89566	38	-65	-27	2	-34	1	4	1	2	12	-8	-50	-1	-10	4	4	2	2	-1	2
Hungry_Donkey_bar_English_2	125	1	<?xml version="1.0"?>\n<Clock xmlns:dt="urn:schemas-microsoft-com:datatypes"><Description dt:dt="string">E-Prime Primary Realtime Clock</Description><StartTime><Timestamp dt:dt="int">0</Timestamp><DateUtc dt:dt="string">2015-07-27T21:30:09Z</DateUtc></StartTime><FrequencyChanges><FrequencyChange><Frequency dt:dt="r8">3507695</Frequency><Timestamp dt:dt="r8">1539462110288</Timestamp><Current dt:dt="r8">0</Current><DateUtc dt:dt="string">2015-07-27T21:30:09Z</DateUtc></FrequencyChange></FrequencyChanges></Clock>\n	Hungry_Donkey_bar_English_2-125-1	60.018	76	1.0.0.18	1	1864529620	Standard	2.0.10.353	2.0.10.353	07-27-2015	7/27/2015 9:30:09 PM	17:30:09	2.0.10.248	13	Bar37-63.bmp	39	1	?	0r_4g.bmp	0r_4g.bmp	0r_2g.bmp	0r_2g.bmp	0r_4g.bmp				TrialProc	TrialList	0	cvbn	-999999	16	91600	0	c	414	92014	42	-65	-23	6	-34	1	4	6	2	13	0	0	0	0	4	4	2	2	0	4
Hungry_Donkey_bar_English_2	125	1	<?xml version="1.0"?>\n<Clock xmlns:dt="urn:schemas-microsoft-com:datatypes"><Description dt:dt="string">E-Prime Primary Realtime Clock</Description><StartTime><Timestamp dt:dt="int">0</Timestamp><DateUtc dt:dt="string">2015-07-27T21:30:09Z</DateUtc></StartTime><FrequencyChanges><FrequencyChange><Frequency dt:dt="r8">3507695</Frequency><Timestamp dt:dt="r8">1539462110288</Timestamp><Current dt:dt="r8">0</Current><DateUtc dt:dt="string">2015-07-27T21:30:09Z</DateUtc></FrequencyChange></FrequencyChanges></Clock>\n	Hungry_Donkey_bar_English_2-125-1	60.018	76	1.0.0.18	1	1864529620	Standard	2.0.10.353	2.0.10.353	07-27-2015	7/27/2015 9:30:09 PM	17:30:09	2.0.10.248	14	Bar37-63.bmp	41	2	?	0r_4g.bmp	0r_4g.bmp	0r_2g.bmp	0r_2g.bmp		0r_4g.bmp			TrialProc	TrialList	0	cvbn	-999999	16	94049	0	v	429	94478	46	-65	-19	6	-30	1	4	8	2	14	0	0	0	0	4	4	2	2	0	4
Hungry_Donkey_bar_English_2	125	1	<?xml version="1.0"?>\n<Clock xmlns:dt="urn:schemas-microsoft-com:datatypes"><Description dt:dt="string">E-Prime Primary Realtime Clock</Description><StartTime><Timestamp dt:dt="int">0</Timestamp><DateUtc dt:dt="string">2015-07-27T21:30:09Z</DateUtc></StartTime><FrequencyChanges><FrequencyChange><Frequency dt:dt="r8">3507695</Frequency><Timestamp dt:dt="r8">1539462110288</Timestamp><Current dt:dt="r8">0</Current><DateUtc dt:dt="string">2015-07-27T21:30:09Z</DateUtc></FrequencyChange></FrequencyChanges></Clock>\n	Hungry_Donkey_bar_English_2-125-1	60.018	76	1.0.0.18	1	1864529620	Standard	2.0.10.353	2.0.10.353	07-27-2015	7/27/2015 9:30:09 PM	17:30:09	2.0.10.248	15	Bar37-63.bmp	42	3	?	0r_4g.bmp	0r_4g.bmp	0r_2g.bmp	0r_2g.bmp			0r_2g.bmp		TrialProc	TrialList	0	cvbn	-999999	16	96515	0	b	251	96766	48	-65	-17	6	-30	3	4	10	2	15	0	0	0	0	4	4	2	2	0	2
Hungry_Donkey_bar_English_2	125	1	<?xml version="1.0"?>\n<Clock xmlns:dt="urn:schemas-microsoft-com:datatypes"><Description dt:dt="string">E-Prime Primary Realtime Clock</Description><StartTime><Timestamp dt:dt="int">0</Timestamp><DateUtc dt:dt="string">2015-07-27T21:30:09Z</DateUtc></StartTime><FrequencyChanges><FrequencyChange><Frequency dt:dt="r8">3507695</Frequency><Timestamp dt:dt="r8">1539462110288</Timestamp><Current dt:dt="r8">0</Current><DateUtc dt:dt="string">2015-07-27T21:30:09Z</DateUtc></FrequencyChange></FrequencyChanges></Clock>\n	Hungry_Donkey_bar_English_2-125-1	60.018	76	1.0.0.18	1	1864529620	Standard	2.0.10.353	2.0.10.353	07-27-2015	7/27/2015 9:30:09 PM	17:30:09	2.0.10.248	16	Bar50-50.bmp	44	2	?	0r_4g.bmp	0r_4g.bmp	0r_2g.bmp	0r_2g.bmp		0r_4g.bmp			TrialProc	TrialList	0	cvbn	-999999	16	98798	0	v	272	99070	52	-65	-13	6	-26	3	4	7	2	16	0	0	0	0	4	4	2	2	0	4
Hungry_Donkey_bar_English_2	125	1	<?xml version="1.0"?>\n<Clock xmlns:dt="urn:schemas-microsoft-com:datatypes"><Description dt:dt="string">E-Prime Primary Realtime Clock</Description><StartTime><Timestamp dt:dt="int">0</Timestamp><DateUtc dt:dt="string">2015-07-27T21:30:09Z</DateUtc></StartTime><FrequencyChanges><FrequencyChange><Frequency dt:dt="r8">3507695</Frequency><Timestamp dt:dt="r8">1539462110288</Timestamp><Current dt:dt="r8">0</Current><DateUtc dt:dt="string">2015-07-27T21:30:09Z</DateUtc></FrequencyChange></FrequencyChanges></Clock>\n	Hungry_Donkey_bar_English_2-125-1	60.018	76	1.0.0.18	1	1864529620	Standard	2.0.10.353	2.0.10.353	07-27-2015	7/27/2015 9:30:09 PM	17:30:09	2.0.10.248	17	Bar37-63.bmp	43	1	?	10r_4g.bmp	0r_4g.bmp	2r_2g.bmp	0r_2g.bmp	10r_4g.bmp				TrialProc	TrialList	0	cvbn	-999999	16	101114	0	c	276	101390	56	-75	-19	0	-26	3	4	4	2	17	-10	0	-2	0	4	4	2	2	-10	4
Hungry_Donkey_bar_English_2	125	1	<?xml version="1.0"?>\n<Clock xmlns:dt="urn:schemas-microsoft-com:datatypes"><Description dt:dt="string">E-Prime Primary Realtime Clock</Description><StartTime><Timestamp dt:dt="int">0</Timestamp><DateUtc dt:dt="string">2015-07-27T21:30:09Z</DateUtc></StartTime><FrequencyChanges><FrequencyChange><Frequency dt:dt="r8">3507695</Frequency><Timestamp dt:dt="r8">1539462110288</Timestamp><Current dt:dt="r8">0</Current><DateUtc dt:dt="string">2015-07-27T21:30:09Z</DateUtc></FrequencyChange></FrequencyChanges></Clock>\n	Hungry_Donkey_bar_English_2-125-1	60.018	76	1.0.0.18	1	1864529620	Standard	2.0.10.353	2.0.10.353	07-27-2015	7/27/2015 9:30:09 PM	17:30:09	2.0.10.248	18	Bar50-50.bmp	44	2	?	10r_4g.bmp	0r_4g.bmp	2r_2g.bmp	0r_2g.bmp		0r_4g.bmp			TrialProc	TrialList	0	cvbn	-999999	16	103430	0	v	344	103774	60	-75	-15	0	-22	3	4	2	2	18	-10	0	-2	0	4	4	2	2	0	4
Hungry_Donkey_bar_English_2	125	1	<?xml version="1.0"?>\n<Clock xmlns:dt="urn:schemas-microsoft-com:datatypes"><Description dt:dt="string">E-Prime Primary Realtime Clock</Description><StartTime><Timestamp dt:dt="int">0</Timestamp><DateUtc dt:dt="string">2015-07-27T21:30:09Z</DateUtc></StartTime><FrequencyChanges><FrequencyChange><Frequency dt:dt="r8">3507695</Frequency><Timestamp dt:dt="r8">1539462110288</Timestamp><Current dt:dt="r8">0</Current><DateUtc dt:dt="string">2015-07-27T21:30:09Z</DateUtc></FrequencyChange></FrequencyChanges></Clock>\n	Hungry_Donkey_bar_English_2-125-1	60.018	76	1.0.0.18	1	1864529620	Standard	2.0.10.353	2.0.10.353	07-27-2015	7/27/2015 9:30:09 PM	17:30:09	2.0.10.248	19	Bar50-50.bmp	45	4	?	12r_4g.bmp	0r_4g.bmp	3r_2g.bmp	0r_2g.bmp				0r_2g.bmp	TrialProc	TrialList	0	cvbn	-999999	16	105796	0	n	1353	107149	62	-75	-13	0	-22	3	6	5	2	19	-12	0	-3	0	4	4	2	2	0	2
Hungry_Donkey_bar_English_2	125	1	<?xml version="1.0"?>\n<Clock xmlns:dt="urn:schemas-microsoft-com:datatypes"><Description dt:dt="string">E-Prime Primary Realtime Clock</Description><StartTime><Timestamp dt:dt="int">0</Timestamp><DateUtc dt:dt="string">2015-07-27T21:30:09Z</DateUtc></StartTime><FrequencyChanges><FrequencyChange><Frequency dt:dt="r8">3507695</Frequency><Timestamp dt:dt="r8">1539462110288</Timestamp><Current dt:dt="r8">0</Current><DateUtc dt:dt="string">2015-07-27T21:30:09Z</DateUtc></FrequencyChange></FrequencyChanges></Clock>\n	Hungry_Donkey_bar_English_2-125-1	60.018	76	1.0.0.18	1	1864529620	Standard	2.0.10.353	2.0.10.353	07-27-2015	7/27/2015 9:30:09 PM	17:30:09	2.0.10.248	20	Bar50-50.bmp	46	4	?	0r_4g.bmp	0r_4g.bmp	0r_2g.bmp	0r_2g.bmp				0r_2g.bmp	TrialProc	TrialList	0	cvbn	-999999	16	109178	0	n	275	109453	64	-75	-11	0	-22	3	8	9	2	20	0	0	0	0	4	4	2	2	0	2
Hungry_Donkey_bar_English_2	125	1	<?xml version="1.0"?>\n<Clock xmlns:dt="urn:schemas-microsoft-com:datatypes"><Description dt:dt="string">E-Prime Primary Realtime Clock</Description><StartTime><Timestamp dt:dt="int">0</Timestamp><DateUtc dt:dt="string">2015-07-27T21:30:09Z</DateUtc></StartTime><FrequencyChanges><FrequencyChange><Frequency dt:dt="r8">3507695</Frequency><Timestamp dt:dt="r8">1539462110288</Timestamp><Current dt:dt="r8">0</Current><DateUtc dt:dt="string">2015-07-27T21:30:09Z</DateUtc></FrequencyChange></FrequencyChanges></Clock>\n	Hungry_Donkey_bar_English_2-125-1	60.018	76	1.0.0.18	1	1864529620	Standard	2.0.10.353	2.0.10.353	07-27-2015	7/27/2015 9:30:09 PM	17:30:09	2.0.10.248	21	Bar50-50.bmp	47	4	?	10r_4g.bmp	0r_4g.bmp	2r_2g.bmp	0r_2g.bmp				0r_2g.bmp	TrialProc	TrialList	0	cvbn	-999999	16	111478	0	n	343	111821	66	-75	-9	0	-22	3	10	4	3	21	-10	0	-2	0	4	4	2	2	0	2
Hungry_Donkey_bar_English_2	125	1	<?xml version="1.0"?>\n<Clock xmlns:dt="urn:schemas-microsoft-com:datatypes"><Description dt:dt="string">E-Prime Primary Realtime Clock</Description><StartTime><Timestamp dt:dt="int">0</Timestamp><DateUtc dt:dt="string">2015-07-27T21:30:09Z</DateUtc></StartTime><FrequencyChanges><FrequencyChange><Frequency dt:dt="r8">3507695</Frequency><Timestamp dt:dt="r8">1539462110288</Timestamp><Current dt:dt="r8">0</Current><DateUtc dt:dt="string">2015-07-27T21:30:09Z</DateUtc></FrequencyChange></FrequencyChanges></Clock>\n	Hungry_Donkey_bar_English_2-125-1	60.018	76	1.0.0.18	1	1864529620	Standard	2.0.10.353	2.0.10.353	07-27-2015	7/27/2015 9:30:09 PM	17:30:09	2.0.10.248	22	Bar50-50.bmp	44	4	?	8r_4g.bmp	50r_4g.bmp	1r_2g.bmp	10r_2g.bmp				10r_2g.bmp	TrialProc	TrialList	0	cvbn	-999999	16	113860	0	n	249	114109	68	-85	-17	0	-22	3	2	1	3	22	-8	-50	-1	-10	4	4	2	2	-10	2
Hungry_Donkey_bar_English_2	125	1	<?xml version="1.0"?>\n<Clock xmlns:dt="urn:schemas-microsoft-com:datatypes"><Description dt:dt="string">E-Prime Primary Realtime Clock</Description><StartTime><Timestamp dt:dt="int">0</Timestamp><DateUtc dt:dt="string">2015-07-27T21:30:09Z</DateUtc></StartTime><FrequencyChanges><FrequencyChange><Frequency dt:dt="r8">3507695</Frequency><Timestamp dt:dt="r8">1539462110288</Timestamp><Current dt:dt="r8">0</Current><DateUtc dt:dt="string">2015-07-27T21:30:09Z</DateUtc></FrequencyChange></FrequencyChanges></Clock>\n	Hungry_Donkey_bar_English_2-125-1	60.018	76	1.0.0.18	1	1864529620	Standard	2.0.10.353	2.0.10.353	07-27-2015	7/27/2015 9:30:09 PM	17:30:09	2.0.10.248	23	Bar50-50.bmp	45	3	?	10r_4g.bmp	0r_4g.bmp	2r_2g.bmp	0r_2g.bmp			2r_2g.bmp		TrialProc	TrialList	0	cvbn	-999999	16	116143	0	b	1438	117581	70	-87	-17	0	-22	3	2	2	3	23	-10	0	-2	0	4	4	2	2	-2	2
Hungry_Donkey_bar_English_2	125	1	<?xml version="1.0"?>\n<Clock xmlns:dt="urn:schemas-microsoft-com:datatypes"><Description dt:dt="string">E-Prime Primary Realtime Clock</Description><StartTime><Timestamp dt:dt="int">0</Timestamp><DateUtc dt:dt="string">2015-07-27T21:30:09Z</DateUtc></StartTime><FrequencyChanges><FrequencyChange><Frequency dt:dt="r8">3507695</Frequency><Timestamp dt:dt="r8">1539462110288</Timestamp><Current dt:dt="r8">0</Current><DateUtc dt:dt="string">2015-07-27T21:30:09Z</DateUtc></FrequencyChange></FrequencyChanges></Clock>\n	Hungry_Donkey_bar_English_2-125-1	60.018	76	1.0.0.18	1	1864529620	Standard	2.0.10.353	2.0.10.353	07-27-2015	7/27/2015 9:30:09 PM	17:30:09	2.0.10.248	24	Bar50-50.bmp	46	2	?	0r_4g.bmp	0r_4g.bmp	0r_2g.bmp	0r_2g.bmp		0r_4g.bmp			TrialProc	TrialList	0	cvbn	-999999	16	119608	0	v	293	119901	74	-87	-13	0	-18	3	2	6	3	24	0	0	0	0	4	4	2	2	0	4
Hungry_Donkey_bar_English_2	125	1	<?xml version="1.0"?>\n<Clock xmlns:dt="urn:schemas-microsoft-com:datatypes"><Description dt:dt="string">E-Prime Primary Realtime Clock</Description><StartTime><Timestamp dt:dt="int">0</Timestamp><DateUtc dt:dt="string">2015-07-27T21:30:09Z</DateUtc></StartTime><FrequencyChanges><FrequencyChange><Frequency dt:dt="r8">3507695</Frequency><Timestamp dt:dt="r8">1539462110288</Timestamp><Current dt:dt="r8">0</Current><DateUtc dt:dt="string">2015-07-27T21:30:09Z</DateUtc></FrequencyChange></FrequencyChanges></Clock>\n	Hungry_Donkey_bar_English_2-125-1	60.018	76	1.0.0.18	1	1864529620	Standard	2.0.10.353	2.0.10.353	07-27-2015	7/27/2015 9:30:09 PM	17:30:09	2.0.10.248	25	Bar50-50.bmp	47	2	?	0r_4g.bmp	0r_4g.bmp	0r_2g.bmp	0r_2g.bmp		0r_4g.bmp			TrialProc	TrialList	0	cvbn	-999999	15	121924	0	v	329	122253	78	-87	-9	0	-14	3	2	8	3	25	0	0	0	0	4	4	2	2	0	4
Hungry_Donkey_bar_English_2	125	1	<?xml version="1.0"?>\n<Clock xmlns:dt="urn:schemas-microsoft-com:datatypes"><Description dt:dt="string">E-Prime Primary Realtime Clock</Description><StartTime><Timestamp dt:dt="int">0</Timestamp><DateUtc dt:dt="string">2015-07-27T21:30:09Z</DateUtc></StartTime><FrequencyChanges><FrequencyChange><Frequency dt:dt="r8">3507695</Frequency><Timestamp dt:dt="r8">1539462110288</Timestamp><Current dt:dt="r8">0</Current><DateUtc dt:dt="string">2015-07-27T21:30:09Z</DateUtc></FrequencyChange></FrequencyChanges></Clock>\n	Hungry_Donkey_bar_English_2-125-1	60.018	76	1.0.0.18	1	1864529620	Standard	2.0.10.353	2.0.10.353	07-27-2015	7/27/2015 9:30:09 PM	17:30:09	2.0.10.248	26	Bar50-50.bmp	49	2	?	0r_4g.bmp	0r_4g.bmp	0r_2g.bmp	0r_2g.bmp		0r_4g.bmp			TrialProc	TrialList	0	cvbn	-999999	16	124290	0	v	362	124652	82	-87	-5	0	-10	3	2	10	3	26	0	0	0	0	4	4	2	2	0	4
Hungry_Donkey_bar_English_2	125	1	<?xml version="1.0"?>\n<Clock xmlns:dt="urn:schemas-microsoft-com:datatypes"><Description dt:dt="string">E-Prime Primary Realtime Clock</Description><StartTime><Timestamp dt:dt="int">0</Timestamp><DateUtc dt:dt="string">2015-07-27T21:30:09Z</DateUtc></StartTime><FrequencyChanges><FrequencyChange><Frequency dt:dt="r8">3507695</Frequency><Timestamp dt:dt="r8">1539462110288</Timestamp><Current dt:dt="r8">0</Current><DateUtc dt:dt="string">2015-07-27T21:30:09Z</DateUtc></FrequencyChange></FrequencyChanges></Clock>\n	Hungry_Donkey_bar_English_2-125-1	60.018	76	1.0.0.18	1	1864529620	Standard	2.0.10.353	2.0.10.353	07-27-2015	7/27/2015 9:30:09 PM	17:30:09	2.0.10.248	27	Bar50-50.bmp	50	2	?	0r_4g.bmp	0r_4g.bmp	0r_2g.bmp	0r_2g.bmp		0r_4g.bmp			TrialProc	TrialList	0	cvbn	-999999	16	126690	0	v	474	127164	86	-87	-1	0	-6	3	2	9	3	27	0	0	0	0	4	4	2	2	0	4
Hungry_Donkey_bar_English_2	125	1	<?xml version="1.0"?>\n<Clock xmlns:dt="urn:schemas-microsoft-com:datatypes"><Description dt:dt="string">E-Prime Primary Realtime Clock</Description><StartTime><Timestamp dt:dt="int">0</Timestamp><DateUtc dt:dt="string">2015-07-27T21:30:09Z</DateUtc></StartTime><FrequencyChanges><FrequencyChange><Frequency dt:dt="r8">3507695</Frequency><Timestamp dt:dt="r8">1539462110288</Timestamp><Current dt:dt="r8">0</Current><DateUtc dt:dt="string">2015-07-27T21:30:09Z</DateUtc></FrequencyChange></FrequencyChanges></Clock>\n	Hungry_Donkey_bar_English_2-125-1	60.018	76	1.0.0.18	1	1864529620	Standard	2.0.10.353	2.0.10.353	07-27-2015	7/27/2015 9:30:09 PM	17:30:09	2.0.10.248	28	Bar50-50.bmp	51	2	?	0r_4g.bmp	0r_4g.bmp	0r_2g.bmp	0r_2g.bmp		0r_4g.bmp			TrialProc	TrialList	0	cvbn	-999999	16	129189	0	v	391	129580	90	-87	3	0	-2	3	2	7	3	28	0	0	0	0	4	4	2	2	0	4
Hungry_Donkey_bar_English_2	125	1	<?xml version="1.0"?>\n<Clock xmlns:dt="urn:schemas-microsoft-com:datatypes"><Description dt:dt="string">E-Prime Primary Realtime Clock</Description><StartTime><Timestamp dt:dt="int">0</Timestamp><DateUtc dt:dt="string">2015-07-27T21:30:09Z</DateUtc></StartTime><FrequencyChanges><FrequencyChange><Frequency dt:dt="r8">3507695</Frequency><Timestamp dt:dt="r8">1539462110288</Timestamp><Current dt:dt="r8">0</Current><DateUtc dt:dt="string">2015-07-27T21:30:09Z</DateUtc></FrequencyChange></FrequencyChanges></Clock>\n	Hungry_Donkey_bar_English_2-125-1	60.018	76	1.0.0.18	1	1864529620	Standard	2.0.10.353	2.0.10.353	07-27-2015	7/27/2015 9:30:09 PM	17:30:09	2.0.10.248	29	Bar50-50.bmp	52	2	?	10r_4g.bmp	0r_4g.bmp	2r_2g.bmp	0r_2g.bmp		0r_4g.bmp			TrialProc	TrialList	0	cvbn	-999999	16	131605	0	v	407	132012	94	-87	7	0	2	3	2	3	3	29	-10	0	-2	0	4	4	2	2	0	4
Hungry_Donkey_bar_English_2	125	1	<?xml version="1.0"?>\n<Clock xmlns:dt="urn:schemas-microsoft-com:datatypes"><Description dt:dt="string">E-Prime Primary Realtime Clock</Description><StartTime><Timestamp dt:dt="int">0</Timestamp><DateUtc dt:dt="string">2015-07-27T21:30:09Z</DateUtc></StartTime><FrequencyChanges><FrequencyChange><Frequency dt:dt="r8">3507695</Frequency><Timestamp dt:dt="r8">1539462110288</Timestamp><Current dt:dt="r8">0</Current><DateUtc dt:dt="string">2015-07-27T21:30:09Z</DateUtc></FrequencyChange></FrequencyChanges></Clock>\n	Hungry_Donkey_bar_English_2-125-1	60.018	76	1.0.0.18	1	1864529620	Standard	2.0.10.353	2.0.10.353	07-27-2015	7/27/2015 9:30:09 PM	17:30:09	2.0.10.248	30	Bar50-50.bmp	53	2	?	12r_4g.bmp	0r_4g.bmp	3r_2g.bmp	0r_2g.bmp		0r_4g.bmp			TrialProc	TrialList	0	cvbn	-999999	16	134038	0	v	406	134444	98	-87	11	0	6	3	2	5	3	30	-12	0	-3	0	4	4	2	2	0	4
Hungry_Donkey_bar_English_2	125	1	<?xml version="1.0"?>\n<Clock xmlns:dt="urn:schemas-microsoft-com:datatypes"><Description dt:dt="string">E-Prime Primary Realtime Clock</Description><StartTime><Timestamp dt:dt="int">0</Timestamp><DateUtc dt:dt="string">2015-07-27T21:30:09Z</DateUtc></StartTime><FrequencyChanges><FrequencyChange><Frequency dt:dt="r8">3507695</Frequency><Timestamp dt:dt="r8">1539462110288</Timestamp><Current dt:dt="r8">0</Current><DateUtc dt:dt="string">2015-07-27T21:30:09Z</DateUtc></FrequencyChange></FrequencyChanges></Clock>\n	Hungry_Donkey_bar_English_2-125-1	60.018	76	1.0.0.18	1	1864529620	Standard	2.0.10.353	2.0.10.353	07-27-2015	7/27/2015 9:30:09 PM	17:30:09	2.0.10.248	31	Bar50-50.bmp	54	2	?	0r_4g.bmp	0r_4g.bmp	0r_2g.bmp	0r_2g.bmp		0r_4g.bmp			TrialProc	TrialList	0	cvbn	-999999	16	136470	0	v	438	136908	102	-87	15	0	10	3	2	8	4	31	0	0	0	0	4	4	2	2	0	4
Hungry_Donkey_bar_English_2	125	1	<?xml version="1.0"?>\n<Clock xmlns:dt="urn:schemas-microsoft-com:datatypes"><Description dt:dt="string">E-Prime Primary Realtime Clock</Description><StartTime><Timestamp dt:dt="int">0</Timestamp><DateUtc dt:dt="string">2015-07-27T21:30:09Z</DateUtc></StartTime><FrequencyChanges><FrequencyChange><Frequency dt:dt="r8">3507695</Frequency><Timestamp dt:dt="r8">1539462110288</Timestamp><Current dt:dt="r8">0</Current><DateUtc dt:dt="string">2015-07-27T21:30:09Z</DateUtc></FrequencyChange></FrequencyChanges></Clock>\n	Hungry_Donkey_bar_English_2-125-1	60.018	76	1.0.0.18	1	1864529620	Standard	2.0.10.353	2.0.10.353	07-27-2015	7/27/2015 9:30:09 PM	17:30:09	2.0.10.248	32	Bar50-50.bmp	55	2	?	0r_4g.bmp	0r_4g.bmp	0r_2g.bmp	0r_2g.bmp		0r_4g.bmp			TrialProc	TrialList	0	cvbn	-999999	16	138936	0	v	420	139356	106	-87	19	0	14	3	2	10	4	32	0	0	0	0	4	4	2	2	0	4
Hungry_Donkey_bar_English_2	125	1	<?xml version="1.0"?>\n<Clock xmlns:dt="urn:schemas-microsoft-com:datatypes"><Description dt:dt="string">E-Prime Primary Realtime Clock</Description><StartTime><Timestamp dt:dt="int">0</Timestamp><DateUtc dt:dt="string">2015-07-27T21:30:09Z</DateUtc></StartTime><FrequencyChanges><FrequencyChange><Frequency dt:dt="r8">3507695</Frequency><Timestamp dt:dt="r8">1539462110288</Timestamp><Current dt:dt="r8">0</Current><DateUtc dt:dt="string">2015-07-27T21:30:09Z</DateUtc></FrequencyChange></FrequencyChanges></Clock>\n	Hungry_Donkey_bar_English_2-125-1	60.018	76	1.0.0.18	1	1864529620	Standard	2.0.10.353	2.0.10.353	07-27-2015	7/27/2015 9:30:09 PM	17:30:09	2.0.10.248	33	Bar50-50.bmp	56	2	?	10r_4g.bmp	0r_4g.bmp	2r_2g.bmp	0r_2g.bmp		0r_4g.bmp			TrialProc	TrialList	0	cvbn	-999999	16	141385	0	v	339	141724	110	-87	23	0	18	3	2	2	4	33	-10	0	-2	0	4	4	2	2	0	4
Hungry_Donkey_bar_English_2	125	1	<?xml version="1.0"?>\n<Clock xmlns:dt="urn:schemas-microsoft-com:datatypes"><Description dt:dt="string">E-Prime Primary Realtime Clock</Description><StartTime><Timestamp dt:dt="int">0</Timestamp><DateUtc dt:dt="string">2015-07-27T21:30:09Z</DateUtc></StartTime><FrequencyChanges><FrequencyChange><Frequency dt:dt="r8">3507695</Frequency><Timestamp dt:dt="r8">1539462110288</Timestamp><Current dt:dt="r8">0</Current><DateUtc dt:dt="string">2015-07-27T21:30:09Z</DateUtc></FrequencyChange></FrequencyChanges></Clock>\n	Hungry_Donkey_bar_English_2-125-1	60.018	76	1.0.0.18	1	1864529620	Standard	2.0.10.353	2.0.10.353	07-27-2015	7/27/2015 9:30:09 PM	17:30:09	2.0.10.248	34	Bar63-37.bmp	57	2	?	12r_4g.bmp	0r_4g.bmp	3r_2g.bmp	0r_2g.bmp		0r_4g.bmp			TrialProc	TrialList	0	cvbn	-999999	16	143751	0	v	372	144123	114	-87	27	0	22	3	2	5	4	34	-12	0	-3	0	4	4	2	2	0	4
Hungry_Donkey_bar_English_2	125	1	<?xml version="1.0"?>\n<Clock xmlns:dt="urn:schemas-microsoft-com:datatypes"><Description dt:dt="string">E-Prime Primary Realtime Clock</Description><StartTime><Timestamp dt:dt="int">0</Timestamp><DateUtc dt:dt="string">2015-07-27T21:30:09Z</DateUtc></StartTime><FrequencyChanges><FrequencyChange><Frequency dt:dt="r8">3507695</Frequency><Timestamp dt:dt="r8">1539462110288</Timestamp><Current dt:dt="r8">0</Current><DateUtc dt:dt="string">2015-07-27T21:30:09Z</DateUtc></FrequencyChange></FrequencyChanges></Clock>\n	Hungry_Donkey_bar_English_2-125-1	60.018	76	1.0.0.18	1	1864529620	Standard	2.0.10.353	2.0.10.353	07-27-2015	7/27/2015 9:30:09 PM	17:30:09	2.0.10.248	35	Bar63-37.bmp	58	2	?	0r_4g.bmp	0r_4g.bmp	0r_2g.bmp	0r_2g.bmp		0r_4g.bmp			TrialProc	TrialList	0	cvbn	-999999	16	146167	0	v	308	146475	118	-87	31	0	26	3	2	6	4	35	0	0	0	0	4	4	2	2	0	4
Hungry_Donkey_bar_English_2	125	1	<?xml version="1.0"?>\n<Clock xmlns:dt="urn:schemas-microsoft-com:datatypes"><Description dt:dt="string">E-Prime Primary Realtime Clock</Description><StartTime><Timestamp dt:dt="int">0</Timestamp><DateUtc dt:dt="string">2015-07-27T21:30:09Z</DateUtc></StartTime><FrequencyChanges><FrequencyChange><Frequency dt:dt="r8">3507695</Frequency><Timestamp dt:dt="r8">1539462110288</Timestamp><Current dt:dt="r8">0</Current><DateUtc dt:dt="string">2015-07-27T21:30:09Z</DateUtc></FrequencyChange></FrequencyChanges></Clock>\n	Hungry_Donkey_bar_English_2-125-1	60.018	76	1.0.0.18	1	1864529620	Standard	2.0.10.353	2.0.10.353	07-27-2015	7/27/2015 9:30:09 PM	17:30:09	2.0.10.248	36	Bar63-37.bmp	58	2	?	0r_4g.bmp	0r_4g.bmp	0r_2g.bmp	0r_2g.bmp		0r_4g.bmp			TrialProc	TrialList	0	cvbn	-999999	16	148500	0	v	295	148795	122	-87	35	0	30	3	2	9	4	36	0	0	0	0	4	4	2	2	0	4
Hungry_Donkey_bar_English_2	125	1	<?xml version="1.0"?>\n<Clock xmlns:dt="urn:schemas-microsoft-com:datatypes"><Description dt:dt="string">E-Prime Primary Realtime Clock</Description><StartTime><Timestamp dt:dt="int">0</Timestamp><DateUtc dt:dt="string">2015-07-27T21:30:09Z</DateUtc></StartTime><FrequencyChanges><FrequencyChange><Frequency dt:dt="r8">3507695</Frequency><Timestamp dt:dt="r8">1539462110288</Timestamp><Current dt:dt="r8">0</Current><DateUtc dt:dt="string">2015-07-27T21:30:09Z</DateUtc></FrequencyChange></FrequencyChanges></Clock>\n	Hungry_Donkey_bar_English_2-125-1	60.018	76	1.0.0.18	1	1864529620	Standard	2.0.10.353	2.0.10.353	07-27-2015	7/27/2015 9:30:09 PM	17:30:09	2.0.10.248	37	Bar50-50.bmp	48	2	?	8r_4g.bmp	50r_4g.bmp	1r_2g.bmp	10r_2g.bmp		50r_4g.bmp			TrialProc	TrialList	0	cvbn	-999999	16	150833	0	v	266	151099	126	-137	-11	0	-16	3	2	1	4	37	-8	-50	-1	-10	4	4	2	2	-50	4
Hungry_Donkey_bar_English_2	125	1	<?xml version="1.0"?>\n<Clock xmlns:dt="urn:schemas-microsoft-com:datatypes"><Description dt:dt="string">E-Prime Primary Realtime Clock</Description><StartTime><Timestamp dt:dt="int">0</Timestamp><DateUtc dt:dt="string">2015-07-27T21:30:09Z</DateUtc></StartTime><FrequencyChanges><FrequencyChange><Frequency dt:dt="r8">3507695</Frequency><Timestamp dt:dt="r8">1539462110288</Timestamp><Current dt:dt="r8">0</Current><DateUtc dt:dt="string">2015-07-27T21:30:09Z</DateUtc></FrequencyChange></FrequencyChanges></Clock>\n	Hungry_Donkey_bar_English_2-125-1	60.018	76	1.0.0.18	1	1864529620	Standard	2.0.10.353	2.0.10.353	07-27-2015	7/27/2015 9:30:09 PM	17:30:09	2.0.10.248	38	Bar50-50.bmp	47	1	?	10r_4g.bmp	0r_4g.bmp	2r_2g.bmp	0r_2g.bmp	10r_4g.bmp				TrialProc	TrialList	0	cvbn	-999999	16	153132	0	c	751	153883	130	-147	-17	-6	-16	3	2	4	4	38	-10	0	-2	0	4	4	2	2	-10	4
Hungry_Donkey_bar_English_2	125	1	<?xml version="1.0"?>\n<Clock xmlns:dt="urn:schemas-microsoft-com:datatypes"><Description dt:dt="string">E-Prime Primary Realtime Clock</Description><StartTime><Timestamp dt:dt="int">0</Timestamp><DateUtc dt:dt="string">2015-07-27T21:30:09Z</DateUtc></StartTime><FrequencyChanges><FrequencyChange><Frequency dt:dt="r8">3507695</Frequency><Timestamp dt:dt="r8">1539462110288</Timestamp><Current dt:dt="r8">0</Current><DateUtc dt:dt="string">2015-07-27T21:30:09Z</DateUtc></FrequencyChange></FrequencyChanges></Clock>\n	Hungry_Donkey_bar_English_2-125-1	60.018	76	1.0.0.18	1	1864529620	Standard	2.0.10.353	2.0.10.353	07-27-2015	7/27/2015 9:30:09 PM	17:30:09	2.0.10.248	39	Bar50-50.bmp	47	4	?	10r_4g.bmp	0r_4g.bmp	2r_2g.bmp	0r_2g.bmp				0r_2g.bmp	TrialProc	TrialList	0	cvbn	-999999	17	155915	0	n	496	156411	132	-147	-15	-6	-16	3	4	3	4	39	-10	0	-2	0	4	4	2	2	0	2
Hungry_Donkey_bar_English_2	125	1	<?xml version="1.0"?>\n<Clock xmlns:dt="urn:schemas-microsoft-com:datatypes"><Description dt:dt="string">E-Prime Primary Realtime Clock</Description><StartTime><Timestamp dt:dt="int">0</Timestamp><DateUtc dt:dt="string">2015-07-27T21:30:09Z</DateUtc></StartTime><FrequencyChanges><FrequencyChange><Frequency dt:dt="r8">3507695</Frequency><Timestamp dt:dt="r8">1539462110288</Timestamp><Current dt:dt="r8">0</Current><DateUtc dt:dt="string">2015-07-27T21:30:09Z</DateUtc></FrequencyChange></FrequencyChanges></Clock>\n	Hungry_Donkey_bar_English_2-125-1	60.018	76	1.0.0.18	1	1864529620	Standard	2.0.10.353	2.0.10.353	07-27-2015	7/27/2015 9:30:09 PM	17:30:09	2.0.10.248	40	Bar50-50.bmp	48	4	?	0r_4g.bmp	0r_4g.bmp	0r_2g.bmp	0r_2g.bmp				0r_2g.bmp	TrialProc	TrialList	0	cvbn	-999999	16	158447	0	n	316	158763	134	-147	-13	-6	-16	3	6	7	4	40	0	0	0	0	4	4	2	2	0	2
Hungry_Donkey_bar_English_2	125	1	<?xml version="1.0"?>\n<Clock xmlns:dt="urn:schemas-microsoft-com:datatypes"><Description dt:dt="string">E-Prime Primary Realtime Clock</Description><StartTime><Timestamp dt:dt="int">0</Timestamp><DateUtc dt:dt="string">2015-07-27T21:30:09Z</DateUtc></StartTime><FrequencyChanges><FrequencyChange><Frequency dt:dt="r8">3507695</Frequency><Timestamp dt:dt="r8">1539462110288</Timestamp><Current dt:dt="r8">0</Current><DateUtc dt:dt="string">2015-07-27T21:30:09Z</DateUtc></FrequencyChange></FrequencyChanges></Clock>\n	Hungry_Donkey_bar_English_2-125-1	60.018	76	1.0.0.18	1	1864529620	Standard	2.0.10.353	2.0.10.353	07-27-2015	7/27/2015 9:30:09 PM	17:30:09	2.0.10.248	41	Bar50-50.bmp	48	4	?	10r_4g.bmp	0r_4g.bmp	2r_2g.bmp	0r_2g.bmp				0r_2g.bmp	TrialProc	TrialList	0	cvbn	-999999	16	160796	0	n	351	161147	136	-147	-11	-6	-16	3	8	2	5	41	-10	0	-2	0	4	4	2	2	0	2
Hungry_Donkey_bar_English_2	125	1	<?xml version="1.0"?>\n<Clock xmlns:dt="urn:schemas-microsoft-com:datatypes"><Description dt:dt="string">E-Prime Primary Realtime Clock</Description><StartTime><Timestamp dt:dt="int">0</Timestamp><DateUtc dt:dt="string">2015-07-27T21:30:09Z</DateUtc></StartTime><FrequencyChanges><FrequencyChange><Frequency dt:dt="r8">3507695</Frequency><Timestamp dt:dt="r8">1539462110288</Timestamp><Current dt:dt="r8">0</Current><DateUtc dt:dt="string">2015-07-27T21:30:09Z</DateUtc></FrequencyChange></FrequencyChanges></Clock>\n	Hungry_Donkey_bar_English_2-125-1	60.018	76	1.0.0.18	1	1864529620	Standard	2.0.10.353	2.0.10.353	07-27-2015	7/27/2015 9:30:09 PM	17:30:09	2.0.10.248	42	Bar50-50.bmp	48	4	?	0r_4g.bmp	0r_4g.bmp	0r_2g.bmp	0r_2g.bmp				0r_2g.bmp	TrialProc	TrialList	0	cvbn	-999999	16	163179	0	n	95	163274	138	-147	-9	-6	-16	3	10	8	5	42	0	0	0	0	4	4	2	2	0	2
Hungry_Donkey_bar_English_2	125	1	<?xml version="1.0"?>\n<Clock xmlns:dt="urn:schemas-microsoft-com:datatypes"><Description dt:dt="string">E-Prime Primary Realtime Clock</Description><StartTime><Timestamp dt:dt="int">0</Timestamp><DateUtc dt:dt="string">2015-07-27T21:30:09Z</DateUtc></StartTime><FrequencyChanges><FrequencyChange><Frequency dt:dt="r8">3507695</Frequency><Timestamp dt:dt="r8">1539462110288</Timestamp><Current dt:dt="r8">0</Current><DateUtc dt:dt="string">2015-07-27T21:30:09Z</DateUtc></FrequencyChange></FrequencyChanges></Clock>\n	Hungry_Donkey_bar_English_2-125-1	60.018	76	1.0.0.18	1	1864529620	Standard	2.0.10.353	2.0.10.353	07-27-2015	7/27/2015 9:30:09 PM	17:30:09	2.0.10.248	43	Bar50-50.bmp	49	4	?	10r_4g.bmp	0r_4g.bmp	2r_2g.bmp	0r_2g.bmp				0r_2g.bmp	TrialProc	TrialList	0	cvbn	-999999	16	165312	0	n	218	165530	140	-147	-7	-6	-16	3	12	4	5	43	-10	0	-2	0	4	4	2	2	0	2
Hungry_Donkey_bar_English_2	125	1	<?xml version="1.0"?>\n<Clock xmlns:dt="urn:schemas-microsoft-com:datatypes"><Description dt:dt="string">E-Prime Primary Realtime Clock</Description><StartTime><Timestamp dt:dt="int">0</Timestamp><DateUtc dt:dt="string">2015-07-27T21:30:09Z</DateUtc></StartTime><FrequencyChanges><FrequencyChange><Frequency dt:dt="r8">3507695</Frequency><Timestamp dt:dt="r8">1539462110288</Timestamp><Current dt:dt="r8">0</Current><DateUtc dt:dt="string">2015-07-27T21:30:09Z</DateUtc></FrequencyChange></FrequencyChanges></Clock>\n	Hungry_Donkey_bar_English_2-125-1	60.018	76	1.0.0.18	1	1864529620	Standard	2.0.10.353	2.0.10.353	07-27-2015	7/27/2015 9:30:09 PM	17:30:09	2.0.10.248	44	Bar50-50.bmp	49	4	?	0r_4g.bmp	0r_4g.bmp	0r_2g.bmp	0r_2g.bmp				0r_2g.bmp	TrialProc	TrialList	0	cvbn	-999999	16	167561	0	n	177	167738	142	-147	-5	-6	-16	3	14	9	5	44	0	0	0	0	4	4	2	2	0	2
Hungry_Donkey_bar_English_2	125	1	<?xml version="1.0"?>\n<Clock xmlns:dt="urn:schemas-microsoft-com:datatypes"><Description dt:dt="string">E-Prime Primary Realtime Clock</Description><StartTime><Timestamp dt:dt="int">0</Timestamp><DateUtc dt:dt="string">2015-07-27T21:30:09Z</DateUtc></StartTime><FrequencyChanges><FrequencyChange><Frequency dt:dt="r8">3507695</Frequency><Timestamp dt:dt="r8">1539462110288</Timestamp><Current dt:dt="r8">0</Current><DateUtc dt:dt="string">2015-07-27T21:30:09Z</DateUtc></FrequencyChange></FrequencyChanges></Clock>\n	Hungry_Donkey_bar_English_2-125-1	60.018	76	1.0.0.18	1	1864529620	Standard	2.0.10.353	2.0.10.353	07-27-2015	7/27/2015 9:30:09 PM	17:30:09	2.0.10.248	45	Bar50-50.bmp	49	4	?	10r_4g.bmp	0r_4g.bmp	2r_2g.bmp	0r_2g.bmp				0r_2g.bmp	TrialProc	TrialList	0	cvbn	-999999	16	169761	0	n	233	169994	144	-147	-3	-6	-16	3	16	3	5	45	-10	0	-2	0	4	4	2	2	0	2
Hungry_Donkey_bar_English_2	125	1	<?xml version="1.0"?>\n<Clock xmlns:dt="urn:schemas-microsoft-com:datatypes"><Description dt:dt="string">E-Prime Primary Realtime Clock</Description><StartTime><Timestamp dt:dt="int">0</Timestamp><DateUtc dt:dt="string">2015-07-27T21:30:09Z</DateUtc></StartTime><FrequencyChanges><FrequencyChange><Frequency dt:dt="r8">3507695</Frequency><Timestamp dt:dt="r8">1539462110288</Timestamp><Current dt:dt="r8">0</Current><DateUtc dt:dt="string">2015-07-27T21:30:09Z</DateUtc></FrequencyChange></FrequencyChanges></Clock>\n	Hungry_Donkey_bar_English_2-125-1	60.018	76	1.0.0.18	1	1864529620	Standard	2.0.10.353	2.0.10.353	07-27-2015	7/27/2015 9:30:09 PM	17:30:09	2.0.10.248	46	Bar50-50.bmp	50	4	?	0r_4g.bmp	0r_4g.bmp	0r_2g.bmp	0r_2g.bmp				0r_2g.bmp	TrialProc	TrialList	0	cvbn	-999999	17	172027	0	n	543	172570	146	-147	-1	-6	-16	3	18	7	5	46	0	0	0	0	4	4	2	2	0	2
Hungry_Donkey_bar_English_2	125	1	<?xml version="1.0"?>\n<Clock xmlns:dt="urn:schemas-microsoft-com:datatypes"><Description dt:dt="string">E-Prime Primary Realtime Clock</Description><StartTime><Timestamp dt:dt="int">0</Timestamp><DateUtc dt:dt="string">2015-07-27T21:30:09Z</DateUtc></StartTime><FrequencyChanges><FrequencyChange><Frequency dt:dt="r8">3507695</Frequency><Timestamp dt:dt="r8">1539462110288</Timestamp><Current dt:dt="r8">0</Current><DateUtc dt:dt="string">2015-07-27T21:30:09Z</DateUtc></FrequencyChange></FrequencyChanges></Clock>\n	Hungry_Donkey_bar_English_2-125-1	60.018	76	1.0.0.18	1	1864529620	Standard	2.0.10.353	2.0.10.353	07-27-2015	7/27/2015 9:30:09 PM	17:30:09	2.0.10.248	47	Bar50-50.bmp	49	4	?	8r_4g.bmp	50r_4g.bmp	1r_2g.bmp	10r_2g.bmp				10r_2g.bmp	TrialProc	TrialList	0	cvbn	-999999	16	174609	0	n	281	174890	148	-157	-9	-6	-16	3	10	1	5	47	-8	-50	-1	-10	4	4	2	2	-10	2
Hungry_Donkey_bar_English_2	125	1	<?xml version="1.0"?>\n<Clock xmlns:dt="urn:schemas-microsoft-com:datatypes"><Description dt:dt="string">E-Prime Primary Realtime Clock</Description><StartTime><Timestamp dt:dt="int">0</Timestamp><DateUtc dt:dt="string">2015-07-27T21:30:09Z</DateUtc></StartTime><FrequencyChanges><FrequencyChange><Frequency dt:dt="r8">3507695</Frequency><Timestamp dt:dt="r8">1539462110288</Timestamp><Current dt:dt="r8">0</Current><DateUtc dt:dt="string">2015-07-27T21:30:09Z</DateUtc></FrequencyChange></FrequencyChanges></Clock>\n	Hungry_Donkey_bar_English_2-125-1	60.018	76	1.0.0.18	1	1864529620	Standard	2.0.10.353	2.0.10.353	07-27-2015	7/27/2015 9:30:09 PM	17:30:09	2.0.10.248	48	Bar50-50.bmp	49	3	?	0r_4g.bmp	0r_4g.bmp	0r_2g.bmp	0r_2g.bmp			0r_2g.bmp		TrialProc	TrialList	0	cvbn	-999999	16	176925	0	b	445	177370	150	-157	-7	-6	-16	5	10	10	5	48	0	0	0	0	4	4	2	2	0	2
Hungry_Donkey_bar_English_2	125	1	<?xml version="1.0"?>\n<Clock xmlns:dt="urn:schemas-microsoft-com:datatypes"><Description dt:dt="string">E-Prime Primary Realtime Clock</Description><StartTime><Timestamp dt:dt="int">0</Timestamp><DateUtc dt:dt="string">2015-07-27T21:30:09Z</DateUtc></StartTime><FrequencyChanges><FrequencyChange><Frequency dt:dt="r8">3507695</Frequency><Timestamp dt:dt="r8">1539462110288</Timestamp><Current dt:dt="r8">0</Current><DateUtc dt:dt="string">2015-07-27T21:30:09Z</DateUtc></FrequencyChange></FrequencyChanges></Clock>\n	Hungry_Donkey_bar_English_2-125-1	60.018	76	1.0.0.18	1	1864529620	Standard	2.0.10.353	2.0.10.353	07-27-2015	7/27/2015 9:30:09 PM	17:30:09	2.0.10.248	49	Bar50-50.bmp	49	3	?	12r_4g.bmp	0r_4g.bmp	3r_2g.bmp	0r_2g.bmp			3r_2g.bmp		TrialProc	TrialList	0	cvbn	-999999	16	179408	0	b	314	179722	152	-160	-8	-6	-16	4	10	5	5	49	-12	0	-3	0	4	4	2	2	-3	2
Hungry_Donkey_bar_English_2	125	1	<?xml version="1.0"?>\n<Clock xmlns:dt="urn:schemas-microsoft-com:datatypes"><Description dt:dt="string">E-Prime Primary Realtime Clock</Description><StartTime><Timestamp dt:dt="int">0</Timestamp><DateUtc dt:dt="string">2015-07-27T21:30:09Z</DateUtc></StartTime><FrequencyChanges><FrequencyChange><Frequency dt:dt="r8">3507695</Frequency><Timestamp dt:dt="r8">1539462110288</Timestamp><Current dt:dt="r8">0</Current><DateUtc dt:dt="string">2015-07-27T21:30:09Z</DateUtc></FrequencyChange></FrequencyChanges></Clock>\n	Hungry_Donkey_bar_English_2-125-1	60.018	76	1.0.0.18	1	1864529620	Standard	2.0.10.353	2.0.10.353	07-27-2015	7/27/2015 9:30:09 PM	17:30:09	2.0.10.248	50	Bar50-50.bmp	49	2	?	0r_4g.bmp	0r_4g.bmp	0r_2g.bmp	0r_2g.bmp		0r_4g.bmp			TrialProc	TrialList	0	cvbn	-999999	16	181757	0	v	348	182105	156	-160	-4	-6	-12	4	10	6	5	50	0	0	0	0	4	4	2	2	0	4
Hungry_Donkey_bar_English_2	125	1	<?xml version="1.0"?>\n<Clock xmlns:dt="urn:schemas-microsoft-com:datatypes"><Description dt:dt="string">E-Prime Primary Realtime Clock</Description><StartTime><Timestamp dt:dt="int">0</Timestamp><DateUtc dt:dt="string">2015-07-27T21:30:09Z</DateUtc></StartTime><FrequencyChanges><FrequencyChange><Frequency dt:dt="r8">3507695</Frequency><Timestamp dt:dt="r8">1539462110288</Timestamp><Current dt:dt="r8">0</Current><DateUtc dt:dt="string">2015-07-27T21:30:09Z</DateUtc></FrequencyChange></FrequencyChanges></Clock>\n	Hungry_Donkey_bar_English_2-125-1	60.018	76	1.0.0.18	1	1864529620	Standard	2.0.10.353	2.0.10.353	07-27-2015	7/27/2015 9:30:09 PM	17:30:09	2.0.10.248	51	Bar50-50.bmp	50	2	?	0r_4g.bmp	0r_4g.bmp	0r_2g.bmp	0r_2g.bmp		0r_4g.bmp			TrialProc	TrialList	0	cvbn	-999999	16	184140	0	v	781	184921	160	-160	0	-6	-8	4	10	6	6	51	0	0	0	0	4	4	2	2	0	4
Hungry_Donkey_bar_English_2	125	1	<?xml version="1.0"?>\n<Clock xmlns:dt="urn:schemas-microsoft-com:datatypes"><Description dt:dt="string">E-Prime Primary Realtime Clock</Description><StartTime><Timestamp dt:dt="int">0</Timestamp><DateUtc dt:dt="string">2015-07-27T21:30:09Z</DateUtc></StartTime><FrequencyChanges><FrequencyChange><Frequency dt:dt="r8">3507695</Frequency><Timestamp dt:dt="r8">1539462110288</Timestamp><Current dt:dt="r8">0</Current><DateUtc dt:dt="string">2015-07-27T21:30:09Z</DateUtc></FrequencyChange></FrequencyChanges></Clock>\n	Hungry_Donkey_bar_English_2-125-1	60.018	76	1.0.0.18	1	1864529620	Standard	2.0.10.353	2.0.10.353	07-27-2015	7/27/2015 9:30:09 PM	17:30:09	2.0.10.248	52	Bar50-50.bmp	51	1	?	0r_4g.bmp	0r_4g.bmp	0r_2g.bmp	0r_2g.bmp	0r_4g.bmp				TrialProc	TrialList	0	cvbn	-999999	17	186956	0	c	477	187433	164	-160	4	-2	-8	4	10	7	6	52	0	0	0	0	4	4	2	2	0	4
Hungry_Donkey_bar_English_2	125	1	<?xml version="1.0"?>\n<Clock xmlns:dt="urn:schemas-microsoft-com:datatypes"><Description dt:dt="string">E-Prime Primary Realtime Clock</Description><StartTime><Timestamp dt:dt="int">0</Timestamp><DateUtc dt:dt="string">2015-07-27T21:30:09Z</DateUtc></StartTime><FrequencyChanges><FrequencyChange><Frequency dt:dt="r8">3507695</Frequency><Timestamp dt:dt="r8">1539462110288</Timestamp><Current dt:dt="r8">0</Current><DateUtc dt:dt="string">2015-07-27T21:30:09Z</DateUtc></FrequencyChange></FrequencyChanges></Clock>\n	Hungry_Donkey_bar_English_2-125-1	60.018	76	1.0.0.18	1	1864529620	Standard	2.0.10.353	2.0.10.353	07-27-2015	7/27/2015 9:30:09 PM	17:30:09	2.0.10.248	53	Bar50-50.bmp	51	2	?	12r_4g.bmp	0r_4g.bmp	3r_2g.bmp	0r_2g.bmp		0r_4g.bmp			TrialProc	TrialList	0	cvbn	-999999	16	189471	0	v	346	189817	168	-160	8	-2	-4	4	10	5	6	53	-12	0	-3	0	4	4	2	2	0	4
Hungry_Donkey_bar_English_2	125	1	<?xml version="1.0"?>\n<Clock xmlns:dt="urn:schemas-microsoft-com:datatypes"><Description dt:dt="string">E-Prime Primary Realtime Clock</Description><StartTime><Timestamp dt:dt="int">0</Timestamp><DateUtc dt:dt="string">2015-07-27T21:30:09Z</DateUtc></StartTime><FrequencyChanges><FrequencyChange><Frequency dt:dt="r8">3507695</Frequency><Timestamp dt:dt="r8">1539462110288</Timestamp><Current dt:dt="r8">0</Current><DateUtc dt:dt="string">2015-07-27T21:30:09Z</DateUtc></FrequencyChange></FrequencyChanges></Clock>\n	Hungry_Donkey_bar_English_2-125-1	60.018	76	1.0.0.18	1	1864529620	Standard	2.0.10.353	2.0.10.353	07-27-2015	7/27/2015 9:30:09 PM	17:30:09	2.0.10.248	54	Bar50-50.bmp	52	3	?	0r_4g.bmp	0r_4g.bmp	0r_2g.bmp	0r_2g.bmp			0r_2g.bmp		TrialProc	TrialList	0	cvbn	-999999	16	191854	0	b	507	192361	170	-160	10	-2	-4	6	10	8	6	54	0	0	0	0	4	4	2	2	0	2
Hungry_Donkey_bar_English_2	125	1	<?xml version="1.0"?>\n<Clock xmlns:dt="urn:schemas-microsoft-com:datatypes"><Description dt:dt="string">E-Prime Primary Realtime Clock</Description><StartTime><Timestamp dt:dt="int">0</Timestamp><DateUtc dt:dt="string">2015-07-27T21:30:09Z</DateUtc></StartTime><FrequencyChanges><FrequencyChange><Frequency dt:dt="r8">3507695</Frequency><Timestamp dt:dt="r8">1539462110288</Timestamp><Current dt:dt="r8">0</Current><DateUtc dt:dt="string">2015-07-27T21:30:09Z</DateUtc></FrequencyChange></FrequencyChanges></Clock>\n	Hungry_Donkey_bar_English_2-125-1	60.018	76	1.0.0.18	1	1864529620	Standard	2.0.10.353	2.0.10.353	07-27-2015	7/27/2015 9:30:09 PM	17:30:09	2.0.10.248	55	Bar50-50.bmp	52	1	?	0r_4g.bmp	0r_4g.bmp	0r_2g.bmp	0r_2g.bmp	0r_4g.bmp				TrialProc	TrialList	0	cvbn	-999999	16	194387	0	c	310	194697	174	-160	14	2	-4	6	10	9	6	55	0	0	0	0	4	4	2	2	0	4
Hungry_Donkey_bar_English_2	125	1	<?xml version="1.0"?>\n<Clock xmlns:dt="urn:schemas-microsoft-com:datatypes"><Description dt:dt="string">E-Prime Primary Realtime Clock</Description><StartTime><Timestamp dt:dt="int">0</Timestamp><DateUtc dt:dt="string">2015-07-27T21:30:09Z</DateUtc></StartTime><FrequencyChanges><FrequencyChange><Frequency dt:dt="r8">3507695</Frequency><Timestamp dt:dt="r8">1539462110288</Timestamp><Current dt:dt="r8">0</Current><DateUtc dt:dt="string">2015-07-27T21:30:09Z</DateUtc></FrequencyChange></FrequencyChanges></Clock>\n	Hungry_Donkey_bar_English_2-125-1	60.018	76	1.0.0.18	1	1864529620	Standard	2.0.10.353	2.0.10.353	07-27-2015	7/27/2015 9:30:09 PM	17:30:09	2.0.10.248	56	Bar50-50.bmp	53	2	?	10r_4g.bmp	0r_4g.bmp	2r_2g.bmp	0r_2g.bmp		0r_4g.bmp			TrialProc	TrialList	0	cvbn	-999999	16	196736	0	v	793	197529	178	-160	18	2	0	6	10	4	6	56	-10	0	-2	0	4	4	2	2	0	4
Hungry_Donkey_bar_English_2	125	1	<?xml version="1.0"?>\n<Clock xmlns:dt="urn:schemas-microsoft-com:datatypes"><Description dt:dt="string">E-Prime Primary Realtime Clock</Description><StartTime><Timestamp dt:dt="int">0</Timestamp><DateUtc dt:dt="string">2015-07-27T21:30:09Z</DateUtc></StartTime><FrequencyChanges><FrequencyChange><Frequency dt:dt="r8">3507695</Frequency><Timestamp dt:dt="r8">1539462110288</Timestamp><Current dt:dt="r8">0</Current><DateUtc dt:dt="string">2015-07-27T21:30:09Z</DateUtc></FrequencyChange></FrequencyChanges></Clock>\n	Hungry_Donkey_bar_English_2-125-1	60.018	76	1.0.0.18	1	1864529620	Standard	2.0.10.353	2.0.10.353	07-27-2015	7/27/2015 9:30:09 PM	17:30:09	2.0.10.248	57	Bar50-50.bmp	53	3	?	10r_4g.bmp	0r_4g.bmp	2r_2g.bmp	0r_2g.bmp			2r_2g.bmp		TrialProc	TrialList	0	cvbn	-999999	16	199552	0	b	376	199928	180	-162	18	2	0	6	10	3	6	57	-10	0	-2	0	4	4	2	2	-2	2
Hungry_Donkey_bar_English_2	125	1	<?xml version="1.0"?>\n<Clock xmlns:dt="urn:schemas-microsoft-com:datatypes"><Description dt:dt="string">E-Prime Primary Realtime Clock</Description><StartTime><Timestamp dt:dt="int">0</Timestamp><DateUtc dt:dt="string">2015-07-27T21:30:09Z</DateUtc></StartTime><FrequencyChanges><FrequencyChange><Frequency dt:dt="r8">3507695</Frequency><Timestamp dt:dt="r8">1539462110288</Timestamp><Current dt:dt="r8">0</Current><DateUtc dt:dt="string">2015-07-27T21:30:09Z</DateUtc></FrequencyChange></FrequencyChanges></Clock>\n	Hungry_Donkey_bar_English_2-125-1	60.018	76	1.0.0.18	1	1864529620	Standard	2.0.10.353	2.0.10.353	07-27-2015	7/27/2015 9:30:09 PM	17:30:09	2.0.10.248	58	Bar50-50.bmp	53	2	?	0r_4g.bmp	0r_4g.bmp	0r_2g.bmp	0r_2g.bmp		0r_4g.bmp			TrialProc	TrialList	0	cvbn	-999999	16	201968	0	v	408	202376	184	-162	22	2	4	6	10	10	6	58	0	0	0	0	4	4	2	2	0	4
Hungry_Donkey_bar_English_2	125	1	<?xml version="1.0"?>\n<Clock xmlns:dt="urn:schemas-microsoft-com:datatypes"><Description dt:dt="string">E-Prime Primary Realtime Clock</Description><StartTime><Timestamp dt:dt="int">0</Timestamp><DateUtc dt:dt="string">2015-07-27T21:30:09Z</DateUtc></StartTime><FrequencyChanges><FrequencyChange><Frequency dt:dt="r8">3507695</Frequency><Timestamp dt:dt="r8">1539462110288</Timestamp><Current dt:dt="r8">0</Current><DateUtc dt:dt="string">2015-07-27T21:30:09Z</DateUtc></FrequencyChange></FrequencyChanges></Clock>\n	Hungry_Donkey_bar_English_2-125-1	60.018	76	1.0.0.18	1	1864529620	Standard	2.0.10.353	2.0.10.353	07-27-2015	7/27/2015 9:30:09 PM	17:30:09	2.0.10.248	59	Bar50-50.bmp	53	1	?	8r_4g.bmp	50r_4g.bmp	1r_2g.bmp	10r_2g.bmp	8r_4g.bmp				TrialProc	TrialList	0	cvbn	-999999	16	204400	0	c	360	204760	188	-170	18	-2	4	6	10	1	6	59	-8	-50	-1	-10	4	4	2	2	-8	4
Hungry_Donkey_bar_English_2	125	1	<?xml version="1.0"?>\n<Clock xmlns:dt="urn:schemas-microsoft-com:datatypes"><Description dt:dt="string">E-Prime Primary Realtime Clock</Description><StartTime><Timestamp dt:dt="int">0</Timestamp><DateUtc dt:dt="string">2015-07-27T21:30:09Z</DateUtc></StartTime><FrequencyChanges><FrequencyChange><Frequency dt:dt="r8">3507695</Frequency><Timestamp dt:dt="r8">1539462110288</Timestamp><Current dt:dt="r8">0</Current><DateUtc dt:dt="string">2015-07-27T21:30:09Z</DateUtc></FrequencyChange></FrequencyChanges></Clock>\n	Hungry_Donkey_bar_English_2-125-1	60.018	76	1.0.0.18	1	1864529620	Standard	2.0.10.353	2.0.10.353	07-27-2015	7/27/2015 9:30:09 PM	17:30:09	2.0.10.248	60	Bar50-50.bmp	53	2	?	10r_4g.bmp	0r_4g.bmp	2r_2g.bmp	0r_2g.bmp		0r_4g.bmp			TrialProc	TrialList	0	cvbn	-999999	16	206800	0	v	120	206920	192	-170	22	-2	8	6	10	2	6	60	-10	0	-2	0	4	4	2	2	0	4
Hungry_Donkey_bar_English_2	125	1	<?xml version="1.0"?>\n<Clock xmlns:dt="urn:schemas-microsoft-com:datatypes"><Description dt:dt="string">E-Prime Primary Realtime Clock</Description><StartTime><Timestamp dt:dt="int">0</Timestamp><DateUtc dt:dt="string">2015-07-27T21:30:09Z</DateUtc></StartTime><FrequencyChanges><FrequencyChange><Frequency dt:dt="r8">3507695</Frequency><Timestamp dt:dt="r8">1539462110288</Timestamp><Current dt:dt="r8">0</Current><DateUtc dt:dt="string">2015-07-27T21:30:09Z</DateUtc></FrequencyChange></FrequencyChanges></Clock>\n	Hungry_Donkey_bar_English_2-125-1	60.018	76	1.0.0.18	1	1864529620	Standard	2.0.10.353	2.0.10.353	07-27-2015	7/27/2015 9:30:09 PM	17:30:09	2.0.10.248	61	Bar50-50.bmp	54	2	?	10r_4g.bmp	0r_4g.bmp	2r_2g.bmp	0r_2g.bmp		0r_4g.bmp			TrialProc	TrialList	0	cvbn	-999999	16	208949	0	v	435	209384	196	-170	26	-2	12	6	10	3	7	61	-10	0	-2	0	4	4	2	2	0	4
Hungry_Donkey_bar_English_2	125	1	<?xml version="1.0"?>\n<Clock xmlns:dt="urn:schemas-microsoft-com:datatypes"><Description dt:dt="string">E-Prime Primary Realtime Clock</Description><StartTime><Timestamp dt:dt="int">0</Timestamp><DateUtc dt:dt="string">2015-07-27T21:30:09Z</DateUtc></StartTime><FrequencyChanges><FrequencyChange><Frequency dt:dt="r8">3507695</Frequency><Timestamp dt:dt="r8">1539462110288</Timestamp><Current dt:dt="r8">0</Current><DateUtc dt:dt="string">2015-07-27T21:30:09Z</DateUtc></FrequencyChange></FrequencyChanges></Clock>\n	Hungry_Donkey_bar_English_2-125-1	60.018	76	1.0.0.18	1	1864529620	Standard	2.0.10.353	2.0.10.353	07-27-2015	7/27/2015 9:30:09 PM	17:30:09	2.0.10.248	62	Bar50-50.bmp	54	4	?	10r_4g.bmp	0r_4g.bmp	2r_2g.bmp	0r_2g.bmp				0r_2g.bmp	TrialProc	TrialList	0	cvbn	-999999	16	211415	0	n	177	211592	198	-170	28	-2	12	6	12	4	7	62	-10	0	-2	0	4	4	2	2	0	2
Hungry_Donkey_bar_English_2	125	1	<?xml version="1.0"?>\n<Clock xmlns:dt="urn:schemas-microsoft-com:datatypes"><Description dt:dt="string">E-Prime Primary Realtime Clock</Description><StartTime><Timestamp dt:dt="int">0</Timestamp><DateUtc dt:dt="string">2015-07-27T21:30:09Z</DateUtc></StartTime><FrequencyChanges><FrequencyChange><Frequency dt:dt="r8">3507695</Frequency><Timestamp dt:dt="r8">1539462110288</Timestamp><Current dt:dt="r8">0</Current><DateUtc dt:dt="string">2015-07-27T21:30:09Z</DateUtc></FrequencyChange></FrequencyChanges></Clock>\n	Hungry_Donkey_bar_English_2-125-1	60.018	76	1.0.0.18	1	1864529620	Standard	2.0.10.353	2.0.10.353	07-27-2015	7/27/2015 9:30:09 PM	17:30:09	2.0.10.248	63	Bar50-50.bmp	54	1	?	0r_4g.bmp	0r_4g.bmp	0r_2g.bmp	0r_2g.bmp	0r_4g.bmp				TrialProc	TrialList	0	cvbn	-999999	16	213631	0	c	569	214200	202	-170	32	2	12	6	12	9	7	63	0	0	0	0	4	4	2	2	0	4
Hungry_Donkey_bar_English_2	125	1	<?xml version="1.0"?>\n<Clock xmlns:dt="urn:schemas-microsoft-com:datatypes"><Description dt:dt="string">E-Prime Primary Realtime Clock</Description><StartTime><Timestamp dt:dt="int">0</Timestamp><DateUtc dt:dt="string">2015-07-27T21:30:09Z</DateUtc></StartTime><FrequencyChanges><FrequencyChange><Frequency dt:dt="r8">3507695</Frequency><Timestamp dt:dt="r8">1539462110288</Timestamp><Current dt:dt="r8">0</Current><DateUtc dt:dt="string">2015-07-27T21:30:09Z</DateUtc></FrequencyChange></FrequencyChanges></Clock>\n	Hungry_Donkey_bar_English_2-125-1	60.018	76	1.0.0.18	1	1864529620	Standard	2.0.10.353	2.0.10.353	07-27-2015	7/27/2015 9:30:09 PM	17:30:09	2.0.10.248	64	Bar50-50.bmp	55	2	?	10r_4g.bmp	0r_4g.bmp	2r_2g.bmp	0r_2g.bmp		0r_4g.bmp			TrialProc	TrialList	0	cvbn	-999999	16	216230	0	v	98	216328	206	-170	36	2	16	6	12	2	7	64	-10	0	-2	0	4	4	2	2	0	4
Hungry_Donkey_bar_English_2	125	1	<?xml version="1.0"?>\n<Clock xmlns:dt="urn:schemas-microsoft-com:datatypes"><Description dt:dt="string">E-Prime Primary Realtime Clock</Description><StartTime><Timestamp dt:dt="int">0</Timestamp><DateUtc dt:dt="string">2015-07-27T21:30:09Z</DateUtc></StartTime><FrequencyChanges><FrequencyChange><Frequency dt:dt="r8">3507695</Frequency><Timestamp dt:dt="r8">1539462110288</Timestamp><Current dt:dt="r8">0</Current><DateUtc dt:dt="string">2015-07-27T21:30:09Z</DateUtc></FrequencyChange></FrequencyChanges></Clock>\n	Hungry_Donkey_bar_English_2-125-1	60.018	76	1.0.0.18	1	1864529620	Standard	2.0.10.353	2.0.10.353	07-27-2015	7/27/2015 9:30:09 PM	17:30:09	2.0.10.248	65	Bar50-50.bmp	55	3	?	0r_4g.bmp	0r_4g.bmp	0r_2g.bmp	0r_2g.bmp			0r_2g.bmp		TrialProc	TrialList	0	cvbn	-999999	16	218363	0	b	92	218455	208	-170	38	2	16	8	12	7	7	65	0	0	0	0	4	4	2	2	0	2
Hungry_Donkey_bar_English_2	125	1	<?xml version="1.0"?>\n<Clock xmlns:dt="urn:schemas-microsoft-com:datatypes"><Description dt:dt="string">E-Prime Primary Realtime Clock</Description><StartTime><Timestamp dt:dt="int">0</Timestamp><DateUtc dt:dt="string">2015-07-27T21:30:09Z</DateUtc></StartTime><FrequencyChanges><FrequencyChange><Frequency dt:dt="r8">3507695</Frequency><Timestamp dt:dt="r8">1539462110288</Timestamp><Current dt:dt="r8">0</Current><DateUtc dt:dt="string">2015-07-27T21:30:09Z</DateUtc></FrequencyChange></FrequencyChanges></Clock>\n	Hungry_Donkey_bar_English_2-125-1	60.018	76	1.0.0.18	1	1864529620	Standard	2.0.10.353	2.0.10.353	07-27-2015	7/27/2015 9:30:09 PM	17:30:09	2.0.10.248	66	Bar50-50.bmp	55	2	?	12r_4g.bmp	0r_4g.bmp	3r_2g.bmp	0r_2g.bmp		0r_4g.bmp			TrialProc	TrialList	0	cvbn	-999999	16	220496	0	v	279	220775	212	-170	42	2	20	8	12	5	7	66	-12	0	-3	0	4	4	2	2	0	4
Hungry_Donkey_bar_English_2	125	1	<?xml version="1.0"?>\n<Clock xmlns:dt="urn:schemas-microsoft-com:datatypes"><Description dt:dt="string">E-Prime Primary Realtime Clock</Description><StartTime><Timestamp dt:dt="int">0</Timestamp><DateUtc dt:dt="string">2015-07-27T21:30:09Z</DateUtc></StartTime><FrequencyChanges><FrequencyChange><Frequency dt:dt="r8">3507695</Frequency><Timestamp dt:dt="r8">1539462110288</Timestamp><Current dt:dt="r8">0</Current><DateUtc dt:dt="string">2015-07-27T21:30:09Z</DateUtc></FrequencyChange></FrequencyChanges></Clock>\n	Hungry_Donkey_bar_English_2-125-1	60.018	76	1.0.0.18	1	1864529620	Standard	2.0.10.353	2.0.10.353	07-27-2015	7/27/2015 9:30:09 PM	17:30:09	2.0.10.248	67	Bar50-50.bmp	56	2	?	0r_4g.bmp	0r_4g.bmp	0r_2g.bmp	0r_2g.bmp		0r_4g.bmp			TrialProc	TrialList	0	cvbn	-999999	16	222812	0	v	299	223111	216	-170	46	2	24	8	12	8	7	67	0	0	0	0	4	4	2	2	0	4
Hungry_Donkey_bar_English_2	125	1	<?xml version="1.0"?>\n<Clock xmlns:dt="urn:schemas-microsoft-com:datatypes"><Description dt:dt="string">E-Prime Primary Realtime Clock</Description><StartTime><Timestamp dt:dt="int">0</Timestamp><DateUtc dt:dt="string">2015-07-27T21:30:09Z</DateUtc></StartTime><FrequencyChanges><FrequencyChange><Frequency dt:dt="r8">3507695</Frequency><Timestamp dt:dt="r8">1539462110288</Timestamp><Current dt:dt="r8">0</Current><DateUtc dt:dt="string">2015-07-27T21:30:09Z</DateUtc></FrequencyChange></FrequencyChanges></Clock>\n	Hungry_Donkey_bar_English_2-125-1	60.018	76	1.0.0.18	1	1864529620	Standard	2.0.10.353	2.0.10.353	07-27-2015	7/27/2015 9:30:09 PM	17:30:09	2.0.10.248	68	Bar50-50.bmp	56	1	?	0r_4g.bmp	0r_4g.bmp	0r_2g.bmp	0r_2g.bmp	0r_4g.bmp				TrialProc	TrialList	0	cvbn	-999999	16	225144	0	c	367	225511	220	-170	50	6	24	8	12	6	7	68	0	0	0	0	4	4	2	2	0	4
Hungry_Donkey_bar_English_2	125	1	<?xml version="1.0"?>\n<Clock xmlns:dt="urn:schemas-microsoft-com:datatypes"><Description dt:dt="string">E-Prime Primary Realtime Clock</Description><StartTime><Timestamp dt:dt="int">0</Timestamp><DateUtc dt:dt="string">2015-07-27T21:30:09Z</DateUtc></StartTime><FrequencyChanges><FrequencyChange><Frequency dt:dt="r8">3507695</Frequency><Timestamp dt:dt="r8">1539462110288</Timestamp><Current dt:dt="r8">0</Current><DateUtc dt:dt="string">2015-07-27T21:30:09Z</DateUtc></FrequencyChange></FrequencyChanges></Clock>\n	Hungry_Donkey_bar_English_2-125-1	60.018	76	1.0.0.18	1	1864529620	Standard	2.0.10.353	2.0.10.353	07-27-2015	7/27/2015 9:30:09 PM	17:30:09	2.0.10.248	69	Bar50-50.bmp	50	2	?	8r_4g.bmp	50r_4g.bmp	1r_2g.bmp	10r_2g.bmp		50r_4g.bmp			TrialProc	TrialList	0	cvbn	-999999	16	227544	0	v	399	227943	224	-220	4	6	-22	8	12	1	7	69	-8	-50	-1	-10	4	4	2	2	-50	4
Hungry_Donkey_bar_English_2	125	1	<?xml version="1.0"?>\n<Clock xmlns:dt="urn:schemas-microsoft-com:datatypes"><Description dt:dt="string">E-Prime Primary Realtime Clock</Description><StartTime><Timestamp dt:dt="int">0</Timestamp><DateUtc dt:dt="string">2015-07-27T21:30:09Z</DateUtc></StartTime><FrequencyChanges><FrequencyChange><Frequency dt:dt="r8">3507695</Frequency><Timestamp dt:dt="r8">1539462110288</Timestamp><Current dt:dt="r8">0</Current><DateUtc dt:dt="string">2015-07-27T21:30:09Z</DateUtc></FrequencyChange></FrequencyChanges></Clock>\n	Hungry_Donkey_bar_English_2-125-1	60.018	76	1.0.0.18	1	1864529620	Standard	2.0.10.353	2.0.10.353	07-27-2015	7/27/2015 9:30:09 PM	17:30:09	2.0.10.248	70	Bar50-50.bmp	51	1	?	0r_4g.bmp	0r_4g.bmp	0r_2g.bmp	0r_2g.bmp	0r_4g.bmp				TrialProc	TrialList	0	cvbn	-999999	16	229976	0	c	527	230503	228	-220	8	10	-22	8	12	10	7	70	0	0	0	0	4	4	2	2	0	4
Hungry_Donkey_bar_English_2	125	1	<?xml version="1.0"?>\n<Clock xmlns:dt="urn:schemas-microsoft-com:datatypes"><Description dt:dt="string">E-Prime Primary Realtime Clock</Description><StartTime><Timestamp dt:dt="int">0</Timestamp><DateUtc dt:dt="string">2015-07-27T21:30:09Z</DateUtc></StartTime><FrequencyChanges><FrequencyChange><Frequency dt:dt="r8">3507695</Frequency><Timestamp dt:dt="r8">1539462110288</Timestamp><Current dt:dt="r8">0</Current><DateUtc dt:dt="string">2015-07-27T21:30:09Z</DateUtc></FrequencyChange></FrequencyChanges></Clock>\n	Hungry_Donkey_bar_English_2-125-1	60.018	76	1.0.0.18	1	1864529620	Standard	2.0.10.353	2.0.10.353	07-27-2015	7/27/2015 9:30:09 PM	17:30:09	2.0.10.248	71	Bar50-50.bmp	51	3	?	10r_4g.bmp	0r_4g.bmp	2r_2g.bmp	0r_2g.bmp			2r_2g.bmp		TrialProc	TrialList	0	cvbn	-999999	16	232526	0	b	377	232903	230	-222	8	10	-22	8	12	4	8	71	-10	0	-2	0	4	4	2	2	-2	2
Hungry_Donkey_bar_English_2	125	1	<?xml version="1.0"?>\n<Clock xmlns:dt="urn:schemas-microsoft-com:datatypes"><Description dt:dt="string">E-Prime Primary Realtime Clock</Description><StartTime><Timestamp dt:dt="int">0</Timestamp><DateUtc dt:dt="string">2015-07-27T21:30:09Z</DateUtc></StartTime><FrequencyChanges><FrequencyChange><Frequency dt:dt="r8">3507695</Frequency><Timestamp dt:dt="r8">1539462110288</Timestamp><Current dt:dt="r8">0</Current><DateUtc dt:dt="string">2015-07-27T21:30:09Z</DateUtc></FrequencyChange></FrequencyChanges></Clock>\n	Hungry_Donkey_bar_English_2-125-1	60.018	76	1.0.0.18	1	1864529620	Standard	2.0.10.353	2.0.10.353	07-27-2015	7/27/2015 9:30:09 PM	17:30:09	2.0.10.248	72	Bar50-50.bmp	51	1	?	0r_4g.bmp	0r_4g.bmp	0r_2g.bmp	0r_2g.bmp	0r_4g.bmp				TrialProc	TrialList	0	cvbn	-999999	17	234942	0	c	265	235207	234	-222	12	14	-22	8	12	9	8	72	0	0	0	0	4	4	2	2	0	4
Hungry_Donkey_bar_English_2	125	1	<?xml version="1.0"?>\n<Clock xmlns:dt="urn:schemas-microsoft-com:datatypes"><Description dt:dt="string">E-Prime Primary Realtime Clock</Description><StartTime><Timestamp dt:dt="int">0</Timestamp><DateUtc dt:dt="string">2015-07-27T21:30:09Z</DateUtc></StartTime><FrequencyChanges><FrequencyChange><Frequency dt:dt="r8">3507695</Frequency><Timestamp dt:dt="r8">1539462110288</Timestamp><Current dt:dt="r8">0</Current><DateUtc dt:dt="string">2015-07-27T21:30:09Z</DateUtc></FrequencyChange></FrequencyChanges></Clock>\n	Hungry_Donkey_bar_English_2-125-1	60.018	76	1.0.0.18	1	1864529620	Standard	2.0.10.353	2.0.10.353	07-27-2015	7/27/2015 9:30:09 PM	17:30:09	2.0.10.248	73	Bar50-50.bmp	52	2	?	10r_4g.bmp	0r_4g.bmp	2r_2g.bmp	0r_2g.bmp		0r_4g.bmp			TrialProc	TrialList	0	cvbn	-999999	16	237241	0	v	541	237782	238	-222	16	14	-18	8	12	3	8	73	-10	0	-2	0	4	4	2	2	0	4
Hungry_Donkey_bar_English_2	125	1	<?xml version="1.0"?>\n<Clock xmlns:dt="urn:schemas-microsoft-com:datatypes"><Description dt:dt="string">E-Prime Primary Realtime Clock</Description><StartTime><Timestamp dt:dt="int">0</Timestamp><DateUtc dt:dt="string">2015-07-27T21:30:09Z</DateUtc></StartTime><FrequencyChanges><FrequencyChange><Frequency dt:dt="r8">3507695</Frequency><Timestamp dt:dt="r8">1539462110288</Timestamp><Current dt:dt="r8">0</Current><DateUtc dt:dt="string">2015-07-27T21:30:09Z</DateUtc></FrequencyChange></FrequencyChanges></Clock>\n	Hungry_Donkey_bar_English_2-125-1	60.018	76	1.0.0.18	1	1864529620	Standard	2.0.10.353	2.0.10.353	07-27-2015	7/27/2015 9:30:09 PM	17:30:09	2.0.10.248	74	Bar50-50.bmp	52	3	?	8r_4g.bmp	50r_4g.bmp	1r_2g.bmp	10r_2g.bmp			1r_2g.bmp		TrialProc	TrialList	0	cvbn	-999999	16	239807	0	b	423	240230	240	-223	17	14	-18	9	12	1	8	74	-8	-50	-1	-10	4	4	2	2	-1	2
Hungry_Donkey_bar_English_2	125	1	<?xml version="1.0"?>\n<Clock xmlns:dt="urn:schemas-microsoft-com:datatypes"><Description dt:dt="string">E-Prime Primary Realtime Clock</Description><StartTime><Timestamp dt:dt="int">0</Timestamp><DateUtc dt:dt="string">2015-07-27T21:30:09Z</DateUtc></StartTime><FrequencyChanges><FrequencyChange><Frequency dt:dt="r8">3507695</Frequency><Timestamp dt:dt="r8">1539462110288</Timestamp><Current dt:dt="r8">0</Current><DateUtc dt:dt="string">2015-07-27T21:30:09Z</DateUtc></FrequencyChange></FrequencyChanges></Clock>\n	Hungry_Donkey_bar_English_2-125-1	60.018	76	1.0.0.18	1	1864529620	Standard	2.0.10.353	2.0.10.353	07-27-2015	7/27/2015 9:30:09 PM	17:30:09	2.0.10.248	75	Bar50-50.bmp	52	1	?	0r_4g.bmp	0r_4g.bmp	0r_2g.bmp	0r_2g.bmp	0r_4g.bmp				TrialProc	TrialList	0	cvbn	-999999	16	242256	0	c	422	242678	244	-223	21	18	-18	9	12	10	8	75	0	0	0	0	4	4	2	2	0	4
Hungry_Donkey_bar_English_2	125	1	<?xml version="1.0"?>\n<Clock xmlns:dt="urn:schemas-microsoft-com:datatypes"><Description dt:dt="string">E-Prime Primary Realtime Clock</Description><StartTime><Timestamp dt:dt="int">0</Timestamp><DateUtc dt:dt="string">2015-07-27T21:30:09Z</DateUtc></StartTime><FrequencyChanges><FrequencyChange><Frequency dt:dt="r8">3507695</Frequency><Timestamp dt:dt="r8">1539462110288</Timestamp><Current dt:dt="r8">0</Current><DateUtc dt:dt="string">2015-07-27T21:30:09Z</DateUtc></FrequencyChange></FrequencyChanges></Clock>\n	Hungry_Donkey_bar_English_2-125-1	60.018	76	1.0.0.18	1	1864529620	Standard	2.0.10.353	2.0.10.353	07-27-2015	7/27/2015 9:30:09 PM	17:30:09	2.0.10.248	76	Bar50-50.bmp	53	2	?	10r_4g.bmp	0r_4g.bmp	2r_2g.bmp	0r_2g.bmp		0r_4g.bmp			TrialProc	TrialList	0	cvbn	-999999	16	244705	0	v	501	245206	248	-223	25	18	-14	9	12	2	8	76	-10	0	-2	0	4	4	2	2	0	4
Hungry_Donkey_bar_English_2	125	1	<?xml version="1.0"?>\n<Clock xmlns:dt="urn:schemas-microsoft-com:datatypes"><Description dt:dt="string">E-Prime Primary Realtime Clock</Description><StartTime><Timestamp dt:dt="int">0</Timestamp><DateUtc dt:dt="string">2015-07-27T21:30:09Z</DateUtc></StartTime><FrequencyChanges><FrequencyChange><Frequency dt:dt="r8">3507695</Frequency><Timestamp dt:dt="r8">1539462110288</Timestamp><Current dt:dt="r8">0</Current><DateUtc dt:dt="string">2015-07-27T21:30:09Z</DateUtc></FrequencyChange></FrequencyChanges></Clock>\n	Hungry_Donkey_bar_English_2-125-1	60.018	76	1.0.0.18	1	1864529620	Standard	2.0.10.353	2.0.10.353	07-27-2015	7/27/2015 9:30:09 PM	17:30:09	2.0.10.248	77	Bar50-50.bmp	53	4	?	0r_4g.bmp	0r_4g.bmp	0r_2g.bmp	0r_2g.bmp				0r_2g.bmp	TrialProc	TrialList	0	cvbn	-999999	16	247238	0	n	304	247542	250	-223	27	18	-14	9	14	6	8	77	0	0	0	0	4	4	2	2	0	2
Hungry_Donkey_bar_English_2	125	1	<?xml version="1.0"?>\n<Clock xmlns:dt="urn:schemas-microsoft-com:datatypes"><Description dt:dt="string">E-Prime Primary Realtime Clock</Description><StartTime><Timestamp dt:dt="int">0</Timestamp><DateUtc dt:dt="string">2015-07-27T21:30:09Z</DateUtc></StartTime><FrequencyChanges><FrequencyChange><Frequency dt:dt="r8">3507695</Frequency><Timestamp dt:dt="r8">1539462110288</Timestamp><Current dt:dt="r8">0</Current><DateUtc dt:dt="string">2015-07-27T21:30:09Z</DateUtc></FrequencyChange></FrequencyChanges></Clock>\n	Hungry_Donkey_bar_English_2-125-1	60.018	76	1.0.0.18	1	1864529620	Standard	2.0.10.353	2.0.10.353	07-27-2015	7/27/2015 9:30:09 PM	17:30:09	2.0.10.248	78	Bar50-50.bmp	53	3	?	0r_4g.bmp	0r_4g.bmp	0r_2g.bmp	0r_2g.bmp			0r_2g.bmp		TrialProc	TrialList	0	cvbn	-999999	16	249571	0	b	579	250150	252	-223	29	18	-14	11	14	8	8	78	0	0	0	0	4	4	2	2	0	2
Hungry_Donkey_bar_English_2	125	1	<?xml version="1.0"?>\n<Clock xmlns:dt="urn:schemas-microsoft-com:datatypes"><Description dt:dt="string">E-Prime Primary Realtime Clock</Description><StartTime><Timestamp dt:dt="int">0</Timestamp><DateUtc dt:dt="string">2015-07-27T21:30:09Z</DateUtc></StartTime><FrequencyChanges><FrequencyChange><Frequency dt:dt="r8">3507695</Frequency><Timestamp dt:dt="r8">1539462110288</Timestamp><Current dt:dt="r8">0</Current><DateUtc dt:dt="string">2015-07-27T21:30:09Z</DateUtc></FrequencyChange></FrequencyChanges></Clock>\n	Hungry_Donkey_bar_English_2-125-1	60.018	76	1.0.0.18	1	1864529620	Standard	2.0.10.353	2.0.10.353	07-27-2015	7/27/2015 9:30:09 PM	17:30:09	2.0.10.248	79	Bar50-50.bmp	53	2	?	12r_4g.bmp	0r_4g.bmp	3r_2g.bmp	0r_2g.bmp		0r_4g.bmp			TrialProc	TrialList	0	cvbn	-999999	16	252186	0	v	556	252742	256	-223	33	18	-10	11	14	5	8	79	-12	0	-3	0	4	4	2	2	0	4
Hungry_Donkey_bar_English_2	125	1	<?xml version="1.0"?>\n<Clock xmlns:dt="urn:schemas-microsoft-com:datatypes"><Description dt:dt="string">E-Prime Primary Realtime Clock</Description><StartTime><Timestamp dt:dt="int">0</Timestamp><DateUtc dt:dt="string">2015-07-27T21:30:09Z</DateUtc></StartTime><FrequencyChanges><FrequencyChange><Frequency dt:dt="r8">3507695</Frequency><Timestamp dt:dt="r8">1539462110288</Timestamp><Current dt:dt="r8">0</Current><DateUtc dt:dt="string">2015-07-27T21:30:09Z</DateUtc></FrequencyChange></FrequencyChanges></Clock>\n	Hungry_Donkey_bar_English_2-125-1	60.018	76	1.0.0.18	1	1864529620	Standard	2.0.10.353	2.0.10.353	07-27-2015	7/27/2015 9:30:09 PM	17:30:09	2.0.10.248	80	Bar50-50.bmp	54	3	?	0r_4g.bmp	0r_4g.bmp	0r_2g.bmp	0r_2g.bmp			0r_2g.bmp		TrialProc	TrialList	0	cvbn	-999999	16	254769	0	b	404	255173	258	-223	35	18	-10	13	14	7	8	80	0	0	0	0	4	4	2	2	0	2
Hungry_Donkey_bar_English_2	125	1	<?xml version="1.0"?>\n<Clock xmlns:dt="urn:schemas-microsoft-com:datatypes"><Description dt:dt="string">E-Prime Primary Realtime Clock</Description><StartTime><Timestamp dt:dt="int">0</Timestamp><DateUtc dt:dt="string">2015-07-27T21:30:09Z</DateUtc></StartTime><FrequencyChanges><FrequencyChange><Frequency dt:dt="r8">3507695</Frequency><Timestamp dt:dt="r8">1539462110288</Timestamp><Current dt:dt="r8">0</Current><DateUtc dt:dt="string">2015-07-27T21:30:09Z</DateUtc></FrequencyChange></FrequencyChanges></Clock>\n	Hungry_Donkey_bar_English_2-125-1	60.018	76	1.0.0.18	1	1864529620	Standard	2.0.10.353	2.0.10.353	07-27-2015	7/27/2015 9:30:09 PM	17:30:09	2.0.10.248	81	Bar50-50.bmp	53	1	?	8r_4g.bmp	50r_4g.bmp	1r_2g.bmp	10r_2g.bmp	8r_4g.bmp				TrialProc	TrialList	0	cvbn	-999999	16	257202	0	c	819	258021	262	-231	31	14	-10	13	14	1	9	81	-8	-50	-1	-10	4	4	2	2	-8	4
Hungry_Donkey_bar_English_2	125	1	<?xml version="1.0"?>\n<Clock xmlns:dt="urn:schemas-microsoft-com:datatypes"><Description dt:dt="string">E-Prime Primary Realtime Clock</Description><StartTime><Timestamp dt:dt="int">0</Timestamp><DateUtc dt:dt="string">2015-07-27T21:30:09Z</DateUtc></StartTime><FrequencyChanges><FrequencyChange><Frequency dt:dt="r8">3507695</Frequency><Timestamp dt:dt="r8">1539462110288</Timestamp><Current dt:dt="r8">0</Current><DateUtc dt:dt="string">2015-07-27T21:30:09Z</DateUtc></FrequencyChange></FrequencyChanges></Clock>\n	Hungry_Donkey_bar_English_2-125-1	60.018	76	1.0.0.18	1	1864529620	Standard	2.0.10.353	2.0.10.353	07-27-2015	7/27/2015 9:30:09 PM	17:30:09	2.0.10.248	82	Bar50-50.bmp	53	4	?	10r_4g.bmp	0r_4g.bmp	2r_2g.bmp	0r_2g.bmp				0r_2g.bmp	TrialProc	TrialList	0	cvbn	-999999	16	260051	0	n	930	260981	264	-231	33	14	-10	13	16	4	9	82	-10	0	-2	0	4	4	2	2	0	2
Hungry_Donkey_bar_English_2	125	1	<?xml version="1.0"?>\n<Clock xmlns:dt="urn:schemas-microsoft-com:datatypes"><Description dt:dt="string">E-Prime Primary Realtime Clock</Description><StartTime><Timestamp dt:dt="int">0</Timestamp><DateUtc dt:dt="string">2015-07-27T21:30:09Z</DateUtc></StartTime><FrequencyChanges><FrequencyChange><Frequency dt:dt="r8">3507695</Frequency><Timestamp dt:dt="r8">1539462110288</Timestamp><Current dt:dt="r8">0</Current><DateUtc dt:dt="string">2015-07-27T21:30:09Z</DateUtc></FrequencyChange></FrequencyChanges></Clock>\n	Hungry_Donkey_bar_English_2-125-1	60.018	76	1.0.0.18	1	1864529620	Standard	2.0.10.353	2.0.10.353	07-27-2015	7/27/2015 9:30:09 PM	17:30:09	2.0.10.248	83	Bar50-50.bmp	54	1	?	0r_4g.bmp	0r_4g.bmp	0r_2g.bmp	0r_2g.bmp	0r_4g.bmp				TrialProc	TrialList	0	cvbn	-999999	16	263017	0	c	620	263637	268	-231	37	18	-10	13	16	10	9	83	0	0	0	0	4	4	2	2	0	4
Hungry_Donkey_bar_English_2	125	1	<?xml version="1.0"?>\n<Clock xmlns:dt="urn:schemas-microsoft-com:datatypes"><Description dt:dt="string">E-Prime Primary Realtime Clock</Description><StartTime><Timestamp dt:dt="int">0</Timestamp><DateUtc dt:dt="string">2015-07-27T21:30:09Z</DateUtc></StartTime><FrequencyChanges><FrequencyChange><Frequency dt:dt="r8">3507695</Frequency><Timestamp dt:dt="r8">1539462110288</Timestamp><Current dt:dt="r8">0</Current><DateUtc dt:dt="string">2015-07-27T21:30:09Z</DateUtc></FrequencyChange></FrequencyChanges></Clock>\n	Hungry_Donkey_bar_English_2-125-1	60.018	76	1.0.0.18	1	1864529620	Standard	2.0.10.353	2.0.10.353	07-27-2015	7/27/2015 9:30:09 PM	17:30:09	2.0.10.248	84	Bar50-50.bmp	54	2	?	10r_4g.bmp	0r_4g.bmp	2r_2g.bmp	0r_2g.bmp		0r_4g.bmp			TrialProc	TrialList	0	cvbn	-999999	16	265666	0	v	1091	266757	272	-231	41	18	-6	13	16	3	9	84	-10	0	-2	0	4	4	2	2	0	4
Hungry_Donkey_bar_English_2	125	1	<?xml version="1.0"?>\n<Clock xmlns:dt="urn:schemas-microsoft-com:datatypes"><Description dt:dt="string">E-Prime Primary Realtime Clock</Description><StartTime><Timestamp dt:dt="int">0</Timestamp><DateUtc dt:dt="string">2015-07-27T21:30:09Z</DateUtc></StartTime><FrequencyChanges><FrequencyChange><Frequency dt:dt="r8">3507695</Frequency><Timestamp dt:dt="r8">1539462110288</Timestamp><Current dt:dt="r8">0</Current><DateUtc dt:dt="string">2015-07-27T21:30:09Z</DateUtc></FrequencyChange></FrequencyChanges></Clock>\n	Hungry_Donkey_bar_English_2-125-1	60.018	76	1.0.0.18	1	1864529620	Standard	2.0.10.353	2.0.10.353	07-27-2015	7/27/2015 9:30:09 PM	17:30:09	2.0.10.248	85	Bar50-50.bmp	54	3	?	10r_4g.bmp	0r_4g.bmp	2r_2g.bmp	0r_2g.bmp			2r_2g.bmp		TrialProc	TrialList	0	cvbn	-999999	16	268782	0	b	2103	270885	274	-233	41	18	-6	13	16	2	9	85	-10	0	-2	0	4	4	2	2	-2	2
Hungry_Donkey_bar_English_2	125	1	<?xml version="1.0"?>\n<Clock xmlns:dt="urn:schemas-microsoft-com:datatypes"><Description dt:dt="string">E-Prime Primary Realtime Clock</Description><StartTime><Timestamp dt:dt="int">0</Timestamp><DateUtc dt:dt="string">2015-07-27T21:30:09Z</DateUtc></StartTime><FrequencyChanges><FrequencyChange><Frequency dt:dt="r8">3507695</Frequency><Timestamp dt:dt="r8">1539462110288</Timestamp><Current dt:dt="r8">0</Current><DateUtc dt:dt="string">2015-07-27T21:30:09Z</DateUtc></FrequencyChange></FrequencyChanges></Clock>\n	Hungry_Donkey_bar_English_2-125-1	60.018	76	1.0.0.18	1	1864529620	Standard	2.0.10.353	2.0.10.353	07-27-2015	7/27/2015 9:30:09 PM	17:30:09	2.0.10.248	86	Bar50-50.bmp	54	3	?	12r_4g.bmp	0r_4g.bmp	3r_2g.bmp	0r_2g.bmp			3r_2g.bmp		TrialProc	TrialList	0	cvbn	-999999	16	272914	0	b	2290	275204	276	-236	40	18	-6	12	16	5	9	86	-12	0	-3	0	4	4	2	2	-3	2
Hungry_Donkey_bar_English_2	125	1	<?xml version="1.0"?>\n<Clock xmlns:dt="urn:schemas-microsoft-com:datatypes"><Description dt:dt="string">E-Prime Primary Realtime Clock</Description><StartTime><Timestamp dt:dt="int">0</Timestamp><DateUtc dt:dt="string">2015-07-27T21:30:09Z</DateUtc></StartTime><FrequencyChanges><FrequencyChange><Frequency dt:dt="r8">3507695</Frequency><Timestamp dt:dt="r8">1539462110288</Timestamp><Current dt:dt="r8">0</Current><DateUtc dt:dt="string">2015-07-27T21:30:09Z</DateUtc></FrequencyChange></FrequencyChanges></Clock>\n	Hungry_Donkey_bar_English_2-125-1	60.018	76	1.0.0.18	1	1864529620	Standard	2.0.10.353	2.0.10.353	07-27-2015	7/27/2015 9:30:09 PM	17:30:09	2.0.10.248	87	Bar50-50.bmp	54	2	?	0r_4g.bmp	0r_4g.bmp	0r_2g.bmp	0r_2g.bmp		0r_4g.bmp			TrialProc	TrialList	0	cvbn	-999999	16	277229	0	v	183	277412	280	-236	44	18	-2	12	16	9	9	87	0	0	0	0	4	4	2	2	0	4
Hungry_Donkey_bar_English_2	125	1	<?xml version="1.0"?>\n<Clock xmlns:dt="urn:schemas-microsoft-com:datatypes"><Description dt:dt="string">E-Prime Primary Realtime Clock</Description><StartTime><Timestamp dt:dt="int">0</Timestamp><DateUtc dt:dt="string">2015-07-27T21:30:09Z</DateUtc></StartTime><FrequencyChanges><FrequencyChange><Frequency dt:dt="r8">3507695</Frequency><Timestamp dt:dt="r8">1539462110288</Timestamp><Current dt:dt="r8">0</Current><DateUtc dt:dt="string">2015-07-27T21:30:09Z</DateUtc></FrequencyChange></FrequencyChanges></Clock>\n	Hungry_Donkey_bar_English_2-125-1	60.018	76	1.0.0.18	1	1864529620	Standard	2.0.10.353	2.0.10.353	07-27-2015	7/27/2015 9:30:09 PM	17:30:09	2.0.10.248	88	Bar50-50.bmp	55	1	?	0r_4g.bmp	0r_4g.bmp	0r_2g.bmp	0r_2g.bmp	0r_4g.bmp				TrialProc	TrialList	0	cvbn	-999999	16	279445	0	c	383	279828	284	-236	48	22	-2	12	16	7	9	88	0	0	0	0	4	4	2	2	0	4
Hungry_Donkey_bar_English_2	125	1	<?xml version="1.0"?>\n<Clock xmlns:dt="urn:schemas-microsoft-com:datatypes"><Description dt:dt="string">E-Prime Primary Realtime Clock</Description><StartTime><Timestamp dt:dt="int">0</Timestamp><DateUtc dt:dt="string">2015-07-27T21:30:09Z</DateUtc></StartTime><FrequencyChanges><FrequencyChange><Frequency dt:dt="r8">3507695</Frequency><Timestamp dt:dt="r8">1539462110288</Timestamp><Current dt:dt="r8">0</Current><DateUtc dt:dt="string">2015-07-27T21:30:09Z</DateUtc></FrequencyChange></FrequencyChanges></Clock>\n	Hungry_Donkey_bar_English_2-125-1	60.018	76	1.0.0.18	1	1864529620	Standard	2.0.10.353	2.0.10.353	07-27-2015	7/27/2015 9:30:09 PM	17:30:09	2.0.10.248	89	Bar50-50.bmp	55	1	?	0r_4g.bmp	0r_4g.bmp	0r_2g.bmp	0r_2g.bmp	0r_4g.bmp				TrialProc	TrialList	0	cvbn	-999999	16	281861	0	c	415	282276	288	-236	52	26	-2	12	16	8	9	89	0	0	0	0	4	4	2	2	0	4
Hungry_Donkey_bar_English_2	125	1	<?xml version="1.0"?>\n<Clock xmlns:dt="urn:schemas-microsoft-com:datatypes"><Description dt:dt="string">E-Prime Primary Realtime Clock</Description><StartTime><Timestamp dt:dt="int">0</Timestamp><DateUtc dt:dt="string">2015-07-27T21:30:09Z</DateUtc></StartTime><FrequencyChanges><FrequencyChange><Frequency dt:dt="r8">3507695</Frequency><Timestamp dt:dt="r8">1539462110288</Timestamp><Current dt:dt="r8">0</Current><DateUtc dt:dt="string">2015-07-27T21:30:09Z</DateUtc></FrequencyChange></FrequencyChanges></Clock>\n	Hungry_Donkey_bar_English_2-125-1	60.018	76	1.0.0.18	1	1864529620	Standard	2.0.10.353	2.0.10.353	07-27-2015	7/27/2015 9:30:09 PM	17:30:09	2.0.10.248	90	Bar50-50.bmp	55	3	?	0r_4g.bmp	0r_4g.bmp	0r_2g.bmp	0r_2g.bmp			0r_2g.bmp		TrialProc	TrialList	0	cvbn	-999999	16	284310	0	b	446	284756	290	-236	54	26	-2	14	16	6	9	90	0	0	0	0	4	4	2	2	0	2
Hungry_Donkey_bar_English_2	125	1	<?xml version="1.0"?>\n<Clock xmlns:dt="urn:schemas-microsoft-com:datatypes"><Description dt:dt="string">E-Prime Primary Realtime Clock</Description><StartTime><Timestamp dt:dt="int">0</Timestamp><DateUtc dt:dt="string">2015-07-27T21:30:09Z</DateUtc></StartTime><FrequencyChanges><FrequencyChange><Frequency dt:dt="r8">3507695</Frequency><Timestamp dt:dt="r8">1539462110288</Timestamp><Current dt:dt="r8">0</Current><DateUtc dt:dt="string">2015-07-27T21:30:09Z</DateUtc></FrequencyChange></FrequencyChanges></Clock>\n	Hungry_Donkey_bar_English_2-125-1	60.018	76	1.0.0.18	1	1864529620	Standard	2.0.10.353	2.0.10.353	07-27-2015	7/27/2015 9:30:09 PM	17:30:09	2.0.10.248	91	Bar50-50.bmp	55	3	?	10r_4g.bmp	0r_4g.bmp	2r_2g.bmp	0r_2g.bmp			2r_2g.bmp		TrialProc	TrialList	0	cvbn	-999999	16	286793	0	b	347	287140	292	-238	54	26	-2	14	16	2	10	91	-10	0	-2	0	4	4	2	2	-2	2
Hungry_Donkey_bar_English_2	125	1	<?xml version="1.0"?>\n<Clock xmlns:dt="urn:schemas-microsoft-com:datatypes"><Description dt:dt="string">E-Prime Primary Realtime Clock</Description><StartTime><Timestamp dt:dt="int">0</Timestamp><DateUtc dt:dt="string">2015-07-27T21:30:09Z</DateUtc></StartTime><FrequencyChanges><FrequencyChange><Frequency dt:dt="r8">3507695</Frequency><Timestamp dt:dt="r8">1539462110288</Timestamp><Current dt:dt="r8">0</Current><DateUtc dt:dt="string">2015-07-27T21:30:09Z</DateUtc></FrequencyChange></FrequencyChanges></Clock>\n	Hungry_Donkey_bar_English_2-125-1	60.018	76	1.0.0.18	1	1864529620	Standard	2.0.10.353	2.0.10.353	07-27-2015	7/27/2015 9:30:09 PM	17:30:09	2.0.10.248	92	Bar50-50.bmp	51	2	?	8r_4g.bmp	50r_4g.bmp	1r_2g.bmp	10r_2g.bmp		50r_4g.bmp			TrialProc	TrialList	0	cvbn	-999999	16	289176	0	v	412	289588	296	-288	8	26	-48	14	16	1	10	92	-8	-50	-1	-10	4	4	2	2	-50	4
Hungry_Donkey_bar_English_2	125	1	<?xml version="1.0"?>\n<Clock xmlns:dt="urn:schemas-microsoft-com:datatypes"><Description dt:dt="string">E-Prime Primary Realtime Clock</Description><StartTime><Timestamp dt:dt="int">0</Timestamp><DateUtc dt:dt="string">2015-07-27T21:30:09Z</DateUtc></StartTime><FrequencyChanges><FrequencyChange><Frequency dt:dt="r8">3507695</Frequency><Timestamp dt:dt="r8">1539462110288</Timestamp><Current dt:dt="r8">0</Current><DateUtc dt:dt="string">2015-07-27T21:30:09Z</DateUtc></FrequencyChange></FrequencyChanges></Clock>\n	Hungry_Donkey_bar_English_2-125-1	60.018	76	1.0.0.18	1	1864529620	Standard	2.0.10.353	2.0.10.353	07-27-2015	7/27/2015 9:30:09 PM	17:30:09	2.0.10.248	93	Bar50-50.bmp	51	3	?	10r_4g.bmp	0r_4g.bmp	2r_2g.bmp	0r_2g.bmp			2r_2g.bmp		TrialProc	TrialList	0	cvbn	-999999	16	291625	0	b	346	291971	298	-290	8	26	-48	14	16	3	10	93	-10	0	-2	0	4	4	2	2	-2	2
Hungry_Donkey_bar_English_2	125	1	<?xml version="1.0"?>\n<Clock xmlns:dt="urn:schemas-microsoft-com:datatypes"><Description dt:dt="string">E-Prime Primary Realtime Clock</Description><StartTime><Timestamp dt:dt="int">0</Timestamp><DateUtc dt:dt="string">2015-07-27T21:30:09Z</DateUtc></StartTime><FrequencyChanges><FrequencyChange><Frequency dt:dt="r8">3507695</Frequency><Timestamp dt:dt="r8">1539462110288</Timestamp><Current dt:dt="r8">0</Current><DateUtc dt:dt="string">2015-07-27T21:30:09Z</DateUtc></FrequencyChange></FrequencyChanges></Clock>\n	Hungry_Donkey_bar_English_2-125-1	60.018	76	1.0.0.18	1	1864529620	Standard	2.0.10.353	2.0.10.353	07-27-2015	7/27/2015 9:30:09 PM	17:30:09	2.0.10.248	94	Bar50-50.bmp	50	1	?	12r_4g.bmp	0r_4g.bmp	3r_2g.bmp	0r_2g.bmp	12r_4g.bmp				TrialProc	TrialList	0	cvbn	-999999	16	294008	0	c	475	294483	302	-302	0	18	-48	14	16	5	10	94	-12	0	-3	0	4	4	2	2	-12	4
Hungry_Donkey_bar_English_2	125	1	<?xml version="1.0"?>\n<Clock xmlns:dt="urn:schemas-microsoft-com:datatypes"><Description dt:dt="string">E-Prime Primary Realtime Clock</Description><StartTime><Timestamp dt:dt="int">0</Timestamp><DateUtc dt:dt="string">2015-07-27T21:30:09Z</DateUtc></StartTime><FrequencyChanges><FrequencyChange><Frequency dt:dt="r8">3507695</Frequency><Timestamp dt:dt="r8">1539462110288</Timestamp><Current dt:dt="r8">0</Current><DateUtc dt:dt="string">2015-07-27T21:30:09Z</DateUtc></FrequencyChange></FrequencyChanges></Clock>\n	Hungry_Donkey_bar_English_2-125-1	60.018	76	1.0.0.18	1	1864529620	Standard	2.0.10.353	2.0.10.353	07-27-2015	7/27/2015 9:30:09 PM	17:30:09	2.0.10.248	95	Bar50-50.bmp	50	3	?	0r_4g.bmp	0r_4g.bmp	0r_2g.bmp	0r_2g.bmp			0r_2g.bmp		TrialProc	TrialList	0	cvbn	-999999	17	296524	0	b	423	296947	304	-302	2	18	-48	16	16	10	10	95	0	0	0	0	4	4	2	2	0	2
Hungry_Donkey_bar_English_2	125	1	<?xml version="1.0"?>\n<Clock xmlns:dt="urn:schemas-microsoft-com:datatypes"><Description dt:dt="string">E-Prime Primary Realtime Clock</Description><StartTime><Timestamp dt:dt="int">0</Timestamp><DateUtc dt:dt="string">2015-07-27T21:30:09Z</DateUtc></StartTime><FrequencyChanges><FrequencyChange><Frequency dt:dt="r8">3507695</Frequency><Timestamp dt:dt="r8">1539462110288</Timestamp><Current dt:dt="r8">0</Current><DateUtc dt:dt="string">2015-07-27T21:30:09Z</DateUtc></FrequencyChange></FrequencyChanges></Clock>\n	Hungry_Donkey_bar_English_2-125-1	60.018	76	1.0.0.18	1	1864529620	Standard	2.0.10.353	2.0.10.353	07-27-2015	7/27/2015 9:30:09 PM	17:30:09	2.0.10.248	96	Bar50-50.bmp	50	2	?	10r_4g.bmp	0r_4g.bmp	2r_2g.bmp	0r_2g.bmp		0r_4g.bmp			TrialProc	TrialList	0	cvbn	-999999	16	298973	0	v	374	299347	308	-302	6	18	-44	16	16	4	10	96	-10	0	-2	0	4	4	2	2	0	4
Hungry_Donkey_bar_English_2	125	1	<?xml version="1.0"?>\n<Clock xmlns:dt="urn:schemas-microsoft-com:datatypes"><Description dt:dt="string">E-Prime Primary Realtime Clock</Description><StartTime><Timestamp dt:dt="int">0</Timestamp><DateUtc dt:dt="string">2015-07-27T21:30:09Z</DateUtc></StartTime><FrequencyChanges><FrequencyChange><Frequency dt:dt="r8">3507695</Frequency><Timestamp dt:dt="r8">1539462110288</Timestamp><Current dt:dt="r8">0</Current><DateUtc dt:dt="string">2015-07-27T21:30:09Z</DateUtc></FrequencyChange></FrequencyChanges></Clock>\n	Hungry_Donkey_bar_English_2-125-1	60.018	76	1.0.0.18	1	1864529620	Standard	2.0.10.353	2.0.10.353	07-27-2015	7/27/2015 9:30:09 PM	17:30:09	2.0.10.248	97	Bar50-50.bmp	51	1	?	0r_4g.bmp	0r_4g.bmp	0r_2g.bmp	0r_2g.bmp	0r_4g.bmp				TrialProc	TrialList	0	cvbn	-999999	16	301372	0	c	535	301907	312	-302	10	22	-44	16	16	9	10	97	0	0	0	0	4	4	2	2	0	4
Hungry_Donkey_bar_English_2	125	1	<?xml version="1.0"?>\n<Clock xmlns:dt="urn:schemas-microsoft-com:datatypes"><Description dt:dt="string">E-Prime Primary Realtime Clock</Description><StartTime><Timestamp dt:dt="int">0</Timestamp><DateUtc dt:dt="string">2015-07-27T21:30:09Z</DateUtc></StartTime><FrequencyChanges><FrequencyChange><Frequency dt:dt="r8">3507695</Frequency><Timestamp dt:dt="r8">1539462110288</Timestamp><Current dt:dt="r8">0</Current><DateUtc dt:dt="string">2015-07-27T21:30:09Z</DateUtc></FrequencyChange></FrequencyChanges></Clock>\n	Hungry_Donkey_bar_English_2-125-1	60.018	76	1.0.0.18	1	1864529620	Standard	2.0.10.353	2.0.10.353	07-27-2015	7/27/2015 9:30:09 PM	17:30:09	2.0.10.248	98	Bar50-50.bmp	51	4	?	0r_4g.bmp	0r_4g.bmp	0r_2g.bmp	0r_2g.bmp				0r_2g.bmp	TrialProc	TrialList	0	cvbn	-999999	16	303938	0	n	305	304243	314	-302	12	22	-44	16	18	7	10	98	0	0	0	0	4	4	2	2	0	2
Hungry_Donkey_bar_English_2	125	1	<?xml version="1.0"?>\n<Clock xmlns:dt="urn:schemas-microsoft-com:datatypes"><Description dt:dt="string">E-Prime Primary Realtime Clock</Description><StartTime><Timestamp dt:dt="int">0</Timestamp><DateUtc dt:dt="string">2015-07-27T21:30:09Z</DateUtc></StartTime><FrequencyChanges><FrequencyChange><Frequency dt:dt="r8">3507695</Frequency><Timestamp dt:dt="r8">1539462110288</Timestamp><Current dt:dt="r8">0</Current><DateUtc dt:dt="string">2015-07-27T21:30:09Z</DateUtc></FrequencyChange></FrequencyChanges></Clock>\n	Hungry_Donkey_bar_English_2-125-1	60.018	76	1.0.0.18	1	1864529620	Standard	2.0.10.353	2.0.10.353	07-27-2015	7/27/2015 9:30:09 PM	17:30:09	2.0.10.248	99	Bar50-50.bmp	51	2	?	0r_4g.bmp	0r_4g.bmp	0r_2g.bmp	0r_2g.bmp		0r_4g.bmp			TrialProc	TrialList	0	cvbn	-999999	16	306271	0	v	388	306659	318	-302	16	22	-40	16	18	8	10	99	0	0	0	0	4	4	2	2	0	4
Hungry_Donkey_bar_English_2	125	1	<?xml version="1.0"?>\n<Clock xmlns:dt="urn:schemas-microsoft-com:datatypes"><Description dt:dt="string">E-Prime Primary Realtime Clock</Description><StartTime><Timestamp dt:dt="int">0</Timestamp><DateUtc dt:dt="string">2015-07-27T21:30:09Z</DateUtc></StartTime><FrequencyChanges><FrequencyChange><Frequency dt:dt="r8">3507695</Frequency><Timestamp dt:dt="r8">1539462110288</Timestamp><Current dt:dt="r8">0</Current><DateUtc dt:dt="string">2015-07-27T21:30:09Z</DateUtc></FrequencyChange></FrequencyChanges></Clock>\n	Hungry_Donkey_bar_English_2-125-1	60.018	76	1.0.0.18	1	1864529620	Standard	2.0.10.353	2.0.10.353	07-27-2015	7/27/2015 9:30:09 PM	17:30:09	2.0.10.248	100	Bar50-50.bmp	52	2	?	0r_4g.bmp	0r_4g.bmp	0r_2g.bmp	0r_2g.bmp		0r_4g.bmp			TrialProc	TrialList	0	cvbn	-999999	16	308687	0	v	692	309379	322	-302	20	22	-36	16	18	6	10	100	0	0	0	0	4	4	2	2	0	4
Hungry_Donkey_bar_English_2	125	1	<?xml version="1.0"?>\n<Clock xmlns:dt="urn:schemas-microsoft-com:datatypes"><Description dt:dt="string">E-Prime Primary Realtime Clock</Description><StartTime><Timestamp dt:dt="int">0</Timestamp><DateUtc dt:dt="string">2015-07-27T21:30:09Z</DateUtc></StartTime><FrequencyChanges><FrequencyChange><Frequency dt:dt="r8">3507695</Frequency><Timestamp dt:dt="r8">1539462110288</Timestamp><Current dt:dt="r8">0</Current><DateUtc dt:dt="string">2015-07-27T21:30:09Z</DateUtc></FrequencyChange></FrequencyChanges></Clock>\n	Hungry_Donkey_bar_English_2-125-1	60.018	76	1.0.0.18	1	1864529620	Standard	2.0.10.353	2.0.10.353	07-27-2015	7/27/2015 9:30:09 PM	17:30:09	2.0.10.248	101	Bar50-50.bmp	51	1	?	10r_4g.bmp	0r_4g.bmp	2r_2g.bmp	0r_2g.bmp	10r_4g.bmp				TrialProc	TrialList	0	cvbn	-999999	16	311403	0	c	439	311842	326	-312	14	16	-36	16	18	2	11	101	-10	0	-2	0	4	4	2	2	-10	4
Hungry_Donkey_bar_English_2	125	1	<?xml version="1.0"?>\n<Clock xmlns:dt="urn:schemas-microsoft-com:datatypes"><Description dt:dt="string">E-Prime Primary Realtime Clock</Description><StartTime><Timestamp dt:dt="int">0</Timestamp><DateUtc dt:dt="string">2015-07-27T21:30:09Z</DateUtc></StartTime><FrequencyChanges><FrequencyChange><Frequency dt:dt="r8">3507695</Frequency><Timestamp dt:dt="r8">1539462110288</Timestamp><Current dt:dt="r8">0</Current><DateUtc dt:dt="string">2015-07-27T21:30:09Z</DateUtc></FrequencyChange></FrequencyChanges></Clock>\n	Hungry_Donkey_bar_English_2-125-1	60.018	76	1.0.0.18	1	1864529620	Standard	2.0.10.353	2.0.10.353	07-27-2015	7/27/2015 9:30:09 PM	17:30:09	2.0.10.248	102	Bar50-50.bmp	51	2	?	10r_4g.bmp	0r_4g.bmp	2r_2g.bmp	0r_2g.bmp		0r_4g.bmp			TrialProc	TrialList	0	cvbn	-999999	17	313869	0	v	613	314482	330	-312	18	16	-32	16	18	3	11	102	-10	0	-2	0	4	4	2	2	0	4
Hungry_Donkey_bar_English_2	125	1	<?xml version="1.0"?>\n<Clock xmlns:dt="urn:schemas-microsoft-com:datatypes"><Description dt:dt="string">E-Prime Primary Realtime Clock</Description><StartTime><Timestamp dt:dt="int">0</Timestamp><DateUtc dt:dt="string">2015-07-27T21:30:09Z</DateUtc></StartTime><FrequencyChanges><FrequencyChange><Frequency dt:dt="r8">3507695</Frequency><Timestamp dt:dt="r8">1539462110288</Timestamp><Current dt:dt="r8">0</Current><DateUtc dt:dt="string">2015-07-27T21:30:09Z</DateUtc></FrequencyChange></FrequencyChanges></Clock>\n	Hungry_Donkey_bar_English_2-125-1	60.018	76	1.0.0.18	1	1864529620	Standard	2.0.10.353	2.0.10.353	07-27-2015	7/27/2015 9:30:09 PM	17:30:09	2.0.10.248	103	Bar50-50.bmp	52	2	?	0r_4g.bmp	0r_4g.bmp	0r_2g.bmp	0r_2g.bmp		0r_4g.bmp			TrialProc	TrialList	0	cvbn	-999999	16	316518	0	v	556	317074	334	-312	22	16	-28	16	18	9	11	103	0	0	0	0	4	4	2	2	0	4
Hungry_Donkey_bar_English_2	125	1	<?xml version="1.0"?>\n<Clock xmlns:dt="urn:schemas-microsoft-com:datatypes"><Description dt:dt="string">E-Prime Primary Realtime Clock</Description><StartTime><Timestamp dt:dt="int">0</Timestamp><DateUtc dt:dt="string">2015-07-27T21:30:09Z</DateUtc></StartTime><FrequencyChanges><FrequencyChange><Frequency dt:dt="r8">3507695</Frequency><Timestamp dt:dt="r8">1539462110288</Timestamp><Current dt:dt="r8">0</Current><DateUtc dt:dt="string">2015-07-27T21:30:09Z</DateUtc></FrequencyChange></FrequencyChanges></Clock>\n	Hungry_Donkey_bar_English_2-125-1	60.018	76	1.0.0.18	1	1864529620	Standard	2.0.10.353	2.0.10.353	07-27-2015	7/27/2015 9:30:09 PM	17:30:09	2.0.10.248	104	Bar50-50.bmp	52	2	?	0r_4g.bmp	0r_4g.bmp	0r_2g.bmp	0r_2g.bmp		0r_4g.bmp			TrialProc	TrialList	0	cvbn	-999999	16	319100	0	v	566	319666	338	-312	26	16	-24	16	18	10	11	104	0	0	0	0	4	4	2	2	0	4
Hungry_Donkey_bar_English_2	125	1	<?xml version="1.0"?>\n<Clock xmlns:dt="urn:schemas-microsoft-com:datatypes"><Description dt:dt="string">E-Prime Primary Realtime Clock</Description><StartTime><Timestamp dt:dt="int">0</Timestamp><DateUtc dt:dt="string">2015-07-27T21:30:09Z</DateUtc></StartTime><FrequencyChanges><FrequencyChange><Frequency dt:dt="r8">3507695</Frequency><Timestamp dt:dt="r8">1539462110288</Timestamp><Current dt:dt="r8">0</Current><DateUtc dt:dt="string">2015-07-27T21:30:09Z</DateUtc></FrequencyChange></FrequencyChanges></Clock>\n	Hungry_Donkey_bar_English_2-125-1	60.018	76	1.0.0.18	1	1864529620	Standard	2.0.10.353	2.0.10.353	07-27-2015	7/27/2015 9:30:09 PM	17:30:09	2.0.10.248	105	Bar50-50.bmp	52	3	?	8r_4g.bmp	50r_4g.bmp	1r_2g.bmp	10r_2g.bmp			1r_2g.bmp		TrialProc	TrialList	0	cvbn	-999999	17	321700	0	b	382	322082	340	-313	27	16	-24	17	18	1	11	105	-8	-50	-1	-10	4	4	2	2	-1	2
Hungry_Donkey_bar_English_2	125	1	<?xml version="1.0"?>\n<Clock xmlns:dt="urn:schemas-microsoft-com:datatypes"><Description dt:dt="string">E-Prime Primary Realtime Clock</Description><StartTime><Timestamp dt:dt="int">0</Timestamp><DateUtc dt:dt="string">2015-07-27T21:30:09Z</DateUtc></StartTime><FrequencyChanges><FrequencyChange><Frequency dt:dt="r8">3507695</Frequency><Timestamp dt:dt="r8">1539462110288</Timestamp><Current dt:dt="r8">0</Current><DateUtc dt:dt="string">2015-07-27T21:30:09Z</DateUtc></FrequencyChange></FrequencyChanges></Clock>\n	Hungry_Donkey_bar_English_2-125-1	60.018	76	1.0.0.18	1	1864529620	Standard	2.0.10.353	2.0.10.353	07-27-2015	7/27/2015 9:30:09 PM	17:30:09	2.0.10.248	106	Bar50-50.bmp	52	2	?	10r_4g.bmp	0r_4g.bmp	2r_2g.bmp	0r_2g.bmp		0r_4g.bmp			TrialProc	TrialList	0	cvbn	-999999	17	324116	0	v	1294	325410	344	-313	31	16	-20	17	18	4	11	106	-10	0	-2	0	4	4	2	2	0	4
Hungry_Donkey_bar_English_2	125	1	<?xml version="1.0"?>\n<Clock xmlns:dt="urn:schemas-microsoft-com:datatypes"><Description dt:dt="string">E-Prime Primary Realtime Clock</Description><StartTime><Timestamp dt:dt="int">0</Timestamp><DateUtc dt:dt="string">2015-07-27T21:30:09Z</DateUtc></StartTime><FrequencyChanges><FrequencyChange><Frequency dt:dt="r8">3507695</Frequency><Timestamp dt:dt="r8">1539462110288</Timestamp><Current dt:dt="r8">0</Current><DateUtc dt:dt="string">2015-07-27T21:30:09Z</DateUtc></FrequencyChange></FrequencyChanges></Clock>\n	Hungry_Donkey_bar_English_2-125-1	60.018	76	1.0.0.18	1	1864529620	Standard	2.0.10.353	2.0.10.353	07-27-2015	7/27/2015 9:30:09 PM	17:30:09	2.0.10.248	107	Bar50-50.bmp	52	1	?	12r_4g.bmp	0r_4g.bmp	3r_2g.bmp	0r_2g.bmp	12r_4g.bmp				TrialProc	TrialList	0	cvbn	-999999	16	327448	0	c	922	328370	348	-325	23	8	-20	17	18	5	11	107	-12	0	-3	0	4	4	2	2	-12	4
Hungry_Donkey_bar_English_2	125	1	<?xml version="1.0"?>\n<Clock xmlns:dt="urn:schemas-microsoft-com:datatypes"><Description dt:dt="string">E-Prime Primary Realtime Clock</Description><StartTime><Timestamp dt:dt="int">0</Timestamp><DateUtc dt:dt="string">2015-07-27T21:30:09Z</DateUtc></StartTime><FrequencyChanges><FrequencyChange><Frequency dt:dt="r8">3507695</Frequency><Timestamp dt:dt="r8">1539462110288</Timestamp><Current dt:dt="r8">0</Current><DateUtc dt:dt="string">2015-07-27T21:30:09Z</DateUtc></FrequencyChange></FrequencyChanges></Clock>\n	Hungry_Donkey_bar_English_2-125-1	60.018	76	1.0.0.18	1	1864529620	Standard	2.0.10.353	2.0.10.353	07-27-2015	7/27/2015 9:30:09 PM	17:30:09	2.0.10.248	108	Bar50-50.bmp	52	3	?	0r_4g.bmp	0r_4g.bmp	0r_2g.bmp	0r_2g.bmp			0r_2g.bmp		TrialProc	TrialList	0	cvbn	-999999	16	330397	0	b	340	330737	350	-325	25	8	-20	19	18	6	11	108	0	0	0	0	4	4	2	2	0	2
Hungry_Donkey_bar_English_2	125	1	<?xml version="1.0"?>\n<Clock xmlns:dt="urn:schemas-microsoft-com:datatypes"><Description dt:dt="string">E-Prime Primary Realtime Clock</Description><StartTime><Timestamp dt:dt="int">0</Timestamp><DateUtc dt:dt="string">2015-07-27T21:30:09Z</DateUtc></StartTime><FrequencyChanges><FrequencyChange><Frequency dt:dt="r8">3507695</Frequency><Timestamp dt:dt="r8">1539462110288</Timestamp><Current dt:dt="r8">0</Current><DateUtc dt:dt="string">2015-07-27T21:30:09Z</DateUtc></FrequencyChange></FrequencyChanges></Clock>\n	Hungry_Donkey_bar_English_2-125-1	60.018	76	1.0.0.18	1	1864529620	Standard	2.0.10.353	2.0.10.353	07-27-2015	7/27/2015 9:30:09 PM	17:30:09	2.0.10.248	109	Bar50-50.bmp	52	4	?	0r_4g.bmp	0r_4g.bmp	0r_2g.bmp	0r_2g.bmp				0r_2g.bmp	TrialProc	TrialList	0	cvbn	-999999	16	332763	0	n	582	333345	352	-325	27	8	-20	19	20	7	11	109	0	0	0	0	4	4	2	2	0	2
Hungry_Donkey_bar_English_2	125	1	<?xml version="1.0"?>\n<Clock xmlns:dt="urn:schemas-microsoft-com:datatypes"><Description dt:dt="string">E-Prime Primary Realtime Clock</Description><StartTime><Timestamp dt:dt="int">0</Timestamp><DateUtc dt:dt="string">2015-07-27T21:30:09Z</DateUtc></StartTime><FrequencyChanges><FrequencyChange><Frequency dt:dt="r8">3507695</Frequency><Timestamp dt:dt="r8">1539462110288</Timestamp><Current dt:dt="r8">0</Current><DateUtc dt:dt="string">2015-07-27T21:30:09Z</DateUtc></FrequencyChange></FrequencyChanges></Clock>\n	Hungry_Donkey_bar_English_2-125-1	60.018	76	1.0.0.18	1	1864529620	Standard	2.0.10.353	2.0.10.353	07-27-2015	7/27/2015 9:30:09 PM	17:30:09	2.0.10.248	110	Bar50-50.bmp	52	2	?	0r_4g.bmp	0r_4g.bmp	0r_2g.bmp	0r_2g.bmp		0r_4g.bmp			TrialProc	TrialList	0	cvbn	-999999	16	335379	0	v	366	335745	356	-325	31	8	-16	19	20	8	11	110	0	0	0	0	4	4	2	2	0	4
Hungry_Donkey_bar_English_2	125	1	<?xml version="1.0"?>\n<Clock xmlns:dt="urn:schemas-microsoft-com:datatypes"><Description dt:dt="string">E-Prime Primary Realtime Clock</Description><StartTime><Timestamp dt:dt="int">0</Timestamp><DateUtc dt:dt="string">2015-07-27T21:30:09Z</DateUtc></StartTime><FrequencyChanges><FrequencyChange><Frequency dt:dt="r8">3507695</Frequency><Timestamp dt:dt="r8">1539462110288</Timestamp><Current dt:dt="r8">0</Current><DateUtc dt:dt="string">2015-07-27T21:30:09Z</DateUtc></FrequencyChange></FrequencyChanges></Clock>\n	Hungry_Donkey_bar_English_2-125-1	60.018	76	1.0.0.18	1	1864529620	Standard	2.0.10.353	2.0.10.353	07-27-2015	7/27/2015 9:30:09 PM	17:30:09	2.0.10.248	111	Bar50-50.bmp	52	3	?	10r_4g.bmp	0r_4g.bmp	2r_2g.bmp	0r_2g.bmp			2r_2g.bmp		TrialProc	TrialList	0	cvbn	-999999	16	337778	0	b	319	338097	358	-327	31	8	-16	19	20	2	12	111	-10	0	-2	0	4	4	2	2	-2	2
