ExperimentName	Subject	Session	Clock.Information	DataFile.Basename	Display.RefreshRate	Eindtotaal[Session]	ExperimentVersion	Group	RandomSeed	RuntimeCapabilities	RuntimeVersion	RuntimeVersionExpected	SessionDate	SessionStartDateTimeUtc	SessionTime	StudioVersion	Block	BarImage	BarTotalWinst	DoorChoice	Eindtotaal[Block]	FBDoor1	FBDoor2	FBDoor3	FBDoor4	Image1	Image2	Image3	Image4	Procedure	Running	spel.ACC	spel.CRESP	spel.DurationError	spel.OnsetDelay	spel.OnsetTime	spel.OnsetToOnsetTime	spel.RESP	spel.RT	spel.RTTime	TotalGain	TotalLose	Totalsum	TotalsumD1	TotalsumD2	TotalsumD3	TotalsumD4	TrialList	TrialList.Cycle	TrialList.Sample	varV1	varV2	varV3	varV4	varW1	varW2	varW3	varW4	Verliesbedrag	Winstbedrag
Hungry_Donkey_bar_English_2	171	1	<?xml version="1.0"?>\n<Clock xmlns:dt="urn:schemas-microsoft-com:datatypes"><Description dt:dt="string">E-Prime Primary Realtime Clock</Description><StartTime><Timestamp dt:dt="int">0</Timestamp><DateUtc dt:dt="string">2016-09-09T21:31:33Z</DateUtc></StartTime><FrequencyChanges><FrequencyChange><Frequency dt:dt="r8">3507675</Frequency><Timestamp dt:dt="r8">898558275940</Timestamp><Current dt:dt="r8">0</Current><DateUtc dt:dt="string">2016-09-09T21:31:33Z</DateUtc></FrequencyChange></FrequencyChanges></Clock>\n	Hungry_Donkey_bar_English_2-171-1	60.017	-36	1.0.0.18	1	910824753	Standard	2.0.10.353	2.0.10.353	09-09-2016	9/9/2016 9:31:33 PM	17:31:33	2.0.10.248	1	Bar50-50.bmp	50	3	?	10r_4g.bmp	0r_4g.bmp	2r_2g.bmp	0r_2g.bmp			2r_2g.bmp		TrialProc	TrialList	0	cvbn	-999999	20	71236	0	b	11580	82816	2	-2	0	0	0	0	0	4	1	1	-10	0	-2	0	4	4	2	2	-2	2
Hungry_Donkey_bar_English_2	171	1	<?xml version="1.0"?>\n<Clock xmlns:dt="urn:schemas-microsoft-com:datatypes"><Description dt:dt="string">E-Prime Primary Realtime Clock</Description><StartTime><Timestamp dt:dt="int">0</Timestamp><DateUtc dt:dt="string">2016-09-09T21:31:33Z</DateUtc></StartTime><FrequencyChanges><FrequencyChange><Frequency dt:dt="r8">3507675</Frequency><Timestamp dt:dt="r8">898558275940</Timestamp><Current dt:dt="r8">0</Current><DateUtc dt:dt="string">2016-09-09T21:31:33Z</DateUtc></FrequencyChange></FrequencyChanges></Clock>\n	Hungry_Donkey_bar_English_2-171-1	60.017	-36	1.0.0.18	1	910824753	Standard	2.0.10.353	2.0.10.353	09-09-2016	9/9/2016 9:31:33 PM	17:31:33	2.0.10.248	2	Bar75-25.bmp	75	2	?	10r_4g.bmp	0r_4g.bmp	2r_2g.bmp	0r_2g.bmp		0r_4g.bmp			TrialProc	TrialList	0	cvbn	-999999	16	84849	0	v	1838	86687	6	-2	4	0	4	0	0	3	1	2	-10	0	-2	0	4	4	2	2	0	4
Hungry_Donkey_bar_English_2	171	1	<?xml version="1.0"?>\n<Clock xmlns:dt="urn:schemas-microsoft-com:datatypes"><Description dt:dt="string">E-Prime Primary Realtime Clock</Description><StartTime><Timestamp dt:dt="int">0</Timestamp><DateUtc dt:dt="string">2016-09-09T21:31:33Z</DateUtc></StartTime><FrequencyChanges><FrequencyChange><Frequency dt:dt="r8">3507675</Frequency><Timestamp dt:dt="r8">898558275940</Timestamp><Current dt:dt="r8">0</Current><DateUtc dt:dt="string">2016-09-09T21:31:33Z</DateUtc></FrequencyChange></FrequencyChanges></Clock>\n	Hungry_Donkey_bar_English_2-171-1	60.017	-36	1.0.0.18	1	910824753	Standard	2.0.10.353	2.0.10.353	09-09-2016	9/9/2016 9:31:33 PM	17:31:33	2.0.10.248	3	Bar75-25.bmp	80	4	?	0r_4g.bmp	0r_4g.bmp	0r_2g.bmp	0r_2g.bmp				0r_2g.bmp	TrialProc	TrialList	0	cvbn	-999999	16	88714	0	n	661	89375	8	-2	6	0	4	0	2	7	1	3	0	0	0	0	4	4	2	2	0	2
Hungry_Donkey_bar_English_2	171	1	<?xml version="1.0"?>\n<Clock xmlns:dt="urn:schemas-microsoft-com:datatypes"><Description dt:dt="string">E-Prime Primary Realtime Clock</Description><StartTime><Timestamp dt:dt="int">0</Timestamp><DateUtc dt:dt="string">2016-09-09T21:31:33Z</DateUtc></StartTime><FrequencyChanges><FrequencyChange><Frequency dt:dt="r8">3507675</Frequency><Timestamp dt:dt="r8">898558275940</Timestamp><Current dt:dt="r8">0</Current><DateUtc dt:dt="string">2016-09-09T21:31:33Z</DateUtc></FrequencyChange></FrequencyChanges></Clock>\n	Hungry_Donkey_bar_English_2-171-1	60.017	-36	1.0.0.18	1	910824753	Standard	2.0.10.353	2.0.10.353	09-09-2016	9/9/2016 9:31:33 PM	17:31:33	2.0.10.248	4	Bar87-13.bmp	86	1	?	0r_4g.bmp	0r_4g.bmp	0r_2g.bmp	0r_2g.bmp	0r_4g.bmp				TrialProc	TrialList	0	cvbn	-999999	16	91414	0	c	953	92367	12	-2	10	4	4	0	2	9	1	4	0	0	0	0	4	4	2	2	0	4
Hungry_Donkey_bar_English_2	171	1	<?xml version="1.0"?>\n<Clock xmlns:dt="urn:schemas-microsoft-com:datatypes"><Description dt:dt="string">E-Prime Primary Realtime Clock</Description><StartTime><Timestamp dt:dt="int">0</Timestamp><DateUtc dt:dt="string">2016-09-09T21:31:33Z</DateUtc></StartTime><FrequencyChanges><FrequencyChange><Frequency dt:dt="r8">3507675</Frequency><Timestamp dt:dt="r8">898558275940</Timestamp><Current dt:dt="r8">0</Current><DateUtc dt:dt="string">2016-09-09T21:31:33Z</DateUtc></FrequencyChange></FrequencyChanges></Clock>\n	Hungry_Donkey_bar_English_2-171-1	60.017	-36	1.0.0.18	1	910824753	Standard	2.0.10.353	2.0.10.353	09-09-2016	9/9/2016 9:31:33 PM	17:31:33	2.0.10.248	5	Bar87-13.bmp	82	3	?	8r_4g.bmp	50r_4g.bmp	1r_2g.bmp	10r_2g.bmp			1r_2g.bmp		TrialProc	TrialList	0	cvbn	-999999	16	94396	0	b	563	94959	14	-3	11	4	4	1	2	1	1	5	-8	-50	-1	-10	4	4	2	2	-1	2
Hungry_Donkey_bar_English_2	171	1	<?xml version="1.0"?>\n<Clock xmlns:dt="urn:schemas-microsoft-com:datatypes"><Description dt:dt="string">E-Prime Primary Realtime Clock</Description><StartTime><Timestamp dt:dt="int">0</Timestamp><DateUtc dt:dt="string">2016-09-09T21:31:33Z</DateUtc></StartTime><FrequencyChanges><FrequencyChange><Frequency dt:dt="r8">3507675</Frequency><Timestamp dt:dt="r8">898558275940</Timestamp><Current dt:dt="r8">0</Current><DateUtc dt:dt="string">2016-09-09T21:31:33Z</DateUtc></FrequencyChange></FrequencyChanges></Clock>\n	Hungry_Donkey_bar_English_2-171-1	60.017	-36	1.0.0.18	1	910824753	Standard	2.0.10.353	2.0.10.353	09-09-2016	9/9/2016 9:31:33 PM	17:31:33	2.0.10.248	6	Bar87-13.bmp	86	2	?	0r_4g.bmp	0r_4g.bmp	0r_2g.bmp	0r_2g.bmp		0r_4g.bmp			TrialProc	TrialList	0	cvbn	-999999	16	96995	0	v	572	97567	18	-3	15	4	8	1	2	10	1	6	0	0	0	0	4	4	2	2	0	4
Hungry_Donkey_bar_English_2	171	1	<?xml version="1.0"?>\n<Clock xmlns:dt="urn:schemas-microsoft-com:datatypes"><Description dt:dt="string">E-Prime Primary Realtime Clock</Description><StartTime><Timestamp dt:dt="int">0</Timestamp><DateUtc dt:dt="string">2016-09-09T21:31:33Z</DateUtc></StartTime><FrequencyChanges><FrequencyChange><Frequency dt:dt="r8">3507675</Frequency><Timestamp dt:dt="r8">898558275940</Timestamp><Current dt:dt="r8">0</Current><DateUtc dt:dt="string">2016-09-09T21:31:33Z</DateUtc></FrequencyChange></FrequencyChanges></Clock>\n	Hungry_Donkey_bar_English_2-171-1	60.017	-36	1.0.0.18	1	910824753	Standard	2.0.10.353	2.0.10.353	09-09-2016	9/9/2016 9:31:33 PM	17:31:33	2.0.10.248	7	Bar87-13.bmp	87	4	?	10r_4g.bmp	0r_4g.bmp	2r_2g.bmp	0r_2g.bmp				0r_2g.bmp	TrialProc	TrialList	0	cvbn	-999999	16	99595	0	n	180	99775	20	-3	17	4	8	1	4	2	1	7	-10	0	-2	0	4	4	2	2	0	2
Hungry_Donkey_bar_English_2	171	1	<?xml version="1.0"?>\n<Clock xmlns:dt="urn:schemas-microsoft-com:datatypes"><Description dt:dt="string">E-Prime Primary Realtime Clock</Description><StartTime><Timestamp dt:dt="int">0</Timestamp><DateUtc dt:dt="string">2016-09-09T21:31:33Z</DateUtc></StartTime><FrequencyChanges><FrequencyChange><Frequency dt:dt="r8">3507675</Frequency><Timestamp dt:dt="r8">898558275940</Timestamp><Current dt:dt="r8">0</Current><DateUtc dt:dt="string">2016-09-09T21:31:33Z</DateUtc></FrequencyChange></FrequencyChanges></Clock>\n	Hungry_Donkey_bar_English_2-171-1	60.017	-36	1.0.0.18	1	910824753	Standard	2.0.10.353	2.0.10.353	09-09-2016	9/9/2016 9:31:33 PM	17:31:33	2.0.10.248	8	Bar87-13.bmp	88	4	?	12r_4g.bmp	0r_4g.bmp	3r_2g.bmp	0r_2g.bmp				0r_2g.bmp	TrialProc	TrialList	0	cvbn	-999999	16	101811	0	n	988	102799	22	-3	19	4	8	1	6	5	1	8	-12	0	-3	0	4	4	2	2	0	2
Hungry_Donkey_bar_English_2	171	1	<?xml version="1.0"?>\n<Clock xmlns:dt="urn:schemas-microsoft-com:datatypes"><Description dt:dt="string">E-Prime Primary Realtime Clock</Description><StartTime><Timestamp dt:dt="int">0</Timestamp><DateUtc dt:dt="string">2016-09-09T21:31:33Z</DateUtc></StartTime><FrequencyChanges><FrequencyChange><Frequency dt:dt="r8">3507675</Frequency><Timestamp dt:dt="r8">898558275940</Timestamp><Current dt:dt="r8">0</Current><DateUtc dt:dt="string">2016-09-09T21:31:33Z</DateUtc></FrequencyChange></FrequencyChanges></Clock>\n	Hungry_Donkey_bar_English_2-171-1	60.017	-36	1.0.0.18	1	910824753	Standard	2.0.10.353	2.0.10.353	09-09-2016	9/9/2016 9:31:33 PM	17:31:33	2.0.10.248	9	Bar87-13.bmp	90	2	?	0r_4g.bmp	0r_4g.bmp	0r_2g.bmp	0r_2g.bmp		0r_4g.bmp			TrialProc	TrialList	0	cvbn	-999999	16	104826	0	v	356	105182	26	-3	23	4	12	1	6	6	1	9	0	0	0	0	4	4	2	2	0	4
Hungry_Donkey_bar_English_2	171	1	<?xml version="1.0"?>\n<Clock xmlns:dt="urn:schemas-microsoft-com:datatypes"><Description dt:dt="string">E-Prime Primary Realtime Clock</Description><StartTime><Timestamp dt:dt="int">0</Timestamp><DateUtc dt:dt="string">2016-09-09T21:31:33Z</DateUtc></StartTime><FrequencyChanges><FrequencyChange><Frequency dt:dt="r8">3507675</Frequency><Timestamp dt:dt="r8">898558275940</Timestamp><Current dt:dt="r8">0</Current><DateUtc dt:dt="string">2016-09-09T21:31:33Z</DateUtc></FrequencyChange></FrequencyChanges></Clock>\n	Hungry_Donkey_bar_English_2-171-1	60.017	-36	1.0.0.18	1	910824753	Standard	2.0.10.353	2.0.10.353	09-09-2016	9/9/2016 9:31:33 PM	17:31:33	2.0.10.248	10	Bar87-13.bmp	91	1	?	0r_4g.bmp	0r_4g.bmp	0r_2g.bmp	0r_2g.bmp	0r_4g.bmp				TrialProc	TrialList	0	cvbn	-999999	16	107209	0	c	357	107566	30	-3	27	8	12	1	6	8	1	10	0	0	0	0	4	4	2	2	0	4
Hungry_Donkey_bar_English_2	171	1	<?xml version="1.0"?>\n<Clock xmlns:dt="urn:schemas-microsoft-com:datatypes"><Description dt:dt="string">E-Prime Primary Realtime Clock</Description><StartTime><Timestamp dt:dt="int">0</Timestamp><DateUtc dt:dt="string">2016-09-09T21:31:33Z</DateUtc></StartTime><FrequencyChanges><FrequencyChange><Frequency dt:dt="r8">3507675</Frequency><Timestamp dt:dt="r8">898558275940</Timestamp><Current dt:dt="r8">0</Current><DateUtc dt:dt="string">2016-09-09T21:31:33Z</DateUtc></FrequencyChange></FrequencyChanges></Clock>\n	Hungry_Donkey_bar_English_2-171-1	60.017	-36	1.0.0.18	1	910824753	Standard	2.0.10.353	2.0.10.353	09-09-2016	9/9/2016 9:31:33 PM	17:31:33	2.0.10.248	11	Bar87-13.bmp	91	4	?	0r_4g.bmp	0r_4g.bmp	0r_2g.bmp	0r_2g.bmp				0r_2g.bmp	TrialProc	TrialList	0	cvbn	-999999	16	109592	0	n	774	110366	32	-3	29	8	12	1	8	9	2	11	0	0	0	0	4	4	2	2	0	2
Hungry_Donkey_bar_English_2	171	1	<?xml version="1.0"?>\n<Clock xmlns:dt="urn:schemas-microsoft-com:datatypes"><Description dt:dt="string">E-Prime Primary Realtime Clock</Description><StartTime><Timestamp dt:dt="int">0</Timestamp><DateUtc dt:dt="string">2016-09-09T21:31:33Z</DateUtc></StartTime><FrequencyChanges><FrequencyChange><Frequency dt:dt="r8">3507675</Frequency><Timestamp dt:dt="r8">898558275940</Timestamp><Current dt:dt="r8">0</Current><DateUtc dt:dt="string">2016-09-09T21:31:33Z</DateUtc></FrequencyChange></FrequencyChanges></Clock>\n	Hungry_Donkey_bar_English_2-171-1	60.017	-36	1.0.0.18	1	910824753	Standard	2.0.10.353	2.0.10.353	09-09-2016	9/9/2016 9:31:33 PM	17:31:33	2.0.10.248	12	Bar87-13.bmp	92	3	?	0r_4g.bmp	0r_4g.bmp	0r_2g.bmp	0r_2g.bmp			0r_2g.bmp		TrialProc	TrialList	0	cvbn	-999999	16	112391	0	b	775	113166	34	-3	31	8	12	3	8	8	2	12	0	0	0	0	4	4	2	2	0	2
Hungry_Donkey_bar_English_2	171	1	<?xml version="1.0"?>\n<Clock xmlns:dt="urn:schemas-microsoft-com:datatypes"><Description dt:dt="string">E-Prime Primary Realtime Clock</Description><StartTime><Timestamp dt:dt="int">0</Timestamp><DateUtc dt:dt="string">2016-09-09T21:31:33Z</DateUtc></StartTime><FrequencyChanges><FrequencyChange><Frequency dt:dt="r8">3507675</Frequency><Timestamp dt:dt="r8">898558275940</Timestamp><Current dt:dt="r8">0</Current><DateUtc dt:dt="string">2016-09-09T21:31:33Z</DateUtc></FrequencyChange></FrequencyChanges></Clock>\n	Hungry_Donkey_bar_English_2-171-1	60.017	-36	1.0.0.18	1	910824753	Standard	2.0.10.353	2.0.10.353	09-09-2016	9/9/2016 9:31:33 PM	17:31:33	2.0.10.248	13	Bar87-13.bmp	93	2	?	10r_4g.bmp	0r_4g.bmp	2r_2g.bmp	0r_2g.bmp		0r_4g.bmp			TrialProc	TrialList	0	cvbn	-999999	16	115190	0	v	376	115566	38	-3	35	8	16	3	8	2	2	13	-10	0	-2	0	4	4	2	2	0	4
Hungry_Donkey_bar_English_2	171	1	<?xml version="1.0"?>\n<Clock xmlns:dt="urn:schemas-microsoft-com:datatypes"><Description dt:dt="string">E-Prime Primary Realtime Clock</Description><StartTime><Timestamp dt:dt="int">0</Timestamp><DateUtc dt:dt="string">2016-09-09T21:31:33Z</DateUtc></StartTime><FrequencyChanges><FrequencyChange><Frequency dt:dt="r8">3507675</Frequency><Timestamp dt:dt="r8">898558275940</Timestamp><Current dt:dt="r8">0</Current><DateUtc dt:dt="string">2016-09-09T21:31:33Z</DateUtc></FrequencyChange></FrequencyChanges></Clock>\n	Hungry_Donkey_bar_English_2-171-1	60.017	-36	1.0.0.18	1	910824753	Standard	2.0.10.353	2.0.10.353	09-09-2016	9/9/2016 9:31:33 PM	17:31:33	2.0.10.248	14	Bar87-13.bmp	93	1	?	0r_4g.bmp	0r_4g.bmp	0r_2g.bmp	0r_2g.bmp	0r_4g.bmp				TrialProc	TrialList	0	cvbn	-999999	16	117606	0	c	392	117998	42	-3	39	12	16	3	8	7	2	14	0	0	0	0	4	4	2	2	0	4
Hungry_Donkey_bar_English_2	171	1	<?xml version="1.0"?>\n<Clock xmlns:dt="urn:schemas-microsoft-com:datatypes"><Description dt:dt="string">E-Prime Primary Realtime Clock</Description><StartTime><Timestamp dt:dt="int">0</Timestamp><DateUtc dt:dt="string">2016-09-09T21:31:33Z</DateUtc></StartTime><FrequencyChanges><FrequencyChange><Frequency dt:dt="r8">3507675</Frequency><Timestamp dt:dt="r8">898558275940</Timestamp><Current dt:dt="r8">0</Current><DateUtc dt:dt="string">2016-09-09T21:31:33Z</DateUtc></FrequencyChange></FrequencyChanges></Clock>\n	Hungry_Donkey_bar_English_2-171-1	60.017	-36	1.0.0.18	1	910824753	Standard	2.0.10.353	2.0.10.353	09-09-2016	9/9/2016 9:31:33 PM	17:31:33	2.0.10.248	15	Bar100-0.bmp	94	4	?	12r_4g.bmp	0r_4g.bmp	3r_2g.bmp	0r_2g.bmp				0r_2g.bmp	TrialProc	TrialList	0	cvbn	-999999	16	120022	0	n	840	120862	44	-3	41	12	16	3	10	5	2	15	-12	0	-3	0	4	4	2	2	0	2
Hungry_Donkey_bar_English_2	171	1	<?xml version="1.0"?>\n<Clock xmlns:dt="urn:schemas-microsoft-com:datatypes"><Description dt:dt="string">E-Prime Primary Realtime Clock</Description><StartTime><Timestamp dt:dt="int">0</Timestamp><DateUtc dt:dt="string">2016-09-09T21:31:33Z</DateUtc></StartTime><FrequencyChanges><FrequencyChange><Frequency dt:dt="r8">3507675</Frequency><Timestamp dt:dt="r8">898558275940</Timestamp><Current dt:dt="r8">0</Current><DateUtc dt:dt="string">2016-09-09T21:31:33Z</DateUtc></FrequencyChange></FrequencyChanges></Clock>\n	Hungry_Donkey_bar_English_2-171-1	60.017	-36	1.0.0.18	1	910824753	Standard	2.0.10.353	2.0.10.353	09-09-2016	9/9/2016 9:31:33 PM	17:31:33	2.0.10.248	16	Bar50-50.bmp	48	2	?	8r_4g.bmp	50r_4g.bmp	1r_2g.bmp	10r_2g.bmp		50r_4g.bmp			TrialProc	TrialList	0	cvbn	-999999	16	122888	0	v	342	123230	48	-53	-5	12	-30	3	10	1	2	16	-8	-50	-1	-10	4	4	2	2	-50	4
Hungry_Donkey_bar_English_2	171	1	<?xml version="1.0"?>\n<Clock xmlns:dt="urn:schemas-microsoft-com:datatypes"><Description dt:dt="string">E-Prime Primary Realtime Clock</Description><StartTime><Timestamp dt:dt="int">0</Timestamp><DateUtc dt:dt="string">2016-09-09T21:31:33Z</DateUtc></StartTime><FrequencyChanges><FrequencyChange><Frequency dt:dt="r8">3507675</Frequency><Timestamp dt:dt="r8">898558275940</Timestamp><Current dt:dt="r8">0</Current><DateUtc dt:dt="string">2016-09-09T21:31:33Z</DateUtc></FrequencyChange></FrequencyChanges></Clock>\n	Hungry_Donkey_bar_English_2-171-1	60.017	-36	1.0.0.18	1	910824753	Standard	2.0.10.353	2.0.10.353	09-09-2016	9/9/2016 9:31:33 PM	17:31:33	2.0.10.248	17	Bar50-50.bmp	49	4	?	10r_4g.bmp	0r_4g.bmp	2r_2g.bmp	0r_2g.bmp				0r_2g.bmp	TrialProc	TrialList	0	cvbn	-999999	17	125271	0	n	790	126061	50	-53	-3	12	-30	3	12	4	2	17	-10	0	-2	0	4	4	2	2	0	2
Hungry_Donkey_bar_English_2	171	1	<?xml version="1.0"?>\n<Clock xmlns:dt="urn:schemas-microsoft-com:datatypes"><Description dt:dt="string">E-Prime Primary Realtime Clock</Description><StartTime><Timestamp dt:dt="int">0</Timestamp><DateUtc dt:dt="string">2016-09-09T21:31:33Z</DateUtc></StartTime><FrequencyChanges><FrequencyChange><Frequency dt:dt="r8">3507675</Frequency><Timestamp dt:dt="r8">898558275940</Timestamp><Current dt:dt="r8">0</Current><DateUtc dt:dt="string">2016-09-09T21:31:33Z</DateUtc></FrequencyChange></FrequencyChanges></Clock>\n	Hungry_Donkey_bar_English_2-171-1	60.017	-36	1.0.0.18	1	910824753	Standard	2.0.10.353	2.0.10.353	09-09-2016	9/9/2016 9:31:33 PM	17:31:33	2.0.10.248	18	Bar50-50.bmp	50	2	?	10r_4g.bmp	0r_4g.bmp	2r_2g.bmp	0r_2g.bmp		0r_4g.bmp			TrialProc	TrialList	0	cvbn	-999999	16	128086	0	v	791	128877	54	-53	1	12	-26	3	12	3	2	18	-10	0	-2	0	4	4	2	2	0	4
Hungry_Donkey_bar_English_2	171	1	<?xml version="1.0"?>\n<Clock xmlns:dt="urn:schemas-microsoft-com:datatypes"><Description dt:dt="string">E-Prime Primary Realtime Clock</Description><StartTime><Timestamp dt:dt="int">0</Timestamp><DateUtc dt:dt="string">2016-09-09T21:31:33Z</DateUtc></StartTime><FrequencyChanges><FrequencyChange><Frequency dt:dt="r8">3507675</Frequency><Timestamp dt:dt="r8">898558275940</Timestamp><Current dt:dt="r8">0</Current><DateUtc dt:dt="string">2016-09-09T21:31:33Z</DateUtc></FrequencyChange></FrequencyChanges></Clock>\n	Hungry_Donkey_bar_English_2-171-1	60.017	-36	1.0.0.18	1	910824753	Standard	2.0.10.353	2.0.10.353	09-09-2016	9/9/2016 9:31:33 PM	17:31:33	2.0.10.248	19	Bar50-50.bmp	51	4	?	0r_4g.bmp	0r_4g.bmp	0r_2g.bmp	0r_2g.bmp				0r_2g.bmp	TrialProc	TrialList	0	cvbn	-999999	16	130902	0	n	839	131741	56	-53	3	12	-26	3	14	6	2	19	0	0	0	0	4	4	2	2	0	2
Hungry_Donkey_bar_English_2	171	1	<?xml version="1.0"?>\n<Clock xmlns:dt="urn:schemas-microsoft-com:datatypes"><Description dt:dt="string">E-Prime Primary Realtime Clock</Description><StartTime><Timestamp dt:dt="int">0</Timestamp><DateUtc dt:dt="string">2016-09-09T21:31:33Z</DateUtc></StartTime><FrequencyChanges><FrequencyChange><Frequency dt:dt="r8">3507675</Frequency><Timestamp dt:dt="r8">898558275940</Timestamp><Current dt:dt="r8">0</Current><DateUtc dt:dt="string">2016-09-09T21:31:33Z</DateUtc></FrequencyChange></FrequencyChanges></Clock>\n	Hungry_Donkey_bar_English_2-171-1	60.017	-36	1.0.0.18	1	910824753	Standard	2.0.10.353	2.0.10.353	09-09-2016	9/9/2016 9:31:33 PM	17:31:33	2.0.10.248	20	Bar50-50.bmp	52	3	?	0r_4g.bmp	0r_4g.bmp	0r_2g.bmp	0r_2g.bmp			0r_2g.bmp		TrialProc	TrialList	0	cvbn	-999999	16	133768	0	b	1125	134893	58	-53	5	12	-26	5	14	10	2	20	0	0	0	0	4	4	2	2	0	2
Hungry_Donkey_bar_English_2	171	1	<?xml version="1.0"?>\n<Clock xmlns:dt="urn:schemas-microsoft-com:datatypes"><Description dt:dt="string">E-Prime Primary Realtime Clock</Description><StartTime><Timestamp dt:dt="int">0</Timestamp><DateUtc dt:dt="string">2016-09-09T21:31:33Z</DateUtc></StartTime><FrequencyChanges><FrequencyChange><Frequency dt:dt="r8">3507675</Frequency><Timestamp dt:dt="r8">898558275940</Timestamp><Current dt:dt="r8">0</Current><DateUtc dt:dt="string">2016-09-09T21:31:33Z</DateUtc></FrequencyChange></FrequencyChanges></Clock>\n	Hungry_Donkey_bar_English_2-171-1	60.017	-36	1.0.0.18	1	910824753	Standard	2.0.10.353	2.0.10.353	09-09-2016	9/9/2016 9:31:33 PM	17:31:33	2.0.10.248	21	Bar50-50.bmp	54	1	?	0r_4g.bmp	0r_4g.bmp	0r_2g.bmp	0r_2g.bmp	0r_4g.bmp				TrialProc	TrialList	0	cvbn	-999999	16	136917	0	c	488	137405	62	-53	9	16	-26	5	14	8	3	21	0	0	0	0	4	4	2	2	0	4
Hungry_Donkey_bar_English_2	171	1	<?xml version="1.0"?>\n<Clock xmlns:dt="urn:schemas-microsoft-com:datatypes"><Description dt:dt="string">E-Prime Primary Realtime Clock</Description><StartTime><Timestamp dt:dt="int">0</Timestamp><DateUtc dt:dt="string">2016-09-09T21:31:33Z</DateUtc></StartTime><FrequencyChanges><FrequencyChange><Frequency dt:dt="r8">3507675</Frequency><Timestamp dt:dt="r8">898558275940</Timestamp><Current dt:dt="r8">0</Current><DateUtc dt:dt="string">2016-09-09T21:31:33Z</DateUtc></FrequencyChange></FrequencyChanges></Clock>\n	Hungry_Donkey_bar_English_2-171-1	60.017	-36	1.0.0.18	1	910824753	Standard	2.0.10.353	2.0.10.353	09-09-2016	9/9/2016 9:31:33 PM	17:31:33	2.0.10.248	22	Bar50-50.bmp	54	3	?	10r_4g.bmp	0r_4g.bmp	2r_2g.bmp	0r_2g.bmp			2r_2g.bmp		TrialProc	TrialList	0	cvbn	-999999	16	139433	0	b	388	139821	64	-55	9	16	-26	5	14	4	3	22	-10	0	-2	0	4	4	2	2	-2	2
Hungry_Donkey_bar_English_2	171	1	<?xml version="1.0"?>\n<Clock xmlns:dt="urn:schemas-microsoft-com:datatypes"><Description dt:dt="string">E-Prime Primary Realtime Clock</Description><StartTime><Timestamp dt:dt="int">0</Timestamp><DateUtc dt:dt="string">2016-09-09T21:31:33Z</DateUtc></StartTime><FrequencyChanges><FrequencyChange><Frequency dt:dt="r8">3507675</Frequency><Timestamp dt:dt="r8">898558275940</Timestamp><Current dt:dt="r8">0</Current><DateUtc dt:dt="string">2016-09-09T21:31:33Z</DateUtc></FrequencyChange></FrequencyChanges></Clock>\n	Hungry_Donkey_bar_English_2-171-1	60.017	-36	1.0.0.18	1	910824753	Standard	2.0.10.353	2.0.10.353	09-09-2016	9/9/2016 9:31:33 PM	17:31:33	2.0.10.248	23	Bar50-50.bmp	55	2	?	10r_4g.bmp	0r_4g.bmp	2r_2g.bmp	0r_2g.bmp		0r_4g.bmp			TrialProc	TrialList	0	cvbn	-999999	16	141849	0	v	132	141981	68	-55	13	16	-22	5	14	2	3	23	-10	0	-2	0	4	4	2	2	0	4
Hungry_Donkey_bar_English_2	171	1	<?xml version="1.0"?>\n<Clock xmlns:dt="urn:schemas-microsoft-com:datatypes"><Description dt:dt="string">E-Prime Primary Realtime Clock</Description><StartTime><Timestamp dt:dt="int">0</Timestamp><DateUtc dt:dt="string">2016-09-09T21:31:33Z</DateUtc></StartTime><FrequencyChanges><FrequencyChange><Frequency dt:dt="r8">3507675</Frequency><Timestamp dt:dt="r8">898558275940</Timestamp><Current dt:dt="r8">0</Current><DateUtc dt:dt="string">2016-09-09T21:31:33Z</DateUtc></FrequencyChange></FrequencyChanges></Clock>\n	Hungry_Donkey_bar_English_2-171-1	60.017	-36	1.0.0.18	1	910824753	Standard	2.0.10.353	2.0.10.353	09-09-2016	9/9/2016 9:31:33 PM	17:31:33	2.0.10.248	24	Bar50-50.bmp	56	4	?	12r_4g.bmp	0r_4g.bmp	3r_2g.bmp	0r_2g.bmp				0r_2g.bmp	TrialProc	TrialList	0	cvbn	-999999	16	144015	0	n	446	144461	70	-55	15	16	-22	5	16	5	3	24	-12	0	-3	0	4	4	2	2	0	2
Hungry_Donkey_bar_English_2	171	1	<?xml version="1.0"?>\n<Clock xmlns:dt="urn:schemas-microsoft-com:datatypes"><Description dt:dt="string">E-Prime Primary Realtime Clock</Description><StartTime><Timestamp dt:dt="int">0</Timestamp><DateUtc dt:dt="string">2016-09-09T21:31:33Z</DateUtc></StartTime><FrequencyChanges><FrequencyChange><Frequency dt:dt="r8">3507675</Frequency><Timestamp dt:dt="r8">898558275940</Timestamp><Current dt:dt="r8">0</Current><DateUtc dt:dt="string">2016-09-09T21:31:33Z</DateUtc></FrequencyChange></FrequencyChanges></Clock>\n	Hungry_Donkey_bar_English_2-171-1	60.017	-36	1.0.0.18	1	910824753	Standard	2.0.10.353	2.0.10.353	09-09-2016	9/9/2016 9:31:33 PM	17:31:33	2.0.10.248	25	Bar63-37.bmp	57	1	?	0r_4g.bmp	0r_4g.bmp	0r_2g.bmp	0r_2g.bmp	0r_4g.bmp				TrialProc	TrialList	0	cvbn	-999999	16	146498	0	c	442	146940	74	-55	19	20	-22	5	16	9	3	25	0	0	0	0	4	4	2	2	0	4
Hungry_Donkey_bar_English_2	171	1	<?xml version="1.0"?>\n<Clock xmlns:dt="urn:schemas-microsoft-com:datatypes"><Description dt:dt="string">E-Prime Primary Realtime Clock</Description><StartTime><Timestamp dt:dt="int">0</Timestamp><DateUtc dt:dt="string">2016-09-09T21:31:33Z</DateUtc></StartTime><FrequencyChanges><FrequencyChange><Frequency dt:dt="r8">3507675</Frequency><Timestamp dt:dt="r8">898558275940</Timestamp><Current dt:dt="r8">0</Current><DateUtc dt:dt="string">2016-09-09T21:31:33Z</DateUtc></FrequencyChange></FrequencyChanges></Clock>\n	Hungry_Donkey_bar_English_2-171-1	60.017	-36	1.0.0.18	1	910824753	Standard	2.0.10.353	2.0.10.353	09-09-2016	9/9/2016 9:31:33 PM	17:31:33	2.0.10.248	26	Bar37-63.bmp	43	2	?	8r_4g.bmp	50r_4g.bmp	1r_2g.bmp	10r_2g.bmp		50r_4g.bmp			TrialProc	TrialList	0	cvbn	-999999	16	148980	0	v	88	149068	78	-105	-27	20	-68	5	16	1	3	26	-8	-50	-1	-10	4	4	2	2	-50	4
Hungry_Donkey_bar_English_2	171	1	<?xml version="1.0"?>\n<Clock xmlns:dt="urn:schemas-microsoft-com:datatypes"><Description dt:dt="string">E-Prime Primary Realtime Clock</Description><StartTime><Timestamp dt:dt="int">0</Timestamp><DateUtc dt:dt="string">2016-09-09T21:31:33Z</DateUtc></StartTime><FrequencyChanges><FrequencyChange><Frequency dt:dt="r8">3507675</Frequency><Timestamp dt:dt="r8">898558275940</Timestamp><Current dt:dt="r8">0</Current><DateUtc dt:dt="string">2016-09-09T21:31:33Z</DateUtc></FrequencyChange></FrequencyChanges></Clock>\n	Hungry_Donkey_bar_English_2-171-1	60.017	-36	1.0.0.18	1	910824753	Standard	2.0.10.353	2.0.10.353	09-09-2016	9/9/2016 9:31:33 PM	17:31:33	2.0.10.248	27	Bar37-63.bmp	43	3	?	0r_4g.bmp	0r_4g.bmp	0r_2g.bmp	0r_2g.bmp			0r_2g.bmp		TrialProc	TrialList	0	cvbn	-999999	17	151097	0	b	195	151292	80	-105	-25	20	-68	7	16	7	3	27	0	0	0	0	4	4	2	2	0	2
Hungry_Donkey_bar_English_2	171	1	<?xml version="1.0"?>\n<Clock xmlns:dt="urn:schemas-microsoft-com:datatypes"><Description dt:dt="string">E-Prime Primary Realtime Clock</Description><StartTime><Timestamp dt:dt="int">0</Timestamp><DateUtc dt:dt="string">2016-09-09T21:31:33Z</DateUtc></StartTime><FrequencyChanges><FrequencyChange><Frequency dt:dt="r8">3507675</Frequency><Timestamp dt:dt="r8">898558275940</Timestamp><Current dt:dt="r8">0</Current><DateUtc dt:dt="string">2016-09-09T21:31:33Z</DateUtc></FrequencyChange></FrequencyChanges></Clock>\n	Hungry_Donkey_bar_English_2-171-1	60.017	-36	1.0.0.18	1	910824753	Standard	2.0.10.353	2.0.10.353	09-09-2016	9/9/2016 9:31:33 PM	17:31:33	2.0.10.248	28	Bar50-50.bmp	44	1	?	0r_4g.bmp	0r_4g.bmp	0r_2g.bmp	0r_2g.bmp	0r_4g.bmp				TrialProc	TrialList	0	cvbn	-999999	16	153329	0	c	395	153724	84	-105	-21	24	-68	7	16	10	3	28	0	0	0	0	4	4	2	2	0	4
Hungry_Donkey_bar_English_2	171	1	<?xml version="1.0"?>\n<Clock xmlns:dt="urn:schemas-microsoft-com:datatypes"><Description dt:dt="string">E-Prime Primary Realtime Clock</Description><StartTime><Timestamp dt:dt="int">0</Timestamp><DateUtc dt:dt="string">2016-09-09T21:31:33Z</DateUtc></StartTime><FrequencyChanges><FrequencyChange><Frequency dt:dt="r8">3507675</Frequency><Timestamp dt:dt="r8">898558275940</Timestamp><Current dt:dt="r8">0</Current><DateUtc dt:dt="string">2016-09-09T21:31:33Z</DateUtc></FrequencyChange></FrequencyChanges></Clock>\n	Hungry_Donkey_bar_English_2-171-1	60.017	-36	1.0.0.18	1	910824753	Standard	2.0.10.353	2.0.10.353	09-09-2016	9/9/2016 9:31:33 PM	17:31:33	2.0.10.248	29	Bar50-50.bmp	45	4	?	0r_4g.bmp	0r_4g.bmp	0r_2g.bmp	0r_2g.bmp				0r_2g.bmp	TrialProc	TrialList	0	cvbn	-999999	16	155762	0	n	1114	156876	86	-105	-19	24	-68	7	18	6	3	29	0	0	0	0	4	4	2	2	0	2
Hungry_Donkey_bar_English_2	171	1	<?xml version="1.0"?>\n<Clock xmlns:dt="urn:schemas-microsoft-com:datatypes"><Description dt:dt="string">E-Prime Primary Realtime Clock</Description><StartTime><Timestamp dt:dt="int">0</Timestamp><DateUtc dt:dt="string">2016-09-09T21:31:33Z</DateUtc></StartTime><FrequencyChanges><FrequencyChange><Frequency dt:dt="r8">3507675</Frequency><Timestamp dt:dt="r8">898558275940</Timestamp><Current dt:dt="r8">0</Current><DateUtc dt:dt="string">2016-09-09T21:31:33Z</DateUtc></FrequencyChange></FrequencyChanges></Clock>\n	Hungry_Donkey_bar_English_2-171-1	60.017	-36	1.0.0.18	1	910824753	Standard	2.0.10.353	2.0.10.353	09-09-2016	9/9/2016 9:31:33 PM	17:31:33	2.0.10.248	30	Bar50-50.bmp	45	3	?	10r_4g.bmp	0r_4g.bmp	2r_2g.bmp	0r_2g.bmp			2r_2g.bmp		TrialProc	TrialList	0	cvbn	-999999	16	158911	0	b	461	159372	88	-107	-19	24	-68	7	18	3	3	30	-10	0	-2	0	4	4	2	2	-2	2
Hungry_Donkey_bar_English_2	171	1	<?xml version="1.0"?>\n<Clock xmlns:dt="urn:schemas-microsoft-com:datatypes"><Description dt:dt="string">E-Prime Primary Realtime Clock</Description><StartTime><Timestamp dt:dt="int">0</Timestamp><DateUtc dt:dt="string">2016-09-09T21:31:33Z</DateUtc></StartTime><FrequencyChanges><FrequencyChange><Frequency dt:dt="r8">3507675</Frequency><Timestamp dt:dt="r8">898558275940</Timestamp><Current dt:dt="r8">0</Current><DateUtc dt:dt="string">2016-09-09T21:31:33Z</DateUtc></FrequencyChange></FrequencyChanges></Clock>\n	Hungry_Donkey_bar_English_2-171-1	60.017	-36	1.0.0.18	1	910824753	Standard	2.0.10.353	2.0.10.353	09-09-2016	9/9/2016 9:31:33 PM	17:31:33	2.0.10.248	31	Bar50-50.bmp	44	1	?	8r_4g.bmp	50r_4g.bmp	1r_2g.bmp	10r_2g.bmp	8r_4g.bmp				TrialProc	TrialList	0	cvbn	-999999	16	161410	0	c	714	162124	92	-115	-23	20	-68	7	18	1	4	31	-8	-50	-1	-10	4	4	2	2	-8	4
Hungry_Donkey_bar_English_2	171	1	<?xml version="1.0"?>\n<Clock xmlns:dt="urn:schemas-microsoft-com:datatypes"><Description dt:dt="string">E-Prime Primary Realtime Clock</Description><StartTime><Timestamp dt:dt="int">0</Timestamp><DateUtc dt:dt="string">2016-09-09T21:31:33Z</DateUtc></StartTime><FrequencyChanges><FrequencyChange><Frequency dt:dt="r8">3507675</Frequency><Timestamp dt:dt="r8">898558275940</Timestamp><Current dt:dt="r8">0</Current><DateUtc dt:dt="string">2016-09-09T21:31:33Z</DateUtc></FrequencyChange></FrequencyChanges></Clock>\n	Hungry_Donkey_bar_English_2-171-1	60.017	-36	1.0.0.18	1	910824753	Standard	2.0.10.353	2.0.10.353	09-09-2016	9/9/2016 9:31:33 PM	17:31:33	2.0.10.248	32	Bar50-50.bmp	45	4	?	0r_4g.bmp	0r_4g.bmp	0r_2g.bmp	0r_2g.bmp				0r_2g.bmp	TrialProc	TrialList	0	cvbn	-999999	16	164159	0	n	1101	165260	94	-115	-21	20	-68	7	20	7	4	32	0	0	0	0	4	4	2	2	0	2
Hungry_Donkey_bar_English_2	171	1	<?xml version="1.0"?>\n<Clock xmlns:dt="urn:schemas-microsoft-com:datatypes"><Description dt:dt="string">E-Prime Primary Realtime Clock</Description><StartTime><Timestamp dt:dt="int">0</Timestamp><DateUtc dt:dt="string">2016-09-09T21:31:33Z</DateUtc></StartTime><FrequencyChanges><FrequencyChange><Frequency dt:dt="r8">3507675</Frequency><Timestamp dt:dt="r8">898558275940</Timestamp><Current dt:dt="r8">0</Current><DateUtc dt:dt="string">2016-09-09T21:31:33Z</DateUtc></FrequencyChange></FrequencyChanges></Clock>\n	Hungry_Donkey_bar_English_2-171-1	60.017	-36	1.0.0.18	1	910824753	Standard	2.0.10.353	2.0.10.353	09-09-2016	9/9/2016 9:31:33 PM	17:31:33	2.0.10.248	33	Bar50-50.bmp	46	1	?	0r_4g.bmp	0r_4g.bmp	0r_2g.bmp	0r_2g.bmp	0r_4g.bmp				TrialProc	TrialList	0	cvbn	-999999	16	167292	0	c	7951	175243	98	-115	-17	24	-68	7	20	8	4	33	0	0	0	0	4	4	2	2	0	4
Hungry_Donkey_bar_English_2	171	1	<?xml version="1.0"?>\n<Clock xmlns:dt="urn:schemas-microsoft-com:datatypes"><Description dt:dt="string">E-Prime Primary Realtime Clock</Description><StartTime><Timestamp dt:dt="int">0</Timestamp><DateUtc dt:dt="string">2016-09-09T21:31:33Z</DateUtc></StartTime><FrequencyChanges><FrequencyChange><Frequency dt:dt="r8">3507675</Frequency><Timestamp dt:dt="r8">898558275940</Timestamp><Current dt:dt="r8">0</Current><DateUtc dt:dt="string">2016-09-09T21:31:33Z</DateUtc></FrequencyChange></FrequencyChanges></Clock>\n	Hungry_Donkey_bar_English_2-171-1	60.017	-36	1.0.0.18	1	910824753	Standard	2.0.10.353	2.0.10.353	09-09-2016	9/9/2016 9:31:33 PM	17:31:33	2.0.10.248	34	Bar50-50.bmp	47	2	?	12r_4g.bmp	0r_4g.bmp	3r_2g.bmp	0r_2g.bmp		0r_4g.bmp			TrialProc	TrialList	0	cvbn	-999999	16	177272	0	v	435	177707	102	-115	-13	24	-64	7	20	5	4	34	-12	0	-3	0	4	4	2	2	0	4
Hungry_Donkey_bar_English_2	171	1	<?xml version="1.0"?>\n<Clock xmlns:dt="urn:schemas-microsoft-com:datatypes"><Description dt:dt="string">E-Prime Primary Realtime Clock</Description><StartTime><Timestamp dt:dt="int">0</Timestamp><DateUtc dt:dt="string">2016-09-09T21:31:33Z</DateUtc></StartTime><FrequencyChanges><FrequencyChange><Frequency dt:dt="r8">3507675</Frequency><Timestamp dt:dt="r8">898558275940</Timestamp><Current dt:dt="r8">0</Current><DateUtc dt:dt="string">2016-09-09T21:31:33Z</DateUtc></FrequencyChange></FrequencyChanges></Clock>\n	Hungry_Donkey_bar_English_2-171-1	60.017	-36	1.0.0.18	1	910824753	Standard	2.0.10.353	2.0.10.353	09-09-2016	9/9/2016 9:31:33 PM	17:31:33	2.0.10.248	35	Bar50-50.bmp	47	3	?	0r_4g.bmp	0r_4g.bmp	0r_2g.bmp	0r_2g.bmp			0r_2g.bmp		TrialProc	TrialList	0	cvbn	-999999	16	179738	0	b	737	180475	104	-115	-11	24	-64	9	20	10	4	35	0	0	0	0	4	4	2	2	0	2
Hungry_Donkey_bar_English_2	171	1	<?xml version="1.0"?>\n<Clock xmlns:dt="urn:schemas-microsoft-com:datatypes"><Description dt:dt="string">E-Prime Primary Realtime Clock</Description><StartTime><Timestamp dt:dt="int">0</Timestamp><DateUtc dt:dt="string">2016-09-09T21:31:33Z</DateUtc></StartTime><FrequencyChanges><FrequencyChange><Frequency dt:dt="r8">3507675</Frequency><Timestamp dt:dt="r8">898558275940</Timestamp><Current dt:dt="r8">0</Current><DateUtc dt:dt="string">2016-09-09T21:31:33Z</DateUtc></FrequencyChange></FrequencyChanges></Clock>\n	Hungry_Donkey_bar_English_2-171-1	60.017	-36	1.0.0.18	1	910824753	Standard	2.0.10.353	2.0.10.353	09-09-2016	9/9/2016 9:31:33 PM	17:31:33	2.0.10.248	36	Bar50-50.bmp	48	4	?	10r_4g.bmp	0r_4g.bmp	2r_2g.bmp	0r_2g.bmp				0r_2g.bmp	TrialProc	TrialList	0	cvbn	-999999	16	182504	0	n	547	183051	106	-115	-9	24	-64	9	22	3	4	36	-10	0	-2	0	4	4	2	2	0	2
Hungry_Donkey_bar_English_2	171	1	<?xml version="1.0"?>\n<Clock xmlns:dt="urn:schemas-microsoft-com:datatypes"><Description dt:dt="string">E-Prime Primary Realtime Clock</Description><StartTime><Timestamp dt:dt="int">0</Timestamp><DateUtc dt:dt="string">2016-09-09T21:31:33Z</DateUtc></StartTime><FrequencyChanges><FrequencyChange><Frequency dt:dt="r8">3507675</Frequency><Timestamp dt:dt="r8">898558275940</Timestamp><Current dt:dt="r8">0</Current><DateUtc dt:dt="string">2016-09-09T21:31:33Z</DateUtc></FrequencyChange></FrequencyChanges></Clock>\n	Hungry_Donkey_bar_English_2-171-1	60.017	-36	1.0.0.18	1	910824753	Standard	2.0.10.353	2.0.10.353	09-09-2016	9/9/2016 9:31:33 PM	17:31:33	2.0.10.248	37	Bar50-50.bmp	47	1	?	10r_4g.bmp	0r_4g.bmp	2r_2g.bmp	0r_2g.bmp	10r_4g.bmp				TrialProc	TrialList	0	cvbn	-999999	16	185087	0	c	316	185403	110	-125	-15	18	-64	9	22	4	4	37	-10	0	-2	0	4	4	2	2	-10	4
Hungry_Donkey_bar_English_2	171	1	<?xml version="1.0"?>\n<Clock xmlns:dt="urn:schemas-microsoft-com:datatypes"><Description dt:dt="string">E-Prime Primary Realtime Clock</Description><StartTime><Timestamp dt:dt="int">0</Timestamp><DateUtc dt:dt="string">2016-09-09T21:31:33Z</DateUtc></StartTime><FrequencyChanges><FrequencyChange><Frequency dt:dt="r8">3507675</Frequency><Timestamp dt:dt="r8">898558275940</Timestamp><Current dt:dt="r8">0</Current><DateUtc dt:dt="string">2016-09-09T21:31:33Z</DateUtc></FrequencyChange></FrequencyChanges></Clock>\n	Hungry_Donkey_bar_English_2-171-1	60.017	-36	1.0.0.18	1	910824753	Standard	2.0.10.353	2.0.10.353	09-09-2016	9/9/2016 9:31:33 PM	17:31:33	2.0.10.248	38	Bar50-50.bmp	48	2	?	10r_4g.bmp	0r_4g.bmp	2r_2g.bmp	0r_2g.bmp		0r_4g.bmp			TrialProc	TrialList	0	cvbn	-999999	16	187436	0	v	494	187930	114	-125	-11	18	-60	9	22	2	4	38	-10	0	-2	0	4	4	2	2	0	4
Hungry_Donkey_bar_English_2	171	1	<?xml version="1.0"?>\n<Clock xmlns:dt="urn:schemas-microsoft-com:datatypes"><Description dt:dt="string">E-Prime Primary Realtime Clock</Description><StartTime><Timestamp dt:dt="int">0</Timestamp><DateUtc dt:dt="string">2016-09-09T21:31:33Z</DateUtc></StartTime><FrequencyChanges><FrequencyChange><Frequency dt:dt="r8">3507675</Frequency><Timestamp dt:dt="r8">898558275940</Timestamp><Current dt:dt="r8">0</Current><DateUtc dt:dt="string">2016-09-09T21:31:33Z</DateUtc></FrequencyChange></FrequencyChanges></Clock>\n	Hungry_Donkey_bar_English_2-171-1	60.017	-36	1.0.0.18	1	910824753	Standard	2.0.10.353	2.0.10.353	09-09-2016	9/9/2016 9:31:33 PM	17:31:33	2.0.10.248	39	Bar50-50.bmp	48	3	?	0r_4g.bmp	0r_4g.bmp	0r_2g.bmp	0r_2g.bmp			0r_2g.bmp		TrialProc	TrialList	0	cvbn	-999999	16	189969	0	b	313	190282	116	-125	-9	18	-60	11	22	6	4	39	0	0	0	0	4	4	2	2	0	2
Hungry_Donkey_bar_English_2	171	1	<?xml version="1.0"?>\n<Clock xmlns:dt="urn:schemas-microsoft-com:datatypes"><Description dt:dt="string">E-Prime Primary Realtime Clock</Description><StartTime><Timestamp dt:dt="int">0</Timestamp><DateUtc dt:dt="string">2016-09-09T21:31:33Z</DateUtc></StartTime><FrequencyChanges><FrequencyChange><Frequency dt:dt="r8">3507675</Frequency><Timestamp dt:dt="r8">898558275940</Timestamp><Current dt:dt="r8">0</Current><DateUtc dt:dt="string">2016-09-09T21:31:33Z</DateUtc></FrequencyChange></FrequencyChanges></Clock>\n	Hungry_Donkey_bar_English_2-171-1	60.017	-36	1.0.0.18	1	910824753	Standard	2.0.10.353	2.0.10.353	09-09-2016	9/9/2016 9:31:33 PM	17:31:33	2.0.10.248	40	Bar50-50.bmp	49	3	?	0r_4g.bmp	0r_4g.bmp	0r_2g.bmp	0r_2g.bmp			0r_2g.bmp		TrialProc	TrialList	0	cvbn	-999999	16	192318	0	b	92	192410	118	-125	-7	18	-60	13	22	9	4	40	0	0	0	0	4	4	2	2	0	2
Hungry_Donkey_bar_English_2	171	1	<?xml version="1.0"?>\n<Clock xmlns:dt="urn:schemas-microsoft-com:datatypes"><Description dt:dt="string">E-Prime Primary Realtime Clock</Description><StartTime><Timestamp dt:dt="int">0</Timestamp><DateUtc dt:dt="string">2016-09-09T21:31:33Z</DateUtc></StartTime><FrequencyChanges><FrequencyChange><Frequency dt:dt="r8">3507675</Frequency><Timestamp dt:dt="r8">898558275940</Timestamp><Current dt:dt="r8">0</Current><DateUtc dt:dt="string">2016-09-09T21:31:33Z</DateUtc></FrequencyChange></FrequencyChanges></Clock>\n	Hungry_Donkey_bar_English_2-171-1	60.017	-36	1.0.0.18	1	910824753	Standard	2.0.10.353	2.0.10.353	09-09-2016	9/9/2016 9:31:33 PM	17:31:33	2.0.10.248	41	Bar50-50.bmp	49	3	?	10r_4g.bmp	0r_4g.bmp	2r_2g.bmp	0r_2g.bmp			2r_2g.bmp		TrialProc	TrialList	0	cvbn	-999999	15	194434	0	b	488	194922	120	-127	-7	18	-60	13	22	4	5	41	-10	0	-2	0	4	4	2	2	-2	2
Hungry_Donkey_bar_English_2	171	1	<?xml version="1.0"?>\n<Clock xmlns:dt="urn:schemas-microsoft-com:datatypes"><Description dt:dt="string">E-Prime Primary Realtime Clock</Description><StartTime><Timestamp dt:dt="int">0</Timestamp><DateUtc dt:dt="string">2016-09-09T21:31:33Z</DateUtc></StartTime><FrequencyChanges><FrequencyChange><Frequency dt:dt="r8">3507675</Frequency><Timestamp dt:dt="r8">898558275940</Timestamp><Current dt:dt="r8">0</Current><DateUtc dt:dt="string">2016-09-09T21:31:33Z</DateUtc></FrequencyChange></FrequencyChanges></Clock>\n	Hungry_Donkey_bar_English_2-171-1	60.017	-36	1.0.0.18	1	910824753	Standard	2.0.10.353	2.0.10.353	09-09-2016	9/9/2016 9:31:33 PM	17:31:33	2.0.10.248	42	Bar50-50.bmp	49	1	?	0r_4g.bmp	0r_4g.bmp	0r_2g.bmp	0r_2g.bmp	0r_4g.bmp				TrialProc	TrialList	0	cvbn	-999999	16	196950	0	c	1060	198010	124	-127	-3	22	-60	13	22	8	5	42	0	0	0	0	4	4	2	2	0	4
Hungry_Donkey_bar_English_2	171	1	<?xml version="1.0"?>\n<Clock xmlns:dt="urn:schemas-microsoft-com:datatypes"><Description dt:dt="string">E-Prime Primary Realtime Clock</Description><StartTime><Timestamp dt:dt="int">0</Timestamp><DateUtc dt:dt="string">2016-09-09T21:31:33Z</DateUtc></StartTime><FrequencyChanges><FrequencyChange><Frequency dt:dt="r8">3507675</Frequency><Timestamp dt:dt="r8">898558275940</Timestamp><Current dt:dt="r8">0</Current><DateUtc dt:dt="string">2016-09-09T21:31:33Z</DateUtc></FrequencyChange></FrequencyChanges></Clock>\n	Hungry_Donkey_bar_English_2-171-1	60.017	-36	1.0.0.18	1	910824753	Standard	2.0.10.353	2.0.10.353	09-09-2016	9/9/2016 9:31:33 PM	17:31:33	2.0.10.248	43	Bar50-50.bmp	50	2	?	12r_4g.bmp	0r_4g.bmp	3r_2g.bmp	0r_2g.bmp		0r_4g.bmp			TrialProc	TrialList	0	cvbn	-999999	16	200049	0	v	121	200170	128	-127	1	22	-56	13	22	5	5	43	-12	0	-3	0	4	4	2	2	0	4
Hungry_Donkey_bar_English_2	171	1	<?xml version="1.0"?>\n<Clock xmlns:dt="urn:schemas-microsoft-com:datatypes"><Description dt:dt="string">E-Prime Primary Realtime Clock</Description><StartTime><Timestamp dt:dt="int">0</Timestamp><DateUtc dt:dt="string">2016-09-09T21:31:33Z</DateUtc></StartTime><FrequencyChanges><FrequencyChange><Frequency dt:dt="r8">3507675</Frequency><Timestamp dt:dt="r8">898558275940</Timestamp><Current dt:dt="r8">0</Current><DateUtc dt:dt="string">2016-09-09T21:31:33Z</DateUtc></FrequencyChange></FrequencyChanges></Clock>\n	Hungry_Donkey_bar_English_2-171-1	60.017	-36	1.0.0.18	1	910824753	Standard	2.0.10.353	2.0.10.353	09-09-2016	9/9/2016 9:31:33 PM	17:31:33	2.0.10.248	44	Bar50-50.bmp	51	1	?	0r_4g.bmp	0r_4g.bmp	0r_2g.bmp	0r_2g.bmp	0r_4g.bmp				TrialProc	TrialList	0	cvbn	-999999	16	202199	0	c	259	202458	132	-127	5	26	-56	13	22	6	5	44	0	0	0	0	4	4	2	2	0	4
Hungry_Donkey_bar_English_2	171	1	<?xml version="1.0"?>\n<Clock xmlns:dt="urn:schemas-microsoft-com:datatypes"><Description dt:dt="string">E-Prime Primary Realtime Clock</Description><StartTime><Timestamp dt:dt="int">0</Timestamp><DateUtc dt:dt="string">2016-09-09T21:31:33Z</DateUtc></StartTime><FrequencyChanges><FrequencyChange><Frequency dt:dt="r8">3507675</Frequency><Timestamp dt:dt="r8">898558275940</Timestamp><Current dt:dt="r8">0</Current><DateUtc dt:dt="string">2016-09-09T21:31:33Z</DateUtc></FrequencyChange></FrequencyChanges></Clock>\n	Hungry_Donkey_bar_English_2-171-1	60.017	-36	1.0.0.18	1	910824753	Standard	2.0.10.353	2.0.10.353	09-09-2016	9/9/2016 9:31:33 PM	17:31:33	2.0.10.248	45	Bar50-50.bmp	49	4	?	8r_4g.bmp	50r_4g.bmp	1r_2g.bmp	10r_2g.bmp				10r_2g.bmp	TrialProc	TrialList	0	cvbn	-999999	16	204498	0	n	328	204826	134	-137	-3	26	-56	13	14	1	5	45	-8	-50	-1	-10	4	4	2	2	-10	2
Hungry_Donkey_bar_English_2	171	1	<?xml version="1.0"?>\n<Clock xmlns:dt="urn:schemas-microsoft-com:datatypes"><Description dt:dt="string">E-Prime Primary Realtime Clock</Description><StartTime><Timestamp dt:dt="int">0</Timestamp><DateUtc dt:dt="string">2016-09-09T21:31:33Z</DateUtc></StartTime><FrequencyChanges><FrequencyChange><Frequency dt:dt="r8">3507675</Frequency><Timestamp dt:dt="r8">898558275940</Timestamp><Current dt:dt="r8">0</Current><DateUtc dt:dt="string">2016-09-09T21:31:33Z</DateUtc></FrequencyChange></FrequencyChanges></Clock>\n	Hungry_Donkey_bar_English_2-171-1	60.017	-36	1.0.0.18	1	910824753	Standard	2.0.10.353	2.0.10.353	09-09-2016	9/9/2016 9:31:33 PM	17:31:33	2.0.10.248	46	Bar50-50.bmp	50	1	?	0r_4g.bmp	0r_4g.bmp	0r_2g.bmp	0r_2g.bmp	0r_4g.bmp				TrialProc	TrialList	0	cvbn	-999999	16	206864	0	c	410	207274	138	-137	1	30	-56	13	14	10	5	46	0	0	0	0	4	4	2	2	0	4
Hungry_Donkey_bar_English_2	171	1	<?xml version="1.0"?>\n<Clock xmlns:dt="urn:schemas-microsoft-com:datatypes"><Description dt:dt="string">E-Prime Primary Realtime Clock</Description><StartTime><Timestamp dt:dt="int">0</Timestamp><DateUtc dt:dt="string">2016-09-09T21:31:33Z</DateUtc></StartTime><FrequencyChanges><FrequencyChange><Frequency dt:dt="r8">3507675</Frequency><Timestamp dt:dt="r8">898558275940</Timestamp><Current dt:dt="r8">0</Current><DateUtc dt:dt="string">2016-09-09T21:31:33Z</DateUtc></FrequencyChange></FrequencyChanges></Clock>\n	Hungry_Donkey_bar_English_2-171-1	60.017	-36	1.0.0.18	1	910824753	Standard	2.0.10.353	2.0.10.353	09-09-2016	9/9/2016 9:31:33 PM	17:31:33	2.0.10.248	47	Bar50-50.bmp	51	3	?	0r_4g.bmp	0r_4g.bmp	0r_2g.bmp	0r_2g.bmp			0r_2g.bmp		TrialProc	TrialList	0	cvbn	-999999	16	209297	0	b	744	210041	140	-137	3	30	-56	15	14	9	5	47	0	0	0	0	4	4	2	2	0	2
Hungry_Donkey_bar_English_2	171	1	<?xml version="1.0"?>\n<Clock xmlns:dt="urn:schemas-microsoft-com:datatypes"><Description dt:dt="string">E-Prime Primary Realtime Clock</Description><StartTime><Timestamp dt:dt="int">0</Timestamp><DateUtc dt:dt="string">2016-09-09T21:31:33Z</DateUtc></StartTime><FrequencyChanges><FrequencyChange><Frequency dt:dt="r8">3507675</Frequency><Timestamp dt:dt="r8">898558275940</Timestamp><Current dt:dt="r8">0</Current><DateUtc dt:dt="string">2016-09-09T21:31:33Z</DateUtc></FrequencyChange></FrequencyChanges></Clock>\n	Hungry_Donkey_bar_English_2-171-1	60.017	-36	1.0.0.18	1	910824753	Standard	2.0.10.353	2.0.10.353	09-09-2016	9/9/2016 9:31:33 PM	17:31:33	2.0.10.248	48	Bar50-50.bmp	51	2	?	10r_4g.bmp	0r_4g.bmp	2r_2g.bmp	0r_2g.bmp		0r_4g.bmp			TrialProc	TrialList	0	cvbn	-999999	16	212079	0	v	442	212521	144	-137	7	30	-52	15	14	2	5	48	-10	0	-2	0	4	4	2	2	0	4
Hungry_Donkey_bar_English_2	171	1	<?xml version="1.0"?>\n<Clock xmlns:dt="urn:schemas-microsoft-com:datatypes"><Description dt:dt="string">E-Prime Primary Realtime Clock</Description><StartTime><Timestamp dt:dt="int">0</Timestamp><DateUtc dt:dt="string">2016-09-09T21:31:33Z</DateUtc></StartTime><FrequencyChanges><FrequencyChange><Frequency dt:dt="r8">3507675</Frequency><Timestamp dt:dt="r8">898558275940</Timestamp><Current dt:dt="r8">0</Current><DateUtc dt:dt="string">2016-09-09T21:31:33Z</DateUtc></FrequencyChange></FrequencyChanges></Clock>\n	Hungry_Donkey_bar_English_2-171-1	60.017	-36	1.0.0.18	1	910824753	Standard	2.0.10.353	2.0.10.353	09-09-2016	9/9/2016 9:31:33 PM	17:31:33	2.0.10.248	49	Bar50-50.bmp	52	1	?	0r_4g.bmp	0r_4g.bmp	0r_2g.bmp	0r_2g.bmp	0r_4g.bmp				TrialProc	TrialList	0	cvbn	-999999	16	214545	0	c	456	215001	148	-137	11	34	-52	15	14	7	5	49	0	0	0	0	4	4	2	2	0	4
Hungry_Donkey_bar_English_2	171	1	<?xml version="1.0"?>\n<Clock xmlns:dt="urn:schemas-microsoft-com:datatypes"><Description dt:dt="string">E-Prime Primary Realtime Clock</Description><StartTime><Timestamp dt:dt="int">0</Timestamp><DateUtc dt:dt="string">2016-09-09T21:31:33Z</DateUtc></StartTime><FrequencyChanges><FrequencyChange><Frequency dt:dt="r8">3507675</Frequency><Timestamp dt:dt="r8">898558275940</Timestamp><Current dt:dt="r8">0</Current><DateUtc dt:dt="string">2016-09-09T21:31:33Z</DateUtc></FrequencyChange></FrequencyChanges></Clock>\n	Hungry_Donkey_bar_English_2-171-1	60.017	-36	1.0.0.18	1	910824753	Standard	2.0.10.353	2.0.10.353	09-09-2016	9/9/2016 9:31:33 PM	17:31:33	2.0.10.248	50	Bar50-50.bmp	52	4	?	10r_4g.bmp	0r_4g.bmp	2r_2g.bmp	0r_2g.bmp				0r_2g.bmp	TrialProc	TrialList	0	cvbn	-999999	16	217028	0	n	485	217513	150	-137	13	34	-52	15	16	3	5	50	-10	0	-2	0	4	4	2	2	0	2
Hungry_Donkey_bar_English_2	171	1	<?xml version="1.0"?>\n<Clock xmlns:dt="urn:schemas-microsoft-com:datatypes"><Description dt:dt="string">E-Prime Primary Realtime Clock</Description><StartTime><Timestamp dt:dt="int">0</Timestamp><DateUtc dt:dt="string">2016-09-09T21:31:33Z</DateUtc></StartTime><FrequencyChanges><FrequencyChange><Frequency dt:dt="r8">3507675</Frequency><Timestamp dt:dt="r8">898558275940</Timestamp><Current dt:dt="r8">0</Current><DateUtc dt:dt="string">2016-09-09T21:31:33Z</DateUtc></FrequencyChange></FrequencyChanges></Clock>\n	Hungry_Donkey_bar_English_2-171-1	60.017	-36	1.0.0.18	1	910824753	Standard	2.0.10.353	2.0.10.353	09-09-2016	9/9/2016 9:31:33 PM	17:31:33	2.0.10.248	51	Bar50-50.bmp	53	2	?	0r_4g.bmp	0r_4g.bmp	0r_2g.bmp	0r_2g.bmp		0r_4g.bmp			TrialProc	TrialList	0	cvbn	-999999	16	219544	0	v	369	219913	154	-137	17	34	-48	15	16	8	6	51	0	0	0	0	4	4	2	2	0	4
Hungry_Donkey_bar_English_2	171	1	<?xml version="1.0"?>\n<Clock xmlns:dt="urn:schemas-microsoft-com:datatypes"><Description dt:dt="string">E-Prime Primary Realtime Clock</Description><StartTime><Timestamp dt:dt="int">0</Timestamp><DateUtc dt:dt="string">2016-09-09T21:31:33Z</DateUtc></StartTime><FrequencyChanges><FrequencyChange><Frequency dt:dt="r8">3507675</Frequency><Timestamp dt:dt="r8">898558275940</Timestamp><Current dt:dt="r8">0</Current><DateUtc dt:dt="string">2016-09-09T21:31:33Z</DateUtc></FrequencyChange></FrequencyChanges></Clock>\n	Hungry_Donkey_bar_English_2-171-1	60.017	-36	1.0.0.18	1	910824753	Standard	2.0.10.353	2.0.10.353	09-09-2016	9/9/2016 9:31:33 PM	17:31:33	2.0.10.248	52	Bar50-50.bmp	51	4	?	8r_4g.bmp	50r_4g.bmp	1r_2g.bmp	10r_2g.bmp				10r_2g.bmp	TrialProc	TrialList	0	cvbn	-999999	16	221943	0	n	274	222217	156	-147	9	34	-48	15	8	1	6	52	-8	-50	-1	-10	4	4	2	2	-10	2
Hungry_Donkey_bar_English_2	171	1	<?xml version="1.0"?>\n<Clock xmlns:dt="urn:schemas-microsoft-com:datatypes"><Description dt:dt="string">E-Prime Primary Realtime Clock</Description><StartTime><Timestamp dt:dt="int">0</Timestamp><DateUtc dt:dt="string">2016-09-09T21:31:33Z</DateUtc></StartTime><FrequencyChanges><FrequencyChange><Frequency dt:dt="r8">3507675</Frequency><Timestamp dt:dt="r8">898558275940</Timestamp><Current dt:dt="r8">0</Current><DateUtc dt:dt="string">2016-09-09T21:31:33Z</DateUtc></FrequencyChange></FrequencyChanges></Clock>\n	Hungry_Donkey_bar_English_2-171-1	60.017	-36	1.0.0.18	1	910824753	Standard	2.0.10.353	2.0.10.353	09-09-2016	9/9/2016 9:31:33 PM	17:31:33	2.0.10.248	53	Bar50-50.bmp	52	1	?	0r_4g.bmp	0r_4g.bmp	0r_2g.bmp	0r_2g.bmp	0r_4g.bmp				TrialProc	TrialList	0	cvbn	-999999	16	224242	0	c	311	224553	160	-147	13	38	-48	15	8	10	6	53	0	0	0	0	4	4	2	2	0	4
Hungry_Donkey_bar_English_2	171	1	<?xml version="1.0"?>\n<Clock xmlns:dt="urn:schemas-microsoft-com:datatypes"><Description dt:dt="string">E-Prime Primary Realtime Clock</Description><StartTime><Timestamp dt:dt="int">0</Timestamp><DateUtc dt:dt="string">2016-09-09T21:31:33Z</DateUtc></StartTime><FrequencyChanges><FrequencyChange><Frequency dt:dt="r8">3507675</Frequency><Timestamp dt:dt="r8">898558275940</Timestamp><Current dt:dt="r8">0</Current><DateUtc dt:dt="string">2016-09-09T21:31:33Z</DateUtc></FrequencyChange></FrequencyChanges></Clock>\n	Hungry_Donkey_bar_English_2-171-1	60.017	-36	1.0.0.18	1	910824753	Standard	2.0.10.353	2.0.10.353	09-09-2016	9/9/2016 9:31:33 PM	17:31:33	2.0.10.248	54	Bar50-50.bmp	53	2	?	12r_4g.bmp	0r_4g.bmp	3r_2g.bmp	0r_2g.bmp		0r_4g.bmp			TrialProc	TrialList	0	cvbn	-999999	16	226592	0	v	457	227049	164	-147	17	38	-44	15	8	5	6	54	-12	0	-3	0	4	4	2	2	0	4
Hungry_Donkey_bar_English_2	171	1	<?xml version="1.0"?>\n<Clock xmlns:dt="urn:schemas-microsoft-com:datatypes"><Description dt:dt="string">E-Prime Primary Realtime Clock</Description><StartTime><Timestamp dt:dt="int">0</Timestamp><DateUtc dt:dt="string">2016-09-09T21:31:33Z</DateUtc></StartTime><FrequencyChanges><FrequencyChange><Frequency dt:dt="r8">3507675</Frequency><Timestamp dt:dt="r8">898558275940</Timestamp><Current dt:dt="r8">0</Current><DateUtc dt:dt="string">2016-09-09T21:31:33Z</DateUtc></FrequencyChange></FrequencyChanges></Clock>\n	Hungry_Donkey_bar_English_2-171-1	60.017	-36	1.0.0.18	1	910824753	Standard	2.0.10.353	2.0.10.353	09-09-2016	9/9/2016 9:31:33 PM	17:31:33	2.0.10.248	55	Bar50-50.bmp	52	1	?	10r_4g.bmp	0r_4g.bmp	2r_2g.bmp	0r_2g.bmp	10r_4g.bmp				TrialProc	TrialList	0	cvbn	-999999	16	229074	0	c	6	229080	168	-157	11	32	-44	15	8	4	6	55	-10	0	-2	0	4	4	2	2	-10	4
Hungry_Donkey_bar_English_2	171	1	<?xml version="1.0"?>\n<Clock xmlns:dt="urn:schemas-microsoft-com:datatypes"><Description dt:dt="string">E-Prime Primary Realtime Clock</Description><StartTime><Timestamp dt:dt="int">0</Timestamp><DateUtc dt:dt="string">2016-09-09T21:31:33Z</DateUtc></StartTime><FrequencyChanges><FrequencyChange><Frequency dt:dt="r8">3507675</Frequency><Timestamp dt:dt="r8">898558275940</Timestamp><Current dt:dt="r8">0</Current><DateUtc dt:dt="string">2016-09-09T21:31:33Z</DateUtc></FrequencyChange></FrequencyChanges></Clock>\n	Hungry_Donkey_bar_English_2-171-1	60.017	-36	1.0.0.18	1	910824753	Standard	2.0.10.353	2.0.10.353	09-09-2016	9/9/2016 9:31:33 PM	17:31:33	2.0.10.248	56	Bar50-50.bmp	52	4	?	10r_4g.bmp	0r_4g.bmp	2r_2g.bmp	0r_2g.bmp				0r_2g.bmp	TrialProc	TrialList	0	cvbn	-999999	16	231107	0	n	293	231400	170	-157	13	32	-44	15	10	3	6	56	-10	0	-2	0	4	4	2	2	0	2
Hungry_Donkey_bar_English_2	171	1	<?xml version="1.0"?>\n<Clock xmlns:dt="urn:schemas-microsoft-com:datatypes"><Description dt:dt="string">E-Prime Primary Realtime Clock</Description><StartTime><Timestamp dt:dt="int">0</Timestamp><DateUtc dt:dt="string">2016-09-09T21:31:33Z</DateUtc></StartTime><FrequencyChanges><FrequencyChange><Frequency dt:dt="r8">3507675</Frequency><Timestamp dt:dt="r8">898558275940</Timestamp><Current dt:dt="r8">0</Current><DateUtc dt:dt="string">2016-09-09T21:31:33Z</DateUtc></FrequencyChange></FrequencyChanges></Clock>\n	Hungry_Donkey_bar_English_2-171-1	60.017	-36	1.0.0.18	1	910824753	Standard	2.0.10.353	2.0.10.353	09-09-2016	9/9/2016 9:31:33 PM	17:31:33	2.0.10.248	57	Bar50-50.bmp	52	3	?	10r_4g.bmp	0r_4g.bmp	2r_2g.bmp	0r_2g.bmp			2r_2g.bmp		TrialProc	TrialList	0	cvbn	-999999	16	233440	0	b	152	233592	172	-159	13	32	-44	15	10	2	6	57	-10	0	-2	0	4	4	2	2	-2	2
Hungry_Donkey_bar_English_2	171	1	<?xml version="1.0"?>\n<Clock xmlns:dt="urn:schemas-microsoft-com:datatypes"><Description dt:dt="string">E-Prime Primary Realtime Clock</Description><StartTime><Timestamp dt:dt="int">0</Timestamp><DateUtc dt:dt="string">2016-09-09T21:31:33Z</DateUtc></StartTime><FrequencyChanges><FrequencyChange><Frequency dt:dt="r8">3507675</Frequency><Timestamp dt:dt="r8">898558275940</Timestamp><Current dt:dt="r8">0</Current><DateUtc dt:dt="string">2016-09-09T21:31:33Z</DateUtc></FrequencyChange></FrequencyChanges></Clock>\n	Hungry_Donkey_bar_English_2-171-1	60.017	-36	1.0.0.18	1	910824753	Standard	2.0.10.353	2.0.10.353	09-09-2016	9/9/2016 9:31:33 PM	17:31:33	2.0.10.248	58	Bar50-50.bmp	53	1	?	0r_4g.bmp	0r_4g.bmp	0r_2g.bmp	0r_2g.bmp	0r_4g.bmp				TrialProc	TrialList	0	cvbn	-999999	16	235622	0	c	1330	236952	176	-159	17	36	-44	15	10	9	6	58	0	0	0	0	4	4	2	2	0	4
Hungry_Donkey_bar_English_2	171	1	<?xml version="1.0"?>\n<Clock xmlns:dt="urn:schemas-microsoft-com:datatypes"><Description dt:dt="string">E-Prime Primary Realtime Clock</Description><StartTime><Timestamp dt:dt="int">0</Timestamp><DateUtc dt:dt="string">2016-09-09T21:31:33Z</DateUtc></StartTime><FrequencyChanges><FrequencyChange><Frequency dt:dt="r8">3507675</Frequency><Timestamp dt:dt="r8">898558275940</Timestamp><Current dt:dt="r8">0</Current><DateUtc dt:dt="string">2016-09-09T21:31:33Z</DateUtc></FrequencyChange></FrequencyChanges></Clock>\n	Hungry_Donkey_bar_English_2-171-1	60.017	-36	1.0.0.18	1	910824753	Standard	2.0.10.353	2.0.10.353	09-09-2016	9/9/2016 9:31:33 PM	17:31:33	2.0.10.248	59	Bar50-50.bmp	53	4	?	0r_4g.bmp	0r_4g.bmp	0r_2g.bmp	0r_2g.bmp				0r_2g.bmp	TrialProc	TrialList	0	cvbn	-999999	16	238988	0	n	540	239528	178	-159	19	36	-44	15	12	6	6	59	0	0	0	0	4	4	2	2	0	2
Hungry_Donkey_bar_English_2	171	1	<?xml version="1.0"?>\n<Clock xmlns:dt="urn:schemas-microsoft-com:datatypes"><Description dt:dt="string">E-Prime Primary Realtime Clock</Description><StartTime><Timestamp dt:dt="int">0</Timestamp><DateUtc dt:dt="string">2016-09-09T21:31:33Z</DateUtc></StartTime><FrequencyChanges><FrequencyChange><Frequency dt:dt="r8">3507675</Frequency><Timestamp dt:dt="r8">898558275940</Timestamp><Current dt:dt="r8">0</Current><DateUtc dt:dt="string">2016-09-09T21:31:33Z</DateUtc></FrequencyChange></FrequencyChanges></Clock>\n	Hungry_Donkey_bar_English_2-171-1	60.017	-36	1.0.0.18	1	910824753	Standard	2.0.10.353	2.0.10.353	09-09-2016	9/9/2016 9:31:33 PM	17:31:33	2.0.10.248	60	Bar50-50.bmp	53	2	?	0r_4g.bmp	0r_4g.bmp	0r_2g.bmp	0r_2g.bmp		0r_4g.bmp			TrialProc	TrialList	0	cvbn	-999999	16	241554	0	v	278	241832	182	-159	23	36	-40	15	12	7	6	60	0	0	0	0	4	4	2	2	0	4
Hungry_Donkey_bar_English_2	171	1	<?xml version="1.0"?>\n<Clock xmlns:dt="urn:schemas-microsoft-com:datatypes"><Description dt:dt="string">E-Prime Primary Realtime Clock</Description><StartTime><Timestamp dt:dt="int">0</Timestamp><DateUtc dt:dt="string">2016-09-09T21:31:33Z</DateUtc></StartTime><FrequencyChanges><FrequencyChange><Frequency dt:dt="r8">3507675</Frequency><Timestamp dt:dt="r8">898558275940</Timestamp><Current dt:dt="r8">0</Current><DateUtc dt:dt="string">2016-09-09T21:31:33Z</DateUtc></FrequencyChange></FrequencyChanges></Clock>\n	Hungry_Donkey_bar_English_2-171-1	60.017	-36	1.0.0.18	1	910824753	Standard	2.0.10.353	2.0.10.353	09-09-2016	9/9/2016 9:31:33 PM	17:31:33	2.0.10.248	61	Bar50-50.bmp	54	3	?	0r_4g.bmp	0r_4g.bmp	0r_2g.bmp	0r_2g.bmp			0r_2g.bmp		TrialProc	TrialList	0	cvbn	-999999	16	243870	0	b	106	243976	184	-159	25	36	-40	17	12	8	7	61	0	0	0	0	4	4	2	2	0	2
Hungry_Donkey_bar_English_2	171	1	<?xml version="1.0"?>\n<Clock xmlns:dt="urn:schemas-microsoft-com:datatypes"><Description dt:dt="string">E-Prime Primary Realtime Clock</Description><StartTime><Timestamp dt:dt="int">0</Timestamp><DateUtc dt:dt="string">2016-09-09T21:31:33Z</DateUtc></StartTime><FrequencyChanges><FrequencyChange><Frequency dt:dt="r8">3507675</Frequency><Timestamp dt:dt="r8">898558275940</Timestamp><Current dt:dt="r8">0</Current><DateUtc dt:dt="string">2016-09-09T21:31:33Z</DateUtc></FrequencyChange></FrequencyChanges></Clock>\n	Hungry_Donkey_bar_English_2-171-1	60.017	-36	1.0.0.18	1	910824753	Standard	2.0.10.353	2.0.10.353	09-09-2016	9/9/2016 9:31:33 PM	17:31:33	2.0.10.248	62	Bar50-50.bmp	53	1	?	10r_4g.bmp	0r_4g.bmp	2r_2g.bmp	0r_2g.bmp	10r_4g.bmp				TrialProc	TrialList	0	cvbn	-999999	16	246003	0	c	517	246520	188	-169	19	30	-40	17	12	3	7	62	-10	0	-2	0	4	4	2	2	-10	4
Hungry_Donkey_bar_English_2	171	1	<?xml version="1.0"?>\n<Clock xmlns:dt="urn:schemas-microsoft-com:datatypes"><Description dt:dt="string">E-Prime Primary Realtime Clock</Description><StartTime><Timestamp dt:dt="int">0</Timestamp><DateUtc dt:dt="string">2016-09-09T21:31:33Z</DateUtc></StartTime><FrequencyChanges><FrequencyChange><Frequency dt:dt="r8">3507675</Frequency><Timestamp dt:dt="r8">898558275940</Timestamp><Current dt:dt="r8">0</Current><DateUtc dt:dt="string">2016-09-09T21:31:33Z</DateUtc></FrequencyChange></FrequencyChanges></Clock>\n	Hungry_Donkey_bar_English_2-171-1	60.017	-36	1.0.0.18	1	910824753	Standard	2.0.10.353	2.0.10.353	09-09-2016	9/9/2016 9:31:33 PM	17:31:33	2.0.10.248	63	Bar50-50.bmp	53	4	?	0r_4g.bmp	0r_4g.bmp	0r_2g.bmp	0r_2g.bmp				0r_2g.bmp	TrialProc	TrialList	0	cvbn	-999999	16	248552	0	n	416	248968	190	-169	21	30	-40	17	14	10	7	63	0	0	0	0	4	4	2	2	0	2
Hungry_Donkey_bar_English_2	171	1	<?xml version="1.0"?>\n<Clock xmlns:dt="urn:schemas-microsoft-com:datatypes"><Description dt:dt="string">E-Prime Primary Realtime Clock</Description><StartTime><Timestamp dt:dt="int">0</Timestamp><DateUtc dt:dt="string">2016-09-09T21:31:33Z</DateUtc></StartTime><FrequencyChanges><FrequencyChange><Frequency dt:dt="r8">3507675</Frequency><Timestamp dt:dt="r8">898558275940</Timestamp><Current dt:dt="r8">0</Current><DateUtc dt:dt="string">2016-09-09T21:31:33Z</DateUtc></FrequencyChange></FrequencyChanges></Clock>\n	Hungry_Donkey_bar_English_2-171-1	60.017	-36	1.0.0.18	1	910824753	Standard	2.0.10.353	2.0.10.353	09-09-2016	9/9/2016 9:31:33 PM	17:31:33	2.0.10.248	64	Bar50-50.bmp	53	2	?	0r_4g.bmp	0r_4g.bmp	0r_2g.bmp	0r_2g.bmp		0r_4g.bmp			TrialProc	TrialList	0	cvbn	-999999	16	251001	0	v	430	251431	194	-169	25	30	-36	17	14	6	7	64	0	0	0	0	4	4	2	2	0	4
Hungry_Donkey_bar_English_2	171	1	<?xml version="1.0"?>\n<Clock xmlns:dt="urn:schemas-microsoft-com:datatypes"><Description dt:dt="string">E-Prime Primary Realtime Clock</Description><StartTime><Timestamp dt:dt="int">0</Timestamp><DateUtc dt:dt="string">2016-09-09T21:31:33Z</DateUtc></StartTime><FrequencyChanges><FrequencyChange><Frequency dt:dt="r8">3507675</Frequency><Timestamp dt:dt="r8">898558275940</Timestamp><Current dt:dt="r8">0</Current><DateUtc dt:dt="string">2016-09-09T21:31:33Z</DateUtc></FrequencyChange></FrequencyChanges></Clock>\n	Hungry_Donkey_bar_English_2-171-1	60.017	-36	1.0.0.18	1	910824753	Standard	2.0.10.353	2.0.10.353	09-09-2016	9/9/2016 9:31:33 PM	17:31:33	2.0.10.248	65	Bar50-50.bmp	53	3	?	10r_4g.bmp	0r_4g.bmp	2r_2g.bmp	0r_2g.bmp			2r_2g.bmp		TrialProc	TrialList	0	cvbn	-999999	16	253467	0	b	492	253959	196	-171	25	30	-36	17	14	2	7	65	-10	0	-2	0	4	4	2	2	-2	2
Hungry_Donkey_bar_English_2	171	1	<?xml version="1.0"?>\n<Clock xmlns:dt="urn:schemas-microsoft-com:datatypes"><Description dt:dt="string">E-Prime Primary Realtime Clock</Description><StartTime><Timestamp dt:dt="int">0</Timestamp><DateUtc dt:dt="string">2016-09-09T21:31:33Z</DateUtc></StartTime><FrequencyChanges><FrequencyChange><Frequency dt:dt="r8">3507675</Frequency><Timestamp dt:dt="r8">898558275940</Timestamp><Current dt:dt="r8">0</Current><DateUtc dt:dt="string">2016-09-09T21:31:33Z</DateUtc></FrequencyChange></FrequencyChanges></Clock>\n	Hungry_Donkey_bar_English_2-171-1	60.017	-36	1.0.0.18	1	910824753	Standard	2.0.10.353	2.0.10.353	09-09-2016	9/9/2016 9:31:33 PM	17:31:33	2.0.10.248	66	Bar50-50.bmp	54	1	?	0r_4g.bmp	0r_4g.bmp	0r_2g.bmp	0r_2g.bmp	0r_4g.bmp				TrialProc	TrialList	0	cvbn	-999999	16	255983	0	c	456	256439	200	-171	29	34	-36	17	14	9	7	66	0	0	0	0	4	4	2	2	0	4
Hungry_Donkey_bar_English_2	171	1	<?xml version="1.0"?>\n<Clock xmlns:dt="urn:schemas-microsoft-com:datatypes"><Description dt:dt="string">E-Prime Primary Realtime Clock</Description><StartTime><Timestamp dt:dt="int">0</Timestamp><DateUtc dt:dt="string">2016-09-09T21:31:33Z</DateUtc></StartTime><FrequencyChanges><FrequencyChange><Frequency dt:dt="r8">3507675</Frequency><Timestamp dt:dt="r8">898558275940</Timestamp><Current dt:dt="r8">0</Current><DateUtc dt:dt="string">2016-09-09T21:31:33Z</DateUtc></FrequencyChange></FrequencyChanges></Clock>\n	Hungry_Donkey_bar_English_2-171-1	60.017	-36	1.0.0.18	1	910824753	Standard	2.0.10.353	2.0.10.353	09-09-2016	9/9/2016 9:31:33 PM	17:31:33	2.0.10.248	67	Bar50-50.bmp	54	4	?	10r_4g.bmp	0r_4g.bmp	2r_2g.bmp	0r_2g.bmp				0r_2g.bmp	TrialProc	TrialList	0	cvbn	-999999	16	258466	0	n	693	259159	202	-171	31	34	-36	17	16	4	7	67	-10	0	-2	0	4	4	2	2	0	2
Hungry_Donkey_bar_English_2	171	1	<?xml version="1.0"?>\n<Clock xmlns:dt="urn:schemas-microsoft-com:datatypes"><Description dt:dt="string">E-Prime Primary Realtime Clock</Description><StartTime><Timestamp dt:dt="int">0</Timestamp><DateUtc dt:dt="string">2016-09-09T21:31:33Z</DateUtc></StartTime><FrequencyChanges><FrequencyChange><Frequency dt:dt="r8">3507675</Frequency><Timestamp dt:dt="r8">898558275940</Timestamp><Current dt:dt="r8">0</Current><DateUtc dt:dt="string">2016-09-09T21:31:33Z</DateUtc></FrequencyChange></FrequencyChanges></Clock>\n	Hungry_Donkey_bar_English_2-171-1	60.017	-36	1.0.0.18	1	910824753	Standard	2.0.10.353	2.0.10.353	09-09-2016	9/9/2016 9:31:33 PM	17:31:33	2.0.10.248	68	Bar50-50.bmp	55	2	?	0r_4g.bmp	0r_4g.bmp	0r_2g.bmp	0r_2g.bmp		0r_4g.bmp			TrialProc	TrialList	0	cvbn	-999999	16	261198	0	v	329	261527	206	-171	35	34	-32	17	16	7	7	68	0	0	0	0	4	4	2	2	0	4
Hungry_Donkey_bar_English_2	171	1	<?xml version="1.0"?>\n<Clock xmlns:dt="urn:schemas-microsoft-com:datatypes"><Description dt:dt="string">E-Prime Primary Realtime Clock</Description><StartTime><Timestamp dt:dt="int">0</Timestamp><DateUtc dt:dt="string">2016-09-09T21:31:33Z</DateUtc></StartTime><FrequencyChanges><FrequencyChange><Frequency dt:dt="r8">3507675</Frequency><Timestamp dt:dt="r8">898558275940</Timestamp><Current dt:dt="r8">0</Current><DateUtc dt:dt="string">2016-09-09T21:31:33Z</DateUtc></FrequencyChange></FrequencyChanges></Clock>\n	Hungry_Donkey_bar_English_2-171-1	60.017	-36	1.0.0.18	1	910824753	Standard	2.0.10.353	2.0.10.353	09-09-2016	9/9/2016 9:31:33 PM	17:31:33	2.0.10.248	69	Bar50-50.bmp	55	4	?	12r_4g.bmp	0r_4g.bmp	3r_2g.bmp	0r_2g.bmp				0r_2g.bmp	TrialProc	TrialList	0	cvbn	-999999	16	263564	0	n	1115	264679	208	-171	37	34	-32	17	18	5	7	69	-12	0	-3	0	4	4	2	2	0	2
Hungry_Donkey_bar_English_2	171	1	<?xml version="1.0"?>\n<Clock xmlns:dt="urn:schemas-microsoft-com:datatypes"><Description dt:dt="string">E-Prime Primary Realtime Clock</Description><StartTime><Timestamp dt:dt="int">0</Timestamp><DateUtc dt:dt="string">2016-09-09T21:31:33Z</DateUtc></StartTime><FrequencyChanges><FrequencyChange><Frequency dt:dt="r8">3507675</Frequency><Timestamp dt:dt="r8">898558275940</Timestamp><Current dt:dt="r8">0</Current><DateUtc dt:dt="string">2016-09-09T21:31:33Z</DateUtc></FrequencyChange></FrequencyChanges></Clock>\n	Hungry_Donkey_bar_English_2-171-1	60.017	-36	1.0.0.18	1	910824753	Standard	2.0.10.353	2.0.10.353	09-09-2016	9/9/2016 9:31:33 PM	17:31:33	2.0.10.248	70	Bar50-50.bmp	54	1	?	8r_4g.bmp	50r_4g.bmp	1r_2g.bmp	10r_2g.bmp	8r_4g.bmp				TrialProc	TrialList	0	cvbn	-999999	16	266713	0	c	302	267015	212	-179	33	30	-32	17	18	1	7	70	-8	-50	-1	-10	4	4	2	2	-8	4
Hungry_Donkey_bar_English_2	171	1	<?xml version="1.0"?>\n<Clock xmlns:dt="urn:schemas-microsoft-com:datatypes"><Description dt:dt="string">E-Prime Primary Realtime Clock</Description><StartTime><Timestamp dt:dt="int">0</Timestamp><DateUtc dt:dt="string">2016-09-09T21:31:33Z</DateUtc></StartTime><FrequencyChanges><FrequencyChange><Frequency dt:dt="r8">3507675</Frequency><Timestamp dt:dt="r8">898558275940</Timestamp><Current dt:dt="r8">0</Current><DateUtc dt:dt="string">2016-09-09T21:31:33Z</DateUtc></FrequencyChange></FrequencyChanges></Clock>\n	Hungry_Donkey_bar_English_2-171-1	60.017	-36	1.0.0.18	1	910824753	Standard	2.0.10.353	2.0.10.353	09-09-2016	9/9/2016 9:31:33 PM	17:31:33	2.0.10.248	71	Bar50-50.bmp	54	3	?	0r_4g.bmp	0r_4g.bmp	0r_2g.bmp	0r_2g.bmp			0r_2g.bmp		TrialProc	TrialList	0	cvbn	-999999	16	269046	0	b	145	269191	214	-179	35	30	-32	19	18	6	8	71	0	0	0	0	4	4	2	2	0	2
Hungry_Donkey_bar_English_2	171	1	<?xml version="1.0"?>\n<Clock xmlns:dt="urn:schemas-microsoft-com:datatypes"><Description dt:dt="string">E-Prime Primary Realtime Clock</Description><StartTime><Timestamp dt:dt="int">0</Timestamp><DateUtc dt:dt="string">2016-09-09T21:31:33Z</DateUtc></StartTime><FrequencyChanges><FrequencyChange><Frequency dt:dt="r8">3507675</Frequency><Timestamp dt:dt="r8">898558275940</Timestamp><Current dt:dt="r8">0</Current><DateUtc dt:dt="string">2016-09-09T21:31:33Z</DateUtc></FrequencyChange></FrequencyChanges></Clock>\n	Hungry_Donkey_bar_English_2-171-1	60.017	-36	1.0.0.18	1	910824753	Standard	2.0.10.353	2.0.10.353	09-09-2016	9/9/2016 9:31:33 PM	17:31:33	2.0.10.248	72	Bar50-50.bmp	55	4	?	10r_4g.bmp	0r_4g.bmp	2r_2g.bmp	0r_2g.bmp				0r_2g.bmp	TrialProc	TrialList	0	cvbn	-999999	16	271229	0	n	569	271798	216	-179	37	30	-32	19	20	2	8	72	-10	0	-2	0	4	4	2	2	0	2
Hungry_Donkey_bar_English_2	171	1	<?xml version="1.0"?>\n<Clock xmlns:dt="urn:schemas-microsoft-com:datatypes"><Description dt:dt="string">E-Prime Primary Realtime Clock</Description><StartTime><Timestamp dt:dt="int">0</Timestamp><DateUtc dt:dt="string">2016-09-09T21:31:33Z</DateUtc></StartTime><FrequencyChanges><FrequencyChange><Frequency dt:dt="r8">3507675</Frequency><Timestamp dt:dt="r8">898558275940</Timestamp><Current dt:dt="r8">0</Current><DateUtc dt:dt="string">2016-09-09T21:31:33Z</DateUtc></FrequencyChange></FrequencyChanges></Clock>\n	Hungry_Donkey_bar_English_2-171-1	60.017	-36	1.0.0.18	1	910824753	Standard	2.0.10.353	2.0.10.353	09-09-2016	9/9/2016 9:31:33 PM	17:31:33	2.0.10.248	73	Bar50-50.bmp	54	1	?	10r_4g.bmp	0r_4g.bmp	2r_2g.bmp	0r_2g.bmp	10r_4g.bmp				TrialProc	TrialList	0	cvbn	-999999	16	273828	0	c	18	273846	220	-189	31	24	-32	19	20	4	8	73	-10	0	-2	0	4	4	2	2	-10	4
Hungry_Donkey_bar_English_2	171	1	<?xml version="1.0"?>\n<Clock xmlns:dt="urn:schemas-microsoft-com:datatypes"><Description dt:dt="string">E-Prime Primary Realtime Clock</Description><StartTime><Timestamp dt:dt="int">0</Timestamp><DateUtc dt:dt="string">2016-09-09T21:31:33Z</DateUtc></StartTime><FrequencyChanges><FrequencyChange><Frequency dt:dt="r8">3507675</Frequency><Timestamp dt:dt="r8">898558275940</Timestamp><Current dt:dt="r8">0</Current><DateUtc dt:dt="string">2016-09-09T21:31:33Z</DateUtc></FrequencyChange></FrequencyChanges></Clock>\n	Hungry_Donkey_bar_English_2-171-1	60.017	-36	1.0.0.18	1	910824753	Standard	2.0.10.353	2.0.10.353	09-09-2016	9/9/2016 9:31:33 PM	17:31:33	2.0.10.248	74	Bar50-50.bmp	54	2	?	0r_4g.bmp	0r_4g.bmp	0r_2g.bmp	0r_2g.bmp		0r_4g.bmp			TrialProc	TrialList	0	cvbn	-999999	17	275878	0	v	464	276342	224	-189	35	24	-28	19	20	7	8	74	0	0	0	0	4	4	2	2	0	4
Hungry_Donkey_bar_English_2	171	1	<?xml version="1.0"?>\n<Clock xmlns:dt="urn:schemas-microsoft-com:datatypes"><Description dt:dt="string">E-Prime Primary Realtime Clock</Description><StartTime><Timestamp dt:dt="int">0</Timestamp><DateUtc dt:dt="string">2016-09-09T21:31:33Z</DateUtc></StartTime><FrequencyChanges><FrequencyChange><Frequency dt:dt="r8">3507675</Frequency><Timestamp dt:dt="r8">898558275940</Timestamp><Current dt:dt="r8">0</Current><DateUtc dt:dt="string">2016-09-09T21:31:33Z</DateUtc></FrequencyChange></FrequencyChanges></Clock>\n	Hungry_Donkey_bar_English_2-171-1	60.017	-36	1.0.0.18	1	910824753	Standard	2.0.10.353	2.0.10.353	09-09-2016	9/9/2016 9:31:33 PM	17:31:33	2.0.10.248	75	Bar50-50.bmp	54	3	?	0r_4g.bmp	0r_4g.bmp	0r_2g.bmp	0r_2g.bmp			0r_2g.bmp		TrialProc	TrialList	0	cvbn	-999999	16	278377	0	b	413	278790	226	-189	37	24	-28	21	20	8	8	75	0	0	0	0	4	4	2	2	0	2
Hungry_Donkey_bar_English_2	171	1	<?xml version="1.0"?>\n<Clock xmlns:dt="urn:schemas-microsoft-com:datatypes"><Description dt:dt="string">E-Prime Primary Realtime Clock</Description><StartTime><Timestamp dt:dt="int">0</Timestamp><DateUtc dt:dt="string">2016-09-09T21:31:33Z</DateUtc></StartTime><FrequencyChanges><FrequencyChange><Frequency dt:dt="r8">3507675</Frequency><Timestamp dt:dt="r8">898558275940</Timestamp><Current dt:dt="r8">0</Current><DateUtc dt:dt="string">2016-09-09T21:31:33Z</DateUtc></FrequencyChange></FrequencyChanges></Clock>\n	Hungry_Donkey_bar_English_2-171-1	60.017	-36	1.0.0.18	1	910824753	Standard	2.0.10.353	2.0.10.353	09-09-2016	9/9/2016 9:31:33 PM	17:31:33	2.0.10.248	76	Bar50-50.bmp	55	4	?	0r_4g.bmp	0r_4g.bmp	0r_2g.bmp	0r_2g.bmp				0r_2g.bmp	TrialProc	TrialList	0	cvbn	-999999	16	280826	0	n	188	281014	228	-189	39	24	-28	21	22	10	8	76	0	0	0	0	4	4	2	2	0	2
Hungry_Donkey_bar_English_2	171	1	<?xml version="1.0"?>\n<Clock xmlns:dt="urn:schemas-microsoft-com:datatypes"><Description dt:dt="string">E-Prime Primary Realtime Clock</Description><StartTime><Timestamp dt:dt="int">0</Timestamp><DateUtc dt:dt="string">2016-09-09T21:31:33Z</DateUtc></StartTime><FrequencyChanges><FrequencyChange><Frequency dt:dt="r8">3507675</Frequency><Timestamp dt:dt="r8">898558275940</Timestamp><Current dt:dt="r8">0</Current><DateUtc dt:dt="string">2016-09-09T21:31:33Z</DateUtc></FrequencyChange></FrequencyChanges></Clock>\n	Hungry_Donkey_bar_English_2-171-1	60.017	-36	1.0.0.18	1	910824753	Standard	2.0.10.353	2.0.10.353	09-09-2016	9/9/2016 9:31:33 PM	17:31:33	2.0.10.248	77	Bar50-50.bmp	55	1	?	0r_4g.bmp	0r_4g.bmp	0r_2g.bmp	0r_2g.bmp	0r_4g.bmp				TrialProc	TrialList	0	cvbn	-999999	16	283042	0	c	148	283190	232	-189	43	28	-28	21	22	9	8	77	0	0	0	0	4	4	2	2	0	4
Hungry_Donkey_bar_English_2	171	1	<?xml version="1.0"?>\n<Clock xmlns:dt="urn:schemas-microsoft-com:datatypes"><Description dt:dt="string">E-Prime Primary Realtime Clock</Description><StartTime><Timestamp dt:dt="int">0</Timestamp><DateUtc dt:dt="string">2016-09-09T21:31:33Z</DateUtc></StartTime><FrequencyChanges><FrequencyChange><Frequency dt:dt="r8">3507675</Frequency><Timestamp dt:dt="r8">898558275940</Timestamp><Current dt:dt="r8">0</Current><DateUtc dt:dt="string">2016-09-09T21:31:33Z</DateUtc></FrequencyChange></FrequencyChanges></Clock>\n	Hungry_Donkey_bar_English_2-171-1	60.017	-36	1.0.0.18	1	910824753	Standard	2.0.10.353	2.0.10.353	09-09-2016	9/9/2016 9:31:33 PM	17:31:33	2.0.10.248	78	Bar50-50.bmp	55	3	?	12r_4g.bmp	0r_4g.bmp	3r_2g.bmp	0r_2g.bmp			3r_2g.bmp		TrialProc	TrialList	0	cvbn	-999999	16	285225	0	b	109	285334	234	-192	42	28	-28	20	22	5	8	78	-12	0	-3	0	4	4	2	2	-3	2
Hungry_Donkey_bar_English_2	171	1	<?xml version="1.0"?>\n<Clock xmlns:dt="urn:schemas-microsoft-com:datatypes"><Description dt:dt="string">E-Prime Primary Realtime Clock</Description><StartTime><Timestamp dt:dt="int">0</Timestamp><DateUtc dt:dt="string">2016-09-09T21:31:33Z</DateUtc></StartTime><FrequencyChanges><FrequencyChange><Frequency dt:dt="r8">3507675</Frequency><Timestamp dt:dt="r8">898558275940</Timestamp><Current dt:dt="r8">0</Current><DateUtc dt:dt="string">2016-09-09T21:31:33Z</DateUtc></FrequencyChange></FrequencyChanges></Clock>\n	Hungry_Donkey_bar_English_2-171-1	60.017	-36	1.0.0.18	1	910824753	Standard	2.0.10.353	2.0.10.353	09-09-2016	9/9/2016 9:31:33 PM	17:31:33	2.0.10.248	79	Bar50-50.bmp	55	2	?	10r_4g.bmp	0r_4g.bmp	2r_2g.bmp	0r_2g.bmp		0r_4g.bmp			TrialProc	TrialList	0	cvbn	-999999	16	287358	0	v	360	287718	238	-192	46	28	-24	20	22	3	8	79	-10	0	-2	0	4	4	2	2	0	4
Hungry_Donkey_bar_English_2	171	1	<?xml version="1.0"?>\n<Clock xmlns:dt="urn:schemas-microsoft-com:datatypes"><Description dt:dt="string">E-Prime Primary Realtime Clock</Description><StartTime><Timestamp dt:dt="int">0</Timestamp><DateUtc dt:dt="string">2016-09-09T21:31:33Z</DateUtc></StartTime><FrequencyChanges><FrequencyChange><Frequency dt:dt="r8">3507675</Frequency><Timestamp dt:dt="r8">898558275940</Timestamp><Current dt:dt="r8">0</Current><DateUtc dt:dt="string">2016-09-09T21:31:33Z</DateUtc></FrequencyChange></FrequencyChanges></Clock>\n	Hungry_Donkey_bar_English_2-171-1	60.017	-36	1.0.0.18	1	910824753	Standard	2.0.10.353	2.0.10.353	09-09-2016	9/9/2016 9:31:33 PM	17:31:33	2.0.10.248	80	Bar50-50.bmp	54	4	?	8r_4g.bmp	50r_4g.bmp	1r_2g.bmp	10r_2g.bmp				10r_2g.bmp	TrialProc	TrialList	0	cvbn	-999999	16	289757	0	n	329	290086	240	-202	38	28	-24	20	14	1	8	80	-8	-50	-1	-10	4	4	2	2	-10	2
Hungry_Donkey_bar_English_2	171	1	<?xml version="1.0"?>\n<Clock xmlns:dt="urn:schemas-microsoft-com:datatypes"><Description dt:dt="string">E-Prime Primary Realtime Clock</Description><StartTime><Timestamp dt:dt="int">0</Timestamp><DateUtc dt:dt="string">2016-09-09T21:31:33Z</DateUtc></StartTime><FrequencyChanges><FrequencyChange><Frequency dt:dt="r8">3507675</Frequency><Timestamp dt:dt="r8">898558275940</Timestamp><Current dt:dt="r8">0</Current><DateUtc dt:dt="string">2016-09-09T21:31:33Z</DateUtc></FrequencyChange></FrequencyChanges></Clock>\n	Hungry_Donkey_bar_English_2-171-1	60.017	-36	1.0.0.18	1	910824753	Standard	2.0.10.353	2.0.10.353	09-09-2016	9/9/2016 9:31:33 PM	17:31:33	2.0.10.248	81	Bar50-50.bmp	55	1	?	0r_4g.bmp	0r_4g.bmp	0r_2g.bmp	0r_2g.bmp	0r_4g.bmp				TrialProc	TrialList	0	cvbn	-999999	16	292123	0	c	378	292501	244	-202	42	32	-24	20	14	8	9	81	0	0	0	0	4	4	2	2	0	4
Hungry_Donkey_bar_English_2	171	1	<?xml version="1.0"?>\n<Clock xmlns:dt="urn:schemas-microsoft-com:datatypes"><Description dt:dt="string">E-Prime Primary Realtime Clock</Description><StartTime><Timestamp dt:dt="int">0</Timestamp><DateUtc dt:dt="string">2016-09-09T21:31:33Z</DateUtc></StartTime><FrequencyChanges><FrequencyChange><Frequency dt:dt="r8">3507675</Frequency><Timestamp dt:dt="r8">898558275940</Timestamp><Current dt:dt="r8">0</Current><DateUtc dt:dt="string">2016-09-09T21:31:33Z</DateUtc></FrequencyChange></FrequencyChanges></Clock>\n	Hungry_Donkey_bar_English_2-171-1	60.017	-36	1.0.0.18	1	910824753	Standard	2.0.10.353	2.0.10.353	09-09-2016	9/9/2016 9:31:33 PM	17:31:33	2.0.10.248	82	Bar50-50.bmp	55	3	?	10r_4g.bmp	0r_4g.bmp	2r_2g.bmp	0r_2g.bmp			2r_2g.bmp		TrialProc	TrialList	0	cvbn	-999999	16	294539	0	b	890	295429	246	-204	42	32	-24	20	14	2	9	82	-10	0	-2	0	4	4	2	2	-2	2
Hungry_Donkey_bar_English_2	171	1	<?xml version="1.0"?>\n<Clock xmlns:dt="urn:schemas-microsoft-com:datatypes"><Description dt:dt="string">E-Prime Primary Realtime Clock</Description><StartTime><Timestamp dt:dt="int">0</Timestamp><DateUtc dt:dt="string">2016-09-09T21:31:33Z</DateUtc></StartTime><FrequencyChanges><FrequencyChange><Frequency dt:dt="r8">3507675</Frequency><Timestamp dt:dt="r8">898558275940</Timestamp><Current dt:dt="r8">0</Current><DateUtc dt:dt="string">2016-09-09T21:31:33Z</DateUtc></FrequencyChange></FrequencyChanges></Clock>\n	Hungry_Donkey_bar_English_2-171-1	60.017	-36	1.0.0.18	1	910824753	Standard	2.0.10.353	2.0.10.353	09-09-2016	9/9/2016 9:31:33 PM	17:31:33	2.0.10.248	83	Bar50-50.bmp	55	1	?	0r_4g.bmp	0r_4g.bmp	0r_2g.bmp	0r_2g.bmp	0r_4g.bmp				TrialProc	TrialList	0	cvbn	-999999	16	297455	0	c	486	297941	250	-204	46	36	-24	20	14	7	9	83	0	0	0	0	4	4	2	2	0	4
Hungry_Donkey_bar_English_2	171	1	<?xml version="1.0"?>\n<Clock xmlns:dt="urn:schemas-microsoft-com:datatypes"><Description dt:dt="string">E-Prime Primary Realtime Clock</Description><StartTime><Timestamp dt:dt="int">0</Timestamp><DateUtc dt:dt="string">2016-09-09T21:31:33Z</DateUtc></StartTime><FrequencyChanges><FrequencyChange><Frequency dt:dt="r8">3507675</Frequency><Timestamp dt:dt="r8">898558275940</Timestamp><Current dt:dt="r8">0</Current><DateUtc dt:dt="string">2016-09-09T21:31:33Z</DateUtc></FrequencyChange></FrequencyChanges></Clock>\n	Hungry_Donkey_bar_English_2-171-1	60.017	-36	1.0.0.18	1	910824753	Standard	2.0.10.353	2.0.10.353	09-09-2016	9/9/2016 9:31:33 PM	17:31:33	2.0.10.248	84	Bar50-50.bmp	55	1	?	0r_4g.bmp	0r_4g.bmp	0r_2g.bmp	0r_2g.bmp	0r_4g.bmp				TrialProc	TrialList	0	cvbn	-999999	16	299971	0	c	514	300485	254	-204	50	40	-24	20	14	10	9	84	0	0	0	0	4	4	2	2	0	4
Hungry_Donkey_bar_English_2	171	1	<?xml version="1.0"?>\n<Clock xmlns:dt="urn:schemas-microsoft-com:datatypes"><Description dt:dt="string">E-Prime Primary Realtime Clock</Description><StartTime><Timestamp dt:dt="int">0</Timestamp><DateUtc dt:dt="string">2016-09-09T21:31:33Z</DateUtc></StartTime><FrequencyChanges><FrequencyChange><Frequency dt:dt="r8">3507675</Frequency><Timestamp dt:dt="r8">898558275940</Timestamp><Current dt:dt="r8">0</Current><DateUtc dt:dt="string">2016-09-09T21:31:33Z</DateUtc></FrequencyChange></FrequencyChanges></Clock>\n	Hungry_Donkey_bar_English_2-171-1	60.017	-36	1.0.0.18	1	910824753	Standard	2.0.10.353	2.0.10.353	09-09-2016	9/9/2016 9:31:33 PM	17:31:33	2.0.10.248	85	Bar50-50.bmp	56	1	?	0r_4g.bmp	0r_4g.bmp	0r_2g.bmp	0r_2g.bmp	0r_4g.bmp				TrialProc	TrialList	0	cvbn	-999999	16	302520	0	c	429	302949	258	-204	54	44	-24	20	14	6	9	85	0	0	0	0	4	4	2	2	0	4
Hungry_Donkey_bar_English_2	171	1	<?xml version="1.0"?>\n<Clock xmlns:dt="urn:schemas-microsoft-com:datatypes"><Description dt:dt="string">E-Prime Primary Realtime Clock</Description><StartTime><Timestamp dt:dt="int">0</Timestamp><DateUtc dt:dt="string">2016-09-09T21:31:33Z</DateUtc></StartTime><FrequencyChanges><FrequencyChange><Frequency dt:dt="r8">3507675</Frequency><Timestamp dt:dt="r8">898558275940</Timestamp><Current dt:dt="r8">0</Current><DateUtc dt:dt="string">2016-09-09T21:31:33Z</DateUtc></FrequencyChange></FrequencyChanges></Clock>\n	Hungry_Donkey_bar_English_2-171-1	60.017	-36	1.0.0.18	1	910824753	Standard	2.0.10.353	2.0.10.353	09-09-2016	9/9/2016 9:31:33 PM	17:31:33	2.0.10.248	86	Bar50-50.bmp	55	1	?	10r_4g.bmp	0r_4g.bmp	2r_2g.bmp	0r_2g.bmp	10r_4g.bmp				TrialProc	TrialList	0	cvbn	-999999	16	304986	0	c	171	305157	262	-214	48	38	-24	20	14	3	9	86	-10	0	-2	0	4	4	2	2	-10	4
Hungry_Donkey_bar_English_2	171	1	<?xml version="1.0"?>\n<Clock xmlns:dt="urn:schemas-microsoft-com:datatypes"><Description dt:dt="string">E-Prime Primary Realtime Clock</Description><StartTime><Timestamp dt:dt="int">0</Timestamp><DateUtc dt:dt="string">2016-09-09T21:31:33Z</DateUtc></StartTime><FrequencyChanges><FrequencyChange><Frequency dt:dt="r8">3507675</Frequency><Timestamp dt:dt="r8">898558275940</Timestamp><Current dt:dt="r8">0</Current><DateUtc dt:dt="string">2016-09-09T21:31:33Z</DateUtc></FrequencyChange></FrequencyChanges></Clock>\n	Hungry_Donkey_bar_English_2-171-1	60.017	-36	1.0.0.18	1	910824753	Standard	2.0.10.353	2.0.10.353	09-09-2016	9/9/2016 9:31:33 PM	17:31:33	2.0.10.248	87	Bar50-50.bmp	55	3	?	10r_4g.bmp	0r_4g.bmp	2r_2g.bmp	0r_2g.bmp			2r_2g.bmp		TrialProc	TrialList	0	cvbn	-999999	16	307185	0	b	180	307365	264	-216	48	38	-24	20	14	4	9	87	-10	0	-2	0	4	4	2	2	-2	2
Hungry_Donkey_bar_English_2	171	1	<?xml version="1.0"?>\n<Clock xmlns:dt="urn:schemas-microsoft-com:datatypes"><Description dt:dt="string">E-Prime Primary Realtime Clock</Description><StartTime><Timestamp dt:dt="int">0</Timestamp><DateUtc dt:dt="string">2016-09-09T21:31:33Z</DateUtc></StartTime><FrequencyChanges><FrequencyChange><Frequency dt:dt="r8">3507675</Frequency><Timestamp dt:dt="r8">898558275940</Timestamp><Current dt:dt="r8">0</Current><DateUtc dt:dt="string">2016-09-09T21:31:33Z</DateUtc></FrequencyChange></FrequencyChanges></Clock>\n	Hungry_Donkey_bar_English_2-171-1	60.017	-36	1.0.0.18	1	910824753	Standard	2.0.10.353	2.0.10.353	09-09-2016	9/9/2016 9:31:33 PM	17:31:33	2.0.10.248	88	Bar50-50.bmp	55	2	?	12r_4g.bmp	0r_4g.bmp	3r_2g.bmp	0r_2g.bmp		0r_4g.bmp			TrialProc	TrialList	0	cvbn	-999999	16	309401	0	v	508	309909	268	-216	52	38	-20	20	14	5	9	88	-12	0	-3	0	4	4	2	2	0	4
Hungry_Donkey_bar_English_2	171	1	<?xml version="1.0"?>\n<Clock xmlns:dt="urn:schemas-microsoft-com:datatypes"><Description dt:dt="string">E-Prime Primary Realtime Clock</Description><StartTime><Timestamp dt:dt="int">0</Timestamp><DateUtc dt:dt="string">2016-09-09T21:31:33Z</DateUtc></StartTime><FrequencyChanges><FrequencyChange><Frequency dt:dt="r8">3507675</Frequency><Timestamp dt:dt="r8">898558275940</Timestamp><Current dt:dt="r8">0</Current><DateUtc dt:dt="string">2016-09-09T21:31:33Z</DateUtc></FrequencyChange></FrequencyChanges></Clock>\n	Hungry_Donkey_bar_English_2-171-1	60.017	-36	1.0.0.18	1	910824753	Standard	2.0.10.353	2.0.10.353	09-09-2016	9/9/2016 9:31:33 PM	17:31:33	2.0.10.248	89	Bar50-50.bmp	56	1	?	0r_4g.bmp	0r_4g.bmp	0r_2g.bmp	0r_2g.bmp	0r_4g.bmp				TrialProc	TrialList	0	cvbn	-999999	16	311934	0	c	262	312196	272	-216	56	42	-20	20	14	9	9	89	0	0	0	0	4	4	2	2	0	4
Hungry_Donkey_bar_English_2	171	1	<?xml version="1.0"?>\n<Clock xmlns:dt="urn:schemas-microsoft-com:datatypes"><Description dt:dt="string">E-Prime Primary Realtime Clock</Description><StartTime><Timestamp dt:dt="int">0</Timestamp><DateUtc dt:dt="string">2016-09-09T21:31:33Z</DateUtc></StartTime><FrequencyChanges><FrequencyChange><Frequency dt:dt="r8">3507675</Frequency><Timestamp dt:dt="r8">898558275940</Timestamp><Current dt:dt="r8">0</Current><DateUtc dt:dt="string">2016-09-09T21:31:33Z</DateUtc></FrequencyChange></FrequencyChanges></Clock>\n	Hungry_Donkey_bar_English_2-171-1	60.017	-36	1.0.0.18	1	910824753	Standard	2.0.10.353	2.0.10.353	09-09-2016	9/9/2016 9:31:33 PM	17:31:33	2.0.10.248	90	Bar50-50.bmp	55	4	?	8r_4g.bmp	50r_4g.bmp	1r_2g.bmp	10r_2g.bmp				10r_2g.bmp	TrialProc	TrialList	0	cvbn	-999999	16	314233	0	n	299	314532	274	-226	48	42	-20	20	6	1	9	90	-8	-50	-1	-10	4	4	2	2	-10	2
Hungry_Donkey_bar_English_2	171	1	<?xml version="1.0"?>\n<Clock xmlns:dt="urn:schemas-microsoft-com:datatypes"><Description dt:dt="string">E-Prime Primary Realtime Clock</Description><StartTime><Timestamp dt:dt="int">0</Timestamp><DateUtc dt:dt="string">2016-09-09T21:31:33Z</DateUtc></StartTime><FrequencyChanges><FrequencyChange><Frequency dt:dt="r8">3507675</Frequency><Timestamp dt:dt="r8">898558275940</Timestamp><Current dt:dt="r8">0</Current><DateUtc dt:dt="string">2016-09-09T21:31:33Z</DateUtc></FrequencyChange></FrequencyChanges></Clock>\n	Hungry_Donkey_bar_English_2-171-1	60.017	-36	1.0.0.18	1	910824753	Standard	2.0.10.353	2.0.10.353	09-09-2016	9/9/2016 9:31:33 PM	17:31:33	2.0.10.248	91	Bar50-50.bmp	54	1	?	12r_4g.bmp	0r_4g.bmp	3r_2g.bmp	0r_2g.bmp	12r_4g.bmp				TrialProc	TrialList	0	cvbn	-999999	16	316566	0	c	350	316916	278	-238	40	34	-20	20	6	5	10	91	-12	0	-3	0	4	4	2	2	-12	4
Hungry_Donkey_bar_English_2	171	1	<?xml version="1.0"?>\n<Clock xmlns:dt="urn:schemas-microsoft-com:datatypes"><Description dt:dt="string">E-Prime Primary Realtime Clock</Description><StartTime><Timestamp dt:dt="int">0</Timestamp><DateUtc dt:dt="string">2016-09-09T21:31:33Z</DateUtc></StartTime><FrequencyChanges><FrequencyChange><Frequency dt:dt="r8">3507675</Frequency><Timestamp dt:dt="r8">898558275940</Timestamp><Current dt:dt="r8">0</Current><DateUtc dt:dt="string">2016-09-09T21:31:33Z</DateUtc></FrequencyChange></FrequencyChanges></Clock>\n	Hungry_Donkey_bar_English_2-171-1	60.017	-36	1.0.0.18	1	910824753	Standard	2.0.10.353	2.0.10.353	09-09-2016	9/9/2016 9:31:33 PM	17:31:33	2.0.10.248	92	Bar50-50.bmp	54	3	?	0r_4g.bmp	0r_4g.bmp	0r_2g.bmp	0r_2g.bmp			0r_2g.bmp		TrialProc	TrialList	0	cvbn	-999999	17	318949	0	b	751	319700	280	-238	42	34	-20	22	6	9	10	92	0	0	0	0	4	4	2	2	0	2
Hungry_Donkey_bar_English_2	171	1	<?xml version="1.0"?>\n<Clock xmlns:dt="urn:schemas-microsoft-com:datatypes"><Description dt:dt="string">E-Prime Primary Realtime Clock</Description><StartTime><Timestamp dt:dt="int">0</Timestamp><DateUtc dt:dt="string">2016-09-09T21:31:33Z</DateUtc></StartTime><FrequencyChanges><FrequencyChange><Frequency dt:dt="r8">3507675</Frequency><Timestamp dt:dt="r8">898558275940</Timestamp><Current dt:dt="r8">0</Current><DateUtc dt:dt="string">2016-09-09T21:31:33Z</DateUtc></FrequencyChange></FrequencyChanges></Clock>\n	Hungry_Donkey_bar_English_2-171-1	60.017	-36	1.0.0.18	1	910824753	Standard	2.0.10.353	2.0.10.353	09-09-2016	9/9/2016 9:31:33 PM	17:31:33	2.0.10.248	93	Bar50-50.bmp	54	2	?	0r_4g.bmp	0r_4g.bmp	0r_2g.bmp	0r_2g.bmp		0r_4g.bmp			TrialProc	TrialList	0	cvbn	-999999	16	321731	0	v	449	322180	284	-238	46	34	-16	22	6	7	10	93	0	0	0	0	4	4	2	2	0	4
Hungry_Donkey_bar_English_2	171	1	<?xml version="1.0"?>\n<Clock xmlns:dt="urn:schemas-microsoft-com:datatypes"><Description dt:dt="string">E-Prime Primary Realtime Clock</Description><StartTime><Timestamp dt:dt="int">0</Timestamp><DateUtc dt:dt="string">2016-09-09T21:31:33Z</DateUtc></StartTime><FrequencyChanges><FrequencyChange><Frequency dt:dt="r8">3507675</Frequency><Timestamp dt:dt="r8">898558275940</Timestamp><Current dt:dt="r8">0</Current><DateUtc dt:dt="string">2016-09-09T21:31:33Z</DateUtc></FrequencyChange></FrequencyChanges></Clock>\n	Hungry_Donkey_bar_English_2-171-1	60.017	-36	1.0.0.18	1	910824753	Standard	2.0.10.353	2.0.10.353	09-09-2016	9/9/2016 9:31:33 PM	17:31:33	2.0.10.248	94	Bar50-50.bmp	55	2	?	0r_4g.bmp	0r_4g.bmp	0r_2g.bmp	0r_2g.bmp		0r_4g.bmp			TrialProc	TrialList	0	cvbn	-999999	16	324214	0	v	254	324468	288	-238	50	34	-12	22	6	8	10	94	0	0	0	0	4	4	2	2	0	4
Hungry_Donkey_bar_English_2	171	1	<?xml version="1.0"?>\n<Clock xmlns:dt="urn:schemas-microsoft-com:datatypes"><Description dt:dt="string">E-Prime Primary Realtime Clock</Description><StartTime><Timestamp dt:dt="int">0</Timestamp><DateUtc dt:dt="string">2016-09-09T21:31:33Z</DateUtc></StartTime><FrequencyChanges><FrequencyChange><Frequency dt:dt="r8">3507675</Frequency><Timestamp dt:dt="r8">898558275940</Timestamp><Current dt:dt="r8">0</Current><DateUtc dt:dt="string">2016-09-09T21:31:33Z</DateUtc></FrequencyChange></FrequencyChanges></Clock>\n	Hungry_Donkey_bar_English_2-171-1	60.017	-36	1.0.0.18	1	910824753	Standard	2.0.10.353	2.0.10.353	09-09-2016	9/9/2016 9:31:33 PM	17:31:33	2.0.10.248	95	Bar50-50.bmp	55	2	?	10r_4g.bmp	0r_4g.bmp	2r_2g.bmp	0r_2g.bmp		0r_4g.bmp			TrialProc	TrialList	0	cvbn	-999999	16	326496	0	v	580	327076	292	-238	54	34	-8	22	6	3	10	95	-10	0	-2	0	4	4	2	2	0	4
Hungry_Donkey_bar_English_2	171	1	<?xml version="1.0"?>\n<Clock xmlns:dt="urn:schemas-microsoft-com:datatypes"><Description dt:dt="string">E-Prime Primary Realtime Clock</Description><StartTime><Timestamp dt:dt="int">0</Timestamp><DateUtc dt:dt="string">2016-09-09T21:31:33Z</DateUtc></StartTime><FrequencyChanges><FrequencyChange><Frequency dt:dt="r8">3507675</Frequency><Timestamp dt:dt="r8">898558275940</Timestamp><Current dt:dt="r8">0</Current><DateUtc dt:dt="string">2016-09-09T21:31:33Z</DateUtc></FrequencyChange></FrequencyChanges></Clock>\n	Hungry_Donkey_bar_English_2-171-1	60.017	-36	1.0.0.18	1	910824753	Standard	2.0.10.353	2.0.10.353	09-09-2016	9/9/2016 9:31:33 PM	17:31:33	2.0.10.248	96	Bar50-50.bmp	55	2	?	10r_4g.bmp	0r_4g.bmp	2r_2g.bmp	0r_2g.bmp		0r_4g.bmp			TrialProc	TrialList	0	cvbn	-999999	16	329112	0	v	476	329588	296	-238	58	34	-4	22	6	4	10	96	-10	0	-2	0	4	4	2	2	0	4
Hungry_Donkey_bar_English_2	171	1	<?xml version="1.0"?>\n<Clock xmlns:dt="urn:schemas-microsoft-com:datatypes"><Description dt:dt="string">E-Prime Primary Realtime Clock</Description><StartTime><Timestamp dt:dt="int">0</Timestamp><DateUtc dt:dt="string">2016-09-09T21:31:33Z</DateUtc></StartTime><FrequencyChanges><FrequencyChange><Frequency dt:dt="r8">3507675</Frequency><Timestamp dt:dt="r8">898558275940</Timestamp><Current dt:dt="r8">0</Current><DateUtc dt:dt="string">2016-09-09T21:31:33Z</DateUtc></FrequencyChange></FrequencyChanges></Clock>\n	Hungry_Donkey_bar_English_2-171-1	60.017	-36	1.0.0.18	1	910824753	Standard	2.0.10.353	2.0.10.353	09-09-2016	9/9/2016 9:31:33 PM	17:31:33	2.0.10.248	97	Bar50-50.bmp	55	1	?	10r_4g.bmp	0r_4g.bmp	2r_2g.bmp	0r_2g.bmp	10r_4g.bmp				TrialProc	TrialList	0	cvbn	-999999	16	331612	0	c	264	331876	300	-248	52	28	-4	22	6	2	10	97	-10	0	-2	0	4	4	2	2	-10	4
Hungry_Donkey_bar_English_2	171	1	<?xml version="1.0"?>\n<Clock xmlns:dt="urn:schemas-microsoft-com:datatypes"><Description dt:dt="string">E-Prime Primary Realtime Clock</Description><StartTime><Timestamp dt:dt="int">0</Timestamp><DateUtc dt:dt="string">2016-09-09T21:31:33Z</DateUtc></StartTime><FrequencyChanges><FrequencyChange><Frequency dt:dt="r8">3507675</Frequency><Timestamp dt:dt="r8">898558275940</Timestamp><Current dt:dt="r8">0</Current><DateUtc dt:dt="string">2016-09-09T21:31:33Z</DateUtc></FrequencyChange></FrequencyChanges></Clock>\n	Hungry_Donkey_bar_English_2-171-1	60.017	-36	1.0.0.18	1	910824753	Standard	2.0.10.353	2.0.10.353	09-09-2016	9/9/2016 9:31:33 PM	17:31:33	2.0.10.248	98	Bar50-50.bmp	50	2	?	8r_4g.bmp	50r_4g.bmp	1r_2g.bmp	10r_2g.bmp		50r_4g.bmp			TrialProc	TrialList	0	cvbn	-999999	16	333911	0	v	44	333955	304	-298	6	28	-50	22	6	1	10	98	-8	-50	-1	-10	4	4	2	2	-50	4
Hungry_Donkey_bar_English_2	171	1	<?xml version="1.0"?>\n<Clock xmlns:dt="urn:schemas-microsoft-com:datatypes"><Description dt:dt="string">E-Prime Primary Realtime Clock</Description><StartTime><Timestamp dt:dt="int">0</Timestamp><DateUtc dt:dt="string">2016-09-09T21:31:33Z</DateUtc></StartTime><FrequencyChanges><FrequencyChange><Frequency dt:dt="r8">3507675</Frequency><Timestamp dt:dt="r8">898558275940</Timestamp><Current dt:dt="r8">0</Current><DateUtc dt:dt="string">2016-09-09T21:31:33Z</DateUtc></FrequencyChange></FrequencyChanges></Clock>\n	Hungry_Donkey_bar_English_2-171-1	60.017	-36	1.0.0.18	1	910824753	Standard	2.0.10.353	2.0.10.353	09-09-2016	9/9/2016 9:31:33 PM	17:31:33	2.0.10.248	99	Bar50-50.bmp	51	4	?	0r_4g.bmp	0r_4g.bmp	0r_2g.bmp	0r_2g.bmp				0r_2g.bmp	TrialProc	TrialList	0	cvbn	-999999	16	335994	0	n	297	336291	306	-298	8	28	-50	22	8	10	10	99	0	0	0	0	4	4	2	2	0	2
Hungry_Donkey_bar_English_2	171	1	<?xml version="1.0"?>\n<Clock xmlns:dt="urn:schemas-microsoft-com:datatypes"><Description dt:dt="string">E-Prime Primary Realtime Clock</Description><StartTime><Timestamp dt:dt="int">0</Timestamp><DateUtc dt:dt="string">2016-09-09T21:31:33Z</DateUtc></StartTime><FrequencyChanges><FrequencyChange><Frequency dt:dt="r8">3507675</Frequency><Timestamp dt:dt="r8">898558275940</Timestamp><Current dt:dt="r8">0</Current><DateUtc dt:dt="string">2016-09-09T21:31:33Z</DateUtc></FrequencyChange></FrequencyChanges></Clock>\n	Hungry_Donkey_bar_English_2-171-1	60.017	-36	1.0.0.18	1	910824753	Standard	2.0.10.353	2.0.10.353	09-09-2016	9/9/2016 9:31:33 PM	17:31:33	2.0.10.248	100	Bar50-50.bmp	51	3	?	0r_4g.bmp	0r_4g.bmp	0r_2g.bmp	0r_2g.bmp			0r_2g.bmp		TrialProc	TrialList	0	cvbn	-999999	16	338326	0	b	621	338947	308	-298	10	28	-50	24	8	6	10	100	0	0	0	0	4	4	2	2	0	2
Hungry_Donkey_bar_English_2	171	1	<?xml version="1.0"?>\n<Clock xmlns:dt="urn:schemas-microsoft-com:datatypes"><Description dt:dt="string">E-Prime Primary Realtime Clock</Description><StartTime><Timestamp dt:dt="int">0</Timestamp><DateUtc dt:dt="string">2016-09-09T21:31:33Z</DateUtc></StartTime><FrequencyChanges><FrequencyChange><Frequency dt:dt="r8">3507675</Frequency><Timestamp dt:dt="r8">898558275940</Timestamp><Current dt:dt="r8">0</Current><DateUtc dt:dt="string">2016-09-09T21:31:33Z</DateUtc></FrequencyChange></FrequencyChanges></Clock>\n	Hungry_Donkey_bar_English_2-171-1	60.017	-36	1.0.0.18	1	910824753	Standard	2.0.10.353	2.0.10.353	09-09-2016	9/9/2016 9:31:33 PM	17:31:33	2.0.10.248	101	Bar50-50.bmp	50	1	?	10r_4g.bmp	0r_4g.bmp	2r_2g.bmp	0r_2g.bmp	10r_4g.bmp				TrialProc	TrialList	0	cvbn	-999999	17	340976	0	c	195	341171	312	-308	4	22	-50	24	8	2	11	101	-10	0	-2	0	4	4	2	2	-10	4
Hungry_Donkey_bar_English_2	171	1	<?xml version="1.0"?>\n<Clock xmlns:dt="urn:schemas-microsoft-com:datatypes"><Description dt:dt="string">E-Prime Primary Realtime Clock</Description><StartTime><Timestamp dt:dt="int">0</Timestamp><DateUtc dt:dt="string">2016-09-09T21:31:33Z</DateUtc></StartTime><FrequencyChanges><FrequencyChange><Frequency dt:dt="r8">3507675</Frequency><Timestamp dt:dt="r8">898558275940</Timestamp><Current dt:dt="r8">0</Current><DateUtc dt:dt="string">2016-09-09T21:31:33Z</DateUtc></FrequencyChange></FrequencyChanges></Clock>\n	Hungry_Donkey_bar_English_2-171-1	60.017	-36	1.0.0.18	1	910824753	Standard	2.0.10.353	2.0.10.353	09-09-2016	9/9/2016 9:31:33 PM	17:31:33	2.0.10.248	102	Bar50-50.bmp	51	2	?	10r_4g.bmp	0r_4g.bmp	2r_2g.bmp	0r_2g.bmp		0r_4g.bmp			TrialProc	TrialList	0	cvbn	-999999	16	343208	0	v	395	343603	316	-308	8	22	-46	24	8	4	11	102	-10	0	-2	0	4	4	2	2	0	4
Hungry_Donkey_bar_English_2	171	1	<?xml version="1.0"?>\n<Clock xmlns:dt="urn:schemas-microsoft-com:datatypes"><Description dt:dt="string">E-Prime Primary Realtime Clock</Description><StartTime><Timestamp dt:dt="int">0</Timestamp><DateUtc dt:dt="string">2016-09-09T21:31:33Z</DateUtc></StartTime><FrequencyChanges><FrequencyChange><Frequency dt:dt="r8">3507675</Frequency><Timestamp dt:dt="r8">898558275940</Timestamp><Current dt:dt="r8">0</Current><DateUtc dt:dt="string">2016-09-09T21:31:33Z</DateUtc></FrequencyChange></FrequencyChanges></Clock>\n	Hungry_Donkey_bar_English_2-171-1	60.017	-36	1.0.0.18	1	910824753	Standard	2.0.10.353	2.0.10.353	09-09-2016	9/9/2016 9:31:33 PM	17:31:33	2.0.10.248	103	Bar50-50.bmp	51	2	?	10r_4g.bmp	0r_4g.bmp	2r_2g.bmp	0r_2g.bmp		0r_4g.bmp			TrialProc	TrialList	0	cvbn	-999999	16	345641	0	v	442	346083	320	-308	12	22	-42	24	8	3	11	103	-10	0	-2	0	4	4	2	2	0	4
Hungry_Donkey_bar_English_2	171	1	<?xml version="1.0"?>\n<Clock xmlns:dt="urn:schemas-microsoft-com:datatypes"><Description dt:dt="string">E-Prime Primary Realtime Clock</Description><StartTime><Timestamp dt:dt="int">0</Timestamp><DateUtc dt:dt="string">2016-09-09T21:31:33Z</DateUtc></StartTime><FrequencyChanges><FrequencyChange><Frequency dt:dt="r8">3507675</Frequency><Timestamp dt:dt="r8">898558275940</Timestamp><Current dt:dt="r8">0</Current><DateUtc dt:dt="string">2016-09-09T21:31:33Z</DateUtc></FrequencyChange></FrequencyChanges></Clock>\n	Hungry_Donkey_bar_English_2-171-1	60.017	-36	1.0.0.18	1	910824753	Standard	2.0.10.353	2.0.10.353	09-09-2016	9/9/2016 9:31:33 PM	17:31:33	2.0.10.248	104	Bar50-50.bmp	51	2	?	0r_4g.bmp	0r_4g.bmp	0r_2g.bmp	0r_2g.bmp		0r_4g.bmp			TrialProc	TrialList	0	cvbn	-999999	16	348107	0	v	184	348291	324	-308	16	22	-38	24	8	10	11	104	0	0	0	0	4	4	2	2	0	4
Hungry_Donkey_bar_English_2	171	1	<?xml version="1.0"?>\n<Clock xmlns:dt="urn:schemas-microsoft-com:datatypes"><Description dt:dt="string">E-Prime Primary Realtime Clock</Description><StartTime><Timestamp dt:dt="int">0</Timestamp><DateUtc dt:dt="string">2016-09-09T21:31:33Z</DateUtc></StartTime><FrequencyChanges><FrequencyChange><Frequency dt:dt="r8">3507675</Frequency><Timestamp dt:dt="r8">898558275940</Timestamp><Current dt:dt="r8">0</Current><DateUtc dt:dt="string">2016-09-09T21:31:33Z</DateUtc></FrequencyChange></FrequencyChanges></Clock>\n	Hungry_Donkey_bar_English_2-171-1	60.017	-36	1.0.0.18	1	910824753	Standard	2.0.10.353	2.0.10.353	09-09-2016	9/9/2016 9:31:33 PM	17:31:33	2.0.10.248	105	Bar50-50.bmp	52	2	?	0r_4g.bmp	0r_4g.bmp	0r_2g.bmp	0r_2g.bmp		0r_4g.bmp			TrialProc	TrialList	0	cvbn	-999999	16	350323	0	v	256	350579	328	-308	20	22	-34	24	8	7	11	105	0	0	0	0	4	4	2	2	0	4
Hungry_Donkey_bar_English_2	171	1	<?xml version="1.0"?>\n<Clock xmlns:dt="urn:schemas-microsoft-com:datatypes"><Description dt:dt="string">E-Prime Primary Realtime Clock</Description><StartTime><Timestamp dt:dt="int">0</Timestamp><DateUtc dt:dt="string">2016-09-09T21:31:33Z</DateUtc></StartTime><FrequencyChanges><FrequencyChange><Frequency dt:dt="r8">3507675</Frequency><Timestamp dt:dt="r8">898558275940</Timestamp><Current dt:dt="r8">0</Current><DateUtc dt:dt="string">2016-09-09T21:31:33Z</DateUtc></FrequencyChange></FrequencyChanges></Clock>\n	Hungry_Donkey_bar_English_2-171-1	60.017	-36	1.0.0.18	1	910824753	Standard	2.0.10.353	2.0.10.353	09-09-2016	9/9/2016 9:31:33 PM	17:31:33	2.0.10.248	106	Bar50-50.bmp	52	2	?	0r_4g.bmp	0r_4g.bmp	0r_2g.bmp	0r_2g.bmp		0r_4g.bmp			TrialProc	TrialList	0	cvbn	-999999	16	352606	0	v	277	352883	332	-308	24	22	-30	24	8	8	11	106	0	0	0	0	4	4	2	2	0	4
Hungry_Donkey_bar_English_2	171	1	<?xml version="1.0"?>\n<Clock xmlns:dt="urn:schemas-microsoft-com:datatypes"><Description dt:dt="string">E-Prime Primary Realtime Clock</Description><StartTime><Timestamp dt:dt="int">0</Timestamp><DateUtc dt:dt="string">2016-09-09T21:31:33Z</DateUtc></StartTime><FrequencyChanges><FrequencyChange><Frequency dt:dt="r8">3507675</Frequency><Timestamp dt:dt="r8">898558275940</Timestamp><Current dt:dt="r8">0</Current><DateUtc dt:dt="string">2016-09-09T21:31:33Z</DateUtc></FrequencyChange></FrequencyChanges></Clock>\n	Hungry_Donkey_bar_English_2-171-1	60.017	-36	1.0.0.18	1	910824753	Standard	2.0.10.353	2.0.10.353	09-09-2016	9/9/2016 9:31:33 PM	17:31:33	2.0.10.248	107	Bar50-50.bmp	52	2	?	12r_4g.bmp	0r_4g.bmp	3r_2g.bmp	0r_2g.bmp		0r_4g.bmp			TrialProc	TrialList	0	cvbn	-999999	16	354922	0	v	296	355218	336	-308	28	22	-26	24	8	5	11	107	-12	0	-3	0	4	4	2	2	0	4
Hungry_Donkey_bar_English_2	171	1	<?xml version="1.0"?>\n<Clock xmlns:dt="urn:schemas-microsoft-com:datatypes"><Description dt:dt="string">E-Prime Primary Realtime Clock</Description><StartTime><Timestamp dt:dt="int">0</Timestamp><DateUtc dt:dt="string">2016-09-09T21:31:33Z</DateUtc></StartTime><FrequencyChanges><FrequencyChange><Frequency dt:dt="r8">3507675</Frequency><Timestamp dt:dt="r8">898558275940</Timestamp><Current dt:dt="r8">0</Current><DateUtc dt:dt="string">2016-09-09T21:31:33Z</DateUtc></FrequencyChange></FrequencyChanges></Clock>\n	Hungry_Donkey_bar_English_2-171-1	60.017	-36	1.0.0.18	1	910824753	Standard	2.0.10.353	2.0.10.353	09-09-2016	9/9/2016 9:31:33 PM	17:31:33	2.0.10.248	108	Bar50-50.bmp	52	2	?	0r_4g.bmp	0r_4g.bmp	0r_2g.bmp	0r_2g.bmp		0r_4g.bmp			TrialProc	TrialList	0	cvbn	-999999	16	357254	0	v	508	357762	340	-308	32	22	-22	24	8	9	11	108	0	0	0	0	4	4	2	2	0	4
Hungry_Donkey_bar_English_2	171	1	<?xml version="1.0"?>\n<Clock xmlns:dt="urn:schemas-microsoft-com:datatypes"><Description dt:dt="string">E-Prime Primary Realtime Clock</Description><StartTime><Timestamp dt:dt="int">0</Timestamp><DateUtc dt:dt="string">2016-09-09T21:31:33Z</DateUtc></StartTime><FrequencyChanges><FrequencyChange><Frequency dt:dt="r8">3507675</Frequency><Timestamp dt:dt="r8">898558275940</Timestamp><Current dt:dt="r8">0</Current><DateUtc dt:dt="string">2016-09-09T21:31:33Z</DateUtc></FrequencyChange></FrequencyChanges></Clock>\n	Hungry_Donkey_bar_English_2-171-1	60.017	-36	1.0.0.18	1	910824753	Standard	2.0.10.353	2.0.10.353	09-09-2016	9/9/2016 9:31:33 PM	17:31:33	2.0.10.248	109	Bar50-50.bmp	53	2	?	0r_4g.bmp	0r_4g.bmp	0r_2g.bmp	0r_2g.bmp		0r_4g.bmp			TrialProc	TrialList	0	cvbn	-999999	16	359787	0	v	295	360082	344	-308	36	22	-18	24	8	6	11	109	0	0	0	0	4	4	2	2	0	4
Hungry_Donkey_bar_English_2	171	1	<?xml version="1.0"?>\n<Clock xmlns:dt="urn:schemas-microsoft-com:datatypes"><Description dt:dt="string">E-Prime Primary Realtime Clock</Description><StartTime><Timestamp dt:dt="int">0</Timestamp><DateUtc dt:dt="string">2016-09-09T21:31:33Z</DateUtc></StartTime><FrequencyChanges><FrequencyChange><Frequency dt:dt="r8">3507675</Frequency><Timestamp dt:dt="r8">898558275940</Timestamp><Current dt:dt="r8">0</Current><DateUtc dt:dt="string">2016-09-09T21:31:33Z</DateUtc></FrequencyChange></FrequencyChanges></Clock>\n	Hungry_Donkey_bar_English_2-171-1	60.017	-36	1.0.0.18	1	910824753	Standard	2.0.10.353	2.0.10.353	09-09-2016	9/9/2016 9:31:33 PM	17:31:33	2.0.10.248	110	Bar50-50.bmp	49	2	?	8r_4g.bmp	50r_4g.bmp	1r_2g.bmp	10r_2g.bmp		50r_4g.bmp			TrialProc	TrialList	0	cvbn	-999999	17	362120	0	v	314	362434	348	-358	-10	22	-64	24	8	1	11	110	-8	-50	-1	-10	4	4	2	2	-50	4
Hungry_Donkey_bar_English_2	171	1	<?xml version="1.0"?>\n<Clock xmlns:dt="urn:schemas-microsoft-com:datatypes"><Description dt:dt="string">E-Prime Primary Realtime Clock</Description><StartTime><Timestamp dt:dt="int">0</Timestamp><DateUtc dt:dt="string">2016-09-09T21:31:33Z</DateUtc></StartTime><FrequencyChanges><FrequencyChange><Frequency dt:dt="r8">3507675</Frequency><Timestamp dt:dt="r8">898558275940</Timestamp><Current dt:dt="r8">0</Current><DateUtc dt:dt="string">2016-09-09T21:31:33Z</DateUtc></FrequencyChange></FrequencyChanges></Clock>\n	Hungry_Donkey_bar_English_2-171-1	60.017	-36	1.0.0.18	1	910824753	Standard	2.0.10.353	2.0.10.353	09-09-2016	9/9/2016 9:31:33 PM	17:31:33	2.0.10.248	111	Bar50-50.bmp	49	4	?	0r_4g.bmp	0r_4g.bmp	0r_2g.bmp	0r_2g.bmp				0r_2g.bmp	TrialProc	TrialList	0	cvbn	-999999	16	364469	0	n	477	364946	350	-358	-8	22	-64	24	10	8	12	111	0	0	0	0	4	4	2	2	0	2
