ExperimentName	Subject	Session	Clock.Information	DataFile.Basename	Display.RefreshRate	Eindtotaal[Session]	ExperimentVersion	Group	RandomSeed	RuntimeCapabilities	RuntimeVersion	RuntimeVersionExpected	SessionDate	SessionStartDateTimeUtc	SessionTime	StudioVersion	Block	BarImage	BarTotalWinst	DoorChoice	Eindtotaal[Block]	FBDoor1	FBDoor2	FBDoor3	FBDoor4	Image1	Image2	Image3	Image4	Procedure	Running	spel.ACC	spel.CRESP	spel.DurationError	spel.OnsetDelay	spel.OnsetTime	spel.OnsetToOnsetTime	spel.RESP	spel.RT	spel.RTTime	TotalGain	TotalLose	Totalsum	TotalsumD1	TotalsumD2	TotalsumD3	TotalsumD4	TrialList	TrialList.Cycle	TrialList.Sample	varV1	varV2	varV3	varV4	varW1	varW2	varW3	varW4	Verliesbedrag	Winstbedrag
Hungry_Donkey_bar_English_2	164	1	<?xml version="1.0"?>\n<Clock xmlns:dt="urn:schemas-microsoft-com:datatypes"><Description dt:dt="string">E-Prime Primary Realtime Clock</Description><StartTime><Timestamp dt:dt="int">0</Timestamp><DateUtc dt:dt="string">2016-09-09T21:06:41Z</DateUtc></StartTime><FrequencyChanges><FrequencyChange><Frequency dt:dt="r8">3507675</Frequency><Timestamp dt:dt="r8">893323671460</Timestamp><Current dt:dt="r8">0</Current><DateUtc dt:dt="string">2016-09-09T21:06:41Z</DateUtc></FrequencyChange></FrequencyChanges></Clock>\n	Hungry_Donkey_bar_English_2-164-1	60.017	-20	1.0.0.18	1	-28832822	Standard	2.0.10.353	2.0.10.353	09-09-2016	9/9/2016 9:06:41 PM	17:06:41	2.0.10.248	1	Bar100-0.bmp	100	1	?	0r_4g.bmp	0r_4g.bmp	0r_2g.bmp	0r_2g.bmp	0r_4g.bmp				TrialProc	TrialList	0	cvbn	-999999	18	50948	0	c	2590	53538	4	0	4	4	0	0	0	7	1	1	0	0	0	0	4	4	2	2	0	4
Hungry_Donkey_bar_English_2	164	1	<?xml version="1.0"?>\n<Clock xmlns:dt="urn:schemas-microsoft-com:datatypes"><Description dt:dt="string">E-Prime Primary Realtime Clock</Description><StartTime><Timestamp dt:dt="int">0</Timestamp><DateUtc dt:dt="string">2016-09-09T21:06:41Z</DateUtc></StartTime><FrequencyChanges><FrequencyChange><Frequency dt:dt="r8">3507675</Frequency><Timestamp dt:dt="r8">893323671460</Timestamp><Current dt:dt="r8">0</Current><DateUtc dt:dt="string">2016-09-09T21:06:41Z</DateUtc></FrequencyChange></FrequencyChanges></Clock>\n	Hungry_Donkey_bar_English_2-164-1	60.017	-20	1.0.0.18	1	-28832822	Standard	2.0.10.353	2.0.10.353	09-09-2016	9/9/2016 9:06:41 PM	17:06:41	2.0.10.248	2	Bar100-0.bmp	100	2	?	12r_4g.bmp	0r_4g.bmp	3r_2g.bmp	0r_2g.bmp		0r_4g.bmp			TrialProc	TrialList	0	cvbn	-999999	16	55580	0	v	1814	57394	8	0	8	4	4	0	0	5	1	2	-12	0	-3	0	4	4	2	2	0	4
Hungry_Donkey_bar_English_2	164	1	<?xml version="1.0"?>\n<Clock xmlns:dt="urn:schemas-microsoft-com:datatypes"><Description dt:dt="string">E-Prime Primary Realtime Clock</Description><StartTime><Timestamp dt:dt="int">0</Timestamp><DateUtc dt:dt="string">2016-09-09T21:06:41Z</DateUtc></StartTime><FrequencyChanges><FrequencyChange><Frequency dt:dt="r8">3507675</Frequency><Timestamp dt:dt="r8">893323671460</Timestamp><Current dt:dt="r8">0</Current><DateUtc dt:dt="string">2016-09-09T21:06:41Z</DateUtc></FrequencyChange></FrequencyChanges></Clock>\n	Hungry_Donkey_bar_English_2-164-1	60.017	-20	1.0.0.18	1	-28832822	Standard	2.0.10.353	2.0.10.353	09-09-2016	9/9/2016 9:06:41 PM	17:06:41	2.0.10.248	3	Bar87-13.bmp	91	3	?	8r_4g.bmp	50r_4g.bmp	1r_2g.bmp	10r_2g.bmp			1r_2g.bmp		TrialProc	TrialList	0	cvbn	-999999	16	59429	0	b	924	60353	10	-1	9	4	4	1	0	1	1	3	-8	-50	-1	-10	4	4	2	2	-1	2
Hungry_Donkey_bar_English_2	164	1	<?xml version="1.0"?>\n<Clock xmlns:dt="urn:schemas-microsoft-com:datatypes"><Description dt:dt="string">E-Prime Primary Realtime Clock</Description><StartTime><Timestamp dt:dt="int">0</Timestamp><DateUtc dt:dt="string">2016-09-09T21:06:41Z</DateUtc></StartTime><FrequencyChanges><FrequencyChange><Frequency dt:dt="r8">3507675</Frequency><Timestamp dt:dt="r8">893323671460</Timestamp><Current dt:dt="r8">0</Current><DateUtc dt:dt="string">2016-09-09T21:06:41Z</DateUtc></FrequencyChange></FrequencyChanges></Clock>\n	Hungry_Donkey_bar_English_2-164-1	60.017	-20	1.0.0.18	1	-28832822	Standard	2.0.10.353	2.0.10.353	09-09-2016	9/9/2016 9:06:41 PM	17:06:41	2.0.10.248	4	Bar87-13.bmp	92	4	?	10r_4g.bmp	0r_4g.bmp	2r_2g.bmp	0r_2g.bmp				0r_2g.bmp	TrialProc	TrialList	0	cvbn	-999999	16	62394	0	n	1863	64257	12	-1	11	4	4	1	2	2	1	4	-10	0	-2	0	4	4	2	2	0	2
Hungry_Donkey_bar_English_2	164	1	<?xml version="1.0"?>\n<Clock xmlns:dt="urn:schemas-microsoft-com:datatypes"><Description dt:dt="string">E-Prime Primary Realtime Clock</Description><StartTime><Timestamp dt:dt="int">0</Timestamp><DateUtc dt:dt="string">2016-09-09T21:06:41Z</DateUtc></StartTime><FrequencyChanges><FrequencyChange><Frequency dt:dt="r8">3507675</Frequency><Timestamp dt:dt="r8">893323671460</Timestamp><Current dt:dt="r8">0</Current><DateUtc dt:dt="string">2016-09-09T21:06:41Z</DateUtc></FrequencyChange></FrequencyChanges></Clock>\n	Hungry_Donkey_bar_English_2-164-1	60.017	-20	1.0.0.18	1	-28832822	Standard	2.0.10.353	2.0.10.353	09-09-2016	9/9/2016 9:06:41 PM	17:06:41	2.0.10.248	5	Bar100-0.bmp	94	2	?	10r_4g.bmp	0r_4g.bmp	2r_2g.bmp	0r_2g.bmp		0r_4g.bmp			TrialProc	TrialList	0	cvbn	-999999	16	66293	0	v	1068	67361	16	-1	15	4	8	1	2	4	1	5	-10	0	-2	0	4	4	2	2	0	4
Hungry_Donkey_bar_English_2	164	1	<?xml version="1.0"?>\n<Clock xmlns:dt="urn:schemas-microsoft-com:datatypes"><Description dt:dt="string">E-Prime Primary Realtime Clock</Description><StartTime><Timestamp dt:dt="int">0</Timestamp><DateUtc dt:dt="string">2016-09-09T21:06:41Z</DateUtc></StartTime><FrequencyChanges><FrequencyChange><Frequency dt:dt="r8">3507675</Frequency><Timestamp dt:dt="r8">893323671460</Timestamp><Current dt:dt="r8">0</Current><DateUtc dt:dt="string">2016-09-09T21:06:41Z</DateUtc></FrequencyChange></FrequencyChanges></Clock>\n	Hungry_Donkey_bar_English_2-164-1	60.017	-20	1.0.0.18	1	-28832822	Standard	2.0.10.353	2.0.10.353	09-09-2016	9/9/2016 9:06:41 PM	17:06:41	2.0.10.248	6	Bar100-0.bmp	95	3	?	0r_4g.bmp	0r_4g.bmp	0r_2g.bmp	0r_2g.bmp			0r_2g.bmp		TrialProc	TrialList	0	cvbn	-999999	16	69392	0	b	481	69873	18	-1	17	4	8	3	2	9	1	6	0	0	0	0	4	4	2	2	0	2
Hungry_Donkey_bar_English_2	164	1	<?xml version="1.0"?>\n<Clock xmlns:dt="urn:schemas-microsoft-com:datatypes"><Description dt:dt="string">E-Prime Primary Realtime Clock</Description><StartTime><Timestamp dt:dt="int">0</Timestamp><DateUtc dt:dt="string">2016-09-09T21:06:41Z</DateUtc></StartTime><FrequencyChanges><FrequencyChange><Frequency dt:dt="r8">3507675</Frequency><Timestamp dt:dt="r8">893323671460</Timestamp><Current dt:dt="r8">0</Current><DateUtc dt:dt="string">2016-09-09T21:06:41Z</DateUtc></FrequencyChange></FrequencyChanges></Clock>\n	Hungry_Donkey_bar_English_2-164-1	60.017	-20	1.0.0.18	1	-28832822	Standard	2.0.10.353	2.0.10.353	09-09-2016	9/9/2016 9:06:41 PM	17:06:41	2.0.10.248	7	Bar100-0.bmp	96	1	?	0r_4g.bmp	0r_4g.bmp	0r_2g.bmp	0r_2g.bmp	0r_4g.bmp				TrialProc	TrialList	0	cvbn	-999999	16	71908	0	c	349	72257	22	-1	21	8	8	3	2	6	1	7	0	0	0	0	4	4	2	2	0	4
Hungry_Donkey_bar_English_2	164	1	<?xml version="1.0"?>\n<Clock xmlns:dt="urn:schemas-microsoft-com:datatypes"><Description dt:dt="string">E-Prime Primary Realtime Clock</Description><StartTime><Timestamp dt:dt="int">0</Timestamp><DateUtc dt:dt="string">2016-09-09T21:06:41Z</DateUtc></StartTime><FrequencyChanges><FrequencyChange><Frequency dt:dt="r8">3507675</Frequency><Timestamp dt:dt="r8">893323671460</Timestamp><Current dt:dt="r8">0</Current><DateUtc dt:dt="string">2016-09-09T21:06:41Z</DateUtc></FrequencyChange></FrequencyChanges></Clock>\n	Hungry_Donkey_bar_English_2-164-1	60.017	-20	1.0.0.18	1	-28832822	Standard	2.0.10.353	2.0.10.353	09-09-2016	9/9/2016 9:06:41 PM	17:06:41	2.0.10.248	8	Bar100-0.bmp	96	4	?	0r_4g.bmp	0r_4g.bmp	0r_2g.bmp	0r_2g.bmp				0r_2g.bmp	TrialProc	TrialList	0	cvbn	-999999	16	74291	0	n	30	74321	24	-1	23	8	8	3	4	8	1	8	0	0	0	0	4	4	2	2	0	2
Hungry_Donkey_bar_English_2	164	1	<?xml version="1.0"?>\n<Clock xmlns:dt="urn:schemas-microsoft-com:datatypes"><Description dt:dt="string">E-Prime Primary Realtime Clock</Description><StartTime><Timestamp dt:dt="int">0</Timestamp><DateUtc dt:dt="string">2016-09-09T21:06:41Z</DateUtc></StartTime><FrequencyChanges><FrequencyChange><Frequency dt:dt="r8">3507675</Frequency><Timestamp dt:dt="r8">893323671460</Timestamp><Current dt:dt="r8">0</Current><DateUtc dt:dt="string">2016-09-09T21:06:41Z</DateUtc></FrequencyChange></FrequencyChanges></Clock>\n	Hungry_Donkey_bar_English_2-164-1	60.017	-20	1.0.0.18	1	-28832822	Standard	2.0.10.353	2.0.10.353	09-09-2016	9/9/2016 9:06:41 PM	17:06:41	2.0.10.248	9	Bar100-0.bmp	97	2	?	0r_4g.bmp	0r_4g.bmp	0r_2g.bmp	0r_2g.bmp		0r_4g.bmp			TrialProc	TrialList	0	cvbn	-999999	16	76357	0	v	828	77185	28	-1	27	8	12	3	4	10	1	9	0	0	0	0	4	4	2	2	0	4
Hungry_Donkey_bar_English_2	164	1	<?xml version="1.0"?>\n<Clock xmlns:dt="urn:schemas-microsoft-com:datatypes"><Description dt:dt="string">E-Prime Primary Realtime Clock</Description><StartTime><Timestamp dt:dt="int">0</Timestamp><DateUtc dt:dt="string">2016-09-09T21:06:41Z</DateUtc></StartTime><FrequencyChanges><FrequencyChange><Frequency dt:dt="r8">3507675</Frequency><Timestamp dt:dt="r8">893323671460</Timestamp><Current dt:dt="r8">0</Current><DateUtc dt:dt="string">2016-09-09T21:06:41Z</DateUtc></FrequencyChange></FrequencyChanges></Clock>\n	Hungry_Donkey_bar_English_2-164-1	60.017	-20	1.0.0.18	1	-28832822	Standard	2.0.10.353	2.0.10.353	09-09-2016	9/9/2016 9:06:41 PM	17:06:41	2.0.10.248	10	Bar87-13.bmp	91	3	?	10r_4g.bmp	0r_4g.bmp	2r_2g.bmp	0r_2g.bmp			2r_2g.bmp		TrialProc	TrialList	0	cvbn	-999999	16	79223	0	b	362	79585	30	-3	27	8	12	3	4	3	1	10	-10	0	-2	0	4	4	2	2	-2	2
Hungry_Donkey_bar_English_2	164	1	<?xml version="1.0"?>\n<Clock xmlns:dt="urn:schemas-microsoft-com:datatypes"><Description dt:dt="string">E-Prime Primary Realtime Clock</Description><StartTime><Timestamp dt:dt="int">0</Timestamp><DateUtc dt:dt="string">2016-09-09T21:06:41Z</DateUtc></StartTime><FrequencyChanges><FrequencyChange><Frequency dt:dt="r8">3507675</Frequency><Timestamp dt:dt="r8">893323671460</Timestamp><Current dt:dt="r8">0</Current><DateUtc dt:dt="string">2016-09-09T21:06:41Z</DateUtc></FrequencyChange></FrequencyChanges></Clock>\n	Hungry_Donkey_bar_English_2-164-1	60.017	-20	1.0.0.18	1	-28832822	Standard	2.0.10.353	2.0.10.353	09-09-2016	9/9/2016 9:06:41 PM	17:06:41	2.0.10.248	11	Bar87-13.bmp	92	1	?	0r_4g.bmp	0r_4g.bmp	0r_2g.bmp	0r_2g.bmp	0r_4g.bmp				TrialProc	TrialList	0	cvbn	-999999	16	81622	0	c	1994	83616	34	-3	31	12	12	3	4	9	2	11	0	0	0	0	4	4	2	2	0	4
Hungry_Donkey_bar_English_2	164	1	<?xml version="1.0"?>\n<Clock xmlns:dt="urn:schemas-microsoft-com:datatypes"><Description dt:dt="string">E-Prime Primary Realtime Clock</Description><StartTime><Timestamp dt:dt="int">0</Timestamp><DateUtc dt:dt="string">2016-09-09T21:06:41Z</DateUtc></StartTime><FrequencyChanges><FrequencyChange><Frequency dt:dt="r8">3507675</Frequency><Timestamp dt:dt="r8">893323671460</Timestamp><Current dt:dt="r8">0</Current><DateUtc dt:dt="string">2016-09-09T21:06:41Z</DateUtc></FrequencyChange></FrequencyChanges></Clock>\n	Hungry_Donkey_bar_English_2-164-1	60.017	-20	1.0.0.18	1	-28832822	Standard	2.0.10.353	2.0.10.353	09-09-2016	9/9/2016 9:06:41 PM	17:06:41	2.0.10.248	12	Bar87-13.bmp	92	4	?	10r_4g.bmp	0r_4g.bmp	2r_2g.bmp	0r_2g.bmp				0r_2g.bmp	TrialProc	TrialList	0	cvbn	-999999	16	85654	0	n	522	86176	36	-3	33	12	12	3	6	4	2	12	-10	0	-2	0	4	4	2	2	0	2
Hungry_Donkey_bar_English_2	164	1	<?xml version="1.0"?>\n<Clock xmlns:dt="urn:schemas-microsoft-com:datatypes"><Description dt:dt="string">E-Prime Primary Realtime Clock</Description><StartTime><Timestamp dt:dt="int">0</Timestamp><DateUtc dt:dt="string">2016-09-09T21:06:41Z</DateUtc></StartTime><FrequencyChanges><FrequencyChange><Frequency dt:dt="r8">3507675</Frequency><Timestamp dt:dt="r8">893323671460</Timestamp><Current dt:dt="r8">0</Current><DateUtc dt:dt="string">2016-09-09T21:06:41Z</DateUtc></FrequencyChange></FrequencyChanges></Clock>\n	Hungry_Donkey_bar_English_2-164-1	60.017	-20	1.0.0.18	1	-28832822	Standard	2.0.10.353	2.0.10.353	09-09-2016	9/9/2016 9:06:41 PM	17:06:41	2.0.10.248	13	Bar87-13.bmp	93	3	?	0r_4g.bmp	0r_4g.bmp	0r_2g.bmp	0r_2g.bmp			0r_2g.bmp		TrialProc	TrialList	0	cvbn	-999999	16	88204	0	b	388	88592	38	-3	35	12	12	5	6	10	2	13	0	0	0	0	4	4	2	2	0	2
Hungry_Donkey_bar_English_2	164	1	<?xml version="1.0"?>\n<Clock xmlns:dt="urn:schemas-microsoft-com:datatypes"><Description dt:dt="string">E-Prime Primary Realtime Clock</Description><StartTime><Timestamp dt:dt="int">0</Timestamp><DateUtc dt:dt="string">2016-09-09T21:06:41Z</DateUtc></StartTime><FrequencyChanges><FrequencyChange><Frequency dt:dt="r8">3507675</Frequency><Timestamp dt:dt="r8">893323671460</Timestamp><Current dt:dt="r8">0</Current><DateUtc dt:dt="string">2016-09-09T21:06:41Z</DateUtc></FrequencyChange></FrequencyChanges></Clock>\n	Hungry_Donkey_bar_English_2-164-1	60.017	-20	1.0.0.18	1	-28832822	Standard	2.0.10.353	2.0.10.353	09-09-2016	9/9/2016 9:06:41 PM	17:06:41	2.0.10.248	14	Bar87-13.bmp	93	2	?	10r_4g.bmp	0r_4g.bmp	2r_2g.bmp	0r_2g.bmp		0r_4g.bmp			TrialProc	TrialList	0	cvbn	-999999	16	90620	0	v	916	91536	42	-3	39	12	16	5	6	3	2	14	-10	0	-2	0	4	4	2	2	0	4
Hungry_Donkey_bar_English_2	164	1	<?xml version="1.0"?>\n<Clock xmlns:dt="urn:schemas-microsoft-com:datatypes"><Description dt:dt="string">E-Prime Primary Realtime Clock</Description><StartTime><Timestamp dt:dt="int">0</Timestamp><DateUtc dt:dt="string">2016-09-09T21:06:41Z</DateUtc></StartTime><FrequencyChanges><FrequencyChange><Frequency dt:dt="r8">3507675</Frequency><Timestamp dt:dt="r8">893323671460</Timestamp><Current dt:dt="r8">0</Current><DateUtc dt:dt="string">2016-09-09T21:06:41Z</DateUtc></FrequencyChange></FrequencyChanges></Clock>\n	Hungry_Donkey_bar_English_2-164-1	60.017	-20	1.0.0.18	1	-28832822	Standard	2.0.10.353	2.0.10.353	09-09-2016	9/9/2016 9:06:41 PM	17:06:41	2.0.10.248	15	Bar75-25.bmp	75	1	?	12r_4g.bmp	0r_4g.bmp	3r_2g.bmp	0r_2g.bmp	12r_4g.bmp				TrialProc	TrialList	0	cvbn	-999999	16	93569	0	c	415	93984	46	-15	31	4	16	5	6	5	2	15	-12	0	-3	0	4	4	2	2	-12	4
Hungry_Donkey_bar_English_2	164	1	<?xml version="1.0"?>\n<Clock xmlns:dt="urn:schemas-microsoft-com:datatypes"><Description dt:dt="string">E-Prime Primary Realtime Clock</Description><StartTime><Timestamp dt:dt="int">0</Timestamp><DateUtc dt:dt="string">2016-09-09T21:06:41Z</DateUtc></StartTime><FrequencyChanges><FrequencyChange><Frequency dt:dt="r8">3507675</Frequency><Timestamp dt:dt="r8">893323671460</Timestamp><Current dt:dt="r8">0</Current><DateUtc dt:dt="string">2016-09-09T21:06:41Z</DateUtc></FrequencyChange></FrequencyChanges></Clock>\n	Hungry_Donkey_bar_English_2-164-1	60.017	-20	1.0.0.18	1	-28832822	Standard	2.0.10.353	2.0.10.353	09-09-2016	9/9/2016 9:06:41 PM	17:06:41	2.0.10.248	16	Bar75-25.bmp	76	4	?	10r_4g.bmp	0r_4g.bmp	2r_2g.bmp	0r_2g.bmp				0r_2g.bmp	TrialProc	TrialList	0	cvbn	-999999	16	96018	0	n	2126	98144	48	-15	33	4	16	5	8	2	2	16	-10	0	-2	0	4	4	2	2	0	2
Hungry_Donkey_bar_English_2	164	1	<?xml version="1.0"?>\n<Clock xmlns:dt="urn:schemas-microsoft-com:datatypes"><Description dt:dt="string">E-Prime Primary Realtime Clock</Description><StartTime><Timestamp dt:dt="int">0</Timestamp><DateUtc dt:dt="string">2016-09-09T21:06:41Z</DateUtc></StartTime><FrequencyChanges><FrequencyChange><Frequency dt:dt="r8">3507675</Frequency><Timestamp dt:dt="r8">893323671460</Timestamp><Current dt:dt="r8">0</Current><DateUtc dt:dt="string">2016-09-09T21:06:41Z</DateUtc></FrequencyChange></FrequencyChanges></Clock>\n	Hungry_Donkey_bar_English_2-164-1	60.017	-20	1.0.0.18	1	-28832822	Standard	2.0.10.353	2.0.10.353	09-09-2016	9/9/2016 9:06:41 PM	17:06:41	2.0.10.248	17	Bar75-25.bmp	78	2	?	0r_4g.bmp	0r_4g.bmp	0r_2g.bmp	0r_2g.bmp		0r_4g.bmp			TrialProc	TrialList	0	cvbn	-999999	16	100184	0	v	887	101071	52	-15	37	4	20	5	8	8	2	17	0	0	0	0	4	4	2	2	0	4
Hungry_Donkey_bar_English_2	164	1	<?xml version="1.0"?>\n<Clock xmlns:dt="urn:schemas-microsoft-com:datatypes"><Description dt:dt="string">E-Prime Primary Realtime Clock</Description><StartTime><Timestamp dt:dt="int">0</Timestamp><DateUtc dt:dt="string">2016-09-09T21:06:41Z</DateUtc></StartTime><FrequencyChanges><FrequencyChange><Frequency dt:dt="r8">3507675</Frequency><Timestamp dt:dt="r8">893323671460</Timestamp><Current dt:dt="r8">0</Current><DateUtc dt:dt="string">2016-09-09T21:06:41Z</DateUtc></FrequencyChange></FrequencyChanges></Clock>\n	Hungry_Donkey_bar_English_2-164-1	60.017	-20	1.0.0.18	1	-28832822	Standard	2.0.10.353	2.0.10.353	09-09-2016	9/9/2016 9:06:41 PM	17:06:41	2.0.10.248	18	Bar63-37.bmp	68	4	?	8r_4g.bmp	50r_4g.bmp	1r_2g.bmp	10r_2g.bmp				10r_2g.bmp	TrialProc	TrialList	0	cvbn	-999999	16	103099	0	n	2612	105711	54	-25	29	4	20	5	0	1	2	18	-8	-50	-1	-10	4	4	2	2	-10	2
Hungry_Donkey_bar_English_2	164	1	<?xml version="1.0"?>\n<Clock xmlns:dt="urn:schemas-microsoft-com:datatypes"><Description dt:dt="string">E-Prime Primary Realtime Clock</Description><StartTime><Timestamp dt:dt="int">0</Timestamp><DateUtc dt:dt="string">2016-09-09T21:06:41Z</DateUtc></StartTime><FrequencyChanges><FrequencyChange><Frequency dt:dt="r8">3507675</Frequency><Timestamp dt:dt="r8">893323671460</Timestamp><Current dt:dt="r8">0</Current><DateUtc dt:dt="string">2016-09-09T21:06:41Z</DateUtc></FrequencyChange></FrequencyChanges></Clock>\n	Hungry_Donkey_bar_English_2-164-1	60.017	-20	1.0.0.18	1	-28832822	Standard	2.0.10.353	2.0.10.353	09-09-2016	9/9/2016 9:06:41 PM	17:06:41	2.0.10.248	19	Bar63-37.bmp	69	3	?	0r_4g.bmp	0r_4g.bmp	0r_2g.bmp	0r_2g.bmp			0r_2g.bmp		TrialProc	TrialList	0	cvbn	-999999	16	107748	0	b	7227	114975	56	-25	31	4	20	7	0	7	2	19	0	0	0	0	4	4	2	2	0	2
Hungry_Donkey_bar_English_2	164	1	<?xml version="1.0"?>\n<Clock xmlns:dt="urn:schemas-microsoft-com:datatypes"><Description dt:dt="string">E-Prime Primary Realtime Clock</Description><StartTime><Timestamp dt:dt="int">0</Timestamp><DateUtc dt:dt="string">2016-09-09T21:06:41Z</DateUtc></StartTime><FrequencyChanges><FrequencyChange><Frequency dt:dt="r8">3507675</Frequency><Timestamp dt:dt="r8">893323671460</Timestamp><Current dt:dt="r8">0</Current><DateUtc dt:dt="string">2016-09-09T21:06:41Z</DateUtc></FrequencyChange></FrequencyChanges></Clock>\n	Hungry_Donkey_bar_English_2-164-1	60.017	-20	1.0.0.18	1	-28832822	Standard	2.0.10.353	2.0.10.353	09-09-2016	9/9/2016 9:06:41 PM	17:06:41	2.0.10.248	20	Bar75-25.bmp	71	2	?	0r_4g.bmp	0r_4g.bmp	0r_2g.bmp	0r_2g.bmp		0r_4g.bmp			TrialProc	TrialList	0	cvbn	-999999	16	117012	0	v	507	117519	60	-25	35	4	24	7	0	6	2	20	0	0	0	0	4	4	2	2	0	4
Hungry_Donkey_bar_English_2	164	1	<?xml version="1.0"?>\n<Clock xmlns:dt="urn:schemas-microsoft-com:datatypes"><Description dt:dt="string">E-Prime Primary Realtime Clock</Description><StartTime><Timestamp dt:dt="int">0</Timestamp><DateUtc dt:dt="string">2016-09-09T21:06:41Z</DateUtc></StartTime><FrequencyChanges><FrequencyChange><Frequency dt:dt="r8">3507675</Frequency><Timestamp dt:dt="r8">893323671460</Timestamp><Current dt:dt="r8">0</Current><DateUtc dt:dt="string">2016-09-09T21:06:41Z</DateUtc></FrequencyChange></FrequencyChanges></Clock>\n	Hungry_Donkey_bar_English_2-164-1	60.017	-20	1.0.0.18	1	-28832822	Standard	2.0.10.353	2.0.10.353	09-09-2016	9/9/2016 9:06:41 PM	17:06:41	2.0.10.248	21	Bar75-25.bmp	71	4	?	12r_4g.bmp	0r_4g.bmp	3r_2g.bmp	0r_2g.bmp				0r_2g.bmp	TrialProc	TrialList	0	cvbn	-999999	16	119545	0	n	566	120111	62	-25	37	4	24	7	2	5	3	21	-12	0	-3	0	4	4	2	2	0	2
Hungry_Donkey_bar_English_2	164	1	<?xml version="1.0"?>\n<Clock xmlns:dt="urn:schemas-microsoft-com:datatypes"><Description dt:dt="string">E-Prime Primary Realtime Clock</Description><StartTime><Timestamp dt:dt="int">0</Timestamp><DateUtc dt:dt="string">2016-09-09T21:06:41Z</DateUtc></StartTime><FrequencyChanges><FrequencyChange><Frequency dt:dt="r8">3507675</Frequency><Timestamp dt:dt="r8">893323671460</Timestamp><Current dt:dt="r8">0</Current><DateUtc dt:dt="string">2016-09-09T21:06:41Z</DateUtc></FrequencyChange></FrequencyChanges></Clock>\n	Hungry_Donkey_bar_English_2-164-1	60.017	-20	1.0.0.18	1	-28832822	Standard	2.0.10.353	2.0.10.353	09-09-2016	9/9/2016 9:06:41 PM	17:06:41	2.0.10.248	22	Bar75-25.bmp	73	1	?	0r_4g.bmp	0r_4g.bmp	0r_2g.bmp	0r_2g.bmp	0r_4g.bmp				TrialProc	TrialList	0	cvbn	-999999	16	122144	0	c	510	122654	66	-25	41	8	24	7	2	8	3	22	0	0	0	0	4	4	2	2	0	4
Hungry_Donkey_bar_English_2	164	1	<?xml version="1.0"?>\n<Clock xmlns:dt="urn:schemas-microsoft-com:datatypes"><Description dt:dt="string">E-Prime Primary Realtime Clock</Description><StartTime><Timestamp dt:dt="int">0</Timestamp><DateUtc dt:dt="string">2016-09-09T21:06:41Z</DateUtc></StartTime><FrequencyChanges><FrequencyChange><Frequency dt:dt="r8">3507675</Frequency><Timestamp dt:dt="r8">893323671460</Timestamp><Current dt:dt="r8">0</Current><DateUtc dt:dt="string">2016-09-09T21:06:41Z</DateUtc></FrequencyChange></FrequencyChanges></Clock>\n	Hungry_Donkey_bar_English_2-164-1	60.017	-20	1.0.0.18	1	-28832822	Standard	2.0.10.353	2.0.10.353	09-09-2016	9/9/2016 9:06:41 PM	17:06:41	2.0.10.248	23	Bar75-25.bmp	74	2	?	10r_4g.bmp	0r_4g.bmp	2r_2g.bmp	0r_2g.bmp		0r_4g.bmp			TrialProc	TrialList	0	cvbn	-999999	16	124693	0	v	489	125182	70	-25	45	8	28	7	2	4	3	23	-10	0	-2	0	4	4	2	2	0	4
Hungry_Donkey_bar_English_2	164	1	<?xml version="1.0"?>\n<Clock xmlns:dt="urn:schemas-microsoft-com:datatypes"><Description dt:dt="string">E-Prime Primary Realtime Clock</Description><StartTime><Timestamp dt:dt="int">0</Timestamp><DateUtc dt:dt="string">2016-09-09T21:06:41Z</DateUtc></StartTime><FrequencyChanges><FrequencyChange><Frequency dt:dt="r8">3507675</Frequency><Timestamp dt:dt="r8">893323671460</Timestamp><Current dt:dt="r8">0</Current><DateUtc dt:dt="string">2016-09-09T21:06:41Z</DateUtc></FrequencyChange></FrequencyChanges></Clock>\n	Hungry_Donkey_bar_English_2-164-1	60.017	-20	1.0.0.18	1	-28832822	Standard	2.0.10.353	2.0.10.353	09-09-2016	9/9/2016 9:06:41 PM	17:06:41	2.0.10.248	24	Bar75-25.bmp	74	3	?	0r_4g.bmp	0r_4g.bmp	0r_2g.bmp	0r_2g.bmp			0r_2g.bmp		TrialProc	TrialList	0	cvbn	-999999	16	127209	0	b	341	127550	72	-25	47	8	28	9	2	9	3	24	0	0	0	0	4	4	2	2	0	2
Hungry_Donkey_bar_English_2	164	1	<?xml version="1.0"?>\n<Clock xmlns:dt="urn:schemas-microsoft-com:datatypes"><Description dt:dt="string">E-Prime Primary Realtime Clock</Description><StartTime><Timestamp dt:dt="int">0</Timestamp><DateUtc dt:dt="string">2016-09-09T21:06:41Z</DateUtc></StartTime><FrequencyChanges><FrequencyChange><Frequency dt:dt="r8">3507675</Frequency><Timestamp dt:dt="r8">893323671460</Timestamp><Current dt:dt="r8">0</Current><DateUtc dt:dt="string">2016-09-09T21:06:41Z</DateUtc></FrequencyChange></FrequencyChanges></Clock>\n	Hungry_Donkey_bar_English_2-164-1	60.017	-20	1.0.0.18	1	-28832822	Standard	2.0.10.353	2.0.10.353	09-09-2016	9/9/2016 9:06:41 PM	17:06:41	2.0.10.248	25	Bar75-25.bmp	75	4	?	0r_4g.bmp	0r_4g.bmp	0r_2g.bmp	0r_2g.bmp				0r_2g.bmp	TrialProc	TrialList	0	cvbn	-999999	16	129575	0	n	135	129710	74	-25	49	8	28	9	4	7	3	25	0	0	0	0	4	4	2	2	0	2
Hungry_Donkey_bar_English_2	164	1	<?xml version="1.0"?>\n<Clock xmlns:dt="urn:schemas-microsoft-com:datatypes"><Description dt:dt="string">E-Prime Primary Realtime Clock</Description><StartTime><Timestamp dt:dt="int">0</Timestamp><DateUtc dt:dt="string">2016-09-09T21:06:41Z</DateUtc></StartTime><FrequencyChanges><FrequencyChange><Frequency dt:dt="r8">3507675</Frequency><Timestamp dt:dt="r8">893323671460</Timestamp><Current dt:dt="r8">0</Current><DateUtc dt:dt="string">2016-09-09T21:06:41Z</DateUtc></FrequencyChange></FrequencyChanges></Clock>\n	Hungry_Donkey_bar_English_2-164-1	60.017	-20	1.0.0.18	1	-28832822	Standard	2.0.10.353	2.0.10.353	09-09-2016	9/9/2016 9:06:41 PM	17:06:41	2.0.10.248	26	Bar75-25.bmp	76	2	?	0r_4g.bmp	0r_4g.bmp	0r_2g.bmp	0r_2g.bmp		0r_4g.bmp			TrialProc	TrialList	0	cvbn	-999999	16	131741	0	v	721	132462	78	-25	53	8	32	9	4	6	3	26	0	0	0	0	4	4	2	2	0	4
Hungry_Donkey_bar_English_2	164	1	<?xml version="1.0"?>\n<Clock xmlns:dt="urn:schemas-microsoft-com:datatypes"><Description dt:dt="string">E-Prime Primary Realtime Clock</Description><StartTime><Timestamp dt:dt="int">0</Timestamp><DateUtc dt:dt="string">2016-09-09T21:06:41Z</DateUtc></StartTime><FrequencyChanges><FrequencyChange><Frequency dt:dt="r8">3507675</Frequency><Timestamp dt:dt="r8">893323671460</Timestamp><Current dt:dt="r8">0</Current><DateUtc dt:dt="string">2016-09-09T21:06:41Z</DateUtc></FrequencyChange></FrequencyChanges></Clock>\n	Hungry_Donkey_bar_English_2-164-1	60.017	-20	1.0.0.18	1	-28832822	Standard	2.0.10.353	2.0.10.353	09-09-2016	9/9/2016 9:06:41 PM	17:06:41	2.0.10.248	27	Bar75-25.bmp	76	4	?	10r_4g.bmp	0r_4g.bmp	2r_2g.bmp	0r_2g.bmp				0r_2g.bmp	TrialProc	TrialList	0	cvbn	-999999	16	134490	0	n	724	135214	80	-25	55	8	32	9	6	2	3	27	-10	0	-2	0	4	4	2	2	0	2
Hungry_Donkey_bar_English_2	164	1	<?xml version="1.0"?>\n<Clock xmlns:dt="urn:schemas-microsoft-com:datatypes"><Description dt:dt="string">E-Prime Primary Realtime Clock</Description><StartTime><Timestamp dt:dt="int">0</Timestamp><DateUtc dt:dt="string">2016-09-09T21:06:41Z</DateUtc></StartTime><FrequencyChanges><FrequencyChange><Frequency dt:dt="r8">3507675</Frequency><Timestamp dt:dt="r8">893323671460</Timestamp><Current dt:dt="r8">0</Current><DateUtc dt:dt="string">2016-09-09T21:06:41Z</DateUtc></FrequencyChange></FrequencyChanges></Clock>\n	Hungry_Donkey_bar_English_2-164-1	60.017	-20	1.0.0.18	1	-28832822	Standard	2.0.10.353	2.0.10.353	09-09-2016	9/9/2016 9:06:41 PM	17:06:41	2.0.10.248	28	Bar75-25.bmp	77	3	?	0r_4g.bmp	0r_4g.bmp	0r_2g.bmp	0r_2g.bmp			0r_2g.bmp		TrialProc	TrialList	0	cvbn	-999999	16	137240	0	b	470	137710	82	-25	57	8	32	11	6	10	3	28	0	0	0	0	4	4	2	2	0	2
Hungry_Donkey_bar_English_2	164	1	<?xml version="1.0"?>\n<Clock xmlns:dt="urn:schemas-microsoft-com:datatypes"><Description dt:dt="string">E-Prime Primary Realtime Clock</Description><StartTime><Timestamp dt:dt="int">0</Timestamp><DateUtc dt:dt="string">2016-09-09T21:06:41Z</DateUtc></StartTime><FrequencyChanges><FrequencyChange><Frequency dt:dt="r8">3507675</Frequency><Timestamp dt:dt="r8">893323671460</Timestamp><Current dt:dt="r8">0</Current><DateUtc dt:dt="string">2016-09-09T21:06:41Z</DateUtc></FrequencyChange></FrequencyChanges></Clock>\n	Hungry_Donkey_bar_English_2-164-1	60.017	-20	1.0.0.18	1	-28832822	Standard	2.0.10.353	2.0.10.353	09-09-2016	9/9/2016 9:06:41 PM	17:06:41	2.0.10.248	29	Bar50-50.bmp	53	2	?	8r_4g.bmp	50r_4g.bmp	1r_2g.bmp	10r_2g.bmp		50r_4g.bmp			TrialProc	TrialList	0	cvbn	-999999	16	139739	0	v	419	140158	86	-75	11	8	-14	11	6	1	3	29	-8	-50	-1	-10	4	4	2	2	-50	4
Hungry_Donkey_bar_English_2	164	1	<?xml version="1.0"?>\n<Clock xmlns:dt="urn:schemas-microsoft-com:datatypes"><Description dt:dt="string">E-Prime Primary Realtime Clock</Description><StartTime><Timestamp dt:dt="int">0</Timestamp><DateUtc dt:dt="string">2016-09-09T21:06:41Z</DateUtc></StartTime><FrequencyChanges><FrequencyChange><Frequency dt:dt="r8">3507675</Frequency><Timestamp dt:dt="r8">893323671460</Timestamp><Current dt:dt="r8">0</Current><DateUtc dt:dt="string">2016-09-09T21:06:41Z</DateUtc></FrequencyChange></FrequencyChanges></Clock>\n	Hungry_Donkey_bar_English_2-164-1	60.017	-20	1.0.0.18	1	-28832822	Standard	2.0.10.353	2.0.10.353	09-09-2016	9/9/2016 9:06:41 PM	17:06:41	2.0.10.248	30	Bar50-50.bmp	54	4	?	10r_4g.bmp	0r_4g.bmp	2r_2g.bmp	0r_2g.bmp				0r_2g.bmp	TrialProc	TrialList	0	cvbn	-999999	16	142188	0	n	3153	145341	88	-75	13	8	-14	11	8	3	3	30	-10	0	-2	0	4	4	2	2	0	2
Hungry_Donkey_bar_English_2	164	1	<?xml version="1.0"?>\n<Clock xmlns:dt="urn:schemas-microsoft-com:datatypes"><Description dt:dt="string">E-Prime Primary Realtime Clock</Description><StartTime><Timestamp dt:dt="int">0</Timestamp><DateUtc dt:dt="string">2016-09-09T21:06:41Z</DateUtc></StartTime><FrequencyChanges><FrequencyChange><Frequency dt:dt="r8">3507675</Frequency><Timestamp dt:dt="r8">893323671460</Timestamp><Current dt:dt="r8">0</Current><DateUtc dt:dt="string">2016-09-09T21:06:41Z</DateUtc></FrequencyChange></FrequencyChanges></Clock>\n	Hungry_Donkey_bar_English_2-164-1	60.017	-20	1.0.0.18	1	-28832822	Standard	2.0.10.353	2.0.10.353	09-09-2016	9/9/2016 9:06:41 PM	17:06:41	2.0.10.248	31	Bar50-50.bmp	55	3	?	0r_4g.bmp	0r_4g.bmp	0r_2g.bmp	0r_2g.bmp			0r_2g.bmp		TrialProc	TrialList	0	cvbn	-999999	16	147370	0	b	483	147853	90	-75	15	8	-14	13	8	7	4	31	0	0	0	0	4	4	2	2	0	2
Hungry_Donkey_bar_English_2	164	1	<?xml version="1.0"?>\n<Clock xmlns:dt="urn:schemas-microsoft-com:datatypes"><Description dt:dt="string">E-Prime Primary Realtime Clock</Description><StartTime><Timestamp dt:dt="int">0</Timestamp><DateUtc dt:dt="string">2016-09-09T21:06:41Z</DateUtc></StartTime><FrequencyChanges><FrequencyChange><Frequency dt:dt="r8">3507675</Frequency><Timestamp dt:dt="r8">893323671460</Timestamp><Current dt:dt="r8">0</Current><DateUtc dt:dt="string">2016-09-09T21:06:41Z</DateUtc></FrequencyChange></FrequencyChanges></Clock>\n	Hungry_Donkey_bar_English_2-164-1	60.017	-20	1.0.0.18	1	-28832822	Standard	2.0.10.353	2.0.10.353	09-09-2016	9/9/2016 9:06:41 PM	17:06:41	2.0.10.248	32	Bar37-63.bmp	43	2	?	8r_4g.bmp	50r_4g.bmp	1r_2g.bmp	10r_2g.bmp		50r_4g.bmp			TrialProc	TrialList	0	cvbn	-999999	16	149886	0	v	31	149917	94	-125	-31	8	-60	13	8	1	4	32	-8	-50	-1	-10	4	4	2	2	-50	4
Hungry_Donkey_bar_English_2	164	1	<?xml version="1.0"?>\n<Clock xmlns:dt="urn:schemas-microsoft-com:datatypes"><Description dt:dt="string">E-Prime Primary Realtime Clock</Description><StartTime><Timestamp dt:dt="int">0</Timestamp><DateUtc dt:dt="string">2016-09-09T21:06:41Z</DateUtc></StartTime><FrequencyChanges><FrequencyChange><Frequency dt:dt="r8">3507675</Frequency><Timestamp dt:dt="r8">893323671460</Timestamp><Current dt:dt="r8">0</Current><DateUtc dt:dt="string">2016-09-09T21:06:41Z</DateUtc></FrequencyChange></FrequencyChanges></Clock>\n	Hungry_Donkey_bar_English_2-164-1	60.017	-20	1.0.0.18	1	-28832822	Standard	2.0.10.353	2.0.10.353	09-09-2016	9/9/2016 9:06:41 PM	17:06:41	2.0.10.248	33	Bar37-63.bmp	42	1	?	10r_4g.bmp	0r_4g.bmp	2r_2g.bmp	0r_2g.bmp	10r_4g.bmp				TrialProc	TrialList	0	cvbn	-999999	16	151952	0	c	2317	154269	98	-135	-37	2	-60	13	8	2	4	33	-10	0	-2	0	4	4	2	2	-10	4
Hungry_Donkey_bar_English_2	164	1	<?xml version="1.0"?>\n<Clock xmlns:dt="urn:schemas-microsoft-com:datatypes"><Description dt:dt="string">E-Prime Primary Realtime Clock</Description><StartTime><Timestamp dt:dt="int">0</Timestamp><DateUtc dt:dt="string">2016-09-09T21:06:41Z</DateUtc></StartTime><FrequencyChanges><FrequencyChange><Frequency dt:dt="r8">3507675</Frequency><Timestamp dt:dt="r8">893323671460</Timestamp><Current dt:dt="r8">0</Current><DateUtc dt:dt="string">2016-09-09T21:06:41Z</DateUtc></FrequencyChange></FrequencyChanges></Clock>\n	Hungry_Donkey_bar_English_2-164-1	60.017	-20	1.0.0.18	1	-28832822	Standard	2.0.10.353	2.0.10.353	09-09-2016	9/9/2016 9:06:41 PM	17:06:41	2.0.10.248	34	Bar37-63.bmp	42	3	?	12r_4g.bmp	0r_4g.bmp	3r_2g.bmp	0r_2g.bmp			3r_2g.bmp		TrialProc	TrialList	0	cvbn	-999999	16	156301	0	b	1072	157373	100	-138	-38	2	-60	12	8	5	4	34	-12	0	-3	0	4	4	2	2	-3	2
Hungry_Donkey_bar_English_2	164	1	<?xml version="1.0"?>\n<Clock xmlns:dt="urn:schemas-microsoft-com:datatypes"><Description dt:dt="string">E-Prime Primary Realtime Clock</Description><StartTime><Timestamp dt:dt="int">0</Timestamp><DateUtc dt:dt="string">2016-09-09T21:06:41Z</DateUtc></StartTime><FrequencyChanges><FrequencyChange><Frequency dt:dt="r8">3507675</Frequency><Timestamp dt:dt="r8">893323671460</Timestamp><Current dt:dt="r8">0</Current><DateUtc dt:dt="string">2016-09-09T21:06:41Z</DateUtc></FrequencyChange></FrequencyChanges></Clock>\n	Hungry_Donkey_bar_English_2-164-1	60.017	-20	1.0.0.18	1	-28832822	Standard	2.0.10.353	2.0.10.353	09-09-2016	9/9/2016 9:06:41 PM	17:06:41	2.0.10.248	35	Bar37-63.bmp	43	2	?	10r_4g.bmp	0r_4g.bmp	2r_2g.bmp	0r_2g.bmp		0r_4g.bmp			TrialProc	TrialList	0	cvbn	-999999	16	159400	0	v	693	160093	104	-138	-34	2	-56	12	8	4	4	35	-10	0	-2	0	4	4	2	2	0	4
Hungry_Donkey_bar_English_2	164	1	<?xml version="1.0"?>\n<Clock xmlns:dt="urn:schemas-microsoft-com:datatypes"><Description dt:dt="string">E-Prime Primary Realtime Clock</Description><StartTime><Timestamp dt:dt="int">0</Timestamp><DateUtc dt:dt="string">2016-09-09T21:06:41Z</DateUtc></StartTime><FrequencyChanges><FrequencyChange><Frequency dt:dt="r8">3507675</Frequency><Timestamp dt:dt="r8">893323671460</Timestamp><Current dt:dt="r8">0</Current><DateUtc dt:dt="string">2016-09-09T21:06:41Z</DateUtc></FrequencyChange></FrequencyChanges></Clock>\n	Hungry_Donkey_bar_English_2-164-1	60.017	-20	1.0.0.18	1	-28832822	Standard	2.0.10.353	2.0.10.353	09-09-2016	9/9/2016 9:06:41 PM	17:06:41	2.0.10.248	36	Bar37-63.bmp	43	3	?	0r_4g.bmp	0r_4g.bmp	0r_2g.bmp	0r_2g.bmp			0r_2g.bmp		TrialProc	TrialList	0	cvbn	-999999	16	162116	0	b	984	163100	106	-138	-32	2	-56	14	8	8	4	36	0	0	0	0	4	4	2	2	0	2
Hungry_Donkey_bar_English_2	164	1	<?xml version="1.0"?>\n<Clock xmlns:dt="urn:schemas-microsoft-com:datatypes"><Description dt:dt="string">E-Prime Primary Realtime Clock</Description><StartTime><Timestamp dt:dt="int">0</Timestamp><DateUtc dt:dt="string">2016-09-09T21:06:41Z</DateUtc></StartTime><FrequencyChanges><FrequencyChange><Frequency dt:dt="r8">3507675</Frequency><Timestamp dt:dt="r8">893323671460</Timestamp><Current dt:dt="r8">0</Current><DateUtc dt:dt="string">2016-09-09T21:06:41Z</DateUtc></FrequencyChange></FrequencyChanges></Clock>\n	Hungry_Donkey_bar_English_2-164-1	60.017	-20	1.0.0.18	1	-28832822	Standard	2.0.10.353	2.0.10.353	09-09-2016	9/9/2016 9:06:41 PM	17:06:41	2.0.10.248	37	Bar50-50.bmp	44	2	?	0r_4g.bmp	0r_4g.bmp	0r_2g.bmp	0r_2g.bmp		0r_4g.bmp			TrialProc	TrialList	0	cvbn	-999999	16	165132	0	v	272	165404	110	-138	-28	2	-52	14	8	9	4	37	0	0	0	0	4	4	2	2	0	4
Hungry_Donkey_bar_English_2	164	1	<?xml version="1.0"?>\n<Clock xmlns:dt="urn:schemas-microsoft-com:datatypes"><Description dt:dt="string">E-Prime Primary Realtime Clock</Description><StartTime><Timestamp dt:dt="int">0</Timestamp><DateUtc dt:dt="string">2016-09-09T21:06:41Z</DateUtc></StartTime><FrequencyChanges><FrequencyChange><Frequency dt:dt="r8">3507675</Frequency><Timestamp dt:dt="r8">893323671460</Timestamp><Current dt:dt="r8">0</Current><DateUtc dt:dt="string">2016-09-09T21:06:41Z</DateUtc></FrequencyChange></FrequencyChanges></Clock>\n	Hungry_Donkey_bar_English_2-164-1	60.017	-20	1.0.0.18	1	-28832822	Standard	2.0.10.353	2.0.10.353	09-09-2016	9/9/2016 9:06:41 PM	17:06:41	2.0.10.248	38	Bar50-50.bmp	44	3	?	10r_4g.bmp	0r_4g.bmp	2r_2g.bmp	0r_2g.bmp			2r_2g.bmp		TrialProc	TrialList	0	cvbn	-999999	16	167431	0	b	485	167916	112	-140	-28	2	-52	14	8	3	4	38	-10	0	-2	0	4	4	2	2	-2	2
Hungry_Donkey_bar_English_2	164	1	<?xml version="1.0"?>\n<Clock xmlns:dt="urn:schemas-microsoft-com:datatypes"><Description dt:dt="string">E-Prime Primary Realtime Clock</Description><StartTime><Timestamp dt:dt="int">0</Timestamp><DateUtc dt:dt="string">2016-09-09T21:06:41Z</DateUtc></StartTime><FrequencyChanges><FrequencyChange><Frequency dt:dt="r8">3507675</Frequency><Timestamp dt:dt="r8">893323671460</Timestamp><Current dt:dt="r8">0</Current><DateUtc dt:dt="string">2016-09-09T21:06:41Z</DateUtc></FrequencyChange></FrequencyChanges></Clock>\n	Hungry_Donkey_bar_English_2-164-1	60.017	-20	1.0.0.18	1	-28832822	Standard	2.0.10.353	2.0.10.353	09-09-2016	9/9/2016 9:06:41 PM	17:06:41	2.0.10.248	39	Bar50-50.bmp	45	2	?	0r_4g.bmp	0r_4g.bmp	0r_2g.bmp	0r_2g.bmp		0r_4g.bmp			TrialProc	TrialList	0	cvbn	-999999	16	169947	0	v	625	170572	116	-140	-24	2	-48	14	8	6	4	39	0	0	0	0	4	4	2	2	0	4
Hungry_Donkey_bar_English_2	164	1	<?xml version="1.0"?>\n<Clock xmlns:dt="urn:schemas-microsoft-com:datatypes"><Description dt:dt="string">E-Prime Primary Realtime Clock</Description><StartTime><Timestamp dt:dt="int">0</Timestamp><DateUtc dt:dt="string">2016-09-09T21:06:41Z</DateUtc></StartTime><FrequencyChanges><FrequencyChange><Frequency dt:dt="r8">3507675</Frequency><Timestamp dt:dt="r8">893323671460</Timestamp><Current dt:dt="r8">0</Current><DateUtc dt:dt="string">2016-09-09T21:06:41Z</DateUtc></FrequencyChange></FrequencyChanges></Clock>\n	Hungry_Donkey_bar_English_2-164-1	60.017	-20	1.0.0.18	1	-28832822	Standard	2.0.10.353	2.0.10.353	09-09-2016	9/9/2016 9:06:41 PM	17:06:41	2.0.10.248	40	Bar50-50.bmp	46	4	?	0r_4g.bmp	0r_4g.bmp	0r_2g.bmp	0r_2g.bmp				0r_2g.bmp	TrialProc	TrialList	0	cvbn	-999999	15	172596	0	n	920	173516	118	-140	-22	2	-48	14	10	10	4	40	0	0	0	0	4	4	2	2	0	2
Hungry_Donkey_bar_English_2	164	1	<?xml version="1.0"?>\n<Clock xmlns:dt="urn:schemas-microsoft-com:datatypes"><Description dt:dt="string">E-Prime Primary Realtime Clock</Description><StartTime><Timestamp dt:dt="int">0</Timestamp><DateUtc dt:dt="string">2016-09-09T21:06:41Z</DateUtc></StartTime><FrequencyChanges><FrequencyChange><Frequency dt:dt="r8">3507675</Frequency><Timestamp dt:dt="r8">893323671460</Timestamp><Current dt:dt="r8">0</Current><DateUtc dt:dt="string">2016-09-09T21:06:41Z</DateUtc></FrequencyChange></FrequencyChanges></Clock>\n	Hungry_Donkey_bar_English_2-164-1	60.017	-20	1.0.0.18	1	-28832822	Standard	2.0.10.353	2.0.10.353	09-09-2016	9/9/2016 9:06:41 PM	17:06:41	2.0.10.248	41	Bar50-50.bmp	46	3	?	10r_4g.bmp	0r_4g.bmp	2r_2g.bmp	0r_2g.bmp			2r_2g.bmp		TrialProc	TrialList	0	cvbn	-999999	16	175545	0	b	403	175948	120	-142	-22	2	-48	14	10	3	5	41	-10	0	-2	0	4	4	2	2	-2	2
Hungry_Donkey_bar_English_2	164	1	<?xml version="1.0"?>\n<Clock xmlns:dt="urn:schemas-microsoft-com:datatypes"><Description dt:dt="string">E-Prime Primary Realtime Clock</Description><StartTime><Timestamp dt:dt="int">0</Timestamp><DateUtc dt:dt="string">2016-09-09T21:06:41Z</DateUtc></StartTime><FrequencyChanges><FrequencyChange><Frequency dt:dt="r8">3507675</Frequency><Timestamp dt:dt="r8">893323671460</Timestamp><Current dt:dt="r8">0</Current><DateUtc dt:dt="string">2016-09-09T21:06:41Z</DateUtc></FrequencyChange></FrequencyChanges></Clock>\n	Hungry_Donkey_bar_English_2-164-1	60.017	-20	1.0.0.18	1	-28832822	Standard	2.0.10.353	2.0.10.353	09-09-2016	9/9/2016 9:06:41 PM	17:06:41	2.0.10.248	42	Bar50-50.bmp	46	3	?	0r_4g.bmp	0r_4g.bmp	0r_2g.bmp	0r_2g.bmp			0r_2g.bmp		TrialProc	TrialList	0	cvbn	-999999	16	177978	0	b	770	178748	122	-142	-20	2	-48	16	10	7	5	42	0	0	0	0	4	4	2	2	0	2
Hungry_Donkey_bar_English_2	164	1	<?xml version="1.0"?>\n<Clock xmlns:dt="urn:schemas-microsoft-com:datatypes"><Description dt:dt="string">E-Prime Primary Realtime Clock</Description><StartTime><Timestamp dt:dt="int">0</Timestamp><DateUtc dt:dt="string">2016-09-09T21:06:41Z</DateUtc></StartTime><FrequencyChanges><FrequencyChange><Frequency dt:dt="r8">3507675</Frequency><Timestamp dt:dt="r8">893323671460</Timestamp><Current dt:dt="r8">0</Current><DateUtc dt:dt="string">2016-09-09T21:06:41Z</DateUtc></FrequencyChange></FrequencyChanges></Clock>\n	Hungry_Donkey_bar_English_2-164-1	60.017	-20	1.0.0.18	1	-28832822	Standard	2.0.10.353	2.0.10.353	09-09-2016	9/9/2016 9:06:41 PM	17:06:41	2.0.10.248	43	Bar50-50.bmp	47	1	?	0r_4g.bmp	0r_4g.bmp	0r_2g.bmp	0r_2g.bmp	0r_4g.bmp				TrialProc	TrialList	0	cvbn	-999999	16	180777	0	c	1235	182012	126	-142	-16	6	-48	16	10	8	5	43	0	0	0	0	4	4	2	2	0	4
Hungry_Donkey_bar_English_2	164	1	<?xml version="1.0"?>\n<Clock xmlns:dt="urn:schemas-microsoft-com:datatypes"><Description dt:dt="string">E-Prime Primary Realtime Clock</Description><StartTime><Timestamp dt:dt="int">0</Timestamp><DateUtc dt:dt="string">2016-09-09T21:06:41Z</DateUtc></StartTime><FrequencyChanges><FrequencyChange><Frequency dt:dt="r8">3507675</Frequency><Timestamp dt:dt="r8">893323671460</Timestamp><Current dt:dt="r8">0</Current><DateUtc dt:dt="string">2016-09-09T21:06:41Z</DateUtc></FrequencyChange></FrequencyChanges></Clock>\n	Hungry_Donkey_bar_English_2-164-1	60.017	-20	1.0.0.18	1	-28832822	Standard	2.0.10.353	2.0.10.353	09-09-2016	9/9/2016 9:06:41 PM	17:06:41	2.0.10.248	44	Bar50-50.bmp	48	2	?	10r_4g.bmp	0r_4g.bmp	2r_2g.bmp	0r_2g.bmp		0r_4g.bmp			TrialProc	TrialList	0	cvbn	-999999	16	184043	0	v	352	184395	130	-142	-12	6	-44	16	10	2	5	44	-10	0	-2	0	4	4	2	2	0	4
Hungry_Donkey_bar_English_2	164	1	<?xml version="1.0"?>\n<Clock xmlns:dt="urn:schemas-microsoft-com:datatypes"><Description dt:dt="string">E-Prime Primary Realtime Clock</Description><StartTime><Timestamp dt:dt="int">0</Timestamp><DateUtc dt:dt="string">2016-09-09T21:06:41Z</DateUtc></StartTime><FrequencyChanges><FrequencyChange><Frequency dt:dt="r8">3507675</Frequency><Timestamp dt:dt="r8">893323671460</Timestamp><Current dt:dt="r8">0</Current><DateUtc dt:dt="string">2016-09-09T21:06:41Z</DateUtc></FrequencyChange></FrequencyChanges></Clock>\n	Hungry_Donkey_bar_English_2-164-1	60.017	-20	1.0.0.18	1	-28832822	Standard	2.0.10.353	2.0.10.353	09-09-2016	9/9/2016 9:06:41 PM	17:06:41	2.0.10.248	45	Bar50-50.bmp	48	3	?	10r_4g.bmp	0r_4g.bmp	2r_2g.bmp	0r_2g.bmp			2r_2g.bmp		TrialProc	TrialList	0	cvbn	-999999	16	186426	0	b	321	186747	132	-144	-12	6	-44	16	10	4	5	45	-10	0	-2	0	4	4	2	2	-2	2
Hungry_Donkey_bar_English_2	164	1	<?xml version="1.0"?>\n<Clock xmlns:dt="urn:schemas-microsoft-com:datatypes"><Description dt:dt="string">E-Prime Primary Realtime Clock</Description><StartTime><Timestamp dt:dt="int">0</Timestamp><DateUtc dt:dt="string">2016-09-09T21:06:41Z</DateUtc></StartTime><FrequencyChanges><FrequencyChange><Frequency dt:dt="r8">3507675</Frequency><Timestamp dt:dt="r8">893323671460</Timestamp><Current dt:dt="r8">0</Current><DateUtc dt:dt="string">2016-09-09T21:06:41Z</DateUtc></FrequencyChange></FrequencyChanges></Clock>\n	Hungry_Donkey_bar_English_2-164-1	60.017	-20	1.0.0.18	1	-28832822	Standard	2.0.10.353	2.0.10.353	09-09-2016	9/9/2016 9:06:41 PM	17:06:41	2.0.10.248	46	Bar50-50.bmp	48	4	?	0r_4g.bmp	0r_4g.bmp	0r_2g.bmp	0r_2g.bmp				0r_2g.bmp	TrialProc	TrialList	0	cvbn	-999999	16	188775	0	n	1156	189931	134	-144	-10	6	-44	16	12	6	5	46	0	0	0	0	4	4	2	2	0	2
Hungry_Donkey_bar_English_2	164	1	<?xml version="1.0"?>\n<Clock xmlns:dt="urn:schemas-microsoft-com:datatypes"><Description dt:dt="string">E-Prime Primary Realtime Clock</Description><StartTime><Timestamp dt:dt="int">0</Timestamp><DateUtc dt:dt="string">2016-09-09T21:06:41Z</DateUtc></StartTime><FrequencyChanges><FrequencyChange><Frequency dt:dt="r8">3507675</Frequency><Timestamp dt:dt="r8">893323671460</Timestamp><Current dt:dt="r8">0</Current><DateUtc dt:dt="string">2016-09-09T21:06:41Z</DateUtc></FrequencyChange></FrequencyChanges></Clock>\n	Hungry_Donkey_bar_English_2-164-1	60.017	-20	1.0.0.18	1	-28832822	Standard	2.0.10.353	2.0.10.353	09-09-2016	9/9/2016 9:06:41 PM	17:06:41	2.0.10.248	47	Bar50-50.bmp	47	1	?	12r_4g.bmp	0r_4g.bmp	3r_2g.bmp	0r_2g.bmp	12r_4g.bmp				TrialProc	TrialList	0	cvbn	-999999	16	191957	0	c	1030	192987	138	-156	-18	-2	-44	16	12	5	5	47	-12	0	-3	0	4	4	2	2	-12	4
Hungry_Donkey_bar_English_2	164	1	<?xml version="1.0"?>\n<Clock xmlns:dt="urn:schemas-microsoft-com:datatypes"><Description dt:dt="string">E-Prime Primary Realtime Clock</Description><StartTime><Timestamp dt:dt="int">0</Timestamp><DateUtc dt:dt="string">2016-09-09T21:06:41Z</DateUtc></StartTime><FrequencyChanges><FrequencyChange><Frequency dt:dt="r8">3507675</Frequency><Timestamp dt:dt="r8">893323671460</Timestamp><Current dt:dt="r8">0</Current><DateUtc dt:dt="string">2016-09-09T21:06:41Z</DateUtc></FrequencyChange></FrequencyChanges></Clock>\n	Hungry_Donkey_bar_English_2-164-1	60.017	-20	1.0.0.18	1	-28832822	Standard	2.0.10.353	2.0.10.353	09-09-2016	9/9/2016 9:06:41 PM	17:06:41	2.0.10.248	48	Bar50-50.bmp	47	3	?	0r_4g.bmp	0r_4g.bmp	0r_2g.bmp	0r_2g.bmp			0r_2g.bmp		TrialProc	TrialList	0	cvbn	-999999	16	195023	0	b	2300	197323	140	-156	-16	-2	-44	18	12	10	5	48	0	0	0	0	4	4	2	2	0	2
Hungry_Donkey_bar_English_2	164	1	<?xml version="1.0"?>\n<Clock xmlns:dt="urn:schemas-microsoft-com:datatypes"><Description dt:dt="string">E-Prime Primary Realtime Clock</Description><StartTime><Timestamp dt:dt="int">0</Timestamp><DateUtc dt:dt="string">2016-09-09T21:06:41Z</DateUtc></StartTime><FrequencyChanges><FrequencyChange><Frequency dt:dt="r8">3507675</Frequency><Timestamp dt:dt="r8">893323671460</Timestamp><Current dt:dt="r8">0</Current><DateUtc dt:dt="string">2016-09-09T21:06:41Z</DateUtc></FrequencyChange></FrequencyChanges></Clock>\n	Hungry_Donkey_bar_English_2-164-1	60.017	-20	1.0.0.18	1	-28832822	Standard	2.0.10.353	2.0.10.353	09-09-2016	9/9/2016 9:06:41 PM	17:06:41	2.0.10.248	49	Bar37-63.bmp	41	2	?	8r_4g.bmp	50r_4g.bmp	1r_2g.bmp	10r_2g.bmp		50r_4g.bmp			TrialProc	TrialList	0	cvbn	-999999	16	199355	0	v	720	200075	144	-206	-62	-2	-90	18	12	1	5	49	-8	-50	-1	-10	4	4	2	2	-50	4
Hungry_Donkey_bar_English_2	164	1	<?xml version="1.0"?>\n<Clock xmlns:dt="urn:schemas-microsoft-com:datatypes"><Description dt:dt="string">E-Prime Primary Realtime Clock</Description><StartTime><Timestamp dt:dt="int">0</Timestamp><DateUtc dt:dt="string">2016-09-09T21:06:41Z</DateUtc></StartTime><FrequencyChanges><FrequencyChange><Frequency dt:dt="r8">3507675</Frequency><Timestamp dt:dt="r8">893323671460</Timestamp><Current dt:dt="r8">0</Current><DateUtc dt:dt="string">2016-09-09T21:06:41Z</DateUtc></FrequencyChange></FrequencyChanges></Clock>\n	Hungry_Donkey_bar_English_2-164-1	60.017	-20	1.0.0.18	1	-28832822	Standard	2.0.10.353	2.0.10.353	09-09-2016	9/9/2016 9:06:41 PM	17:06:41	2.0.10.248	50	Bar37-63.bmp	41	4	?	0r_4g.bmp	0r_4g.bmp	0r_2g.bmp	0r_2g.bmp				0r_2g.bmp	TrialProc	TrialList	0	cvbn	-999999	16	202104	0	n	1571	203675	146	-206	-60	-2	-90	18	14	9	5	50	0	0	0	0	4	4	2	2	0	2
Hungry_Donkey_bar_English_2	164	1	<?xml version="1.0"?>\n<Clock xmlns:dt="urn:schemas-microsoft-com:datatypes"><Description dt:dt="string">E-Prime Primary Realtime Clock</Description><StartTime><Timestamp dt:dt="int">0</Timestamp><DateUtc dt:dt="string">2016-09-09T21:06:41Z</DateUtc></StartTime><FrequencyChanges><FrequencyChange><Frequency dt:dt="r8">3507675</Frequency><Timestamp dt:dt="r8">893323671460</Timestamp><Current dt:dt="r8">0</Current><DateUtc dt:dt="string">2016-09-09T21:06:41Z</DateUtc></FrequencyChange></FrequencyChanges></Clock>\n	Hungry_Donkey_bar_English_2-164-1	60.017	-20	1.0.0.18	1	-28832822	Standard	2.0.10.353	2.0.10.353	09-09-2016	9/9/2016 9:06:41 PM	17:06:41	2.0.10.248	51	Bar37-63.bmp	42	3	?	0r_4g.bmp	0r_4g.bmp	0r_2g.bmp	0r_2g.bmp			0r_2g.bmp		TrialProc	TrialList	0	cvbn	-999999	16	205703	0	b	419	206122	148	-206	-58	-2	-90	20	14	6	6	51	0	0	0	0	4	4	2	2	0	2
Hungry_Donkey_bar_English_2	164	1	<?xml version="1.0"?>\n<Clock xmlns:dt="urn:schemas-microsoft-com:datatypes"><Description dt:dt="string">E-Prime Primary Realtime Clock</Description><StartTime><Timestamp dt:dt="int">0</Timestamp><DateUtc dt:dt="string">2016-09-09T21:06:41Z</DateUtc></StartTime><FrequencyChanges><FrequencyChange><Frequency dt:dt="r8">3507675</Frequency><Timestamp dt:dt="r8">893323671460</Timestamp><Current dt:dt="r8">0</Current><DateUtc dt:dt="string">2016-09-09T21:06:41Z</DateUtc></FrequencyChange></FrequencyChanges></Clock>\n	Hungry_Donkey_bar_English_2-164-1	60.017	-20	1.0.0.18	1	-28832822	Standard	2.0.10.353	2.0.10.353	09-09-2016	9/9/2016 9:06:41 PM	17:06:41	2.0.10.248	52	Bar37-63.bmp	42	2	?	10r_4g.bmp	0r_4g.bmp	2r_2g.bmp	0r_2g.bmp		0r_4g.bmp			TrialProc	TrialList	0	cvbn	-999999	16	208153	0	v	513	208666	152	-206	-54	-2	-86	20	14	3	6	52	-10	0	-2	0	4	4	2	2	0	4
Hungry_Donkey_bar_English_2	164	1	<?xml version="1.0"?>\n<Clock xmlns:dt="urn:schemas-microsoft-com:datatypes"><Description dt:dt="string">E-Prime Primary Realtime Clock</Description><StartTime><Timestamp dt:dt="int">0</Timestamp><DateUtc dt:dt="string">2016-09-09T21:06:41Z</DateUtc></StartTime><FrequencyChanges><FrequencyChange><Frequency dt:dt="r8">3507675</Frequency><Timestamp dt:dt="r8">893323671460</Timestamp><Current dt:dt="r8">0</Current><DateUtc dt:dt="string">2016-09-09T21:06:41Z</DateUtc></FrequencyChange></FrequencyChanges></Clock>\n	Hungry_Donkey_bar_English_2-164-1	60.017	-20	1.0.0.18	1	-28832822	Standard	2.0.10.353	2.0.10.353	09-09-2016	9/9/2016 9:06:41 PM	17:06:41	2.0.10.248	53	Bar37-63.bmp	43	1	?	0r_4g.bmp	0r_4g.bmp	0r_2g.bmp	0r_2g.bmp	0r_4g.bmp				TrialProc	TrialList	0	cvbn	-999999	16	210702	0	c	2748	213450	156	-206	-50	2	-86	20	14	7	6	53	0	0	0	0	4	4	2	2	0	4
Hungry_Donkey_bar_English_2	164	1	<?xml version="1.0"?>\n<Clock xmlns:dt="urn:schemas-microsoft-com:datatypes"><Description dt:dt="string">E-Prime Primary Realtime Clock</Description><StartTime><Timestamp dt:dt="int">0</Timestamp><DateUtc dt:dt="string">2016-09-09T21:06:41Z</DateUtc></StartTime><FrequencyChanges><FrequencyChange><Frequency dt:dt="r8">3507675</Frequency><Timestamp dt:dt="r8">893323671460</Timestamp><Current dt:dt="r8">0</Current><DateUtc dt:dt="string">2016-09-09T21:06:41Z</DateUtc></FrequencyChange></FrequencyChanges></Clock>\n	Hungry_Donkey_bar_English_2-164-1	60.017	-20	1.0.0.18	1	-28832822	Standard	2.0.10.353	2.0.10.353	09-09-2016	9/9/2016 9:06:41 PM	17:06:41	2.0.10.248	54	Bar37-63.bmp	43	4	?	0r_4g.bmp	0r_4g.bmp	0r_2g.bmp	0r_2g.bmp				0r_2g.bmp	TrialProc	TrialList	0	cvbn	-999999	16	215484	0	n	4574	220058	158	-206	-48	2	-86	20	16	9	6	54	0	0	0	0	4	4	2	2	0	2
Hungry_Donkey_bar_English_2	164	1	<?xml version="1.0"?>\n<Clock xmlns:dt="urn:schemas-microsoft-com:datatypes"><Description dt:dt="string">E-Prime Primary Realtime Clock</Description><StartTime><Timestamp dt:dt="int">0</Timestamp><DateUtc dt:dt="string">2016-09-09T21:06:41Z</DateUtc></StartTime><FrequencyChanges><FrequencyChange><Frequency dt:dt="r8">3507675</Frequency><Timestamp dt:dt="r8">893323671460</Timestamp><Current dt:dt="r8">0</Current><DateUtc dt:dt="string">2016-09-09T21:06:41Z</DateUtc></FrequencyChange></FrequencyChanges></Clock>\n	Hungry_Donkey_bar_English_2-164-1	60.017	-20	1.0.0.18	1	-28832822	Standard	2.0.10.353	2.0.10.353	09-09-2016	9/9/2016 9:06:41 PM	17:06:41	2.0.10.248	55	Bar37-63.bmp	43	3	?	12r_4g.bmp	0r_4g.bmp	3r_2g.bmp	0r_2g.bmp			3r_2g.bmp		TrialProc	TrialList	0	cvbn	-999999	16	222082	0	b	376	222458	160	-209	-49	2	-86	19	16	5	6	55	-12	0	-3	0	4	4	2	2	-3	2
Hungry_Donkey_bar_English_2	164	1	<?xml version="1.0"?>\n<Clock xmlns:dt="urn:schemas-microsoft-com:datatypes"><Description dt:dt="string">E-Prime Primary Realtime Clock</Description><StartTime><Timestamp dt:dt="int">0</Timestamp><DateUtc dt:dt="string">2016-09-09T21:06:41Z</DateUtc></StartTime><FrequencyChanges><FrequencyChange><Frequency dt:dt="r8">3507675</Frequency><Timestamp dt:dt="r8">893323671460</Timestamp><Current dt:dt="r8">0</Current><DateUtc dt:dt="string">2016-09-09T21:06:41Z</DateUtc></FrequencyChange></FrequencyChanges></Clock>\n	Hungry_Donkey_bar_English_2-164-1	60.017	-20	1.0.0.18	1	-28832822	Standard	2.0.10.353	2.0.10.353	09-09-2016	9/9/2016 9:06:41 PM	17:06:41	2.0.10.248	56	Bar50-50.bmp	44	2	?	0r_4g.bmp	0r_4g.bmp	0r_2g.bmp	0r_2g.bmp		0r_4g.bmp			TrialProc	TrialList	0	cvbn	-999999	15	224481	0	v	1592	226073	164	-209	-45	2	-82	19	16	10	6	56	0	0	0	0	4	4	2	2	0	4
Hungry_Donkey_bar_English_2	164	1	<?xml version="1.0"?>\n<Clock xmlns:dt="urn:schemas-microsoft-com:datatypes"><Description dt:dt="string">E-Prime Primary Realtime Clock</Description><StartTime><Timestamp dt:dt="int">0</Timestamp><DateUtc dt:dt="string">2016-09-09T21:06:41Z</DateUtc></StartTime><FrequencyChanges><FrequencyChange><Frequency dt:dt="r8">3507675</Frequency><Timestamp dt:dt="r8">893323671460</Timestamp><Current dt:dt="r8">0</Current><DateUtc dt:dt="string">2016-09-09T21:06:41Z</DateUtc></FrequencyChange></FrequencyChanges></Clock>\n	Hungry_Donkey_bar_English_2-164-1	60.017	-20	1.0.0.18	1	-28832822	Standard	2.0.10.353	2.0.10.353	09-09-2016	9/9/2016 9:06:41 PM	17:06:41	2.0.10.248	57	Bar50-50.bmp	44	3	?	10r_4g.bmp	0r_4g.bmp	2r_2g.bmp	0r_2g.bmp			2r_2g.bmp		TrialProc	TrialList	0	cvbn	-999999	16	228097	0	b	984	229081	166	-211	-45	2	-82	19	16	4	6	57	-10	0	-2	0	4	4	2	2	-2	2
Hungry_Donkey_bar_English_2	164	1	<?xml version="1.0"?>\n<Clock xmlns:dt="urn:schemas-microsoft-com:datatypes"><Description dt:dt="string">E-Prime Primary Realtime Clock</Description><StartTime><Timestamp dt:dt="int">0</Timestamp><DateUtc dt:dt="string">2016-09-09T21:06:41Z</DateUtc></StartTime><FrequencyChanges><FrequencyChange><Frequency dt:dt="r8">3507675</Frequency><Timestamp dt:dt="r8">893323671460</Timestamp><Current dt:dt="r8">0</Current><DateUtc dt:dt="string">2016-09-09T21:06:41Z</DateUtc></FrequencyChange></FrequencyChanges></Clock>\n	Hungry_Donkey_bar_English_2-164-1	60.017	-20	1.0.0.18	1	-28832822	Standard	2.0.10.353	2.0.10.353	09-09-2016	9/9/2016 9:06:41 PM	17:06:41	2.0.10.248	58	Bar50-50.bmp	45	2	?	10r_4g.bmp	0r_4g.bmp	2r_2g.bmp	0r_2g.bmp		0r_4g.bmp			TrialProc	TrialList	0	cvbn	-999999	16	231113	0	v	512	231625	170	-211	-41	2	-78	19	16	2	6	58	-10	0	-2	0	4	4	2	2	0	4
Hungry_Donkey_bar_English_2	164	1	<?xml version="1.0"?>\n<Clock xmlns:dt="urn:schemas-microsoft-com:datatypes"><Description dt:dt="string">E-Prime Primary Realtime Clock</Description><StartTime><Timestamp dt:dt="int">0</Timestamp><DateUtc dt:dt="string">2016-09-09T21:06:41Z</DateUtc></StartTime><FrequencyChanges><FrequencyChange><Frequency dt:dt="r8">3507675</Frequency><Timestamp dt:dt="r8">893323671460</Timestamp><Current dt:dt="r8">0</Current><DateUtc dt:dt="string">2016-09-09T21:06:41Z</DateUtc></FrequencyChange></FrequencyChanges></Clock>\n	Hungry_Donkey_bar_English_2-164-1	60.017	-20	1.0.0.18	1	-28832822	Standard	2.0.10.353	2.0.10.353	09-09-2016	9/9/2016 9:06:41 PM	17:06:41	2.0.10.248	59	Bar50-50.bmp	45	1	?	0r_4g.bmp	0r_4g.bmp	0r_2g.bmp	0r_2g.bmp	0r_4g.bmp				TrialProc	TrialList	0	cvbn	-999999	16	233662	0	c	331	233993	174	-211	-37	6	-78	19	16	8	6	59	0	0	0	0	4	4	2	2	0	4
Hungry_Donkey_bar_English_2	164	1	<?xml version="1.0"?>\n<Clock xmlns:dt="urn:schemas-microsoft-com:datatypes"><Description dt:dt="string">E-Prime Primary Realtime Clock</Description><StartTime><Timestamp dt:dt="int">0</Timestamp><DateUtc dt:dt="string">2016-09-09T21:06:41Z</DateUtc></StartTime><FrequencyChanges><FrequencyChange><Frequency dt:dt="r8">3507675</Frequency><Timestamp dt:dt="r8">893323671460</Timestamp><Current dt:dt="r8">0</Current><DateUtc dt:dt="string">2016-09-09T21:06:41Z</DateUtc></FrequencyChange></FrequencyChanges></Clock>\n	Hungry_Donkey_bar_English_2-164-1	60.017	-20	1.0.0.18	1	-28832822	Standard	2.0.10.353	2.0.10.353	09-09-2016	9/9/2016 9:06:41 PM	17:06:41	2.0.10.248	60	Bar50-50.bmp	44	4	?	8r_4g.bmp	50r_4g.bmp	1r_2g.bmp	10r_2g.bmp				10r_2g.bmp	TrialProc	TrialList	0	cvbn	-999999	16	236028	0	n	1469	237497	176	-221	-45	6	-78	19	8	1	6	60	-8	-50	-1	-10	4	4	2	2	-10	2
Hungry_Donkey_bar_English_2	164	1	<?xml version="1.0"?>\n<Clock xmlns:dt="urn:schemas-microsoft-com:datatypes"><Description dt:dt="string">E-Prime Primary Realtime Clock</Description><StartTime><Timestamp dt:dt="int">0</Timestamp><DateUtc dt:dt="string">2016-09-09T21:06:41Z</DateUtc></StartTime><FrequencyChanges><FrequencyChange><Frequency dt:dt="r8">3507675</Frequency><Timestamp dt:dt="r8">893323671460</Timestamp><Current dt:dt="r8">0</Current><DateUtc dt:dt="string">2016-09-09T21:06:41Z</DateUtc></FrequencyChange></FrequencyChanges></Clock>\n	Hungry_Donkey_bar_English_2-164-1	60.017	-20	1.0.0.18	1	-28832822	Standard	2.0.10.353	2.0.10.353	09-09-2016	9/9/2016 9:06:41 PM	17:06:41	2.0.10.248	61	Bar50-50.bmp	45	4	?	0r_4g.bmp	0r_4g.bmp	0r_2g.bmp	0r_2g.bmp				0r_2g.bmp	TrialProc	TrialList	0	cvbn	-999999	16	239527	0	n	4130	243657	178	-221	-43	6	-78	19	10	10	7	61	0	0	0	0	4	4	2	2	0	2
Hungry_Donkey_bar_English_2	164	1	<?xml version="1.0"?>\n<Clock xmlns:dt="urn:schemas-microsoft-com:datatypes"><Description dt:dt="string">E-Prime Primary Realtime Clock</Description><StartTime><Timestamp dt:dt="int">0</Timestamp><DateUtc dt:dt="string">2016-09-09T21:06:41Z</DateUtc></StartTime><FrequencyChanges><FrequencyChange><Frequency dt:dt="r8">3507675</Frequency><Timestamp dt:dt="r8">893323671460</Timestamp><Current dt:dt="r8">0</Current><DateUtc dt:dt="string">2016-09-09T21:06:41Z</DateUtc></FrequencyChange></FrequencyChanges></Clock>\n	Hungry_Donkey_bar_English_2-164-1	60.017	-20	1.0.0.18	1	-28832822	Standard	2.0.10.353	2.0.10.353	09-09-2016	9/9/2016 9:06:41 PM	17:06:41	2.0.10.248	62	Bar50-50.bmp	45	3	?	8r_4g.bmp	50r_4g.bmp	1r_2g.bmp	10r_2g.bmp			1r_2g.bmp		TrialProc	TrialList	0	cvbn	-999999	16	245692	0	b	2508	248200	180	-222	-42	6	-78	20	10	1	7	62	-8	-50	-1	-10	4	4	2	2	-1	2
Hungry_Donkey_bar_English_2	164	1	<?xml version="1.0"?>\n<Clock xmlns:dt="urn:schemas-microsoft-com:datatypes"><Description dt:dt="string">E-Prime Primary Realtime Clock</Description><StartTime><Timestamp dt:dt="int">0</Timestamp><DateUtc dt:dt="string">2016-09-09T21:06:41Z</DateUtc></StartTime><FrequencyChanges><FrequencyChange><Frequency dt:dt="r8">3507675</Frequency><Timestamp dt:dt="r8">893323671460</Timestamp><Current dt:dt="r8">0</Current><DateUtc dt:dt="string">2016-09-09T21:06:41Z</DateUtc></FrequencyChange></FrequencyChanges></Clock>\n	Hungry_Donkey_bar_English_2-164-1	60.017	-20	1.0.0.18	1	-28832822	Standard	2.0.10.353	2.0.10.353	09-09-2016	9/9/2016 9:06:41 PM	17:06:41	2.0.10.248	63	Bar50-50.bmp	44	1	?	10r_4g.bmp	0r_4g.bmp	2r_2g.bmp	0r_2g.bmp	10r_4g.bmp				TrialProc	TrialList	0	cvbn	-999999	16	250241	0	c	7671	257912	184	-232	-48	0	-78	20	10	4	7	63	-10	0	-2	0	4	4	2	2	-10	4
Hungry_Donkey_bar_English_2	164	1	<?xml version="1.0"?>\n<Clock xmlns:dt="urn:schemas-microsoft-com:datatypes"><Description dt:dt="string">E-Prime Primary Realtime Clock</Description><StartTime><Timestamp dt:dt="int">0</Timestamp><DateUtc dt:dt="string">2016-09-09T21:06:41Z</DateUtc></StartTime><FrequencyChanges><FrequencyChange><Frequency dt:dt="r8">3507675</Frequency><Timestamp dt:dt="r8">893323671460</Timestamp><Current dt:dt="r8">0</Current><DateUtc dt:dt="string">2016-09-09T21:06:41Z</DateUtc></FrequencyChange></FrequencyChanges></Clock>\n	Hungry_Donkey_bar_English_2-164-1	60.017	-20	1.0.0.18	1	-28832822	Standard	2.0.10.353	2.0.10.353	09-09-2016	9/9/2016 9:06:41 PM	17:06:41	2.0.10.248	64	Bar50-50.bmp	44	3	?	0r_4g.bmp	0r_4g.bmp	0r_2g.bmp	0r_2g.bmp			0r_2g.bmp		TrialProc	TrialList	0	cvbn	-999999	16	259938	0	b	2246	262184	186	-232	-46	0	-78	22	10	8	7	64	0	0	0	0	4	4	2	2	0	2
Hungry_Donkey_bar_English_2	164	1	<?xml version="1.0"?>\n<Clock xmlns:dt="urn:schemas-microsoft-com:datatypes"><Description dt:dt="string">E-Prime Primary Realtime Clock</Description><StartTime><Timestamp dt:dt="int">0</Timestamp><DateUtc dt:dt="string">2016-09-09T21:06:41Z</DateUtc></StartTime><FrequencyChanges><FrequencyChange><Frequency dt:dt="r8">3507675</Frequency><Timestamp dt:dt="r8">893323671460</Timestamp><Current dt:dt="r8">0</Current><DateUtc dt:dt="string">2016-09-09T21:06:41Z</DateUtc></FrequencyChange></FrequencyChanges></Clock>\n	Hungry_Donkey_bar_English_2-164-1	60.017	-20	1.0.0.18	1	-28832822	Standard	2.0.10.353	2.0.10.353	09-09-2016	9/9/2016 9:06:41 PM	17:06:41	2.0.10.248	65	Bar50-50.bmp	45	4	?	10r_4g.bmp	0r_4g.bmp	2r_2g.bmp	0r_2g.bmp				0r_2g.bmp	TrialProc	TrialList	0	cvbn	-999999	16	264220	0	n	812	265032	188	-232	-44	0	-78	22	12	3	7	65	-10	0	-2	0	4	4	2	2	0	2
Hungry_Donkey_bar_English_2	164	1	<?xml version="1.0"?>\n<Clock xmlns:dt="urn:schemas-microsoft-com:datatypes"><Description dt:dt="string">E-Prime Primary Realtime Clock</Description><StartTime><Timestamp dt:dt="int">0</Timestamp><DateUtc dt:dt="string">2016-09-09T21:06:41Z</DateUtc></StartTime><FrequencyChanges><FrequencyChange><Frequency dt:dt="r8">3507675</Frequency><Timestamp dt:dt="r8">893323671460</Timestamp><Current dt:dt="r8">0</Current><DateUtc dt:dt="string">2016-09-09T21:06:41Z</DateUtc></FrequencyChange></FrequencyChanges></Clock>\n	Hungry_Donkey_bar_English_2-164-1	60.017	-20	1.0.0.18	1	-28832822	Standard	2.0.10.353	2.0.10.353	09-09-2016	9/9/2016 9:06:41 PM	17:06:41	2.0.10.248	66	Bar50-50.bmp	45	2	?	10r_4g.bmp	0r_4g.bmp	2r_2g.bmp	0r_2g.bmp		0r_4g.bmp			TrialProc	TrialList	0	cvbn	-999999	16	267069	0	v	314	267383	192	-232	-40	0	-74	22	12	2	7	66	-10	0	-2	0	4	4	2	2	0	4
Hungry_Donkey_bar_English_2	164	1	<?xml version="1.0"?>\n<Clock xmlns:dt="urn:schemas-microsoft-com:datatypes"><Description dt:dt="string">E-Prime Primary Realtime Clock</Description><StartTime><Timestamp dt:dt="int">0</Timestamp><DateUtc dt:dt="string">2016-09-09T21:06:41Z</DateUtc></StartTime><FrequencyChanges><FrequencyChange><Frequency dt:dt="r8">3507675</Frequency><Timestamp dt:dt="r8">893323671460</Timestamp><Current dt:dt="r8">0</Current><DateUtc dt:dt="string">2016-09-09T21:06:41Z</DateUtc></FrequencyChange></FrequencyChanges></Clock>\n	Hungry_Donkey_bar_English_2-164-1	60.017	-20	1.0.0.18	1	-28832822	Standard	2.0.10.353	2.0.10.353	09-09-2016	9/9/2016 9:06:41 PM	17:06:41	2.0.10.248	67	Bar50-50.bmp	46	3	?	0r_4g.bmp	0r_4g.bmp	0r_2g.bmp	0r_2g.bmp			0r_2g.bmp		TrialProc	TrialList	0	cvbn	-999999	17	269419	0	b	6812	276231	194	-232	-38	0	-74	24	12	7	7	67	0	0	0	0	4	4	2	2	0	2
Hungry_Donkey_bar_English_2	164	1	<?xml version="1.0"?>\n<Clock xmlns:dt="urn:schemas-microsoft-com:datatypes"><Description dt:dt="string">E-Prime Primary Realtime Clock</Description><StartTime><Timestamp dt:dt="int">0</Timestamp><DateUtc dt:dt="string">2016-09-09T21:06:41Z</DateUtc></StartTime><FrequencyChanges><FrequencyChange><Frequency dt:dt="r8">3507675</Frequency><Timestamp dt:dt="r8">893323671460</Timestamp><Current dt:dt="r8">0</Current><DateUtc dt:dt="string">2016-09-09T21:06:41Z</DateUtc></FrequencyChange></FrequencyChanges></Clock>\n	Hungry_Donkey_bar_English_2-164-1	60.017	-20	1.0.0.18	1	-28832822	Standard	2.0.10.353	2.0.10.353	09-09-2016	9/9/2016 9:06:41 PM	17:06:41	2.0.10.248	68	Bar50-50.bmp	46	2	?	0r_4g.bmp	0r_4g.bmp	0r_2g.bmp	0r_2g.bmp		0r_4g.bmp			TrialProc	TrialList	0	cvbn	-999999	16	278266	0	v	381	278647	198	-232	-34	0	-70	24	12	6	7	68	0	0	0	0	4	4	2	2	0	4
Hungry_Donkey_bar_English_2	164	1	<?xml version="1.0"?>\n<Clock xmlns:dt="urn:schemas-microsoft-com:datatypes"><Description dt:dt="string">E-Prime Primary Realtime Clock</Description><StartTime><Timestamp dt:dt="int">0</Timestamp><DateUtc dt:dt="string">2016-09-09T21:06:41Z</DateUtc></StartTime><FrequencyChanges><FrequencyChange><Frequency dt:dt="r8">3507675</Frequency><Timestamp dt:dt="r8">893323671460</Timestamp><Current dt:dt="r8">0</Current><DateUtc dt:dt="string">2016-09-09T21:06:41Z</DateUtc></FrequencyChange></FrequencyChanges></Clock>\n	Hungry_Donkey_bar_English_2-164-1	60.017	-20	1.0.0.18	1	-28832822	Standard	2.0.10.353	2.0.10.353	09-09-2016	9/9/2016 9:06:41 PM	17:06:41	2.0.10.248	69	Bar50-50.bmp	46	4	?	12r_4g.bmp	0r_4g.bmp	3r_2g.bmp	0r_2g.bmp				0r_2g.bmp	TrialProc	TrialList	0	cvbn	-999999	16	280682	0	n	205	280887	200	-232	-32	0	-70	24	14	5	7	69	-12	0	-3	0	4	4	2	2	0	2
Hungry_Donkey_bar_English_2	164	1	<?xml version="1.0"?>\n<Clock xmlns:dt="urn:schemas-microsoft-com:datatypes"><Description dt:dt="string">E-Prime Primary Realtime Clock</Description><StartTime><Timestamp dt:dt="int">0</Timestamp><DateUtc dt:dt="string">2016-09-09T21:06:41Z</DateUtc></StartTime><FrequencyChanges><FrequencyChange><Frequency dt:dt="r8">3507675</Frequency><Timestamp dt:dt="r8">893323671460</Timestamp><Current dt:dt="r8">0</Current><DateUtc dt:dt="string">2016-09-09T21:06:41Z</DateUtc></FrequencyChange></FrequencyChanges></Clock>\n	Hungry_Donkey_bar_English_2-164-1	60.017	-20	1.0.0.18	1	-28832822	Standard	2.0.10.353	2.0.10.353	09-09-2016	9/9/2016 9:06:41 PM	17:06:41	2.0.10.248	70	Bar50-50.bmp	47	1	?	0r_4g.bmp	0r_4g.bmp	0r_2g.bmp	0r_2g.bmp	0r_4g.bmp				TrialProc	TrialList	0	cvbn	-999999	16	282915	0	c	436	283351	204	-232	-28	4	-70	24	14	9	7	70	0	0	0	0	4	4	2	2	0	4
Hungry_Donkey_bar_English_2	164	1	<?xml version="1.0"?>\n<Clock xmlns:dt="urn:schemas-microsoft-com:datatypes"><Description dt:dt="string">E-Prime Primary Realtime Clock</Description><StartTime><Timestamp dt:dt="int">0</Timestamp><DateUtc dt:dt="string">2016-09-09T21:06:41Z</DateUtc></StartTime><FrequencyChanges><FrequencyChange><Frequency dt:dt="r8">3507675</Frequency><Timestamp dt:dt="r8">893323671460</Timestamp><Current dt:dt="r8">0</Current><DateUtc dt:dt="string">2016-09-09T21:06:41Z</DateUtc></FrequencyChange></FrequencyChanges></Clock>\n	Hungry_Donkey_bar_English_2-164-1	60.017	-20	1.0.0.18	1	-28832822	Standard	2.0.10.353	2.0.10.353	09-09-2016	9/9/2016 9:06:41 PM	17:06:41	2.0.10.248	71	Bar50-50.bmp	47	3	?	12r_4g.bmp	0r_4g.bmp	3r_2g.bmp	0r_2g.bmp			3r_2g.bmp		TrialProc	TrialList	0	cvbn	-999999	16	285381	0	b	562	285943	206	-235	-29	4	-70	23	14	5	8	71	-12	0	-3	0	4	4	2	2	-3	2
Hungry_Donkey_bar_English_2	164	1	<?xml version="1.0"?>\n<Clock xmlns:dt="urn:schemas-microsoft-com:datatypes"><Description dt:dt="string">E-Prime Primary Realtime Clock</Description><StartTime><Timestamp dt:dt="int">0</Timestamp><DateUtc dt:dt="string">2016-09-09T21:06:41Z</DateUtc></StartTime><FrequencyChanges><FrequencyChange><Frequency dt:dt="r8">3507675</Frequency><Timestamp dt:dt="r8">893323671460</Timestamp><Current dt:dt="r8">0</Current><DateUtc dt:dt="string">2016-09-09T21:06:41Z</DateUtc></FrequencyChange></FrequencyChanges></Clock>\n	Hungry_Donkey_bar_English_2-164-1	60.017	-20	1.0.0.18	1	-28832822	Standard	2.0.10.353	2.0.10.353	09-09-2016	9/9/2016 9:06:41 PM	17:06:41	2.0.10.248	72	Bar50-50.bmp	47	2	?	0r_4g.bmp	0r_4g.bmp	0r_2g.bmp	0r_2g.bmp		0r_4g.bmp			TrialProc	TrialList	0	cvbn	-999999	16	287980	0	v	810	288790	210	-235	-25	4	-66	23	14	9	8	72	0	0	0	0	4	4	2	2	0	4
Hungry_Donkey_bar_English_2	164	1	<?xml version="1.0"?>\n<Clock xmlns:dt="urn:schemas-microsoft-com:datatypes"><Description dt:dt="string">E-Prime Primary Realtime Clock</Description><StartTime><Timestamp dt:dt="int">0</Timestamp><DateUtc dt:dt="string">2016-09-09T21:06:41Z</DateUtc></StartTime><FrequencyChanges><FrequencyChange><Frequency dt:dt="r8">3507675</Frequency><Timestamp dt:dt="r8">893323671460</Timestamp><Current dt:dt="r8">0</Current><DateUtc dt:dt="string">2016-09-09T21:06:41Z</DateUtc></FrequencyChange></FrequencyChanges></Clock>\n	Hungry_Donkey_bar_English_2-164-1	60.017	-20	1.0.0.18	1	-28832822	Standard	2.0.10.353	2.0.10.353	09-09-2016	9/9/2016 9:06:41 PM	17:06:41	2.0.10.248	73	Bar50-50.bmp	47	4	?	0r_4g.bmp	0r_4g.bmp	0r_2g.bmp	0r_2g.bmp				0r_2g.bmp	TrialProc	TrialList	0	cvbn	-999999	16	290829	0	n	649	291478	212	-235	-23	4	-66	23	16	10	8	73	0	0	0	0	4	4	2	2	0	2
Hungry_Donkey_bar_English_2	164	1	<?xml version="1.0"?>\n<Clock xmlns:dt="urn:schemas-microsoft-com:datatypes"><Description dt:dt="string">E-Prime Primary Realtime Clock</Description><StartTime><Timestamp dt:dt="int">0</Timestamp><DateUtc dt:dt="string">2016-09-09T21:06:41Z</DateUtc></StartTime><FrequencyChanges><FrequencyChange><Frequency dt:dt="r8">3507675</Frequency><Timestamp dt:dt="r8">893323671460</Timestamp><Current dt:dt="r8">0</Current><DateUtc dt:dt="string">2016-09-09T21:06:41Z</DateUtc></FrequencyChange></FrequencyChanges></Clock>\n	Hungry_Donkey_bar_English_2-164-1	60.017	-20	1.0.0.18	1	-28832822	Standard	2.0.10.353	2.0.10.353	09-09-2016	9/9/2016 9:06:41 PM	17:06:41	2.0.10.248	74	Bar50-50.bmp	47	1	?	10r_4g.bmp	0r_4g.bmp	2r_2g.bmp	0r_2g.bmp	10r_4g.bmp				TrialProc	TrialList	0	cvbn	-999999	16	293512	0	c	766	294278	216	-245	-29	-2	-66	23	16	4	8	74	-10	0	-2	0	4	4	2	2	-10	4
Hungry_Donkey_bar_English_2	164	1	<?xml version="1.0"?>\n<Clock xmlns:dt="urn:schemas-microsoft-com:datatypes"><Description dt:dt="string">E-Prime Primary Realtime Clock</Description><StartTime><Timestamp dt:dt="int">0</Timestamp><DateUtc dt:dt="string">2016-09-09T21:06:41Z</DateUtc></StartTime><FrequencyChanges><FrequencyChange><Frequency dt:dt="r8">3507675</Frequency><Timestamp dt:dt="r8">893323671460</Timestamp><Current dt:dt="r8">0</Current><DateUtc dt:dt="string">2016-09-09T21:06:41Z</DateUtc></FrequencyChange></FrequencyChanges></Clock>\n	Hungry_Donkey_bar_English_2-164-1	60.017	-20	1.0.0.18	1	-28832822	Standard	2.0.10.353	2.0.10.353	09-09-2016	9/9/2016 9:06:41 PM	17:06:41	2.0.10.248	75	Bar50-50.bmp	47	3	?	10r_4g.bmp	0r_4g.bmp	2r_2g.bmp	0r_2g.bmp			2r_2g.bmp		TrialProc	TrialList	0	cvbn	-999999	16	296311	0	b	1135	297446	218	-247	-29	-2	-66	23	16	3	8	75	-10	0	-2	0	4	4	2	2	-2	2
Hungry_Donkey_bar_English_2	164	1	<?xml version="1.0"?>\n<Clock xmlns:dt="urn:schemas-microsoft-com:datatypes"><Description dt:dt="string">E-Prime Primary Realtime Clock</Description><StartTime><Timestamp dt:dt="int">0</Timestamp><DateUtc dt:dt="string">2016-09-09T21:06:41Z</DateUtc></StartTime><FrequencyChanges><FrequencyChange><Frequency dt:dt="r8">3507675</Frequency><Timestamp dt:dt="r8">893323671460</Timestamp><Current dt:dt="r8">0</Current><DateUtc dt:dt="string">2016-09-09T21:06:41Z</DateUtc></FrequencyChange></FrequencyChanges></Clock>\n	Hungry_Donkey_bar_English_2-164-1	60.017	-20	1.0.0.18	1	-28832822	Standard	2.0.10.353	2.0.10.353	09-09-2016	9/9/2016 9:06:41 PM	17:06:41	2.0.10.248	76	Bar50-50.bmp	47	2	?	0r_4g.bmp	0r_4g.bmp	0r_2g.bmp	0r_2g.bmp		0r_4g.bmp			TrialProc	TrialList	0	cvbn	-999999	16	299477	0	v	1313	300790	222	-247	-25	-2	-62	23	16	6	8	76	0	0	0	0	4	4	2	2	0	4
Hungry_Donkey_bar_English_2	164	1	<?xml version="1.0"?>\n<Clock xmlns:dt="urn:schemas-microsoft-com:datatypes"><Description dt:dt="string">E-Prime Primary Realtime Clock</Description><StartTime><Timestamp dt:dt="int">0</Timestamp><DateUtc dt:dt="string">2016-09-09T21:06:41Z</DateUtc></StartTime><FrequencyChanges><FrequencyChange><Frequency dt:dt="r8">3507675</Frequency><Timestamp dt:dt="r8">893323671460</Timestamp><Current dt:dt="r8">0</Current><DateUtc dt:dt="string">2016-09-09T21:06:41Z</DateUtc></FrequencyChange></FrequencyChanges></Clock>\n	Hungry_Donkey_bar_English_2-164-1	60.017	-20	1.0.0.18	1	-28832822	Standard	2.0.10.353	2.0.10.353	09-09-2016	9/9/2016 9:06:41 PM	17:06:41	2.0.10.248	77	Bar50-50.bmp	48	4	?	10r_4g.bmp	0r_4g.bmp	2r_2g.bmp	0r_2g.bmp				0r_2g.bmp	TrialProc	TrialList	0	cvbn	-999999	16	302826	0	n	108	302934	224	-247	-23	-2	-62	23	18	2	8	77	-10	0	-2	0	4	4	2	2	0	2
Hungry_Donkey_bar_English_2	164	1	<?xml version="1.0"?>\n<Clock xmlns:dt="urn:schemas-microsoft-com:datatypes"><Description dt:dt="string">E-Prime Primary Realtime Clock</Description><StartTime><Timestamp dt:dt="int">0</Timestamp><DateUtc dt:dt="string">2016-09-09T21:06:41Z</DateUtc></StartTime><FrequencyChanges><FrequencyChange><Frequency dt:dt="r8">3507675</Frequency><Timestamp dt:dt="r8">893323671460</Timestamp><Current dt:dt="r8">0</Current><DateUtc dt:dt="string">2016-09-09T21:06:41Z</DateUtc></FrequencyChange></FrequencyChanges></Clock>\n	Hungry_Donkey_bar_English_2-164-1	60.017	-20	1.0.0.18	1	-28832822	Standard	2.0.10.353	2.0.10.353	09-09-2016	9/9/2016 9:06:41 PM	17:06:41	2.0.10.248	78	Bar50-50.bmp	48	2	?	0r_4g.bmp	0r_4g.bmp	0r_2g.bmp	0r_2g.bmp		0r_4g.bmp			TrialProc	TrialList	0	cvbn	-999999	16	304958	0	v	888	305846	228	-247	-19	-2	-58	23	18	8	8	78	0	0	0	0	4	4	2	2	0	4
Hungry_Donkey_bar_English_2	164	1	<?xml version="1.0"?>\n<Clock xmlns:dt="urn:schemas-microsoft-com:datatypes"><Description dt:dt="string">E-Prime Primary Realtime Clock</Description><StartTime><Timestamp dt:dt="int">0</Timestamp><DateUtc dt:dt="string">2016-09-09T21:06:41Z</DateUtc></StartTime><FrequencyChanges><FrequencyChange><Frequency dt:dt="r8">3507675</Frequency><Timestamp dt:dt="r8">893323671460</Timestamp><Current dt:dt="r8">0</Current><DateUtc dt:dt="string">2016-09-09T21:06:41Z</DateUtc></FrequencyChange></FrequencyChanges></Clock>\n	Hungry_Donkey_bar_English_2-164-1	60.017	-20	1.0.0.18	1	-28832822	Standard	2.0.10.353	2.0.10.353	09-09-2016	9/9/2016 9:06:41 PM	17:06:41	2.0.10.248	79	Bar50-50.bmp	48	3	?	8r_4g.bmp	50r_4g.bmp	1r_2g.bmp	10r_2g.bmp			1r_2g.bmp		TrialProc	TrialList	0	cvbn	-999999	16	307874	0	b	259	308133	230	-248	-18	-2	-58	24	18	1	8	79	-8	-50	-1	-10	4	4	2	2	-1	2
Hungry_Donkey_bar_English_2	164	1	<?xml version="1.0"?>\n<Clock xmlns:dt="urn:schemas-microsoft-com:datatypes"><Description dt:dt="string">E-Prime Primary Realtime Clock</Description><StartTime><Timestamp dt:dt="int">0</Timestamp><DateUtc dt:dt="string">2016-09-09T21:06:41Z</DateUtc></StartTime><FrequencyChanges><FrequencyChange><Frequency dt:dt="r8">3507675</Frequency><Timestamp dt:dt="r8">893323671460</Timestamp><Current dt:dt="r8">0</Current><DateUtc dt:dt="string">2016-09-09T21:06:41Z</DateUtc></FrequencyChange></FrequencyChanges></Clock>\n	Hungry_Donkey_bar_English_2-164-1	60.017	-20	1.0.0.18	1	-28832822	Standard	2.0.10.353	2.0.10.353	09-09-2016	9/9/2016 9:06:41 PM	17:06:41	2.0.10.248	80	Bar50-50.bmp	48	4	?	0r_4g.bmp	0r_4g.bmp	0r_2g.bmp	0r_2g.bmp				0r_2g.bmp	TrialProc	TrialList	0	cvbn	-999999	16	310174	0	n	103	310277	232	-248	-16	-2	-58	24	20	7	8	80	0	0	0	0	4	4	2	2	0	2
Hungry_Donkey_bar_English_2	164	1	<?xml version="1.0"?>\n<Clock xmlns:dt="urn:schemas-microsoft-com:datatypes"><Description dt:dt="string">E-Prime Primary Realtime Clock</Description><StartTime><Timestamp dt:dt="int">0</Timestamp><DateUtc dt:dt="string">2016-09-09T21:06:41Z</DateUtc></StartTime><FrequencyChanges><FrequencyChange><Frequency dt:dt="r8">3507675</Frequency><Timestamp dt:dt="r8">893323671460</Timestamp><Current dt:dt="r8">0</Current><DateUtc dt:dt="string">2016-09-09T21:06:41Z</DateUtc></FrequencyChange></FrequencyChanges></Clock>\n	Hungry_Donkey_bar_English_2-164-1	60.017	-20	1.0.0.18	1	-28832822	Standard	2.0.10.353	2.0.10.353	09-09-2016	9/9/2016 9:06:41 PM	17:06:41	2.0.10.248	81	Bar50-50.bmp	49	2	?	10r_4g.bmp	0r_4g.bmp	2r_2g.bmp	0r_2g.bmp		0r_4g.bmp			TrialProc	TrialList	0	cvbn	-999999	16	312306	0	v	579	312885	236	-248	-12	-2	-54	24	20	2	9	81	-10	0	-2	0	4	4	2	2	0	4
Hungry_Donkey_bar_English_2	164	1	<?xml version="1.0"?>\n<Clock xmlns:dt="urn:schemas-microsoft-com:datatypes"><Description dt:dt="string">E-Prime Primary Realtime Clock</Description><StartTime><Timestamp dt:dt="int">0</Timestamp><DateUtc dt:dt="string">2016-09-09T21:06:41Z</DateUtc></StartTime><FrequencyChanges><FrequencyChange><Frequency dt:dt="r8">3507675</Frequency><Timestamp dt:dt="r8">893323671460</Timestamp><Current dt:dt="r8">0</Current><DateUtc dt:dt="string">2016-09-09T21:06:41Z</DateUtc></FrequencyChange></FrequencyChanges></Clock>\n	Hungry_Donkey_bar_English_2-164-1	60.017	-20	1.0.0.18	1	-28832822	Standard	2.0.10.353	2.0.10.353	09-09-2016	9/9/2016 9:06:41 PM	17:06:41	2.0.10.248	82	Bar50-50.bmp	49	4	?	10r_4g.bmp	0r_4g.bmp	2r_2g.bmp	0r_2g.bmp				0r_2g.bmp	TrialProc	TrialList	0	cvbn	-999999	16	314922	0	n	683	315605	238	-248	-10	-2	-54	24	22	4	9	82	-10	0	-2	0	4	4	2	2	0	2
Hungry_Donkey_bar_English_2	164	1	<?xml version="1.0"?>\n<Clock xmlns:dt="urn:schemas-microsoft-com:datatypes"><Description dt:dt="string">E-Prime Primary Realtime Clock</Description><StartTime><Timestamp dt:dt="int">0</Timestamp><DateUtc dt:dt="string">2016-09-09T21:06:41Z</DateUtc></StartTime><FrequencyChanges><FrequencyChange><Frequency dt:dt="r8">3507675</Frequency><Timestamp dt:dt="r8">893323671460</Timestamp><Current dt:dt="r8">0</Current><DateUtc dt:dt="string">2016-09-09T21:06:41Z</DateUtc></FrequencyChange></FrequencyChanges></Clock>\n	Hungry_Donkey_bar_English_2-164-1	60.017	-20	1.0.0.18	1	-28832822	Standard	2.0.10.353	2.0.10.353	09-09-2016	9/9/2016 9:06:41 PM	17:06:41	2.0.10.248	83	Bar50-50.bmp	45	2	?	8r_4g.bmp	50r_4g.bmp	1r_2g.bmp	10r_2g.bmp		50r_4g.bmp			TrialProc	TrialList	0	cvbn	-999999	16	317638	0	v	591	318229	242	-298	-56	-2	-100	24	22	1	9	83	-8	-50	-1	-10	4	4	2	2	-50	4
Hungry_Donkey_bar_English_2	164	1	<?xml version="1.0"?>\n<Clock xmlns:dt="urn:schemas-microsoft-com:datatypes"><Description dt:dt="string">E-Prime Primary Realtime Clock</Description><StartTime><Timestamp dt:dt="int">0</Timestamp><DateUtc dt:dt="string">2016-09-09T21:06:41Z</DateUtc></StartTime><FrequencyChanges><FrequencyChange><Frequency dt:dt="r8">3507675</Frequency><Timestamp dt:dt="r8">893323671460</Timestamp><Current dt:dt="r8">0</Current><DateUtc dt:dt="string">2016-09-09T21:06:41Z</DateUtc></FrequencyChange></FrequencyChanges></Clock>\n	Hungry_Donkey_bar_English_2-164-1	60.017	-20	1.0.0.18	1	-28832822	Standard	2.0.10.353	2.0.10.353	09-09-2016	9/9/2016 9:06:41 PM	17:06:41	2.0.10.248	84	Bar50-50.bmp	45	3	?	10r_4g.bmp	0r_4g.bmp	2r_2g.bmp	0r_2g.bmp			2r_2g.bmp		TrialProc	TrialList	0	cvbn	-999999	16	320254	0	b	1751	322005	244	-300	-56	-2	-100	24	22	3	9	84	-10	0	-2	0	4	4	2	2	-2	2
Hungry_Donkey_bar_English_2	164	1	<?xml version="1.0"?>\n<Clock xmlns:dt="urn:schemas-microsoft-com:datatypes"><Description dt:dt="string">E-Prime Primary Realtime Clock</Description><StartTime><Timestamp dt:dt="int">0</Timestamp><DateUtc dt:dt="string">2016-09-09T21:06:41Z</DateUtc></StartTime><FrequencyChanges><FrequencyChange><Frequency dt:dt="r8">3507675</Frequency><Timestamp dt:dt="r8">893323671460</Timestamp><Current dt:dt="r8">0</Current><DateUtc dt:dt="string">2016-09-09T21:06:41Z</DateUtc></FrequencyChange></FrequencyChanges></Clock>\n	Hungry_Donkey_bar_English_2-164-1	60.017	-20	1.0.0.18	1	-28832822	Standard	2.0.10.353	2.0.10.353	09-09-2016	9/9/2016 9:06:41 PM	17:06:41	2.0.10.248	85	Bar50-50.bmp	45	2	?	0r_4g.bmp	0r_4g.bmp	0r_2g.bmp	0r_2g.bmp		0r_4g.bmp			TrialProc	TrialList	0	cvbn	-999999	16	324036	0	v	1505	325541	248	-300	-52	-2	-96	24	22	7	9	85	0	0	0	0	4	4	2	2	0	4
Hungry_Donkey_bar_English_2	164	1	<?xml version="1.0"?>\n<Clock xmlns:dt="urn:schemas-microsoft-com:datatypes"><Description dt:dt="string">E-Prime Primary Realtime Clock</Description><StartTime><Timestamp dt:dt="int">0</Timestamp><DateUtc dt:dt="string">2016-09-09T21:06:41Z</DateUtc></StartTime><FrequencyChanges><FrequencyChange><Frequency dt:dt="r8">3507675</Frequency><Timestamp dt:dt="r8">893323671460</Timestamp><Current dt:dt="r8">0</Current><DateUtc dt:dt="string">2016-09-09T21:06:41Z</DateUtc></FrequencyChange></FrequencyChanges></Clock>\n	Hungry_Donkey_bar_English_2-164-1	60.017	-20	1.0.0.18	1	-28832822	Standard	2.0.10.353	2.0.10.353	09-09-2016	9/9/2016 9:06:41 PM	17:06:41	2.0.10.248	86	Bar50-50.bmp	45	4	?	0r_4g.bmp	0r_4g.bmp	0r_2g.bmp	0r_2g.bmp				0r_2g.bmp	TrialProc	TrialList	0	cvbn	-999999	16	327569	0	n	1252	328821	250	-300	-50	-2	-96	24	24	6	9	86	0	0	0	0	4	4	2	2	0	2
Hungry_Donkey_bar_English_2	164	1	<?xml version="1.0"?>\n<Clock xmlns:dt="urn:schemas-microsoft-com:datatypes"><Description dt:dt="string">E-Prime Primary Realtime Clock</Description><StartTime><Timestamp dt:dt="int">0</Timestamp><DateUtc dt:dt="string">2016-09-09T21:06:41Z</DateUtc></StartTime><FrequencyChanges><FrequencyChange><Frequency dt:dt="r8">3507675</Frequency><Timestamp dt:dt="r8">893323671460</Timestamp><Current dt:dt="r8">0</Current><DateUtc dt:dt="string">2016-09-09T21:06:41Z</DateUtc></FrequencyChange></FrequencyChanges></Clock>\n	Hungry_Donkey_bar_English_2-164-1	60.017	-20	1.0.0.18	1	-28832822	Standard	2.0.10.353	2.0.10.353	09-09-2016	9/9/2016 9:06:41 PM	17:06:41	2.0.10.248	87	Bar50-50.bmp	46	2	?	0r_4g.bmp	0r_4g.bmp	0r_2g.bmp	0r_2g.bmp		0r_4g.bmp			TrialProc	TrialList	0	cvbn	-999999	16	330851	0	v	753	331604	254	-300	-46	-2	-92	24	24	10	9	87	0	0	0	0	4	4	2	2	0	4
Hungry_Donkey_bar_English_2	164	1	<?xml version="1.0"?>\n<Clock xmlns:dt="urn:schemas-microsoft-com:datatypes"><Description dt:dt="string">E-Prime Primary Realtime Clock</Description><StartTime><Timestamp dt:dt="int">0</Timestamp><DateUtc dt:dt="string">2016-09-09T21:06:41Z</DateUtc></StartTime><FrequencyChanges><FrequencyChange><Frequency dt:dt="r8">3507675</Frequency><Timestamp dt:dt="r8">893323671460</Timestamp><Current dt:dt="r8">0</Current><DateUtc dt:dt="string">2016-09-09T21:06:41Z</DateUtc></FrequencyChange></FrequencyChanges></Clock>\n	Hungry_Donkey_bar_English_2-164-1	60.017	-20	1.0.0.18	1	-28832822	Standard	2.0.10.353	2.0.10.353	09-09-2016	9/9/2016 9:06:41 PM	17:06:41	2.0.10.248	88	Bar50-50.bmp	46	1	?	0r_4g.bmp	0r_4g.bmp	0r_2g.bmp	0r_2g.bmp	0r_4g.bmp				TrialProc	TrialList	0	cvbn	-999999	17	333634	0	c	2562	336196	258	-300	-42	2	-92	24	24	9	9	88	0	0	0	0	4	4	2	2	0	4
Hungry_Donkey_bar_English_2	164	1	<?xml version="1.0"?>\n<Clock xmlns:dt="urn:schemas-microsoft-com:datatypes"><Description dt:dt="string">E-Prime Primary Realtime Clock</Description><StartTime><Timestamp dt:dt="int">0</Timestamp><DateUtc dt:dt="string">2016-09-09T21:06:41Z</DateUtc></StartTime><FrequencyChanges><FrequencyChange><Frequency dt:dt="r8">3507675</Frequency><Timestamp dt:dt="r8">893323671460</Timestamp><Current dt:dt="r8">0</Current><DateUtc dt:dt="string">2016-09-09T21:06:41Z</DateUtc></FrequencyChange></FrequencyChanges></Clock>\n	Hungry_Donkey_bar_English_2-164-1	60.017	-20	1.0.0.18	1	-28832822	Standard	2.0.10.353	2.0.10.353	09-09-2016	9/9/2016 9:06:41 PM	17:06:41	2.0.10.248	89	Bar50-50.bmp	46	4	?	12r_4g.bmp	0r_4g.bmp	3r_2g.bmp	0r_2g.bmp				0r_2g.bmp	TrialProc	TrialList	0	cvbn	-999999	16	338232	0	n	1132	339364	260	-300	-40	2	-92	24	26	5	9	89	-12	0	-3	0	4	4	2	2	0	2
Hungry_Donkey_bar_English_2	164	1	<?xml version="1.0"?>\n<Clock xmlns:dt="urn:schemas-microsoft-com:datatypes"><Description dt:dt="string">E-Prime Primary Realtime Clock</Description><StartTime><Timestamp dt:dt="int">0</Timestamp><DateUtc dt:dt="string">2016-09-09T21:06:41Z</DateUtc></StartTime><FrequencyChanges><FrequencyChange><Frequency dt:dt="r8">3507675</Frequency><Timestamp dt:dt="r8">893323671460</Timestamp><Current dt:dt="r8">0</Current><DateUtc dt:dt="string">2016-09-09T21:06:41Z</DateUtc></FrequencyChange></FrequencyChanges></Clock>\n	Hungry_Donkey_bar_English_2-164-1	60.017	-20	1.0.0.18	1	-28832822	Standard	2.0.10.353	2.0.10.353	09-09-2016	9/9/2016 9:06:41 PM	17:06:41	2.0.10.248	90	Bar50-50.bmp	47	3	?	0r_4g.bmp	0r_4g.bmp	0r_2g.bmp	0r_2g.bmp			0r_2g.bmp		TrialProc	TrialList	0	cvbn	-999999	16	341398	0	b	1470	342868	262	-300	-38	2	-92	26	26	8	9	90	0	0	0	0	4	4	2	2	0	2
Hungry_Donkey_bar_English_2	164	1	<?xml version="1.0"?>\n<Clock xmlns:dt="urn:schemas-microsoft-com:datatypes"><Description dt:dt="string">E-Prime Primary Realtime Clock</Description><StartTime><Timestamp dt:dt="int">0</Timestamp><DateUtc dt:dt="string">2016-09-09T21:06:41Z</DateUtc></StartTime><FrequencyChanges><FrequencyChange><Frequency dt:dt="r8">3507675</Frequency><Timestamp dt:dt="r8">893323671460</Timestamp><Current dt:dt="r8">0</Current><DateUtc dt:dt="string">2016-09-09T21:06:41Z</DateUtc></FrequencyChange></FrequencyChanges></Clock>\n	Hungry_Donkey_bar_English_2-164-1	60.017	-20	1.0.0.18	1	-28832822	Standard	2.0.10.353	2.0.10.353	09-09-2016	9/9/2016 9:06:41 PM	17:06:41	2.0.10.248	91	Bar37-63.bmp	43	2	?	8r_4g.bmp	50r_4g.bmp	1r_2g.bmp	10r_2g.bmp		50r_4g.bmp			TrialProc	TrialList	0	cvbn	-999999	16	344897	0	v	2195	347092	266	-350	-84	2	-138	26	26	1	10	91	-8	-50	-1	-10	4	4	2	2	-50	4
Hungry_Donkey_bar_English_2	164	1	<?xml version="1.0"?>\n<Clock xmlns:dt="urn:schemas-microsoft-com:datatypes"><Description dt:dt="string">E-Prime Primary Realtime Clock</Description><StartTime><Timestamp dt:dt="int">0</Timestamp><DateUtc dt:dt="string">2016-09-09T21:06:41Z</DateUtc></StartTime><FrequencyChanges><FrequencyChange><Frequency dt:dt="r8">3507675</Frequency><Timestamp dt:dt="r8">893323671460</Timestamp><Current dt:dt="r8">0</Current><DateUtc dt:dt="string">2016-09-09T21:06:41Z</DateUtc></FrequencyChange></FrequencyChanges></Clock>\n	Hungry_Donkey_bar_English_2-164-1	60.017	-20	1.0.0.18	1	-28832822	Standard	2.0.10.353	2.0.10.353	09-09-2016	9/9/2016 9:06:41 PM	17:06:41	2.0.10.248	92	Bar37-63.bmp	43	4	?	0r_4g.bmp	0r_4g.bmp	0r_2g.bmp	0r_2g.bmp				0r_2g.bmp	TrialProc	TrialList	0	cvbn	-999999	16	349129	0	n	1274	350403	268	-350	-82	2	-138	26	28	9	10	92	0	0	0	0	4	4	2	2	0	2
Hungry_Donkey_bar_English_2	164	1	<?xml version="1.0"?>\n<Clock xmlns:dt="urn:schemas-microsoft-com:datatypes"><Description dt:dt="string">E-Prime Primary Realtime Clock</Description><StartTime><Timestamp dt:dt="int">0</Timestamp><DateUtc dt:dt="string">2016-09-09T21:06:41Z</DateUtc></StartTime><FrequencyChanges><FrequencyChange><Frequency dt:dt="r8">3507675</Frequency><Timestamp dt:dt="r8">893323671460</Timestamp><Current dt:dt="r8">0</Current><DateUtc dt:dt="string">2016-09-09T21:06:41Z</DateUtc></FrequencyChange></FrequencyChanges></Clock>\n	Hungry_Donkey_bar_English_2-164-1	60.017	-20	1.0.0.18	1	-28832822	Standard	2.0.10.353	2.0.10.353	09-09-2016	9/9/2016 9:06:41 PM	17:06:41	2.0.10.248	93	Bar50-50.bmp	44	4	?	10r_4g.bmp	0r_4g.bmp	2r_2g.bmp	0r_2g.bmp				0r_2g.bmp	TrialProc	TrialList	0	cvbn	-999999	16	352428	0	n	2759	355187	270	-350	-80	2	-138	26	30	4	10	93	-10	0	-2	0	4	4	2	2	0	2
Hungry_Donkey_bar_English_2	164	1	<?xml version="1.0"?>\n<Clock xmlns:dt="urn:schemas-microsoft-com:datatypes"><Description dt:dt="string">E-Prime Primary Realtime Clock</Description><StartTime><Timestamp dt:dt="int">0</Timestamp><DateUtc dt:dt="string">2016-09-09T21:06:41Z</DateUtc></StartTime><FrequencyChanges><FrequencyChange><Frequency dt:dt="r8">3507675</Frequency><Timestamp dt:dt="r8">893323671460</Timestamp><Current dt:dt="r8">0</Current><DateUtc dt:dt="string">2016-09-09T21:06:41Z</DateUtc></FrequencyChange></FrequencyChanges></Clock>\n	Hungry_Donkey_bar_English_2-164-1	60.017	-20	1.0.0.18	1	-28832822	Standard	2.0.10.353	2.0.10.353	09-09-2016	9/9/2016 9:06:41 PM	17:06:41	2.0.10.248	94	Bar50-50.bmp	44	2	?	0r_4g.bmp	0r_4g.bmp	0r_2g.bmp	0r_2g.bmp		0r_4g.bmp			TrialProc	TrialList	0	cvbn	-999999	16	357227	0	v	1096	358323	274	-350	-76	2	-134	26	30	6	10	94	0	0	0	0	4	4	2	2	0	4
Hungry_Donkey_bar_English_2	164	1	<?xml version="1.0"?>\n<Clock xmlns:dt="urn:schemas-microsoft-com:datatypes"><Description dt:dt="string">E-Prime Primary Realtime Clock</Description><StartTime><Timestamp dt:dt="int">0</Timestamp><DateUtc dt:dt="string">2016-09-09T21:06:41Z</DateUtc></StartTime><FrequencyChanges><FrequencyChange><Frequency dt:dt="r8">3507675</Frequency><Timestamp dt:dt="r8">893323671460</Timestamp><Current dt:dt="r8">0</Current><DateUtc dt:dt="string">2016-09-09T21:06:41Z</DateUtc></FrequencyChange></FrequencyChanges></Clock>\n	Hungry_Donkey_bar_English_2-164-1	60.017	-20	1.0.0.18	1	-28832822	Standard	2.0.10.353	2.0.10.353	09-09-2016	9/9/2016 9:06:41 PM	17:06:41	2.0.10.248	95	Bar50-50.bmp	44	1	?	10r_4g.bmp	0r_4g.bmp	2r_2g.bmp	0r_2g.bmp	10r_4g.bmp				TrialProc	TrialList	0	cvbn	-999999	16	360359	0	c	1084	361443	278	-360	-82	-4	-134	26	30	2	10	95	-10	0	-2	0	4	4	2	2	-10	4
Hungry_Donkey_bar_English_2	164	1	<?xml version="1.0"?>\n<Clock xmlns:dt="urn:schemas-microsoft-com:datatypes"><Description dt:dt="string">E-Prime Primary Realtime Clock</Description><StartTime><Timestamp dt:dt="int">0</Timestamp><DateUtc dt:dt="string">2016-09-09T21:06:41Z</DateUtc></StartTime><FrequencyChanges><FrequencyChange><Frequency dt:dt="r8">3507675</Frequency><Timestamp dt:dt="r8">893323671460</Timestamp><Current dt:dt="r8">0</Current><DateUtc dt:dt="string">2016-09-09T21:06:41Z</DateUtc></FrequencyChange></FrequencyChanges></Clock>\n	Hungry_Donkey_bar_English_2-164-1	60.017	-20	1.0.0.18	1	-28832822	Standard	2.0.10.353	2.0.10.353	09-09-2016	9/9/2016 9:06:41 PM	17:06:41	2.0.10.248	96	Bar50-50.bmp	44	3	?	0r_4g.bmp	0r_4g.bmp	0r_2g.bmp	0r_2g.bmp			0r_2g.bmp		TrialProc	TrialList	0	cvbn	-999999	16	363475	0	b	1376	364851	280	-360	-80	-4	-134	28	30	10	10	96	0	0	0	0	4	4	2	2	0	2
Hungry_Donkey_bar_English_2	164	1	<?xml version="1.0"?>\n<Clock xmlns:dt="urn:schemas-microsoft-com:datatypes"><Description dt:dt="string">E-Prime Primary Realtime Clock</Description><StartTime><Timestamp dt:dt="int">0</Timestamp><DateUtc dt:dt="string">2016-09-09T21:06:41Z</DateUtc></StartTime><FrequencyChanges><FrequencyChange><Frequency dt:dt="r8">3507675</Frequency><Timestamp dt:dt="r8">893323671460</Timestamp><Current dt:dt="r8">0</Current><DateUtc dt:dt="string">2016-09-09T21:06:41Z</DateUtc></FrequencyChange></FrequencyChanges></Clock>\n	Hungry_Donkey_bar_English_2-164-1	60.017	-20	1.0.0.18	1	-28832822	Standard	2.0.10.353	2.0.10.353	09-09-2016	9/9/2016 9:06:41 PM	17:06:41	2.0.10.248	97	Bar50-50.bmp	44	2	?	0r_4g.bmp	0r_4g.bmp	0r_2g.bmp	0r_2g.bmp		0r_4g.bmp			TrialProc	TrialList	0	cvbn	-999999	16	366874	0	v	361	367235	284	-360	-76	-4	-130	28	30	8	10	97	0	0	0	0	4	4	2	2	0	4
Hungry_Donkey_bar_English_2	164	1	<?xml version="1.0"?>\n<Clock xmlns:dt="urn:schemas-microsoft-com:datatypes"><Description dt:dt="string">E-Prime Primary Realtime Clock</Description><StartTime><Timestamp dt:dt="int">0</Timestamp><DateUtc dt:dt="string">2016-09-09T21:06:41Z</DateUtc></StartTime><FrequencyChanges><FrequencyChange><Frequency dt:dt="r8">3507675</Frequency><Timestamp dt:dt="r8">893323671460</Timestamp><Current dt:dt="r8">0</Current><DateUtc dt:dt="string">2016-09-09T21:06:41Z</DateUtc></FrequencyChange></FrequencyChanges></Clock>\n	Hungry_Donkey_bar_English_2-164-1	60.017	-20	1.0.0.18	1	-28832822	Standard	2.0.10.353	2.0.10.353	09-09-2016	9/9/2016 9:06:41 PM	17:06:41	2.0.10.248	98	Bar50-50.bmp	44	4	?	10r_4g.bmp	0r_4g.bmp	2r_2g.bmp	0r_2g.bmp				0r_2g.bmp	TrialProc	TrialList	0	cvbn	-999999	16	369273	0	n	2521	371794	286	-360	-74	-4	-130	28	32	3	10	98	-10	0	-2	0	4	4	2	2	0	2
Hungry_Donkey_bar_English_2	164	1	<?xml version="1.0"?>\n<Clock xmlns:dt="urn:schemas-microsoft-com:datatypes"><Description dt:dt="string">E-Prime Primary Realtime Clock</Description><StartTime><Timestamp dt:dt="int">0</Timestamp><DateUtc dt:dt="string">2016-09-09T21:06:41Z</DateUtc></StartTime><FrequencyChanges><FrequencyChange><Frequency dt:dt="r8">3507675</Frequency><Timestamp dt:dt="r8">893323671460</Timestamp><Current dt:dt="r8">0</Current><DateUtc dt:dt="string">2016-09-09T21:06:41Z</DateUtc></FrequencyChange></FrequencyChanges></Clock>\n	Hungry_Donkey_bar_English_2-164-1	60.017	-20	1.0.0.18	1	-28832822	Standard	2.0.10.353	2.0.10.353	09-09-2016	9/9/2016 9:06:41 PM	17:06:41	2.0.10.248	99	Bar50-50.bmp	44	3	?	0r_4g.bmp	0r_4g.bmp	0r_2g.bmp	0r_2g.bmp			0r_2g.bmp		TrialProc	TrialList	0	cvbn	-999999	16	373822	0	b	212	374034	288	-360	-72	-4	-130	30	32	7	10	99	0	0	0	0	4	4	2	2	0	2
Hungry_Donkey_bar_English_2	164	1	<?xml version="1.0"?>\n<Clock xmlns:dt="urn:schemas-microsoft-com:datatypes"><Description dt:dt="string">E-Prime Primary Realtime Clock</Description><StartTime><Timestamp dt:dt="int">0</Timestamp><DateUtc dt:dt="string">2016-09-09T21:06:41Z</DateUtc></StartTime><FrequencyChanges><FrequencyChange><Frequency dt:dt="r8">3507675</Frequency><Timestamp dt:dt="r8">893323671460</Timestamp><Current dt:dt="r8">0</Current><DateUtc dt:dt="string">2016-09-09T21:06:41Z</DateUtc></FrequencyChange></FrequencyChanges></Clock>\n	Hungry_Donkey_bar_English_2-164-1	60.017	-20	1.0.0.18	1	-28832822	Standard	2.0.10.353	2.0.10.353	09-09-2016	9/9/2016 9:06:41 PM	17:06:41	2.0.10.248	100	Bar50-50.bmp	45	2	?	12r_4g.bmp	0r_4g.bmp	3r_2g.bmp	0r_2g.bmp		0r_4g.bmp			TrialProc	TrialList	0	cvbn	-999999	16	376071	0	v	379	376450	292	-360	-68	-4	-126	30	32	5	10	100	-12	0	-3	0	4	4	2	2	0	4
Hungry_Donkey_bar_English_2	164	1	<?xml version="1.0"?>\n<Clock xmlns:dt="urn:schemas-microsoft-com:datatypes"><Description dt:dt="string">E-Prime Primary Realtime Clock</Description><StartTime><Timestamp dt:dt="int">0</Timestamp><DateUtc dt:dt="string">2016-09-09T21:06:41Z</DateUtc></StartTime><FrequencyChanges><FrequencyChange><Frequency dt:dt="r8">3507675</Frequency><Timestamp dt:dt="r8">893323671460</Timestamp><Current dt:dt="r8">0</Current><DateUtc dt:dt="string">2016-09-09T21:06:41Z</DateUtc></FrequencyChange></FrequencyChanges></Clock>\n	Hungry_Donkey_bar_English_2-164-1	60.017	-20	1.0.0.18	1	-28832822	Standard	2.0.10.353	2.0.10.353	09-09-2016	9/9/2016 9:06:41 PM	17:06:41	2.0.10.248	101	Bar50-50.bmp	45	2	?	0r_4g.bmp	0r_4g.bmp	0r_2g.bmp	0r_2g.bmp		0r_4g.bmp			TrialProc	TrialList	0	cvbn	-999999	16	378487	0	v	1163	379650	296	-360	-64	-4	-122	30	32	6	11	101	0	0	0	0	4	4	2	2	0	4
Hungry_Donkey_bar_English_2	164	1	<?xml version="1.0"?>\n<Clock xmlns:dt="urn:schemas-microsoft-com:datatypes"><Description dt:dt="string">E-Prime Primary Realtime Clock</Description><StartTime><Timestamp dt:dt="int">0</Timestamp><DateUtc dt:dt="string">2016-09-09T21:06:41Z</DateUtc></StartTime><FrequencyChanges><FrequencyChange><Frequency dt:dt="r8">3507675</Frequency><Timestamp dt:dt="r8">893323671460</Timestamp><Current dt:dt="r8">0</Current><DateUtc dt:dt="string">2016-09-09T21:06:41Z</DateUtc></FrequencyChange></FrequencyChanges></Clock>\n	Hungry_Donkey_bar_English_2-164-1	60.017	-20	1.0.0.18	1	-28832822	Standard	2.0.10.353	2.0.10.353	09-09-2016	9/9/2016 9:06:41 PM	17:06:41	2.0.10.248	102	Bar50-50.bmp	45	3	?	0r_4g.bmp	0r_4g.bmp	0r_2g.bmp	0r_2g.bmp			0r_2g.bmp		TrialProc	TrialList	0	cvbn	-999999	16	381686	0	b	396	382082	298	-360	-62	-4	-122	32	32	7	11	102	0	0	0	0	4	4	2	2	0	2
Hungry_Donkey_bar_English_2	164	1	<?xml version="1.0"?>\n<Clock xmlns:dt="urn:schemas-microsoft-com:datatypes"><Description dt:dt="string">E-Prime Primary Realtime Clock</Description><StartTime><Timestamp dt:dt="int">0</Timestamp><DateUtc dt:dt="string">2016-09-09T21:06:41Z</DateUtc></StartTime><FrequencyChanges><FrequencyChange><Frequency dt:dt="r8">3507675</Frequency><Timestamp dt:dt="r8">893323671460</Timestamp><Current dt:dt="r8">0</Current><DateUtc dt:dt="string">2016-09-09T21:06:41Z</DateUtc></FrequencyChange></FrequencyChanges></Clock>\n	Hungry_Donkey_bar_English_2-164-1	60.017	-20	1.0.0.18	1	-28832822	Standard	2.0.10.353	2.0.10.353	09-09-2016	9/9/2016 9:06:41 PM	17:06:41	2.0.10.248	103	Bar50-50.bmp	46	2	?	0r_4g.bmp	0r_4g.bmp	0r_2g.bmp	0r_2g.bmp		0r_4g.bmp			TrialProc	TrialList	0	cvbn	-999999	16	384119	0	v	2619	386738	302	-360	-58	-4	-118	32	32	9	11	103	0	0	0	0	4	4	2	2	0	4
Hungry_Donkey_bar_English_2	164	1	<?xml version="1.0"?>\n<Clock xmlns:dt="urn:schemas-microsoft-com:datatypes"><Description dt:dt="string">E-Prime Primary Realtime Clock</Description><StartTime><Timestamp dt:dt="int">0</Timestamp><DateUtc dt:dt="string">2016-09-09T21:06:41Z</DateUtc></StartTime><FrequencyChanges><FrequencyChange><Frequency dt:dt="r8">3507675</Frequency><Timestamp dt:dt="r8">893323671460</Timestamp><Current dt:dt="r8">0</Current><DateUtc dt:dt="string">2016-09-09T21:06:41Z</DateUtc></FrequencyChange></FrequencyChanges></Clock>\n	Hungry_Donkey_bar_English_2-164-1	60.017	-20	1.0.0.18	1	-28832822	Standard	2.0.10.353	2.0.10.353	09-09-2016	9/9/2016 9:06:41 PM	17:06:41	2.0.10.248	104	Bar50-50.bmp	46	3	?	10r_4g.bmp	0r_4g.bmp	2r_2g.bmp	0r_2g.bmp			2r_2g.bmp		TrialProc	TrialList	0	cvbn	-999999	16	388768	0	b	1250	390018	304	-362	-58	-4	-118	32	32	3	11	104	-10	0	-2	0	4	4	2	2	-2	2
Hungry_Donkey_bar_English_2	164	1	<?xml version="1.0"?>\n<Clock xmlns:dt="urn:schemas-microsoft-com:datatypes"><Description dt:dt="string">E-Prime Primary Realtime Clock</Description><StartTime><Timestamp dt:dt="int">0</Timestamp><DateUtc dt:dt="string">2016-09-09T21:06:41Z</DateUtc></StartTime><FrequencyChanges><FrequencyChange><Frequency dt:dt="r8">3507675</Frequency><Timestamp dt:dt="r8">893323671460</Timestamp><Current dt:dt="r8">0</Current><DateUtc dt:dt="string">2016-09-09T21:06:41Z</DateUtc></FrequencyChange></FrequencyChanges></Clock>\n	Hungry_Donkey_bar_English_2-164-1	60.017	-20	1.0.0.18	1	-28832822	Standard	2.0.10.353	2.0.10.353	09-09-2016	9/9/2016 9:06:41 PM	17:06:41	2.0.10.248	105	Bar50-50.bmp	46	4	?	0r_4g.bmp	0r_4g.bmp	0r_2g.bmp	0r_2g.bmp				0r_2g.bmp	TrialProc	TrialList	0	cvbn	-999999	16	392050	0	n	2127	394177	306	-362	-56	-4	-118	32	34	10	11	105	0	0	0	0	4	4	2	2	0	2
Hungry_Donkey_bar_English_2	164	1	<?xml version="1.0"?>\n<Clock xmlns:dt="urn:schemas-microsoft-com:datatypes"><Description dt:dt="string">E-Prime Primary Realtime Clock</Description><StartTime><Timestamp dt:dt="int">0</Timestamp><DateUtc dt:dt="string">2016-09-09T21:06:41Z</DateUtc></StartTime><FrequencyChanges><FrequencyChange><Frequency dt:dt="r8">3507675</Frequency><Timestamp dt:dt="r8">893323671460</Timestamp><Current dt:dt="r8">0</Current><DateUtc dt:dt="string">2016-09-09T21:06:41Z</DateUtc></FrequencyChange></FrequencyChanges></Clock>\n	Hungry_Donkey_bar_English_2-164-1	60.017	-20	1.0.0.18	1	-28832822	Standard	2.0.10.353	2.0.10.353	09-09-2016	9/9/2016 9:06:41 PM	17:06:41	2.0.10.248	106	Bar50-50.bmp	45	1	?	12r_4g.bmp	0r_4g.bmp	3r_2g.bmp	0r_2g.bmp	12r_4g.bmp				TrialProc	TrialList	0	cvbn	-999999	16	396216	0	c	1257	397473	310	-374	-64	-12	-118	32	34	5	11	106	-12	0	-3	0	4	4	2	2	-12	4
Hungry_Donkey_bar_English_2	164	1	<?xml version="1.0"?>\n<Clock xmlns:dt="urn:schemas-microsoft-com:datatypes"><Description dt:dt="string">E-Prime Primary Realtime Clock</Description><StartTime><Timestamp dt:dt="int">0</Timestamp><DateUtc dt:dt="string">2016-09-09T21:06:41Z</DateUtc></StartTime><FrequencyChanges><FrequencyChange><Frequency dt:dt="r8">3507675</Frequency><Timestamp dt:dt="r8">893323671460</Timestamp><Current dt:dt="r8">0</Current><DateUtc dt:dt="string">2016-09-09T21:06:41Z</DateUtc></FrequencyChange></FrequencyChanges></Clock>\n	Hungry_Donkey_bar_English_2-164-1	60.017	-20	1.0.0.18	1	-28832822	Standard	2.0.10.353	2.0.10.353	09-09-2016	9/9/2016 9:06:41 PM	17:06:41	2.0.10.248	107	Bar50-50.bmp	45	3	?	8r_4g.bmp	50r_4g.bmp	1r_2g.bmp	10r_2g.bmp			1r_2g.bmp		TrialProc	TrialList	0	cvbn	-999999	16	399498	0	b	1223	400721	312	-375	-63	-12	-118	33	34	1	11	107	-8	-50	-1	-10	4	4	2	2	-1	2
Hungry_Donkey_bar_English_2	164	1	<?xml version="1.0"?>\n<Clock xmlns:dt="urn:schemas-microsoft-com:datatypes"><Description dt:dt="string">E-Prime Primary Realtime Clock</Description><StartTime><Timestamp dt:dt="int">0</Timestamp><DateUtc dt:dt="string">2016-09-09T21:06:41Z</DateUtc></StartTime><FrequencyChanges><FrequencyChange><Frequency dt:dt="r8">3507675</Frequency><Timestamp dt:dt="r8">893323671460</Timestamp><Current dt:dt="r8">0</Current><DateUtc dt:dt="string">2016-09-09T21:06:41Z</DateUtc></FrequencyChange></FrequencyChanges></Clock>\n	Hungry_Donkey_bar_English_2-164-1	60.017	-20	1.0.0.18	1	-28832822	Standard	2.0.10.353	2.0.10.353	09-09-2016	9/9/2016 9:06:41 PM	17:06:41	2.0.10.248	108	Bar50-50.bmp	46	2	?	10r_4g.bmp	0r_4g.bmp	2r_2g.bmp	0r_2g.bmp		0r_4g.bmp			TrialProc	TrialList	0	cvbn	-999999	15	402747	0	v	230	402977	316	-375	-59	-12	-114	33	34	4	11	108	-10	0	-2	0	4	4	2	2	0	4
Hungry_Donkey_bar_English_2	164	1	<?xml version="1.0"?>\n<Clock xmlns:dt="urn:schemas-microsoft-com:datatypes"><Description dt:dt="string">E-Prime Primary Realtime Clock</Description><StartTime><Timestamp dt:dt="int">0</Timestamp><DateUtc dt:dt="string">2016-09-09T21:06:41Z</DateUtc></StartTime><FrequencyChanges><FrequencyChange><Frequency dt:dt="r8">3507675</Frequency><Timestamp dt:dt="r8">893323671460</Timestamp><Current dt:dt="r8">0</Current><DateUtc dt:dt="string">2016-09-09T21:06:41Z</DateUtc></FrequencyChange></FrequencyChanges></Clock>\n	Hungry_Donkey_bar_English_2-164-1	60.017	-20	1.0.0.18	1	-28832822	Standard	2.0.10.353	2.0.10.353	09-09-2016	9/9/2016 9:06:41 PM	17:06:41	2.0.10.248	109	Bar50-50.bmp	46	2	?	0r_4g.bmp	0r_4g.bmp	0r_2g.bmp	0r_2g.bmp		0r_4g.bmp			TrialProc	TrialList	0	cvbn	-999999	16	405013	0	v	1580	406593	320	-375	-55	-12	-110	33	34	8	11	109	0	0	0	0	4	4	2	2	0	4
Hungry_Donkey_bar_English_2	164	1	<?xml version="1.0"?>\n<Clock xmlns:dt="urn:schemas-microsoft-com:datatypes"><Description dt:dt="string">E-Prime Primary Realtime Clock</Description><StartTime><Timestamp dt:dt="int">0</Timestamp><DateUtc dt:dt="string">2016-09-09T21:06:41Z</DateUtc></StartTime><FrequencyChanges><FrequencyChange><Frequency dt:dt="r8">3507675</Frequency><Timestamp dt:dt="r8">893323671460</Timestamp><Current dt:dt="r8">0</Current><DateUtc dt:dt="string">2016-09-09T21:06:41Z</DateUtc></FrequencyChange></FrequencyChanges></Clock>\n	Hungry_Donkey_bar_English_2-164-1	60.017	-20	1.0.0.18	1	-28832822	Standard	2.0.10.353	2.0.10.353	09-09-2016	9/9/2016 9:06:41 PM	17:06:41	2.0.10.248	110	Bar50-50.bmp	46	4	?	10r_4g.bmp	0r_4g.bmp	2r_2g.bmp	0r_2g.bmp				0r_2g.bmp	TrialProc	TrialList	0	cvbn	-999999	16	408629	0	n	1548	410177	322	-375	-53	-12	-110	33	36	2	11	110	-10	0	-2	0	4	4	2	2	0	2
Hungry_Donkey_bar_English_2	164	1	<?xml version="1.0"?>\n<Clock xmlns:dt="urn:schemas-microsoft-com:datatypes"><Description dt:dt="string">E-Prime Primary Realtime Clock</Description><StartTime><Timestamp dt:dt="int">0</Timestamp><DateUtc dt:dt="string">2016-09-09T21:06:41Z</DateUtc></StartTime><FrequencyChanges><FrequencyChange><Frequency dt:dt="r8">3507675</Frequency><Timestamp dt:dt="r8">893323671460</Timestamp><Current dt:dt="r8">0</Current><DateUtc dt:dt="string">2016-09-09T21:06:41Z</DateUtc></FrequencyChange></FrequencyChanges></Clock>\n	Hungry_Donkey_bar_English_2-164-1	60.017	-20	1.0.0.18	1	-28832822	Standard	2.0.10.353	2.0.10.353	09-09-2016	9/9/2016 9:06:41 PM	17:06:41	2.0.10.248	111	Bar50-50.bmp	46	3	?	12r_4g.bmp	0r_4g.bmp	3r_2g.bmp	0r_2g.bmp			3r_2g.bmp		TrialProc	TrialList	0	cvbn	-999999	16	412211	0	b	1325	413536	324	-378	-54	-12	-110	32	36	5	12	111	-12	0	-3	0	4	4	2	2	-3	2
