ExperimentName	Subject	Session	Clock.Information	DataFile.Basename	Display.RefreshRate	Eindtotaal[Session]	ExperimentVersion	Group	RandomSeed	RuntimeCapabilities	RuntimeVersion	RuntimeVersionExpected	SessionDate	SessionStartDateTimeUtc	SessionTime	StudioVersion	Block	BarImage	BarTotalWinst	DoorChoice	Eindtotaal[Block]	FBDoor1	FBDoor2	FBDoor3	FBDoor4	Image1	Image2	Image3	Image4	Procedure	Running	spel.ACC	spel.CRESP	spel.DurationError	spel.OnsetDelay	spel.OnsetTime	spel.OnsetToOnsetTime	spel.RESP	spel.RT	spel.RTTime	TotalGain	TotalLose	Totalsum	TotalsumD1	TotalsumD2	TotalsumD3	TotalsumD4	TrialList	TrialList.Cycle	TrialList.Sample	varV1	varV2	varV3	varV4	varW1	varW2	varW3	varW4	Verliesbedrag	Winstbedrag
Hungry_Donkey_bar_English_2	158	1	<?xml version="1.0"?>\n<Clock xmlns:dt="urn:schemas-microsoft-com:datatypes"><Description dt:dt="string">E-Prime Primary Realtime Clock</Description><StartTime><Timestamp dt:dt="int">0</Timestamp><DateUtc dt:dt="string">2016-07-20T21:04:40Z</DateUtc></StartTime><FrequencyChanges><FrequencyChange><Frequency dt:dt="r8">3507675</Frequency><Timestamp dt:dt="r8">238002756646</Timestamp><Current dt:dt="r8">0</Current><DateUtc dt:dt="string">2016-07-20T21:04:40Z</DateUtc></FrequencyChange></FrequencyChanges></Clock>\n	Hungry_Donkey_bar_English_2-158-1	60.017	-46	1.0.0.18	1	1780223140	Standard	2.0.10.353	2.0.10.353	07-20-2016	7/20/2016 9:04:40 PM	17:04:40	2.0.10.248	1	Bar100-0.bmp	100	2	?	10r_4g.bmp	0r_4g.bmp	2r_2g.bmp	0r_2g.bmp		0r_4g.bmp			TrialProc	TrialList	0	cvbn	-999999	22	65174	0	v	17513	82687	4	0	4	0	4	0	0	2	1	1	-10	0	-2	0	4	4	2	2	0	4
Hungry_Donkey_bar_English_2	158	1	<?xml version="1.0"?>\n<Clock xmlns:dt="urn:schemas-microsoft-com:datatypes"><Description dt:dt="string">E-Prime Primary Realtime Clock</Description><StartTime><Timestamp dt:dt="int">0</Timestamp><DateUtc dt:dt="string">2016-07-20T21:04:40Z</DateUtc></StartTime><FrequencyChanges><FrequencyChange><Frequency dt:dt="r8">3507675</Frequency><Timestamp dt:dt="r8">238002756646</Timestamp><Current dt:dt="r8">0</Current><DateUtc dt:dt="string">2016-07-20T21:04:40Z</DateUtc></FrequencyChange></FrequencyChanges></Clock>\n	Hungry_Donkey_bar_English_2-158-1	60.017	-46	1.0.0.18	1	1780223140	Standard	2.0.10.353	2.0.10.353	07-20-2016	7/20/2016 9:04:40 PM	17:04:40	2.0.10.248	2	Bar100-0.bmp	100	3	?	0r_4g.bmp	0r_4g.bmp	0r_2g.bmp	0r_2g.bmp			0r_2g.bmp		TrialProc	TrialList	0	cvbn	-999999	16	84735	0	b	2816	87551	6	0	6	0	4	2	0	8	1	2	0	0	0	0	4	4	2	2	0	2
Hungry_Donkey_bar_English_2	158	1	<?xml version="1.0"?>\n<Clock xmlns:dt="urn:schemas-microsoft-com:datatypes"><Description dt:dt="string">E-Prime Primary Realtime Clock</Description><StartTime><Timestamp dt:dt="int">0</Timestamp><DateUtc dt:dt="string">2016-07-20T21:04:40Z</DateUtc></StartTime><FrequencyChanges><FrequencyChange><Frequency dt:dt="r8">3507675</Frequency><Timestamp dt:dt="r8">238002756646</Timestamp><Current dt:dt="r8">0</Current><DateUtc dt:dt="string">2016-07-20T21:04:40Z</DateUtc></FrequencyChange></FrequencyChanges></Clock>\n	Hungry_Donkey_bar_English_2-158-1	60.017	-46	1.0.0.18	1	1780223140	Standard	2.0.10.353	2.0.10.353	07-20-2016	7/20/2016 9:04:40 PM	17:04:40	2.0.10.248	3	Bar50-50.bmp	50	1	?	10r_4g.bmp	0r_4g.bmp	2r_2g.bmp	0r_2g.bmp	10r_4g.bmp				TrialProc	TrialList	0	cvbn	-999999	16	89583	0	c	1663	91246	10	-10	0	-6	4	2	0	4	1	3	-10	0	-2	0	4	4	2	2	-10	4
Hungry_Donkey_bar_English_2	158	1	<?xml version="1.0"?>\n<Clock xmlns:dt="urn:schemas-microsoft-com:datatypes"><Description dt:dt="string">E-Prime Primary Realtime Clock</Description><StartTime><Timestamp dt:dt="int">0</Timestamp><DateUtc dt:dt="string">2016-07-20T21:04:40Z</DateUtc></StartTime><FrequencyChanges><FrequencyChange><Frequency dt:dt="r8">3507675</Frequency><Timestamp dt:dt="r8">238002756646</Timestamp><Current dt:dt="r8">0</Current><DateUtc dt:dt="string">2016-07-20T21:04:40Z</DateUtc></FrequencyChange></FrequencyChanges></Clock>\n	Hungry_Donkey_bar_English_2-158-1	60.017	-46	1.0.0.18	1	1780223140	Standard	2.0.10.353	2.0.10.353	07-20-2016	7/20/2016 9:04:40 PM	17:04:40	2.0.10.248	4	Bar50-50.bmp	55	4	?	10r_4g.bmp	0r_4g.bmp	2r_2g.bmp	0r_2g.bmp				0r_2g.bmp	TrialProc	TrialList	0	cvbn	-999999	16	93282	0	n	2668	95950	12	-10	2	-6	4	2	2	3	1	4	-10	0	-2	0	4	4	2	2	0	2
Hungry_Donkey_bar_English_2	158	1	<?xml version="1.0"?>\n<Clock xmlns:dt="urn:schemas-microsoft-com:datatypes"><Description dt:dt="string">E-Prime Primary Realtime Clock</Description><StartTime><Timestamp dt:dt="int">0</Timestamp><DateUtc dt:dt="string">2016-07-20T21:04:40Z</DateUtc></StartTime><FrequencyChanges><FrequencyChange><Frequency dt:dt="r8">3507675</Frequency><Timestamp dt:dt="r8">238002756646</Timestamp><Current dt:dt="r8">0</Current><DateUtc dt:dt="string">2016-07-20T21:04:40Z</DateUtc></FrequencyChange></FrequencyChanges></Clock>\n	Hungry_Donkey_bar_English_2-158-1	60.017	-46	1.0.0.18	1	1780223140	Standard	2.0.10.353	2.0.10.353	07-20-2016	7/20/2016 9:04:40 PM	17:04:40	2.0.10.248	5	Bar63-37.bmp	62	2	?	0r_4g.bmp	0r_4g.bmp	0r_2g.bmp	0r_2g.bmp		0r_4g.bmp			TrialProc	TrialList	0	cvbn	-999999	16	97981	0	v	1457	99438	16	-10	6	-6	8	2	2	7	1	5	0	0	0	0	4	4	2	2	0	4
Hungry_Donkey_bar_English_2	158	1	<?xml version="1.0"?>\n<Clock xmlns:dt="urn:schemas-microsoft-com:datatypes"><Description dt:dt="string">E-Prime Primary Realtime Clock</Description><StartTime><Timestamp dt:dt="int">0</Timestamp><DateUtc dt:dt="string">2016-07-20T21:04:40Z</DateUtc></StartTime><FrequencyChanges><FrequencyChange><Frequency dt:dt="r8">3507675</Frequency><Timestamp dt:dt="r8">238002756646</Timestamp><Current dt:dt="r8">0</Current><DateUtc dt:dt="string">2016-07-20T21:04:40Z</DateUtc></FrequencyChange></FrequencyChanges></Clock>\n	Hungry_Donkey_bar_English_2-158-1	60.017	-46	1.0.0.18	1	1780223140	Standard	2.0.10.353	2.0.10.353	07-20-2016	7/20/2016 9:04:40 PM	17:04:40	2.0.10.248	6	Bar63-37.bmp	67	2	?	0r_4g.bmp	0r_4g.bmp	0r_2g.bmp	0r_2g.bmp		0r_4g.bmp			TrialProc	TrialList	0	cvbn	-999999	16	101480	0	v	1174	102654	20	-10	10	-6	12	2	2	10	1	6	0	0	0	0	4	4	2	2	0	4
Hungry_Donkey_bar_English_2	158	1	<?xml version="1.0"?>\n<Clock xmlns:dt="urn:schemas-microsoft-com:datatypes"><Description dt:dt="string">E-Prime Primary Realtime Clock</Description><StartTime><Timestamp dt:dt="int">0</Timestamp><DateUtc dt:dt="string">2016-07-20T21:04:40Z</DateUtc></StartTime><FrequencyChanges><FrequencyChange><Frequency dt:dt="r8">3507675</Frequency><Timestamp dt:dt="r8">238002756646</Timestamp><Current dt:dt="r8">0</Current><DateUtc dt:dt="string">2016-07-20T21:04:40Z</DateUtc></FrequencyChange></FrequencyChanges></Clock>\n	Hungry_Donkey_bar_English_2-158-1	60.017	-46	1.0.0.18	1	1780223140	Standard	2.0.10.353	2.0.10.353	07-20-2016	7/20/2016 9:04:40 PM	17:04:40	2.0.10.248	7	Bar75-25.bmp	71	2	?	0r_4g.bmp	0r_4g.bmp	0r_2g.bmp	0r_2g.bmp		0r_4g.bmp			TrialProc	TrialList	0	cvbn	-999999	16	104679	0	v	9334	114013	24	-10	14	-6	16	2	2	9	1	7	0	0	0	0	4	4	2	2	0	4
Hungry_Donkey_bar_English_2	158	1	<?xml version="1.0"?>\n<Clock xmlns:dt="urn:schemas-microsoft-com:datatypes"><Description dt:dt="string">E-Prime Primary Realtime Clock</Description><StartTime><Timestamp dt:dt="int">0</Timestamp><DateUtc dt:dt="string">2016-07-20T21:04:40Z</DateUtc></StartTime><FrequencyChanges><FrequencyChange><Frequency dt:dt="r8">3507675</Frequency><Timestamp dt:dt="r8">238002756646</Timestamp><Current dt:dt="r8">0</Current><DateUtc dt:dt="string">2016-07-20T21:04:40Z</DateUtc></FrequencyChange></FrequencyChanges></Clock>\n	Hungry_Donkey_bar_English_2-158-1	60.017	-46	1.0.0.18	1	1780223140	Standard	2.0.10.353	2.0.10.353	07-20-2016	7/20/2016 9:04:40 PM	17:04:40	2.0.10.248	8	Bar75-25.bmp	74	2	?	0r_4g.bmp	0r_4g.bmp	0r_2g.bmp	0r_2g.bmp		0r_4g.bmp			TrialProc	TrialList	0	cvbn	-999999	16	116059	0	v	1042	117101	28	-10	18	-6	20	2	2	6	1	8	0	0	0	0	4	4	2	2	0	4
Hungry_Donkey_bar_English_2	158	1	<?xml version="1.0"?>\n<Clock xmlns:dt="urn:schemas-microsoft-com:datatypes"><Description dt:dt="string">E-Prime Primary Realtime Clock</Description><StartTime><Timestamp dt:dt="int">0</Timestamp><DateUtc dt:dt="string">2016-07-20T21:04:40Z</DateUtc></StartTime><FrequencyChanges><FrequencyChange><Frequency dt:dt="r8">3507675</Frequency><Timestamp dt:dt="r8">238002756646</Timestamp><Current dt:dt="r8">0</Current><DateUtc dt:dt="string">2016-07-20T21:04:40Z</DateUtc></FrequencyChange></FrequencyChanges></Clock>\n	Hungry_Donkey_bar_English_2-158-1	60.017	-46	1.0.0.18	1	1780223140	Standard	2.0.10.353	2.0.10.353	07-20-2016	7/20/2016 9:04:40 PM	17:04:40	2.0.10.248	9	Bar37-63.bmp	35	2	?	8r_4g.bmp	50r_4g.bmp	1r_2g.bmp	10r_2g.bmp		50r_4g.bmp			TrialProc	TrialList	0	cvbn	-999999	15	119125	0	v	648	119773	32	-60	-28	-6	-26	2	2	1	1	9	-8	-50	-1	-10	4	4	2	2	-50	4
Hungry_Donkey_bar_English_2	158	1	<?xml version="1.0"?>\n<Clock xmlns:dt="urn:schemas-microsoft-com:datatypes"><Description dt:dt="string">E-Prime Primary Realtime Clock</Description><StartTime><Timestamp dt:dt="int">0</Timestamp><DateUtc dt:dt="string">2016-07-20T21:04:40Z</DateUtc></StartTime><FrequencyChanges><FrequencyChange><Frequency dt:dt="r8">3507675</Frequency><Timestamp dt:dt="r8">238002756646</Timestamp><Current dt:dt="r8">0</Current><DateUtc dt:dt="string">2016-07-20T21:04:40Z</DateUtc></FrequencyChange></FrequencyChanges></Clock>\n	Hungry_Donkey_bar_English_2-158-1	60.017	-46	1.0.0.18	1	1780223140	Standard	2.0.10.353	2.0.10.353	07-20-2016	7/20/2016 9:04:40 PM	17:04:40	2.0.10.248	10	Bar37-63.bmp	35	3	?	12r_4g.bmp	0r_4g.bmp	3r_2g.bmp	0r_2g.bmp			3r_2g.bmp		TrialProc	TrialList	0	cvbn	-999999	16	121824	0	b	1405	123229	34	-63	-29	-6	-26	1	2	5	1	10	-12	0	-3	0	4	4	2	2	-3	2
Hungry_Donkey_bar_English_2	158	1	<?xml version="1.0"?>\n<Clock xmlns:dt="urn:schemas-microsoft-com:datatypes"><Description dt:dt="string">E-Prime Primary Realtime Clock</Description><StartTime><Timestamp dt:dt="int">0</Timestamp><DateUtc dt:dt="string">2016-07-20T21:04:40Z</DateUtc></StartTime><FrequencyChanges><FrequencyChange><Frequency dt:dt="r8">3507675</Frequency><Timestamp dt:dt="r8">238002756646</Timestamp><Current dt:dt="r8">0</Current><DateUtc dt:dt="string">2016-07-20T21:04:40Z</DateUtc></FrequencyChange></FrequencyChanges></Clock>\n	Hungry_Donkey_bar_English_2-158-1	60.017	-46	1.0.0.18	1	1780223140	Standard	2.0.10.353	2.0.10.353	07-20-2016	7/20/2016 9:04:40 PM	17:04:40	2.0.10.248	11	Bar37-63.bmp	36	4	?	0r_4g.bmp	0r_4g.bmp	0r_2g.bmp	0r_2g.bmp				0r_2g.bmp	TrialProc	TrialList	0	cvbn	-999999	16	125273	0	n	724	125997	36	-63	-27	-6	-26	1	4	6	2	11	0	0	0	0	4	4	2	2	0	2
Hungry_Donkey_bar_English_2	158	1	<?xml version="1.0"?>\n<Clock xmlns:dt="urn:schemas-microsoft-com:datatypes"><Description dt:dt="string">E-Prime Primary Realtime Clock</Description><StartTime><Timestamp dt:dt="int">0</Timestamp><DateUtc dt:dt="string">2016-07-20T21:04:40Z</DateUtc></StartTime><FrequencyChanges><FrequencyChange><Frequency dt:dt="r8">3507675</Frequency><Timestamp dt:dt="r8">238002756646</Timestamp><Current dt:dt="r8">0</Current><DateUtc dt:dt="string">2016-07-20T21:04:40Z</DateUtc></FrequencyChange></FrequencyChanges></Clock>\n	Hungry_Donkey_bar_English_2-158-1	60.017	-46	1.0.0.18	1	1780223140	Standard	2.0.10.353	2.0.10.353	07-20-2016	7/20/2016 9:04:40 PM	17:04:40	2.0.10.248	12	Bar37-63.bmp	35	1	?	10r_4g.bmp	0r_4g.bmp	2r_2g.bmp	0r_2g.bmp	10r_4g.bmp				TrialProc	TrialList	0	cvbn	-999999	16	128039	0	c	1126	129165	40	-73	-33	-12	-26	1	4	4	2	12	-10	0	-2	0	4	4	2	2	-10	4
Hungry_Donkey_bar_English_2	158	1	<?xml version="1.0"?>\n<Clock xmlns:dt="urn:schemas-microsoft-com:datatypes"><Description dt:dt="string">E-Prime Primary Realtime Clock</Description><StartTime><Timestamp dt:dt="int">0</Timestamp><DateUtc dt:dt="string">2016-07-20T21:04:40Z</DateUtc></StartTime><FrequencyChanges><FrequencyChange><Frequency dt:dt="r8">3507675</Frequency><Timestamp dt:dt="r8">238002756646</Timestamp><Current dt:dt="r8">0</Current><DateUtc dt:dt="string">2016-07-20T21:04:40Z</DateUtc></FrequencyChange></FrequencyChanges></Clock>\n	Hungry_Donkey_bar_English_2-158-1	60.017	-46	1.0.0.18	1	1780223140	Standard	2.0.10.353	2.0.10.353	07-20-2016	7/20/2016 9:04:40 PM	17:04:40	2.0.10.248	13	Bar37-63.bmp	38	2	?	0r_4g.bmp	0r_4g.bmp	0r_2g.bmp	0r_2g.bmp		0r_4g.bmp			TrialProc	TrialList	0	cvbn	-999999	15	131188	0	v	952	132140	44	-73	-29	-12	-22	1	4	10	2	13	0	0	0	0	4	4	2	2	0	4
Hungry_Donkey_bar_English_2	158	1	<?xml version="1.0"?>\n<Clock xmlns:dt="urn:schemas-microsoft-com:datatypes"><Description dt:dt="string">E-Prime Primary Realtime Clock</Description><StartTime><Timestamp dt:dt="int">0</Timestamp><DateUtc dt:dt="string">2016-07-20T21:04:40Z</DateUtc></StartTime><FrequencyChanges><FrequencyChange><Frequency dt:dt="r8">3507675</Frequency><Timestamp dt:dt="r8">238002756646</Timestamp><Current dt:dt="r8">0</Current><DateUtc dt:dt="string">2016-07-20T21:04:40Z</DateUtc></FrequencyChange></FrequencyChanges></Clock>\n	Hungry_Donkey_bar_English_2-158-1	60.017	-46	1.0.0.18	1	1780223140	Standard	2.0.10.353	2.0.10.353	07-20-2016	7/20/2016 9:04:40 PM	17:04:40	2.0.10.248	14	Bar37-63.bmp	40	2	?	0r_4g.bmp	0r_4g.bmp	0r_2g.bmp	0r_2g.bmp		0r_4g.bmp			TrialProc	TrialList	0	cvbn	-999999	17	134171	0	v	513	134684	48	-73	-25	-12	-18	1	4	7	2	14	0	0	0	0	4	4	2	2	0	4
Hungry_Donkey_bar_English_2	158	1	<?xml version="1.0"?>\n<Clock xmlns:dt="urn:schemas-microsoft-com:datatypes"><Description dt:dt="string">E-Prime Primary Realtime Clock</Description><StartTime><Timestamp dt:dt="int">0</Timestamp><DateUtc dt:dt="string">2016-07-20T21:04:40Z</DateUtc></StartTime><FrequencyChanges><FrequencyChange><Frequency dt:dt="r8">3507675</Frequency><Timestamp dt:dt="r8">238002756646</Timestamp><Current dt:dt="r8">0</Current><DateUtc dt:dt="string">2016-07-20T21:04:40Z</DateUtc></FrequencyChange></FrequencyChanges></Clock>\n	Hungry_Donkey_bar_English_2-158-1	60.017	-46	1.0.0.18	1	1780223140	Standard	2.0.10.353	2.0.10.353	07-20-2016	7/20/2016 9:04:40 PM	17:04:40	2.0.10.248	15	Bar37-63.bmp	42	2	?	0r_4g.bmp	0r_4g.bmp	0r_2g.bmp	0r_2g.bmp		0r_4g.bmp			TrialProc	TrialList	0	cvbn	-999999	16	136720	0	v	876	137596	52	-73	-21	-12	-14	1	4	9	2	15	0	0	0	0	4	4	2	2	0	4
Hungry_Donkey_bar_English_2	158	1	<?xml version="1.0"?>\n<Clock xmlns:dt="urn:schemas-microsoft-com:datatypes"><Description dt:dt="string">E-Prime Primary Realtime Clock</Description><StartTime><Timestamp dt:dt="int">0</Timestamp><DateUtc dt:dt="string">2016-07-20T21:04:40Z</DateUtc></StartTime><FrequencyChanges><FrequencyChange><Frequency dt:dt="r8">3507675</Frequency><Timestamp dt:dt="r8">238002756646</Timestamp><Current dt:dt="r8">0</Current><DateUtc dt:dt="string">2016-07-20T21:04:40Z</DateUtc></FrequencyChange></FrequencyChanges></Clock>\n	Hungry_Donkey_bar_English_2-158-1	60.017	-46	1.0.0.18	1	1780223140	Standard	2.0.10.353	2.0.10.353	07-20-2016	7/20/2016 9:04:40 PM	17:04:40	2.0.10.248	16	Bar37-63.bmp	42	3	?	12r_4g.bmp	0r_4g.bmp	3r_2g.bmp	0r_2g.bmp			3r_2g.bmp		TrialProc	TrialList	0	cvbn	-999999	16	139636	0	b	392	140028	54	-76	-22	-12	-14	0	4	5	2	16	-12	0	-3	0	4	4	2	2	-3	2
Hungry_Donkey_bar_English_2	158	1	<?xml version="1.0"?>\n<Clock xmlns:dt="urn:schemas-microsoft-com:datatypes"><Description dt:dt="string">E-Prime Primary Realtime Clock</Description><StartTime><Timestamp dt:dt="int">0</Timestamp><DateUtc dt:dt="string">2016-07-20T21:04:40Z</DateUtc></StartTime><FrequencyChanges><FrequencyChange><Frequency dt:dt="r8">3507675</Frequency><Timestamp dt:dt="r8">238002756646</Timestamp><Current dt:dt="r8">0</Current><DateUtc dt:dt="string">2016-07-20T21:04:40Z</DateUtc></FrequencyChange></FrequencyChanges></Clock>\n	Hungry_Donkey_bar_English_2-158-1	60.017	-46	1.0.0.18	1	1780223140	Standard	2.0.10.353	2.0.10.353	07-20-2016	7/20/2016 9:04:40 PM	17:04:40	2.0.10.248	17	Bar37-63.bmp	43	2	?	0r_4g.bmp	0r_4g.bmp	0r_2g.bmp	0r_2g.bmp		0r_4g.bmp			TrialProc	TrialList	0	cvbn	-999999	16	142068	0	v	664	142732	58	-76	-18	-12	-10	0	4	8	2	17	0	0	0	0	4	4	2	2	0	4
Hungry_Donkey_bar_English_2	158	1	<?xml version="1.0"?>\n<Clock xmlns:dt="urn:schemas-microsoft-com:datatypes"><Description dt:dt="string">E-Prime Primary Realtime Clock</Description><StartTime><Timestamp dt:dt="int">0</Timestamp><DateUtc dt:dt="string">2016-07-20T21:04:40Z</DateUtc></StartTime><FrequencyChanges><FrequencyChange><Frequency dt:dt="r8">3507675</Frequency><Timestamp dt:dt="r8">238002756646</Timestamp><Current dt:dt="r8">0</Current><DateUtc dt:dt="string">2016-07-20T21:04:40Z</DateUtc></FrequencyChange></FrequencyChanges></Clock>\n	Hungry_Donkey_bar_English_2-158-1	60.017	-46	1.0.0.18	1	1780223140	Standard	2.0.10.353	2.0.10.353	07-20-2016	7/20/2016 9:04:40 PM	17:04:40	2.0.10.248	18	Bar50-50.bmp	45	2	?	10r_4g.bmp	0r_4g.bmp	2r_2g.bmp	0r_2g.bmp		0r_4g.bmp			TrialProc	TrialList	0	cvbn	-999999	17	144768	0	v	572	145340	62	-76	-14	-12	-6	0	4	2	2	18	-10	0	-2	0	4	4	2	2	0	4
Hungry_Donkey_bar_English_2	158	1	<?xml version="1.0"?>\n<Clock xmlns:dt="urn:schemas-microsoft-com:datatypes"><Description dt:dt="string">E-Prime Primary Realtime Clock</Description><StartTime><Timestamp dt:dt="int">0</Timestamp><DateUtc dt:dt="string">2016-07-20T21:04:40Z</DateUtc></StartTime><FrequencyChanges><FrequencyChange><Frequency dt:dt="r8">3507675</Frequency><Timestamp dt:dt="r8">238002756646</Timestamp><Current dt:dt="r8">0</Current><DateUtc dt:dt="string">2016-07-20T21:04:40Z</DateUtc></FrequencyChange></FrequencyChanges></Clock>\n	Hungry_Donkey_bar_English_2-158-1	60.017	-46	1.0.0.18	1	1780223140	Standard	2.0.10.353	2.0.10.353	07-20-2016	7/20/2016 9:04:40 PM	17:04:40	2.0.10.248	19	Bar50-50.bmp	46	4	?	10r_4g.bmp	0r_4g.bmp	2r_2g.bmp	0r_2g.bmp				0r_2g.bmp	TrialProc	TrialList	0	cvbn	-999999	16	147367	0	n	565	147932	64	-76	-12	-12	-6	0	6	3	2	19	-10	0	-2	0	4	4	2	2	0	2
Hungry_Donkey_bar_English_2	158	1	<?xml version="1.0"?>\n<Clock xmlns:dt="urn:schemas-microsoft-com:datatypes"><Description dt:dt="string">E-Prime Primary Realtime Clock</Description><StartTime><Timestamp dt:dt="int">0</Timestamp><DateUtc dt:dt="string">2016-07-20T21:04:40Z</DateUtc></StartTime><FrequencyChanges><FrequencyChange><Frequency dt:dt="r8">3507675</Frequency><Timestamp dt:dt="r8">238002756646</Timestamp><Current dt:dt="r8">0</Current><DateUtc dt:dt="string">2016-07-20T21:04:40Z</DateUtc></FrequencyChange></FrequencyChanges></Clock>\n	Hungry_Donkey_bar_English_2-158-1	60.017	-46	1.0.0.18	1	1780223140	Standard	2.0.10.353	2.0.10.353	07-20-2016	7/20/2016 9:04:40 PM	17:04:40	2.0.10.248	20	Bar37-63.bmp	35	2	?	8r_4g.bmp	50r_4g.bmp	1r_2g.bmp	10r_2g.bmp		50r_4g.bmp			TrialProc	TrialList	0	cvbn	-999999	16	149966	0	v	2237	152203	68	-126	-58	-12	-52	0	6	1	2	20	-8	-50	-1	-10	4	4	2	2	-50	4
Hungry_Donkey_bar_English_2	158	1	<?xml version="1.0"?>\n<Clock xmlns:dt="urn:schemas-microsoft-com:datatypes"><Description dt:dt="string">E-Prime Primary Realtime Clock</Description><StartTime><Timestamp dt:dt="int">0</Timestamp><DateUtc dt:dt="string">2016-07-20T21:04:40Z</DateUtc></StartTime><FrequencyChanges><FrequencyChange><Frequency dt:dt="r8">3507675</Frequency><Timestamp dt:dt="r8">238002756646</Timestamp><Current dt:dt="r8">0</Current><DateUtc dt:dt="string">2016-07-20T21:04:40Z</DateUtc></FrequencyChange></FrequencyChanges></Clock>\n	Hungry_Donkey_bar_English_2-158-1	60.017	-46	1.0.0.18	1	1780223140	Standard	2.0.10.353	2.0.10.353	07-20-2016	7/20/2016 9:04:40 PM	17:04:40	2.0.10.248	21	Bar37-63.bmp	36	4	?	10r_4g.bmp	0r_4g.bmp	2r_2g.bmp	0r_2g.bmp				0r_2g.bmp	TrialProc	TrialList	0	cvbn	-999999	16	154231	0	n	1428	155659	70	-126	-56	-12	-52	0	8	3	3	21	-10	0	-2	0	4	4	2	2	0	2
Hungry_Donkey_bar_English_2	158	1	<?xml version="1.0"?>\n<Clock xmlns:dt="urn:schemas-microsoft-com:datatypes"><Description dt:dt="string">E-Prime Primary Realtime Clock</Description><StartTime><Timestamp dt:dt="int">0</Timestamp><DateUtc dt:dt="string">2016-07-20T21:04:40Z</DateUtc></StartTime><FrequencyChanges><FrequencyChange><Frequency dt:dt="r8">3507675</Frequency><Timestamp dt:dt="r8">238002756646</Timestamp><Current dt:dt="r8">0</Current><DateUtc dt:dt="string">2016-07-20T21:04:40Z</DateUtc></FrequencyChange></FrequencyChanges></Clock>\n	Hungry_Donkey_bar_English_2-158-1	60.017	-46	1.0.0.18	1	1780223140	Standard	2.0.10.353	2.0.10.353	07-20-2016	7/20/2016 9:04:40 PM	17:04:40	2.0.10.248	22	Bar37-63.bmp	35	4	?	8r_4g.bmp	50r_4g.bmp	1r_2g.bmp	10r_2g.bmp				10r_2g.bmp	TrialProc	TrialList	0	cvbn	-999999	16	157697	0	n	570	158267	72	-136	-64	-12	-52	0	0	1	3	22	-8	-50	-1	-10	4	4	2	2	-10	2
Hungry_Donkey_bar_English_2	158	1	<?xml version="1.0"?>\n<Clock xmlns:dt="urn:schemas-microsoft-com:datatypes"><Description dt:dt="string">E-Prime Primary Realtime Clock</Description><StartTime><Timestamp dt:dt="int">0</Timestamp><DateUtc dt:dt="string">2016-07-20T21:04:40Z</DateUtc></StartTime><FrequencyChanges><FrequencyChange><Frequency dt:dt="r8">3507675</Frequency><Timestamp dt:dt="r8">238002756646</Timestamp><Current dt:dt="r8">0</Current><DateUtc dt:dt="string">2016-07-20T21:04:40Z</DateUtc></FrequencyChange></FrequencyChanges></Clock>\n	Hungry_Donkey_bar_English_2-158-1	60.017	-46	1.0.0.18	1	1780223140	Standard	2.0.10.353	2.0.10.353	07-20-2016	7/20/2016 9:04:40 PM	17:04:40	2.0.10.248	23	Bar37-63.bmp	36	2	?	12r_4g.bmp	0r_4g.bmp	3r_2g.bmp	0r_2g.bmp		0r_4g.bmp			TrialProc	TrialList	0	cvbn	-999999	16	160313	0	v	2114	162427	76	-136	-60	-12	-48	0	0	5	3	23	-12	0	-3	0	4	4	2	2	0	4
Hungry_Donkey_bar_English_2	158	1	<?xml version="1.0"?>\n<Clock xmlns:dt="urn:schemas-microsoft-com:datatypes"><Description dt:dt="string">E-Prime Primary Realtime Clock</Description><StartTime><Timestamp dt:dt="int">0</Timestamp><DateUtc dt:dt="string">2016-07-20T21:04:40Z</DateUtc></StartTime><FrequencyChanges><FrequencyChange><Frequency dt:dt="r8">3507675</Frequency><Timestamp dt:dt="r8">238002756646</Timestamp><Current dt:dt="r8">0</Current><DateUtc dt:dt="string">2016-07-20T21:04:40Z</DateUtc></FrequencyChange></FrequencyChanges></Clock>\n	Hungry_Donkey_bar_English_2-158-1	60.017	-46	1.0.0.18	1	1780223140	Standard	2.0.10.353	2.0.10.353	07-20-2016	7/20/2016 9:04:40 PM	17:04:40	2.0.10.248	24	Bar37-63.bmp	35	1	?	10r_4g.bmp	0r_4g.bmp	2r_2g.bmp	0r_2g.bmp	10r_4g.bmp				TrialProc	TrialList	0	cvbn	-999999	16	164462	0	c	797	165259	80	-146	-66	-18	-48	0	0	4	3	24	-10	0	-2	0	4	4	2	2	-10	4
Hungry_Donkey_bar_English_2	158	1	<?xml version="1.0"?>\n<Clock xmlns:dt="urn:schemas-microsoft-com:datatypes"><Description dt:dt="string">E-Prime Primary Realtime Clock</Description><StartTime><Timestamp dt:dt="int">0</Timestamp><DateUtc dt:dt="string">2016-07-20T21:04:40Z</DateUtc></StartTime><FrequencyChanges><FrequencyChange><Frequency dt:dt="r8">3507675</Frequency><Timestamp dt:dt="r8">238002756646</Timestamp><Current dt:dt="r8">0</Current><DateUtc dt:dt="string">2016-07-20T21:04:40Z</DateUtc></FrequencyChange></FrequencyChanges></Clock>\n	Hungry_Donkey_bar_English_2-158-1	60.017	-46	1.0.0.18	1	1780223140	Standard	2.0.10.353	2.0.10.353	07-20-2016	7/20/2016 9:04:40 PM	17:04:40	2.0.10.248	25	Bar37-63.bmp	37	2	?	10r_4g.bmp	0r_4g.bmp	2r_2g.bmp	0r_2g.bmp		0r_4g.bmp			TrialProc	TrialList	0	cvbn	-999999	16	167294	0	v	541	167835	84	-146	-62	-18	-44	0	0	2	3	25	-10	0	-2	0	4	4	2	2	0	4
Hungry_Donkey_bar_English_2	158	1	<?xml version="1.0"?>\n<Clock xmlns:dt="urn:schemas-microsoft-com:datatypes"><Description dt:dt="string">E-Prime Primary Realtime Clock</Description><StartTime><Timestamp dt:dt="int">0</Timestamp><DateUtc dt:dt="string">2016-07-20T21:04:40Z</DateUtc></StartTime><FrequencyChanges><FrequencyChange><Frequency dt:dt="r8">3507675</Frequency><Timestamp dt:dt="r8">238002756646</Timestamp><Current dt:dt="r8">0</Current><DateUtc dt:dt="string">2016-07-20T21:04:40Z</DateUtc></FrequencyChange></FrequencyChanges></Clock>\n	Hungry_Donkey_bar_English_2-158-1	60.017	-46	1.0.0.18	1	1780223140	Standard	2.0.10.353	2.0.10.353	07-20-2016	7/20/2016 9:04:40 PM	17:04:40	2.0.10.248	26	Bar37-63.bmp	38	2	?	0r_4g.bmp	0r_4g.bmp	0r_2g.bmp	0r_2g.bmp		0r_4g.bmp			TrialProc	TrialList	0	cvbn	-999999	16	169877	0	v	438	170315	88	-146	-58	-18	-40	0	0	9	3	26	0	0	0	0	4	4	2	2	0	4
Hungry_Donkey_bar_English_2	158	1	<?xml version="1.0"?>\n<Clock xmlns:dt="urn:schemas-microsoft-com:datatypes"><Description dt:dt="string">E-Prime Primary Realtime Clock</Description><StartTime><Timestamp dt:dt="int">0</Timestamp><DateUtc dt:dt="string">2016-07-20T21:04:40Z</DateUtc></StartTime><FrequencyChanges><FrequencyChange><Frequency dt:dt="r8">3507675</Frequency><Timestamp dt:dt="r8">238002756646</Timestamp><Current dt:dt="r8">0</Current><DateUtc dt:dt="string">2016-07-20T21:04:40Z</DateUtc></FrequencyChange></FrequencyChanges></Clock>\n	Hungry_Donkey_bar_English_2-158-1	60.017	-46	1.0.0.18	1	1780223140	Standard	2.0.10.353	2.0.10.353	07-20-2016	7/20/2016 9:04:40 PM	17:04:40	2.0.10.248	27	Bar37-63.bmp	38	3	?	0r_4g.bmp	0r_4g.bmp	0r_2g.bmp	0r_2g.bmp			0r_2g.bmp		TrialProc	TrialList	0	cvbn	-999999	16	172343	0	b	467	172810	90	-146	-56	-18	-40	2	0	7	3	27	0	0	0	0	4	4	2	2	0	2
Hungry_Donkey_bar_English_2	158	1	<?xml version="1.0"?>\n<Clock xmlns:dt="urn:schemas-microsoft-com:datatypes"><Description dt:dt="string">E-Prime Primary Realtime Clock</Description><StartTime><Timestamp dt:dt="int">0</Timestamp><DateUtc dt:dt="string">2016-07-20T21:04:40Z</DateUtc></StartTime><FrequencyChanges><FrequencyChange><Frequency dt:dt="r8">3507675</Frequency><Timestamp dt:dt="r8">238002756646</Timestamp><Current dt:dt="r8">0</Current><DateUtc dt:dt="string">2016-07-20T21:04:40Z</DateUtc></FrequencyChange></FrequencyChanges></Clock>\n	Hungry_Donkey_bar_English_2-158-1	60.017	-46	1.0.0.18	1	1780223140	Standard	2.0.10.353	2.0.10.353	07-20-2016	7/20/2016 9:04:40 PM	17:04:40	2.0.10.248	28	Bar37-63.bmp	39	3	?	0r_4g.bmp	0r_4g.bmp	0r_2g.bmp	0r_2g.bmp			0r_2g.bmp		TrialProc	TrialList	0	cvbn	-999999	16	174842	0	b	992	175834	92	-146	-54	-18	-40	4	0	6	3	28	0	0	0	0	4	4	2	2	0	2
Hungry_Donkey_bar_English_2	158	1	<?xml version="1.0"?>\n<Clock xmlns:dt="urn:schemas-microsoft-com:datatypes"><Description dt:dt="string">E-Prime Primary Realtime Clock</Description><StartTime><Timestamp dt:dt="int">0</Timestamp><DateUtc dt:dt="string">2016-07-20T21:04:40Z</DateUtc></StartTime><FrequencyChanges><FrequencyChange><Frequency dt:dt="r8">3507675</Frequency><Timestamp dt:dt="r8">238002756646</Timestamp><Current dt:dt="r8">0</Current><DateUtc dt:dt="string">2016-07-20T21:04:40Z</DateUtc></FrequencyChange></FrequencyChanges></Clock>\n	Hungry_Donkey_bar_English_2-158-1	60.017	-46	1.0.0.18	1	1780223140	Standard	2.0.10.353	2.0.10.353	07-20-2016	7/20/2016 9:04:40 PM	17:04:40	2.0.10.248	29	Bar37-63.bmp	40	2	?	0r_4g.bmp	0r_4g.bmp	0r_2g.bmp	0r_2g.bmp		0r_4g.bmp			TrialProc	TrialList	0	cvbn	-999999	16	177858	0	v	696	178554	96	-146	-50	-18	-36	4	0	10	3	29	0	0	0	0	4	4	2	2	0	4
Hungry_Donkey_bar_English_2	158	1	<?xml version="1.0"?>\n<Clock xmlns:dt="urn:schemas-microsoft-com:datatypes"><Description dt:dt="string">E-Prime Primary Realtime Clock</Description><StartTime><Timestamp dt:dt="int">0</Timestamp><DateUtc dt:dt="string">2016-07-20T21:04:40Z</DateUtc></StartTime><FrequencyChanges><FrequencyChange><Frequency dt:dt="r8">3507675</Frequency><Timestamp dt:dt="r8">238002756646</Timestamp><Current dt:dt="r8">0</Current><DateUtc dt:dt="string">2016-07-20T21:04:40Z</DateUtc></FrequencyChange></FrequencyChanges></Clock>\n	Hungry_Donkey_bar_English_2-158-1	60.017	-46	1.0.0.18	1	1780223140	Standard	2.0.10.353	2.0.10.353	07-20-2016	7/20/2016 9:04:40 PM	17:04:40	2.0.10.248	30	Bar37-63.bmp	40	3	?	0r_4g.bmp	0r_4g.bmp	0r_2g.bmp	0r_2g.bmp			0r_2g.bmp		TrialProc	TrialList	0	cvbn	-999999	16	180591	0	b	955	181546	98	-146	-48	-18	-36	6	0	8	3	30	0	0	0	0	4	4	2	2	0	2
Hungry_Donkey_bar_English_2	158	1	<?xml version="1.0"?>\n<Clock xmlns:dt="urn:schemas-microsoft-com:datatypes"><Description dt:dt="string">E-Prime Primary Realtime Clock</Description><StartTime><Timestamp dt:dt="int">0</Timestamp><DateUtc dt:dt="string">2016-07-20T21:04:40Z</DateUtc></StartTime><FrequencyChanges><FrequencyChange><Frequency dt:dt="r8">3507675</Frequency><Timestamp dt:dt="r8">238002756646</Timestamp><Current dt:dt="r8">0</Current><DateUtc dt:dt="string">2016-07-20T21:04:40Z</DateUtc></FrequencyChange></FrequencyChanges></Clock>\n	Hungry_Donkey_bar_English_2-158-1	60.017	-46	1.0.0.18	1	1780223140	Standard	2.0.10.353	2.0.10.353	07-20-2016	7/20/2016 9:04:40 PM	17:04:40	2.0.10.248	31	Bar37-63.bmp	41	2	?	10r_4g.bmp	0r_4g.bmp	2r_2g.bmp	0r_2g.bmp		0r_4g.bmp			TrialProc	TrialList	0	cvbn	-999999	16	183573	0	v	741	184314	102	-146	-44	-18	-32	6	0	4	4	31	-10	0	-2	0	4	4	2	2	0	4
Hungry_Donkey_bar_English_2	158	1	<?xml version="1.0"?>\n<Clock xmlns:dt="urn:schemas-microsoft-com:datatypes"><Description dt:dt="string">E-Prime Primary Realtime Clock</Description><StartTime><Timestamp dt:dt="int">0</Timestamp><DateUtc dt:dt="string">2016-07-20T21:04:40Z</DateUtc></StartTime><FrequencyChanges><FrequencyChange><Frequency dt:dt="r8">3507675</Frequency><Timestamp dt:dt="r8">238002756646</Timestamp><Current dt:dt="r8">0</Current><DateUtc dt:dt="string">2016-07-20T21:04:40Z</DateUtc></FrequencyChange></FrequencyChanges></Clock>\n	Hungry_Donkey_bar_English_2-158-1	60.017	-46	1.0.0.18	1	1780223140	Standard	2.0.10.353	2.0.10.353	07-20-2016	7/20/2016 9:04:40 PM	17:04:40	2.0.10.248	32	Bar37-63.bmp	42	3	?	0r_4g.bmp	0r_4g.bmp	0r_2g.bmp	0r_2g.bmp			0r_2g.bmp		TrialProc	TrialList	0	cvbn	-999999	16	186339	0	b	455	186794	104	-146	-42	-18	-32	8	0	9	4	32	0	0	0	0	4	4	2	2	0	2
Hungry_Donkey_bar_English_2	158	1	<?xml version="1.0"?>\n<Clock xmlns:dt="urn:schemas-microsoft-com:datatypes"><Description dt:dt="string">E-Prime Primary Realtime Clock</Description><StartTime><Timestamp dt:dt="int">0</Timestamp><DateUtc dt:dt="string">2016-07-20T21:04:40Z</DateUtc></StartTime><FrequencyChanges><FrequencyChange><Frequency dt:dt="r8">3507675</Frequency><Timestamp dt:dt="r8">238002756646</Timestamp><Current dt:dt="r8">0</Current><DateUtc dt:dt="string">2016-07-20T21:04:40Z</DateUtc></FrequencyChange></FrequencyChanges></Clock>\n	Hungry_Donkey_bar_English_2-158-1	60.017	-46	1.0.0.18	1	1780223140	Standard	2.0.10.353	2.0.10.353	07-20-2016	7/20/2016 9:04:40 PM	17:04:40	2.0.10.248	33	Bar37-63.bmp	43	2	?	0r_4g.bmp	0r_4g.bmp	0r_2g.bmp	0r_2g.bmp		0r_4g.bmp			TrialProc	TrialList	0	cvbn	-999999	17	188822	0	v	644	189466	108	-146	-38	-18	-28	8	0	6	4	33	0	0	0	0	4	4	2	2	0	4
Hungry_Donkey_bar_English_2	158	1	<?xml version="1.0"?>\n<Clock xmlns:dt="urn:schemas-microsoft-com:datatypes"><Description dt:dt="string">E-Prime Primary Realtime Clock</Description><StartTime><Timestamp dt:dt="int">0</Timestamp><DateUtc dt:dt="string">2016-07-20T21:04:40Z</DateUtc></StartTime><FrequencyChanges><FrequencyChange><Frequency dt:dt="r8">3507675</Frequency><Timestamp dt:dt="r8">238002756646</Timestamp><Current dt:dt="r8">0</Current><DateUtc dt:dt="string">2016-07-20T21:04:40Z</DateUtc></FrequencyChange></FrequencyChanges></Clock>\n	Hungry_Donkey_bar_English_2-158-1	60.017	-46	1.0.0.18	1	1780223140	Standard	2.0.10.353	2.0.10.353	07-20-2016	7/20/2016 9:04:40 PM	17:04:40	2.0.10.248	34	Bar37-63.bmp	43	4	?	10r_4g.bmp	0r_4g.bmp	2r_2g.bmp	0r_2g.bmp				0r_2g.bmp	TrialProc	TrialList	0	cvbn	-999999	16	191504	0	n	890	192394	110	-146	-36	-18	-28	8	2	2	4	34	-10	0	-2	0	4	4	2	2	0	2
Hungry_Donkey_bar_English_2	158	1	<?xml version="1.0"?>\n<Clock xmlns:dt="urn:schemas-microsoft-com:datatypes"><Description dt:dt="string">E-Prime Primary Realtime Clock</Description><StartTime><Timestamp dt:dt="int">0</Timestamp><DateUtc dt:dt="string">2016-07-20T21:04:40Z</DateUtc></StartTime><FrequencyChanges><FrequencyChange><Frequency dt:dt="r8">3507675</Frequency><Timestamp dt:dt="r8">238002756646</Timestamp><Current dt:dt="r8">0</Current><DateUtc dt:dt="string">2016-07-20T21:04:40Z</DateUtc></FrequencyChange></FrequencyChanges></Clock>\n	Hungry_Donkey_bar_English_2-158-1	60.017	-46	1.0.0.18	1	1780223140	Standard	2.0.10.353	2.0.10.353	07-20-2016	7/20/2016 9:04:40 PM	17:04:40	2.0.10.248	35	Bar37-63.bmp	43	4	?	12r_4g.bmp	0r_4g.bmp	3r_2g.bmp	0r_2g.bmp				0r_2g.bmp	TrialProc	TrialList	0	cvbn	-999999	16	194420	0	n	1717	196137	112	-146	-34	-18	-28	8	4	5	4	35	-12	0	-3	0	4	4	2	2	0	2
Hungry_Donkey_bar_English_2	158	1	<?xml version="1.0"?>\n<Clock xmlns:dt="urn:schemas-microsoft-com:datatypes"><Description dt:dt="string">E-Prime Primary Realtime Clock</Description><StartTime><Timestamp dt:dt="int">0</Timestamp><DateUtc dt:dt="string">2016-07-20T21:04:40Z</DateUtc></StartTime><FrequencyChanges><FrequencyChange><Frequency dt:dt="r8">3507675</Frequency><Timestamp dt:dt="r8">238002756646</Timestamp><Current dt:dt="r8">0</Current><DateUtc dt:dt="string">2016-07-20T21:04:40Z</DateUtc></FrequencyChange></FrequencyChanges></Clock>\n	Hungry_Donkey_bar_English_2-158-1	60.017	-46	1.0.0.18	1	1780223140	Standard	2.0.10.353	2.0.10.353	07-20-2016	7/20/2016 9:04:40 PM	17:04:40	2.0.10.248	36	Bar50-50.bmp	44	3	?	8r_4g.bmp	50r_4g.bmp	1r_2g.bmp	10r_2g.bmp			1r_2g.bmp		TrialProc	TrialList	0	cvbn	-999999	16	198169	0	b	416	198585	114	-147	-33	-18	-28	9	4	1	4	36	-8	-50	-1	-10	4	4	2	2	-1	2
Hungry_Donkey_bar_English_2	158	1	<?xml version="1.0"?>\n<Clock xmlns:dt="urn:schemas-microsoft-com:datatypes"><Description dt:dt="string">E-Prime Primary Realtime Clock</Description><StartTime><Timestamp dt:dt="int">0</Timestamp><DateUtc dt:dt="string">2016-07-20T21:04:40Z</DateUtc></StartTime><FrequencyChanges><FrequencyChange><Frequency dt:dt="r8">3507675</Frequency><Timestamp dt:dt="r8">238002756646</Timestamp><Current dt:dt="r8">0</Current><DateUtc dt:dt="string">2016-07-20T21:04:40Z</DateUtc></FrequencyChange></FrequencyChanges></Clock>\n	Hungry_Donkey_bar_English_2-158-1	60.017	-46	1.0.0.18	1	1780223140	Standard	2.0.10.353	2.0.10.353	07-20-2016	7/20/2016 9:04:40 PM	17:04:40	2.0.10.248	37	Bar50-50.bmp	45	2	?	0r_4g.bmp	0r_4g.bmp	0r_2g.bmp	0r_2g.bmp		0r_4g.bmp			TrialProc	TrialList	0	cvbn	-999999	16	200618	0	v	479	201097	118	-147	-29	-18	-24	9	4	7	4	37	0	0	0	0	4	4	2	2	0	4
Hungry_Donkey_bar_English_2	158	1	<?xml version="1.0"?>\n<Clock xmlns:dt="urn:schemas-microsoft-com:datatypes"><Description dt:dt="string">E-Prime Primary Realtime Clock</Description><StartTime><Timestamp dt:dt="int">0</Timestamp><DateUtc dt:dt="string">2016-07-20T21:04:40Z</DateUtc></StartTime><FrequencyChanges><FrequencyChange><Frequency dt:dt="r8">3507675</Frequency><Timestamp dt:dt="r8">238002756646</Timestamp><Current dt:dt="r8">0</Current><DateUtc dt:dt="string">2016-07-20T21:04:40Z</DateUtc></FrequencyChange></FrequencyChanges></Clock>\n	Hungry_Donkey_bar_English_2-158-1	60.017	-46	1.0.0.18	1	1780223140	Standard	2.0.10.353	2.0.10.353	07-20-2016	7/20/2016 9:04:40 PM	17:04:40	2.0.10.248	38	Bar50-50.bmp	45	2	?	0r_4g.bmp	0r_4g.bmp	0r_2g.bmp	0r_2g.bmp		0r_4g.bmp			TrialProc	TrialList	0	cvbn	-999999	16	203134	0	v	859	203993	122	-147	-25	-18	-20	9	4	10	4	38	0	0	0	0	4	4	2	2	0	4
Hungry_Donkey_bar_English_2	158	1	<?xml version="1.0"?>\n<Clock xmlns:dt="urn:schemas-microsoft-com:datatypes"><Description dt:dt="string">E-Prime Primary Realtime Clock</Description><StartTime><Timestamp dt:dt="int">0</Timestamp><DateUtc dt:dt="string">2016-07-20T21:04:40Z</DateUtc></StartTime><FrequencyChanges><FrequencyChange><Frequency dt:dt="r8">3507675</Frequency><Timestamp dt:dt="r8">238002756646</Timestamp><Current dt:dt="r8">0</Current><DateUtc dt:dt="string">2016-07-20T21:04:40Z</DateUtc></FrequencyChange></FrequencyChanges></Clock>\n	Hungry_Donkey_bar_English_2-158-1	60.017	-46	1.0.0.18	1	1780223140	Standard	2.0.10.353	2.0.10.353	07-20-2016	7/20/2016 9:04:40 PM	17:04:40	2.0.10.248	39	Bar50-50.bmp	46	3	?	0r_4g.bmp	0r_4g.bmp	0r_2g.bmp	0r_2g.bmp			0r_2g.bmp		TrialProc	TrialList	0	cvbn	-999999	16	206017	0	b	328	206345	124	-147	-23	-18	-20	11	4	8	4	39	0	0	0	0	4	4	2	2	0	2
Hungry_Donkey_bar_English_2	158	1	<?xml version="1.0"?>\n<Clock xmlns:dt="urn:schemas-microsoft-com:datatypes"><Description dt:dt="string">E-Prime Primary Realtime Clock</Description><StartTime><Timestamp dt:dt="int">0</Timestamp><DateUtc dt:dt="string">2016-07-20T21:04:40Z</DateUtc></StartTime><FrequencyChanges><FrequencyChange><Frequency dt:dt="r8">3507675</Frequency><Timestamp dt:dt="r8">238002756646</Timestamp><Current dt:dt="r8">0</Current><DateUtc dt:dt="string">2016-07-20T21:04:40Z</DateUtc></FrequencyChange></FrequencyChanges></Clock>\n	Hungry_Donkey_bar_English_2-158-1	60.017	-46	1.0.0.18	1	1780223140	Standard	2.0.10.353	2.0.10.353	07-20-2016	7/20/2016 9:04:40 PM	17:04:40	2.0.10.248	40	Bar50-50.bmp	46	3	?	10r_4g.bmp	0r_4g.bmp	2r_2g.bmp	0r_2g.bmp			2r_2g.bmp		TrialProc	TrialList	0	cvbn	-999999	16	208383	0	b	458	208841	126	-149	-23	-18	-20	11	4	3	4	40	-10	0	-2	0	4	4	2	2	-2	2
Hungry_Donkey_bar_English_2	158	1	<?xml version="1.0"?>\n<Clock xmlns:dt="urn:schemas-microsoft-com:datatypes"><Description dt:dt="string">E-Prime Primary Realtime Clock</Description><StartTime><Timestamp dt:dt="int">0</Timestamp><DateUtc dt:dt="string">2016-07-20T21:04:40Z</DateUtc></StartTime><FrequencyChanges><FrequencyChange><Frequency dt:dt="r8">3507675</Frequency><Timestamp dt:dt="r8">238002756646</Timestamp><Current dt:dt="r8">0</Current><DateUtc dt:dt="string">2016-07-20T21:04:40Z</DateUtc></FrequencyChange></FrequencyChanges></Clock>\n	Hungry_Donkey_bar_English_2-158-1	60.017	-46	1.0.0.18	1	1780223140	Standard	2.0.10.353	2.0.10.353	07-20-2016	7/20/2016 9:04:40 PM	17:04:40	2.0.10.248	41	Bar50-50.bmp	47	2	?	10r_4g.bmp	0r_4g.bmp	2r_2g.bmp	0r_2g.bmp		0r_4g.bmp			TrialProc	TrialList	0	cvbn	-999999	16	210882	0	v	871	211753	130	-149	-19	-18	-16	11	4	4	5	41	-10	0	-2	0	4	4	2	2	0	4
Hungry_Donkey_bar_English_2	158	1	<?xml version="1.0"?>\n<Clock xmlns:dt="urn:schemas-microsoft-com:datatypes"><Description dt:dt="string">E-Prime Primary Realtime Clock</Description><StartTime><Timestamp dt:dt="int">0</Timestamp><DateUtc dt:dt="string">2016-07-20T21:04:40Z</DateUtc></StartTime><FrequencyChanges><FrequencyChange><Frequency dt:dt="r8">3507675</Frequency><Timestamp dt:dt="r8">238002756646</Timestamp><Current dt:dt="r8">0</Current><DateUtc dt:dt="string">2016-07-20T21:04:40Z</DateUtc></FrequencyChange></FrequencyChanges></Clock>\n	Hungry_Donkey_bar_English_2-158-1	60.017	-46	1.0.0.18	1	1780223140	Standard	2.0.10.353	2.0.10.353	07-20-2016	7/20/2016 9:04:40 PM	17:04:40	2.0.10.248	42	Bar50-50.bmp	47	2	?	10r_4g.bmp	0r_4g.bmp	2r_2g.bmp	0r_2g.bmp		0r_4g.bmp			TrialProc	TrialList	0	cvbn	-999999	16	213781	0	v	1123	214904	134	-149	-15	-18	-12	11	4	2	5	42	-10	0	-2	0	4	4	2	2	0	4
Hungry_Donkey_bar_English_2	158	1	<?xml version="1.0"?>\n<Clock xmlns:dt="urn:schemas-microsoft-com:datatypes"><Description dt:dt="string">E-Prime Primary Realtime Clock</Description><StartTime><Timestamp dt:dt="int">0</Timestamp><DateUtc dt:dt="string">2016-07-20T21:04:40Z</DateUtc></StartTime><FrequencyChanges><FrequencyChange><Frequency dt:dt="r8">3507675</Frequency><Timestamp dt:dt="r8">238002756646</Timestamp><Current dt:dt="r8">0</Current><DateUtc dt:dt="string">2016-07-20T21:04:40Z</DateUtc></FrequencyChange></FrequencyChanges></Clock>\n	Hungry_Donkey_bar_English_2-158-1	60.017	-46	1.0.0.18	1	1780223140	Standard	2.0.10.353	2.0.10.353	07-20-2016	7/20/2016 9:04:40 PM	17:04:40	2.0.10.248	43	Bar50-50.bmp	48	4	?	0r_4g.bmp	0r_4g.bmp	0r_2g.bmp	0r_2g.bmp				0r_2g.bmp	TrialProc	TrialList	0	cvbn	-999999	16	216930	0	n	886	217816	136	-149	-13	-18	-12	11	6	7	5	43	0	0	0	0	4	4	2	2	0	2
Hungry_Donkey_bar_English_2	158	1	<?xml version="1.0"?>\n<Clock xmlns:dt="urn:schemas-microsoft-com:datatypes"><Description dt:dt="string">E-Prime Primary Realtime Clock</Description><StartTime><Timestamp dt:dt="int">0</Timestamp><DateUtc dt:dt="string">2016-07-20T21:04:40Z</DateUtc></StartTime><FrequencyChanges><FrequencyChange><Frequency dt:dt="r8">3507675</Frequency><Timestamp dt:dt="r8">238002756646</Timestamp><Current dt:dt="r8">0</Current><DateUtc dt:dt="string">2016-07-20T21:04:40Z</DateUtc></FrequencyChange></FrequencyChanges></Clock>\n	Hungry_Donkey_bar_English_2-158-1	60.017	-46	1.0.0.18	1	1780223140	Standard	2.0.10.353	2.0.10.353	07-20-2016	7/20/2016 9:04:40 PM	17:04:40	2.0.10.248	44	Bar50-50.bmp	48	3	?	10r_4g.bmp	0r_4g.bmp	2r_2g.bmp	0r_2g.bmp			2r_2g.bmp		TrialProc	TrialList	0	cvbn	-999999	16	219846	0	b	1842	221688	138	-151	-13	-18	-12	11	6	3	5	44	-10	0	-2	0	4	4	2	2	-2	2
Hungry_Donkey_bar_English_2	158	1	<?xml version="1.0"?>\n<Clock xmlns:dt="urn:schemas-microsoft-com:datatypes"><Description dt:dt="string">E-Prime Primary Realtime Clock</Description><StartTime><Timestamp dt:dt="int">0</Timestamp><DateUtc dt:dt="string">2016-07-20T21:04:40Z</DateUtc></StartTime><FrequencyChanges><FrequencyChange><Frequency dt:dt="r8">3507675</Frequency><Timestamp dt:dt="r8">238002756646</Timestamp><Current dt:dt="r8">0</Current><DateUtc dt:dt="string">2016-07-20T21:04:40Z</DateUtc></FrequencyChange></FrequencyChanges></Clock>\n	Hungry_Donkey_bar_English_2-158-1	60.017	-46	1.0.0.18	1	1780223140	Standard	2.0.10.353	2.0.10.353	07-20-2016	7/20/2016 9:04:40 PM	17:04:40	2.0.10.248	45	Bar50-50.bmp	48	2	?	0r_4g.bmp	0r_4g.bmp	0r_2g.bmp	0r_2g.bmp		0r_4g.bmp			TrialProc	TrialList	0	cvbn	-999999	16	223728	0	v	760	224488	142	-151	-9	-18	-8	11	6	6	5	45	0	0	0	0	4	4	2	2	0	4
Hungry_Donkey_bar_English_2	158	1	<?xml version="1.0"?>\n<Clock xmlns:dt="urn:schemas-microsoft-com:datatypes"><Description dt:dt="string">E-Prime Primary Realtime Clock</Description><StartTime><Timestamp dt:dt="int">0</Timestamp><DateUtc dt:dt="string">2016-07-20T21:04:40Z</DateUtc></StartTime><FrequencyChanges><FrequencyChange><Frequency dt:dt="r8">3507675</Frequency><Timestamp dt:dt="r8">238002756646</Timestamp><Current dt:dt="r8">0</Current><DateUtc dt:dt="string">2016-07-20T21:04:40Z</DateUtc></FrequencyChange></FrequencyChanges></Clock>\n	Hungry_Donkey_bar_English_2-158-1	60.017	-46	1.0.0.18	1	1780223140	Standard	2.0.10.353	2.0.10.353	07-20-2016	7/20/2016 9:04:40 PM	17:04:40	2.0.10.248	46	Bar50-50.bmp	49	2	?	12r_4g.bmp	0r_4g.bmp	3r_2g.bmp	0r_2g.bmp		0r_4g.bmp			TrialProc	TrialList	0	cvbn	-999999	16	226527	0	v	1801	228328	146	-151	-5	-18	-4	11	6	5	5	46	-12	0	-3	0	4	4	2	2	0	4
Hungry_Donkey_bar_English_2	158	1	<?xml version="1.0"?>\n<Clock xmlns:dt="urn:schemas-microsoft-com:datatypes"><Description dt:dt="string">E-Prime Primary Realtime Clock</Description><StartTime><Timestamp dt:dt="int">0</Timestamp><DateUtc dt:dt="string">2016-07-20T21:04:40Z</DateUtc></StartTime><FrequencyChanges><FrequencyChange><Frequency dt:dt="r8">3507675</Frequency><Timestamp dt:dt="r8">238002756646</Timestamp><Current dt:dt="r8">0</Current><DateUtc dt:dt="string">2016-07-20T21:04:40Z</DateUtc></FrequencyChange></FrequencyChanges></Clock>\n	Hungry_Donkey_bar_English_2-158-1	60.017	-46	1.0.0.18	1	1780223140	Standard	2.0.10.353	2.0.10.353	07-20-2016	7/20/2016 9:04:40 PM	17:04:40	2.0.10.248	47	Bar37-63.bmp	43	2	?	8r_4g.bmp	50r_4g.bmp	1r_2g.bmp	10r_2g.bmp		50r_4g.bmp			TrialProc	TrialList	0	cvbn	-999999	16	230360	0	v	1408	231768	150	-201	-51	-18	-50	11	6	1	5	47	-8	-50	-1	-10	4	4	2	2	-50	4
Hungry_Donkey_bar_English_2	158	1	<?xml version="1.0"?>\n<Clock xmlns:dt="urn:schemas-microsoft-com:datatypes"><Description dt:dt="string">E-Prime Primary Realtime Clock</Description><StartTime><Timestamp dt:dt="int">0</Timestamp><DateUtc dt:dt="string">2016-07-20T21:04:40Z</DateUtc></StartTime><FrequencyChanges><FrequencyChange><Frequency dt:dt="r8">3507675</Frequency><Timestamp dt:dt="r8">238002756646</Timestamp><Current dt:dt="r8">0</Current><DateUtc dt:dt="string">2016-07-20T21:04:40Z</DateUtc></FrequencyChange></FrequencyChanges></Clock>\n	Hungry_Donkey_bar_English_2-158-1	60.017	-46	1.0.0.18	1	1780223140	Standard	2.0.10.353	2.0.10.353	07-20-2016	7/20/2016 9:04:40 PM	17:04:40	2.0.10.248	48	Bar37-63.bmp	43	3	?	0r_4g.bmp	0r_4g.bmp	0r_2g.bmp	0r_2g.bmp			0r_2g.bmp		TrialProc	TrialList	0	cvbn	-999999	16	233792	0	b	647	234439	152	-201	-49	-18	-50	13	6	10	5	48	0	0	0	0	4	4	2	2	0	2
Hungry_Donkey_bar_English_2	158	1	<?xml version="1.0"?>\n<Clock xmlns:dt="urn:schemas-microsoft-com:datatypes"><Description dt:dt="string">E-Prime Primary Realtime Clock</Description><StartTime><Timestamp dt:dt="int">0</Timestamp><DateUtc dt:dt="string">2016-07-20T21:04:40Z</DateUtc></StartTime><FrequencyChanges><FrequencyChange><Frequency dt:dt="r8">3507675</Frequency><Timestamp dt:dt="r8">238002756646</Timestamp><Current dt:dt="r8">0</Current><DateUtc dt:dt="string">2016-07-20T21:04:40Z</DateUtc></FrequencyChange></FrequencyChanges></Clock>\n	Hungry_Donkey_bar_English_2-158-1	60.017	-46	1.0.0.18	1	1780223140	Standard	2.0.10.353	2.0.10.353	07-20-2016	7/20/2016 9:04:40 PM	17:04:40	2.0.10.248	49	Bar37-63.bmp	43	3	?	0r_4g.bmp	0r_4g.bmp	0r_2g.bmp	0r_2g.bmp			0r_2g.bmp		TrialProc	TrialList	0	cvbn	-999999	16	236475	0	b	636	237111	154	-201	-47	-18	-50	15	6	8	5	49	0	0	0	0	4	4	2	2	0	2
Hungry_Donkey_bar_English_2	158	1	<?xml version="1.0"?>\n<Clock xmlns:dt="urn:schemas-microsoft-com:datatypes"><Description dt:dt="string">E-Prime Primary Realtime Clock</Description><StartTime><Timestamp dt:dt="int">0</Timestamp><DateUtc dt:dt="string">2016-07-20T21:04:40Z</DateUtc></StartTime><FrequencyChanges><FrequencyChange><Frequency dt:dt="r8">3507675</Frequency><Timestamp dt:dt="r8">238002756646</Timestamp><Current dt:dt="r8">0</Current><DateUtc dt:dt="string">2016-07-20T21:04:40Z</DateUtc></FrequencyChange></FrequencyChanges></Clock>\n	Hungry_Donkey_bar_English_2-158-1	60.017	-46	1.0.0.18	1	1780223140	Standard	2.0.10.353	2.0.10.353	07-20-2016	7/20/2016 9:04:40 PM	17:04:40	2.0.10.248	50	Bar50-50.bmp	44	3	?	0r_4g.bmp	0r_4g.bmp	0r_2g.bmp	0r_2g.bmp			0r_2g.bmp		TrialProc	TrialList	0	cvbn	-999999	17	239141	0	b	1330	240471	156	-201	-45	-18	-50	17	6	9	5	50	0	0	0	0	4	4	2	2	0	2
Hungry_Donkey_bar_English_2	158	1	<?xml version="1.0"?>\n<Clock xmlns:dt="urn:schemas-microsoft-com:datatypes"><Description dt:dt="string">E-Prime Primary Realtime Clock</Description><StartTime><Timestamp dt:dt="int">0</Timestamp><DateUtc dt:dt="string">2016-07-20T21:04:40Z</DateUtc></StartTime><FrequencyChanges><FrequencyChange><Frequency dt:dt="r8">3507675</Frequency><Timestamp dt:dt="r8">238002756646</Timestamp><Current dt:dt="r8">0</Current><DateUtc dt:dt="string">2016-07-20T21:04:40Z</DateUtc></FrequencyChange></FrequencyChanges></Clock>\n	Hungry_Donkey_bar_English_2-158-1	60.017	-46	1.0.0.18	1	1780223140	Standard	2.0.10.353	2.0.10.353	07-20-2016	7/20/2016 9:04:40 PM	17:04:40	2.0.10.248	51	Bar50-50.bmp	44	2	?	10r_4g.bmp	0r_4g.bmp	2r_2g.bmp	0r_2g.bmp		0r_4g.bmp			TrialProc	TrialList	0	cvbn	-999999	16	242506	0	v	269	242775	160	-201	-41	-18	-46	17	6	2	6	51	-10	0	-2	0	4	4	2	2	0	4
Hungry_Donkey_bar_English_2	158	1	<?xml version="1.0"?>\n<Clock xmlns:dt="urn:schemas-microsoft-com:datatypes"><Description dt:dt="string">E-Prime Primary Realtime Clock</Description><StartTime><Timestamp dt:dt="int">0</Timestamp><DateUtc dt:dt="string">2016-07-20T21:04:40Z</DateUtc></StartTime><FrequencyChanges><FrequencyChange><Frequency dt:dt="r8">3507675</Frequency><Timestamp dt:dt="r8">238002756646</Timestamp><Current dt:dt="r8">0</Current><DateUtc dt:dt="string">2016-07-20T21:04:40Z</DateUtc></FrequencyChange></FrequencyChanges></Clock>\n	Hungry_Donkey_bar_English_2-158-1	60.017	-46	1.0.0.18	1	1780223140	Standard	2.0.10.353	2.0.10.353	07-20-2016	7/20/2016 9:04:40 PM	17:04:40	2.0.10.248	52	Bar50-50.bmp	44	3	?	10r_4g.bmp	0r_4g.bmp	2r_2g.bmp	0r_2g.bmp			2r_2g.bmp		TrialProc	TrialList	0	cvbn	-999999	17	244806	0	b	993	245799	162	-203	-41	-18	-46	17	6	4	6	52	-10	0	-2	0	4	4	2	2	-2	2
Hungry_Donkey_bar_English_2	158	1	<?xml version="1.0"?>\n<Clock xmlns:dt="urn:schemas-microsoft-com:datatypes"><Description dt:dt="string">E-Prime Primary Realtime Clock</Description><StartTime><Timestamp dt:dt="int">0</Timestamp><DateUtc dt:dt="string">2016-07-20T21:04:40Z</DateUtc></StartTime><FrequencyChanges><FrequencyChange><Frequency dt:dt="r8">3507675</Frequency><Timestamp dt:dt="r8">238002756646</Timestamp><Current dt:dt="r8">0</Current><DateUtc dt:dt="string">2016-07-20T21:04:40Z</DateUtc></FrequencyChange></FrequencyChanges></Clock>\n	Hungry_Donkey_bar_English_2-158-1	60.017	-46	1.0.0.18	1	1780223140	Standard	2.0.10.353	2.0.10.353	07-20-2016	7/20/2016 9:04:40 PM	17:04:40	2.0.10.248	53	Bar50-50.bmp	45	4	?	0r_4g.bmp	0r_4g.bmp	0r_2g.bmp	0r_2g.bmp				0r_2g.bmp	TrialProc	TrialList	0	cvbn	-999999	16	247838	0	n	5817	253655	164	-203	-39	-18	-46	17	8	6	6	53	0	0	0	0	4	4	2	2	0	2
Hungry_Donkey_bar_English_2	158	1	<?xml version="1.0"?>\n<Clock xmlns:dt="urn:schemas-microsoft-com:datatypes"><Description dt:dt="string">E-Prime Primary Realtime Clock</Description><StartTime><Timestamp dt:dt="int">0</Timestamp><DateUtc dt:dt="string">2016-07-20T21:04:40Z</DateUtc></StartTime><FrequencyChanges><FrequencyChange><Frequency dt:dt="r8">3507675</Frequency><Timestamp dt:dt="r8">238002756646</Timestamp><Current dt:dt="r8">0</Current><DateUtc dt:dt="string">2016-07-20T21:04:40Z</DateUtc></FrequencyChange></FrequencyChanges></Clock>\n	Hungry_Donkey_bar_English_2-158-1	60.017	-46	1.0.0.18	1	1780223140	Standard	2.0.10.353	2.0.10.353	07-20-2016	7/20/2016 9:04:40 PM	17:04:40	2.0.10.248	54	Bar50-50.bmp	44	1	?	10r_4g.bmp	0r_4g.bmp	2r_2g.bmp	0r_2g.bmp	10r_4g.bmp				TrialProc	TrialList	0	cvbn	-999999	16	255686	0	c	1664	257350	168	-213	-45	-24	-46	17	8	3	6	54	-10	0	-2	0	4	4	2	2	-10	4
Hungry_Donkey_bar_English_2	158	1	<?xml version="1.0"?>\n<Clock xmlns:dt="urn:schemas-microsoft-com:datatypes"><Description dt:dt="string">E-Prime Primary Realtime Clock</Description><StartTime><Timestamp dt:dt="int">0</Timestamp><DateUtc dt:dt="string">2016-07-20T21:04:40Z</DateUtc></StartTime><FrequencyChanges><FrequencyChange><Frequency dt:dt="r8">3507675</Frequency><Timestamp dt:dt="r8">238002756646</Timestamp><Current dt:dt="r8">0</Current><DateUtc dt:dt="string">2016-07-20T21:04:40Z</DateUtc></FrequencyChange></FrequencyChanges></Clock>\n	Hungry_Donkey_bar_English_2-158-1	60.017	-46	1.0.0.18	1	1780223140	Standard	2.0.10.353	2.0.10.353	07-20-2016	7/20/2016 9:04:40 PM	17:04:40	2.0.10.248	55	Bar37-63.bmp	40	2	?	8r_4g.bmp	50r_4g.bmp	1r_2g.bmp	10r_2g.bmp		50r_4g.bmp			TrialProc	TrialList	0	cvbn	-999999	16	259385	0	v	829	260214	172	-263	-91	-24	-92	17	8	1	6	55	-8	-50	-1	-10	4	4	2	2	-50	4
Hungry_Donkey_bar_English_2	158	1	<?xml version="1.0"?>\n<Clock xmlns:dt="urn:schemas-microsoft-com:datatypes"><Description dt:dt="string">E-Prime Primary Realtime Clock</Description><StartTime><Timestamp dt:dt="int">0</Timestamp><DateUtc dt:dt="string">2016-07-20T21:04:40Z</DateUtc></StartTime><FrequencyChanges><FrequencyChange><Frequency dt:dt="r8">3507675</Frequency><Timestamp dt:dt="r8">238002756646</Timestamp><Current dt:dt="r8">0</Current><DateUtc dt:dt="string">2016-07-20T21:04:40Z</DateUtc></FrequencyChange></FrequencyChanges></Clock>\n	Hungry_Donkey_bar_English_2-158-1	60.017	-46	1.0.0.18	1	1780223140	Standard	2.0.10.353	2.0.10.353	07-20-2016	7/20/2016 9:04:40 PM	17:04:40	2.0.10.248	56	Bar37-63.bmp	40	3	?	0r_4g.bmp	0r_4g.bmp	0r_2g.bmp	0r_2g.bmp			0r_2g.bmp		TrialProc	TrialList	0	cvbn	-999999	17	262251	0	b	315	262566	174	-263	-89	-24	-92	19	8	8	6	56	0	0	0	0	4	4	2	2	0	2
Hungry_Donkey_bar_English_2	158	1	<?xml version="1.0"?>\n<Clock xmlns:dt="urn:schemas-microsoft-com:datatypes"><Description dt:dt="string">E-Prime Primary Realtime Clock</Description><StartTime><Timestamp dt:dt="int">0</Timestamp><DateUtc dt:dt="string">2016-07-20T21:04:40Z</DateUtc></StartTime><FrequencyChanges><FrequencyChange><Frequency dt:dt="r8">3507675</Frequency><Timestamp dt:dt="r8">238002756646</Timestamp><Current dt:dt="r8">0</Current><DateUtc dt:dt="string">2016-07-20T21:04:40Z</DateUtc></FrequencyChange></FrequencyChanges></Clock>\n	Hungry_Donkey_bar_English_2-158-1	60.017	-46	1.0.0.18	1	1780223140	Standard	2.0.10.353	2.0.10.353	07-20-2016	7/20/2016 9:04:40 PM	17:04:40	2.0.10.248	57	Bar37-63.bmp	40	3	?	12r_4g.bmp	0r_4g.bmp	3r_2g.bmp	0r_2g.bmp			3r_2g.bmp		TrialProc	TrialList	0	cvbn	-999999	16	264600	0	b	670	265270	176	-266	-90	-24	-92	18	8	5	6	57	-12	0	-3	0	4	4	2	2	-3	2
Hungry_Donkey_bar_English_2	158	1	<?xml version="1.0"?>\n<Clock xmlns:dt="urn:schemas-microsoft-com:datatypes"><Description dt:dt="string">E-Prime Primary Realtime Clock</Description><StartTime><Timestamp dt:dt="int">0</Timestamp><DateUtc dt:dt="string">2016-07-20T21:04:40Z</DateUtc></StartTime><FrequencyChanges><FrequencyChange><Frequency dt:dt="r8">3507675</Frequency><Timestamp dt:dt="r8">238002756646</Timestamp><Current dt:dt="r8">0</Current><DateUtc dt:dt="string">2016-07-20T21:04:40Z</DateUtc></FrequencyChange></FrequencyChanges></Clock>\n	Hungry_Donkey_bar_English_2-158-1	60.017	-46	1.0.0.18	1	1780223140	Standard	2.0.10.353	2.0.10.353	07-20-2016	7/20/2016 9:04:40 PM	17:04:40	2.0.10.248	58	Bar37-63.bmp	40	2	?	0r_4g.bmp	0r_4g.bmp	0r_2g.bmp	0r_2g.bmp		0r_4g.bmp			TrialProc	TrialList	0	cvbn	-999999	16	267299	0	v	1635	268934	180	-266	-86	-24	-88	18	8	10	6	58	0	0	0	0	4	4	2	2	0	4
Hungry_Donkey_bar_English_2	158	1	<?xml version="1.0"?>\n<Clock xmlns:dt="urn:schemas-microsoft-com:datatypes"><Description dt:dt="string">E-Prime Primary Realtime Clock</Description><StartTime><Timestamp dt:dt="int">0</Timestamp><DateUtc dt:dt="string">2016-07-20T21:04:40Z</DateUtc></StartTime><FrequencyChanges><FrequencyChange><Frequency dt:dt="r8">3507675</Frequency><Timestamp dt:dt="r8">238002756646</Timestamp><Current dt:dt="r8">0</Current><DateUtc dt:dt="string">2016-07-20T21:04:40Z</DateUtc></FrequencyChange></FrequencyChanges></Clock>\n	Hungry_Donkey_bar_English_2-158-1	60.017	-46	1.0.0.18	1	1780223140	Standard	2.0.10.353	2.0.10.353	07-20-2016	7/20/2016 9:04:40 PM	17:04:40	2.0.10.248	59	Bar37-63.bmp	41	2	?	0r_4g.bmp	0r_4g.bmp	0r_2g.bmp	0r_2g.bmp		0r_4g.bmp			TrialProc	TrialList	0	cvbn	-999999	16	270965	0	v	849	271814	184	-266	-82	-24	-84	18	8	9	6	59	0	0	0	0	4	4	2	2	0	4
Hungry_Donkey_bar_English_2	158	1	<?xml version="1.0"?>\n<Clock xmlns:dt="urn:schemas-microsoft-com:datatypes"><Description dt:dt="string">E-Prime Primary Realtime Clock</Description><StartTime><Timestamp dt:dt="int">0</Timestamp><DateUtc dt:dt="string">2016-07-20T21:04:40Z</DateUtc></StartTime><FrequencyChanges><FrequencyChange><Frequency dt:dt="r8">3507675</Frequency><Timestamp dt:dt="r8">238002756646</Timestamp><Current dt:dt="r8">0</Current><DateUtc dt:dt="string">2016-07-20T21:04:40Z</DateUtc></FrequencyChange></FrequencyChanges></Clock>\n	Hungry_Donkey_bar_English_2-158-1	60.017	-46	1.0.0.18	1	1780223140	Standard	2.0.10.353	2.0.10.353	07-20-2016	7/20/2016 9:04:40 PM	17:04:40	2.0.10.248	60	Bar37-63.bmp	41	4	?	0r_4g.bmp	0r_4g.bmp	0r_2g.bmp	0r_2g.bmp				0r_2g.bmp	TrialProc	TrialList	0	cvbn	-999999	16	273847	0	n	1199	275046	186	-266	-80	-24	-84	18	10	7	6	60	0	0	0	0	4	4	2	2	0	2
Hungry_Donkey_bar_English_2	158	1	<?xml version="1.0"?>\n<Clock xmlns:dt="urn:schemas-microsoft-com:datatypes"><Description dt:dt="string">E-Prime Primary Realtime Clock</Description><StartTime><Timestamp dt:dt="int">0</Timestamp><DateUtc dt:dt="string">2016-07-20T21:04:40Z</DateUtc></StartTime><FrequencyChanges><FrequencyChange><Frequency dt:dt="r8">3507675</Frequency><Timestamp dt:dt="r8">238002756646</Timestamp><Current dt:dt="r8">0</Current><DateUtc dt:dt="string">2016-07-20T21:04:40Z</DateUtc></FrequencyChange></FrequencyChanges></Clock>\n	Hungry_Donkey_bar_English_2-158-1	60.017	-46	1.0.0.18	1	1780223140	Standard	2.0.10.353	2.0.10.353	07-20-2016	7/20/2016 9:04:40 PM	17:04:40	2.0.10.248	61	Bar37-63.bmp	41	3	?	0r_4g.bmp	0r_4g.bmp	0r_2g.bmp	0r_2g.bmp			0r_2g.bmp		TrialProc	TrialList	0	cvbn	-999999	16	277080	0	b	669	277749	188	-266	-78	-24	-84	20	10	8	7	61	0	0	0	0	4	4	2	2	0	2
Hungry_Donkey_bar_English_2	158	1	<?xml version="1.0"?>\n<Clock xmlns:dt="urn:schemas-microsoft-com:datatypes"><Description dt:dt="string">E-Prime Primary Realtime Clock</Description><StartTime><Timestamp dt:dt="int">0</Timestamp><DateUtc dt:dt="string">2016-07-20T21:04:40Z</DateUtc></StartTime><FrequencyChanges><FrequencyChange><Frequency dt:dt="r8">3507675</Frequency><Timestamp dt:dt="r8">238002756646</Timestamp><Current dt:dt="r8">0</Current><DateUtc dt:dt="string">2016-07-20T21:04:40Z</DateUtc></FrequencyChange></FrequencyChanges></Clock>\n	Hungry_Donkey_bar_English_2-158-1	60.017	-46	1.0.0.18	1	1780223140	Standard	2.0.10.353	2.0.10.353	07-20-2016	7/20/2016 9:04:40 PM	17:04:40	2.0.10.248	62	Bar37-63.bmp	38	2	?	8r_4g.bmp	50r_4g.bmp	1r_2g.bmp	10r_2g.bmp		50r_4g.bmp			TrialProc	TrialList	0	cvbn	-999999	16	279779	0	v	402	280181	192	-316	-124	-24	-130	20	10	1	7	62	-8	-50	-1	-10	4	4	2	2	-50	4
Hungry_Donkey_bar_English_2	158	1	<?xml version="1.0"?>\n<Clock xmlns:dt="urn:schemas-microsoft-com:datatypes"><Description dt:dt="string">E-Prime Primary Realtime Clock</Description><StartTime><Timestamp dt:dt="int">0</Timestamp><DateUtc dt:dt="string">2016-07-20T21:04:40Z</DateUtc></StartTime><FrequencyChanges><FrequencyChange><Frequency dt:dt="r8">3507675</Frequency><Timestamp dt:dt="r8">238002756646</Timestamp><Current dt:dt="r8">0</Current><DateUtc dt:dt="string">2016-07-20T21:04:40Z</DateUtc></FrequencyChange></FrequencyChanges></Clock>\n	Hungry_Donkey_bar_English_2-158-1	60.017	-46	1.0.0.18	1	1780223140	Standard	2.0.10.353	2.0.10.353	07-20-2016	7/20/2016 9:04:40 PM	17:04:40	2.0.10.248	63	Bar37-63.bmp	38	4	?	10r_4g.bmp	0r_4g.bmp	2r_2g.bmp	0r_2g.bmp				0r_2g.bmp	TrialProc	TrialList	0	cvbn	-999999	17	282212	0	n	625	282837	194	-316	-122	-24	-130	20	12	2	7	63	-10	0	-2	0	4	4	2	2	0	2
Hungry_Donkey_bar_English_2	158	1	<?xml version="1.0"?>\n<Clock xmlns:dt="urn:schemas-microsoft-com:datatypes"><Description dt:dt="string">E-Prime Primary Realtime Clock</Description><StartTime><Timestamp dt:dt="int">0</Timestamp><DateUtc dt:dt="string">2016-07-20T21:04:40Z</DateUtc></StartTime><FrequencyChanges><FrequencyChange><Frequency dt:dt="r8">3507675</Frequency><Timestamp dt:dt="r8">238002756646</Timestamp><Current dt:dt="r8">0</Current><DateUtc dt:dt="string">2016-07-20T21:04:40Z</DateUtc></FrequencyChange></FrequencyChanges></Clock>\n	Hungry_Donkey_bar_English_2-158-1	60.017	-46	1.0.0.18	1	1780223140	Standard	2.0.10.353	2.0.10.353	07-20-2016	7/20/2016 9:04:40 PM	17:04:40	2.0.10.248	64	Bar37-63.bmp	38	4	?	0r_4g.bmp	0r_4g.bmp	0r_2g.bmp	0r_2g.bmp				0r_2g.bmp	TrialProc	TrialList	0	cvbn	-999999	16	284861	0	n	1336	286197	196	-316	-120	-24	-130	20	14	9	7	64	0	0	0	0	4	4	2	2	0	2
Hungry_Donkey_bar_English_2	158	1	<?xml version="1.0"?>\n<Clock xmlns:dt="urn:schemas-microsoft-com:datatypes"><Description dt:dt="string">E-Prime Primary Realtime Clock</Description><StartTime><Timestamp dt:dt="int">0</Timestamp><DateUtc dt:dt="string">2016-07-20T21:04:40Z</DateUtc></StartTime><FrequencyChanges><FrequencyChange><Frequency dt:dt="r8">3507675</Frequency><Timestamp dt:dt="r8">238002756646</Timestamp><Current dt:dt="r8">0</Current><DateUtc dt:dt="string">2016-07-20T21:04:40Z</DateUtc></FrequencyChange></FrequencyChanges></Clock>\n	Hungry_Donkey_bar_English_2-158-1	60.017	-46	1.0.0.18	1	1780223140	Standard	2.0.10.353	2.0.10.353	07-20-2016	7/20/2016 9:04:40 PM	17:04:40	2.0.10.248	65	Bar37-63.bmp	39	4	?	0r_4g.bmp	0r_4g.bmp	0r_2g.bmp	0r_2g.bmp				0r_2g.bmp	TrialProc	TrialList	0	cvbn	-999999	16	288226	0	n	963	289189	198	-316	-118	-24	-130	20	16	7	7	65	0	0	0	0	4	4	2	2	0	2
Hungry_Donkey_bar_English_2	158	1	<?xml version="1.0"?>\n<Clock xmlns:dt="urn:schemas-microsoft-com:datatypes"><Description dt:dt="string">E-Prime Primary Realtime Clock</Description><StartTime><Timestamp dt:dt="int">0</Timestamp><DateUtc dt:dt="string">2016-07-20T21:04:40Z</DateUtc></StartTime><FrequencyChanges><FrequencyChange><Frequency dt:dt="r8">3507675</Frequency><Timestamp dt:dt="r8">238002756646</Timestamp><Current dt:dt="r8">0</Current><DateUtc dt:dt="string">2016-07-20T21:04:40Z</DateUtc></FrequencyChange></FrequencyChanges></Clock>\n	Hungry_Donkey_bar_English_2-158-1	60.017	-46	1.0.0.18	1	1780223140	Standard	2.0.10.353	2.0.10.353	07-20-2016	7/20/2016 9:04:40 PM	17:04:40	2.0.10.248	66	Bar37-63.bmp	39	3	?	0r_4g.bmp	0r_4g.bmp	0r_2g.bmp	0r_2g.bmp			0r_2g.bmp		TrialProc	TrialList	0	cvbn	-999999	16	291226	0	b	507	291733	200	-316	-116	-24	-130	22	16	6	7	66	0	0	0	0	4	4	2	2	0	2
Hungry_Donkey_bar_English_2	158	1	<?xml version="1.0"?>\n<Clock xmlns:dt="urn:schemas-microsoft-com:datatypes"><Description dt:dt="string">E-Prime Primary Realtime Clock</Description><StartTime><Timestamp dt:dt="int">0</Timestamp><DateUtc dt:dt="string">2016-07-20T21:04:40Z</DateUtc></StartTime><FrequencyChanges><FrequencyChange><Frequency dt:dt="r8">3507675</Frequency><Timestamp dt:dt="r8">238002756646</Timestamp><Current dt:dt="r8">0</Current><DateUtc dt:dt="string">2016-07-20T21:04:40Z</DateUtc></FrequencyChange></FrequencyChanges></Clock>\n	Hungry_Donkey_bar_English_2-158-1	60.017	-46	1.0.0.18	1	1780223140	Standard	2.0.10.353	2.0.10.353	07-20-2016	7/20/2016 9:04:40 PM	17:04:40	2.0.10.248	67	Bar37-63.bmp	39	3	?	10r_4g.bmp	0r_4g.bmp	2r_2g.bmp	0r_2g.bmp			2r_2g.bmp		TrialProc	TrialList	0	cvbn	-999999	16	293758	0	b	1495	295253	202	-318	-116	-24	-130	22	16	3	7	67	-10	0	-2	0	4	4	2	2	-2	2
Hungry_Donkey_bar_English_2	158	1	<?xml version="1.0"?>\n<Clock xmlns:dt="urn:schemas-microsoft-com:datatypes"><Description dt:dt="string">E-Prime Primary Realtime Clock</Description><StartTime><Timestamp dt:dt="int">0</Timestamp><DateUtc dt:dt="string">2016-07-20T21:04:40Z</DateUtc></StartTime><FrequencyChanges><FrequencyChange><Frequency dt:dt="r8">3507675</Frequency><Timestamp dt:dt="r8">238002756646</Timestamp><Current dt:dt="r8">0</Current><DateUtc dt:dt="string">2016-07-20T21:04:40Z</DateUtc></FrequencyChange></FrequencyChanges></Clock>\n	Hungry_Donkey_bar_English_2-158-1	60.017	-46	1.0.0.18	1	1780223140	Standard	2.0.10.353	2.0.10.353	07-20-2016	7/20/2016 9:04:40 PM	17:04:40	2.0.10.248	68	Bar37-63.bmp	39	4	?	10r_4g.bmp	0r_4g.bmp	2r_2g.bmp	0r_2g.bmp				0r_2g.bmp	TrialProc	TrialList	0	cvbn	-999999	17	297291	0	n	1001	298292	204	-318	-114	-24	-130	22	18	4	7	68	-10	0	-2	0	4	4	2	2	0	2
Hungry_Donkey_bar_English_2	158	1	<?xml version="1.0"?>\n<Clock xmlns:dt="urn:schemas-microsoft-com:datatypes"><Description dt:dt="string">E-Prime Primary Realtime Clock</Description><StartTime><Timestamp dt:dt="int">0</Timestamp><DateUtc dt:dt="string">2016-07-20T21:04:40Z</DateUtc></StartTime><FrequencyChanges><FrequencyChange><Frequency dt:dt="r8">3507675</Frequency><Timestamp dt:dt="r8">238002756646</Timestamp><Current dt:dt="r8">0</Current><DateUtc dt:dt="string">2016-07-20T21:04:40Z</DateUtc></FrequencyChange></FrequencyChanges></Clock>\n	Hungry_Donkey_bar_English_2-158-1	60.017	-46	1.0.0.18	1	1780223140	Standard	2.0.10.353	2.0.10.353	07-20-2016	7/20/2016 9:04:40 PM	17:04:40	2.0.10.248	69	Bar37-63.bmp	40	2	?	0r_4g.bmp	0r_4g.bmp	0r_2g.bmp	0r_2g.bmp		0r_4g.bmp			TrialProc	TrialList	0	cvbn	-999999	16	300323	0	v	417	300740	208	-318	-110	-24	-126	22	18	10	7	69	0	0	0	0	4	4	2	2	0	4
Hungry_Donkey_bar_English_2	158	1	<?xml version="1.0"?>\n<Clock xmlns:dt="urn:schemas-microsoft-com:datatypes"><Description dt:dt="string">E-Prime Primary Realtime Clock</Description><StartTime><Timestamp dt:dt="int">0</Timestamp><DateUtc dt:dt="string">2016-07-20T21:04:40Z</DateUtc></StartTime><FrequencyChanges><FrequencyChange><Frequency dt:dt="r8">3507675</Frequency><Timestamp dt:dt="r8">238002756646</Timestamp><Current dt:dt="r8">0</Current><DateUtc dt:dt="string">2016-07-20T21:04:40Z</DateUtc></FrequencyChange></FrequencyChanges></Clock>\n	Hungry_Donkey_bar_English_2-158-1	60.017	-46	1.0.0.18	1	1780223140	Standard	2.0.10.353	2.0.10.353	07-20-2016	7/20/2016 9:04:40 PM	17:04:40	2.0.10.248	70	Bar37-63.bmp	40	2	?	12r_4g.bmp	0r_4g.bmp	3r_2g.bmp	0r_2g.bmp		0r_4g.bmp			TrialProc	TrialList	0	cvbn	-999999	16	302772	0	v	544	303316	212	-318	-106	-24	-122	22	18	5	7	70	-12	0	-3	0	4	4	2	2	0	4
Hungry_Donkey_bar_English_2	158	1	<?xml version="1.0"?>\n<Clock xmlns:dt="urn:schemas-microsoft-com:datatypes"><Description dt:dt="string">E-Prime Primary Realtime Clock</Description><StartTime><Timestamp dt:dt="int">0</Timestamp><DateUtc dt:dt="string">2016-07-20T21:04:40Z</DateUtc></StartTime><FrequencyChanges><FrequencyChange><Frequency dt:dt="r8">3507675</Frequency><Timestamp dt:dt="r8">238002756646</Timestamp><Current dt:dt="r8">0</Current><DateUtc dt:dt="string">2016-07-20T21:04:40Z</DateUtc></FrequencyChange></FrequencyChanges></Clock>\n	Hungry_Donkey_bar_English_2-158-1	60.017	-46	1.0.0.18	1	1780223140	Standard	2.0.10.353	2.0.10.353	07-20-2016	7/20/2016 9:04:40 PM	17:04:40	2.0.10.248	71	Bar37-63.bmp	37	2	?	8r_4g.bmp	50r_4g.bmp	1r_2g.bmp	10r_2g.bmp		50r_4g.bmp			TrialProc	TrialList	0	cvbn	-999999	16	305355	0	v	1721	307076	216	-368	-152	-24	-168	22	18	1	8	71	-8	-50	-1	-10	4	4	2	2	-50	4
Hungry_Donkey_bar_English_2	158	1	<?xml version="1.0"?>\n<Clock xmlns:dt="urn:schemas-microsoft-com:datatypes"><Description dt:dt="string">E-Prime Primary Realtime Clock</Description><StartTime><Timestamp dt:dt="int">0</Timestamp><DateUtc dt:dt="string">2016-07-20T21:04:40Z</DateUtc></StartTime><FrequencyChanges><FrequencyChange><Frequency dt:dt="r8">3507675</Frequency><Timestamp dt:dt="r8">238002756646</Timestamp><Current dt:dt="r8">0</Current><DateUtc dt:dt="string">2016-07-20T21:04:40Z</DateUtc></FrequencyChange></FrequencyChanges></Clock>\n	Hungry_Donkey_bar_English_2-158-1	60.017	-46	1.0.0.18	1	1780223140	Standard	2.0.10.353	2.0.10.353	07-20-2016	7/20/2016 9:04:40 PM	17:04:40	2.0.10.248	72	Bar37-63.bmp	37	3	?	10r_4g.bmp	0r_4g.bmp	2r_2g.bmp	0r_2g.bmp			2r_2g.bmp		TrialProc	TrialList	0	cvbn	-999999	16	309104	0	b	484	309588	218	-370	-152	-24	-168	22	18	3	8	72	-10	0	-2	0	4	4	2	2	-2	2
Hungry_Donkey_bar_English_2	158	1	<?xml version="1.0"?>\n<Clock xmlns:dt="urn:schemas-microsoft-com:datatypes"><Description dt:dt="string">E-Prime Primary Realtime Clock</Description><StartTime><Timestamp dt:dt="int">0</Timestamp><DateUtc dt:dt="string">2016-07-20T21:04:40Z</DateUtc></StartTime><FrequencyChanges><FrequencyChange><Frequency dt:dt="r8">3507675</Frequency><Timestamp dt:dt="r8">238002756646</Timestamp><Current dt:dt="r8">0</Current><DateUtc dt:dt="string">2016-07-20T21:04:40Z</DateUtc></FrequencyChange></FrequencyChanges></Clock>\n	Hungry_Donkey_bar_English_2-158-1	60.017	-46	1.0.0.18	1	1780223140	Standard	2.0.10.353	2.0.10.353	07-20-2016	7/20/2016 9:04:40 PM	17:04:40	2.0.10.248	73	Bar37-63.bmp	37	4	?	0r_4g.bmp	0r_4g.bmp	0r_2g.bmp	0r_2g.bmp				0r_2g.bmp	TrialProc	TrialList	0	cvbn	-999999	16	311620	0	n	752	312372	220	-370	-150	-24	-168	22	20	10	8	73	0	0	0	0	4	4	2	2	0	2
Hungry_Donkey_bar_English_2	158	1	<?xml version="1.0"?>\n<Clock xmlns:dt="urn:schemas-microsoft-com:datatypes"><Description dt:dt="string">E-Prime Primary Realtime Clock</Description><StartTime><Timestamp dt:dt="int">0</Timestamp><DateUtc dt:dt="string">2016-07-20T21:04:40Z</DateUtc></StartTime><FrequencyChanges><FrequencyChange><Frequency dt:dt="r8">3507675</Frequency><Timestamp dt:dt="r8">238002756646</Timestamp><Current dt:dt="r8">0</Current><DateUtc dt:dt="string">2016-07-20T21:04:40Z</DateUtc></FrequencyChange></FrequencyChanges></Clock>\n	Hungry_Donkey_bar_English_2-158-1	60.017	-46	1.0.0.18	1	1780223140	Standard	2.0.10.353	2.0.10.353	07-20-2016	7/20/2016 9:04:40 PM	17:04:40	2.0.10.248	74	Bar37-63.bmp	38	4	?	0r_4g.bmp	0r_4g.bmp	0r_2g.bmp	0r_2g.bmp				0r_2g.bmp	TrialProc	TrialList	0	cvbn	-999999	16	314402	0	n	914	315316	222	-370	-148	-24	-168	22	22	6	8	74	0	0	0	0	4	4	2	2	0	2
Hungry_Donkey_bar_English_2	158	1	<?xml version="1.0"?>\n<Clock xmlns:dt="urn:schemas-microsoft-com:datatypes"><Description dt:dt="string">E-Prime Primary Realtime Clock</Description><StartTime><Timestamp dt:dt="int">0</Timestamp><DateUtc dt:dt="string">2016-07-20T21:04:40Z</DateUtc></StartTime><FrequencyChanges><FrequencyChange><Frequency dt:dt="r8">3507675</Frequency><Timestamp dt:dt="r8">238002756646</Timestamp><Current dt:dt="r8">0</Current><DateUtc dt:dt="string">2016-07-20T21:04:40Z</DateUtc></FrequencyChange></FrequencyChanges></Clock>\n	Hungry_Donkey_bar_English_2-158-1	60.017	-46	1.0.0.18	1	1780223140	Standard	2.0.10.353	2.0.10.353	07-20-2016	7/20/2016 9:04:40 PM	17:04:40	2.0.10.248	75	Bar37-63.bmp	38	4	?	0r_4g.bmp	0r_4g.bmp	0r_2g.bmp	0r_2g.bmp				0r_2g.bmp	TrialProc	TrialList	0	cvbn	-999999	16	317351	0	n	6092	323443	224	-370	-146	-24	-168	22	24	8	8	75	0	0	0	0	4	4	2	2	0	2
Hungry_Donkey_bar_English_2	158	1	<?xml version="1.0"?>\n<Clock xmlns:dt="urn:schemas-microsoft-com:datatypes"><Description dt:dt="string">E-Prime Primary Realtime Clock</Description><StartTime><Timestamp dt:dt="int">0</Timestamp><DateUtc dt:dt="string">2016-07-20T21:04:40Z</DateUtc></StartTime><FrequencyChanges><FrequencyChange><Frequency dt:dt="r8">3507675</Frequency><Timestamp dt:dt="r8">238002756646</Timestamp><Current dt:dt="r8">0</Current><DateUtc dt:dt="string">2016-07-20T21:04:40Z</DateUtc></FrequencyChange></FrequencyChanges></Clock>\n	Hungry_Donkey_bar_English_2-158-1	60.017	-46	1.0.0.18	1	1780223140	Standard	2.0.10.353	2.0.10.353	07-20-2016	7/20/2016 9:04:40 PM	17:04:40	2.0.10.248	76	Bar37-63.bmp	38	3	?	0r_4g.bmp	0r_4g.bmp	0r_2g.bmp	0r_2g.bmp			0r_2g.bmp		TrialProc	TrialList	0	cvbn	-999999	17	325483	0	b	600	326083	226	-370	-144	-24	-168	24	24	7	8	76	0	0	0	0	4	4	2	2	0	2
Hungry_Donkey_bar_English_2	158	1	<?xml version="1.0"?>\n<Clock xmlns:dt="urn:schemas-microsoft-com:datatypes"><Description dt:dt="string">E-Prime Primary Realtime Clock</Description><StartTime><Timestamp dt:dt="int">0</Timestamp><DateUtc dt:dt="string">2016-07-20T21:04:40Z</DateUtc></StartTime><FrequencyChanges><FrequencyChange><Frequency dt:dt="r8">3507675</Frequency><Timestamp dt:dt="r8">238002756646</Timestamp><Current dt:dt="r8">0</Current><DateUtc dt:dt="string">2016-07-20T21:04:40Z</DateUtc></FrequencyChange></FrequencyChanges></Clock>\n	Hungry_Donkey_bar_English_2-158-1	60.017	-46	1.0.0.18	1	1780223140	Standard	2.0.10.353	2.0.10.353	07-20-2016	7/20/2016 9:04:40 PM	17:04:40	2.0.10.248	77	Bar37-63.bmp	38	3	?	10r_4g.bmp	0r_4g.bmp	2r_2g.bmp	0r_2g.bmp			2r_2g.bmp		TrialProc	TrialList	0	cvbn	-999999	16	328115	0	b	512	328627	228	-372	-144	-24	-168	24	24	4	8	77	-10	0	-2	0	4	4	2	2	-2	2
Hungry_Donkey_bar_English_2	158	1	<?xml version="1.0"?>\n<Clock xmlns:dt="urn:schemas-microsoft-com:datatypes"><Description dt:dt="string">E-Prime Primary Realtime Clock</Description><StartTime><Timestamp dt:dt="int">0</Timestamp><DateUtc dt:dt="string">2016-07-20T21:04:40Z</DateUtc></StartTime><FrequencyChanges><FrequencyChange><Frequency dt:dt="r8">3507675</Frequency><Timestamp dt:dt="r8">238002756646</Timestamp><Current dt:dt="r8">0</Current><DateUtc dt:dt="string">2016-07-20T21:04:40Z</DateUtc></FrequencyChange></FrequencyChanges></Clock>\n	Hungry_Donkey_bar_English_2-158-1	60.017	-46	1.0.0.18	1	1780223140	Standard	2.0.10.353	2.0.10.353	07-20-2016	7/20/2016 9:04:40 PM	17:04:40	2.0.10.248	78	Bar37-63.bmp	38	2	?	10r_4g.bmp	0r_4g.bmp	2r_2g.bmp	0r_2g.bmp		0r_4g.bmp			TrialProc	TrialList	0	cvbn	-999999	16	330664	0	v	155	330819	232	-372	-140	-24	-164	24	24	2	8	78	-10	0	-2	0	4	4	2	2	0	4
Hungry_Donkey_bar_English_2	158	1	<?xml version="1.0"?>\n<Clock xmlns:dt="urn:schemas-microsoft-com:datatypes"><Description dt:dt="string">E-Prime Primary Realtime Clock</Description><StartTime><Timestamp dt:dt="int">0</Timestamp><DateUtc dt:dt="string">2016-07-20T21:04:40Z</DateUtc></StartTime><FrequencyChanges><FrequencyChange><Frequency dt:dt="r8">3507675</Frequency><Timestamp dt:dt="r8">238002756646</Timestamp><Current dt:dt="r8">0</Current><DateUtc dt:dt="string">2016-07-20T21:04:40Z</DateUtc></FrequencyChange></FrequencyChanges></Clock>\n	Hungry_Donkey_bar_English_2-158-1	60.017	-46	1.0.0.18	1	1780223140	Standard	2.0.10.353	2.0.10.353	07-20-2016	7/20/2016 9:04:40 PM	17:04:40	2.0.10.248	79	Bar37-63.bmp	39	2	?	12r_4g.bmp	0r_4g.bmp	3r_2g.bmp	0r_2g.bmp		0r_4g.bmp			TrialProc	TrialList	0	cvbn	-999999	16	332847	0	v	340	333187	236	-372	-136	-24	-160	24	24	5	8	79	-12	0	-3	0	4	4	2	2	0	4
Hungry_Donkey_bar_English_2	158	1	<?xml version="1.0"?>\n<Clock xmlns:dt="urn:schemas-microsoft-com:datatypes"><Description dt:dt="string">E-Prime Primary Realtime Clock</Description><StartTime><Timestamp dt:dt="int">0</Timestamp><DateUtc dt:dt="string">2016-07-20T21:04:40Z</DateUtc></StartTime><FrequencyChanges><FrequencyChange><Frequency dt:dt="r8">3507675</Frequency><Timestamp dt:dt="r8">238002756646</Timestamp><Current dt:dt="r8">0</Current><DateUtc dt:dt="string">2016-07-20T21:04:40Z</DateUtc></FrequencyChange></FrequencyChanges></Clock>\n	Hungry_Donkey_bar_English_2-158-1	60.017	-46	1.0.0.18	1	1780223140	Standard	2.0.10.353	2.0.10.353	07-20-2016	7/20/2016 9:04:40 PM	17:04:40	2.0.10.248	80	Bar37-63.bmp	39	2	?	0r_4g.bmp	0r_4g.bmp	0r_2g.bmp	0r_2g.bmp		0r_4g.bmp			TrialProc	TrialList	0	cvbn	-999999	16	335213	0	v	230	335443	240	-372	-132	-24	-156	24	24	9	8	80	0	0	0	0	4	4	2	2	0	4
Hungry_Donkey_bar_English_2	158	1	<?xml version="1.0"?>\n<Clock xmlns:dt="urn:schemas-microsoft-com:datatypes"><Description dt:dt="string">E-Prime Primary Realtime Clock</Description><StartTime><Timestamp dt:dt="int">0</Timestamp><DateUtc dt:dt="string">2016-07-20T21:04:40Z</DateUtc></StartTime><FrequencyChanges><FrequencyChange><Frequency dt:dt="r8">3507675</Frequency><Timestamp dt:dt="r8">238002756646</Timestamp><Current dt:dt="r8">0</Current><DateUtc dt:dt="string">2016-07-20T21:04:40Z</DateUtc></FrequencyChange></FrequencyChanges></Clock>\n	Hungry_Donkey_bar_English_2-158-1	60.017	-46	1.0.0.18	1	1780223140	Standard	2.0.10.353	2.0.10.353	07-20-2016	7/20/2016 9:04:40 PM	17:04:40	2.0.10.248	81	Bar37-63.bmp	39	3	?	12r_4g.bmp	0r_4g.bmp	3r_2g.bmp	0r_2g.bmp			3r_2g.bmp		TrialProc	TrialList	0	cvbn	-999999	16	337479	0	b	491	337970	242	-375	-133	-24	-156	23	24	5	9	81	-12	0	-3	0	4	4	2	2	-3	2
Hungry_Donkey_bar_English_2	158	1	<?xml version="1.0"?>\n<Clock xmlns:dt="urn:schemas-microsoft-com:datatypes"><Description dt:dt="string">E-Prime Primary Realtime Clock</Description><StartTime><Timestamp dt:dt="int">0</Timestamp><DateUtc dt:dt="string">2016-07-20T21:04:40Z</DateUtc></StartTime><FrequencyChanges><FrequencyChange><Frequency dt:dt="r8">3507675</Frequency><Timestamp dt:dt="r8">238002756646</Timestamp><Current dt:dt="r8">0</Current><DateUtc dt:dt="string">2016-07-20T21:04:40Z</DateUtc></FrequencyChange></FrequencyChanges></Clock>\n	Hungry_Donkey_bar_English_2-158-1	60.017	-46	1.0.0.18	1	1780223140	Standard	2.0.10.353	2.0.10.353	07-20-2016	7/20/2016 9:04:40 PM	17:04:40	2.0.10.248	82	Bar37-63.bmp	39	1	?	10r_4g.bmp	0r_4g.bmp	2r_2g.bmp	0r_2g.bmp	10r_4g.bmp				TrialProc	TrialList	0	cvbn	-999999	16	339995	0	c	199	340194	246	-385	-139	-30	-156	23	24	2	9	82	-10	0	-2	0	4	4	2	2	-10	4
Hungry_Donkey_bar_English_2	158	1	<?xml version="1.0"?>\n<Clock xmlns:dt="urn:schemas-microsoft-com:datatypes"><Description dt:dt="string">E-Prime Primary Realtime Clock</Description><StartTime><Timestamp dt:dt="int">0</Timestamp><DateUtc dt:dt="string">2016-07-20T21:04:40Z</DateUtc></StartTime><FrequencyChanges><FrequencyChange><Frequency dt:dt="r8">3507675</Frequency><Timestamp dt:dt="r8">238002756646</Timestamp><Current dt:dt="r8">0</Current><DateUtc dt:dt="string">2016-07-20T21:04:40Z</DateUtc></FrequencyChange></FrequencyChanges></Clock>\n	Hungry_Donkey_bar_English_2-158-1	60.017	-46	1.0.0.18	1	1780223140	Standard	2.0.10.353	2.0.10.353	07-20-2016	7/20/2016 9:04:40 PM	17:04:40	2.0.10.248	83	Bar37-63.bmp	39	1	?	8r_4g.bmp	50r_4g.bmp	1r_2g.bmp	10r_2g.bmp	8r_4g.bmp				TrialProc	TrialList	0	cvbn	-999999	16	342228	0	c	462	342690	250	-393	-143	-34	-156	23	24	1	9	83	-8	-50	-1	-10	4	4	2	2	-8	4
Hungry_Donkey_bar_English_2	158	1	<?xml version="1.0"?>\n<Clock xmlns:dt="urn:schemas-microsoft-com:datatypes"><Description dt:dt="string">E-Prime Primary Realtime Clock</Description><StartTime><Timestamp dt:dt="int">0</Timestamp><DateUtc dt:dt="string">2016-07-20T21:04:40Z</DateUtc></StartTime><FrequencyChanges><FrequencyChange><Frequency dt:dt="r8">3507675</Frequency><Timestamp dt:dt="r8">238002756646</Timestamp><Current dt:dt="r8">0</Current><DateUtc dt:dt="string">2016-07-20T21:04:40Z</DateUtc></FrequencyChange></FrequencyChanges></Clock>\n	Hungry_Donkey_bar_English_2-158-1	60.017	-46	1.0.0.18	1	1780223140	Standard	2.0.10.353	2.0.10.353	07-20-2016	7/20/2016 9:04:40 PM	17:04:40	2.0.10.248	84	Bar37-63.bmp	39	2	?	0r_4g.bmp	0r_4g.bmp	0r_2g.bmp	0r_2g.bmp		0r_4g.bmp			TrialProc	TrialList	0	cvbn	-999999	16	344727	0	v	635	345362	254	-393	-139	-34	-152	23	24	9	9	84	0	0	0	0	4	4	2	2	0	4
Hungry_Donkey_bar_English_2	158	1	<?xml version="1.0"?>\n<Clock xmlns:dt="urn:schemas-microsoft-com:datatypes"><Description dt:dt="string">E-Prime Primary Realtime Clock</Description><StartTime><Timestamp dt:dt="int">0</Timestamp><DateUtc dt:dt="string">2016-07-20T21:04:40Z</DateUtc></StartTime><FrequencyChanges><FrequencyChange><Frequency dt:dt="r8">3507675</Frequency><Timestamp dt:dt="r8">238002756646</Timestamp><Current dt:dt="r8">0</Current><DateUtc dt:dt="string">2016-07-20T21:04:40Z</DateUtc></FrequencyChange></FrequencyChanges></Clock>\n	Hungry_Donkey_bar_English_2-158-1	60.017	-46	1.0.0.18	1	1780223140	Standard	2.0.10.353	2.0.10.353	07-20-2016	7/20/2016 9:04:40 PM	17:04:40	2.0.10.248	85	Bar37-63.bmp	39	3	?	0r_4g.bmp	0r_4g.bmp	0r_2g.bmp	0r_2g.bmp			0r_2g.bmp		TrialProc	TrialList	0	cvbn	-999999	16	347393	0	b	401	347794	256	-393	-137	-34	-152	25	24	7	9	85	0	0	0	0	4	4	2	2	0	2
Hungry_Donkey_bar_English_2	158	1	<?xml version="1.0"?>\n<Clock xmlns:dt="urn:schemas-microsoft-com:datatypes"><Description dt:dt="string">E-Prime Primary Realtime Clock</Description><StartTime><Timestamp dt:dt="int">0</Timestamp><DateUtc dt:dt="string">2016-07-20T21:04:40Z</DateUtc></StartTime><FrequencyChanges><FrequencyChange><Frequency dt:dt="r8">3507675</Frequency><Timestamp dt:dt="r8">238002756646</Timestamp><Current dt:dt="r8">0</Current><DateUtc dt:dt="string">2016-07-20T21:04:40Z</DateUtc></FrequencyChange></FrequencyChanges></Clock>\n	Hungry_Donkey_bar_English_2-158-1	60.017	-46	1.0.0.18	1	1780223140	Standard	2.0.10.353	2.0.10.353	07-20-2016	7/20/2016 9:04:40 PM	17:04:40	2.0.10.248	86	Bar37-63.bmp	40	4	?	0r_4g.bmp	0r_4g.bmp	0r_2g.bmp	0r_2g.bmp				0r_2g.bmp	TrialProc	TrialList	0	cvbn	-999999	17	349826	0	n	528	350354	258	-393	-135	-34	-152	25	26	8	9	86	0	0	0	0	4	4	2	2	0	2
Hungry_Donkey_bar_English_2	158	1	<?xml version="1.0"?>\n<Clock xmlns:dt="urn:schemas-microsoft-com:datatypes"><Description dt:dt="string">E-Prime Primary Realtime Clock</Description><StartTime><Timestamp dt:dt="int">0</Timestamp><DateUtc dt:dt="string">2016-07-20T21:04:40Z</DateUtc></StartTime><FrequencyChanges><FrequencyChange><Frequency dt:dt="r8">3507675</Frequency><Timestamp dt:dt="r8">238002756646</Timestamp><Current dt:dt="r8">0</Current><DateUtc dt:dt="string">2016-07-20T21:04:40Z</DateUtc></FrequencyChange></FrequencyChanges></Clock>\n	Hungry_Donkey_bar_English_2-158-1	60.017	-46	1.0.0.18	1	1780223140	Standard	2.0.10.353	2.0.10.353	07-20-2016	7/20/2016 9:04:40 PM	17:04:40	2.0.10.248	87	Bar37-63.bmp	40	4	?	10r_4g.bmp	0r_4g.bmp	2r_2g.bmp	0r_2g.bmp				0r_2g.bmp	TrialProc	TrialList	0	cvbn	-999999	16	352391	0	n	5451	357842	260	-393	-133	-34	-152	25	28	4	9	87	-10	0	-2	0	4	4	2	2	0	2
Hungry_Donkey_bar_English_2	158	1	<?xml version="1.0"?>\n<Clock xmlns:dt="urn:schemas-microsoft-com:datatypes"><Description dt:dt="string">E-Prime Primary Realtime Clock</Description><StartTime><Timestamp dt:dt="int">0</Timestamp><DateUtc dt:dt="string">2016-07-20T21:04:40Z</DateUtc></StartTime><FrequencyChanges><FrequencyChange><Frequency dt:dt="r8">3507675</Frequency><Timestamp dt:dt="r8">238002756646</Timestamp><Current dt:dt="r8">0</Current><DateUtc dt:dt="string">2016-07-20T21:04:40Z</DateUtc></FrequencyChange></FrequencyChanges></Clock>\n	Hungry_Donkey_bar_English_2-158-1	60.017	-46	1.0.0.18	1	1780223140	Standard	2.0.10.353	2.0.10.353	07-20-2016	7/20/2016 9:04:40 PM	17:04:40	2.0.10.248	88	Bar37-63.bmp	40	4	?	10r_4g.bmp	0r_4g.bmp	2r_2g.bmp	0r_2g.bmp				0r_2g.bmp	TrialProc	TrialList	0	cvbn	-999999	16	359873	0	n	1136	361009	262	-393	-131	-34	-152	25	30	3	9	88	-10	0	-2	0	4	4	2	2	0	2
Hungry_Donkey_bar_English_2	158	1	<?xml version="1.0"?>\n<Clock xmlns:dt="urn:schemas-microsoft-com:datatypes"><Description dt:dt="string">E-Prime Primary Realtime Clock</Description><StartTime><Timestamp dt:dt="int">0</Timestamp><DateUtc dt:dt="string">2016-07-20T21:04:40Z</DateUtc></StartTime><FrequencyChanges><FrequencyChange><Frequency dt:dt="r8">3507675</Frequency><Timestamp dt:dt="r8">238002756646</Timestamp><Current dt:dt="r8">0</Current><DateUtc dt:dt="string">2016-07-20T21:04:40Z</DateUtc></FrequencyChange></FrequencyChanges></Clock>\n	Hungry_Donkey_bar_English_2-158-1	60.017	-46	1.0.0.18	1	1780223140	Standard	2.0.10.353	2.0.10.353	07-20-2016	7/20/2016 9:04:40 PM	17:04:40	2.0.10.248	89	Bar37-63.bmp	40	4	?	0r_4g.bmp	0r_4g.bmp	0r_2g.bmp	0r_2g.bmp				0r_2g.bmp	TrialProc	TrialList	0	cvbn	-999999	16	363038	0	n	2003	365041	264	-393	-129	-34	-152	25	32	10	9	89	0	0	0	0	4	4	2	2	0	2
Hungry_Donkey_bar_English_2	158	1	<?xml version="1.0"?>\n<Clock xmlns:dt="urn:schemas-microsoft-com:datatypes"><Description dt:dt="string">E-Prime Primary Realtime Clock</Description><StartTime><Timestamp dt:dt="int">0</Timestamp><DateUtc dt:dt="string">2016-07-20T21:04:40Z</DateUtc></StartTime><FrequencyChanges><FrequencyChange><Frequency dt:dt="r8">3507675</Frequency><Timestamp dt:dt="r8">238002756646</Timestamp><Current dt:dt="r8">0</Current><DateUtc dt:dt="string">2016-07-20T21:04:40Z</DateUtc></FrequencyChange></FrequencyChanges></Clock>\n	Hungry_Donkey_bar_English_2-158-1	60.017	-46	1.0.0.18	1	1780223140	Standard	2.0.10.353	2.0.10.353	07-20-2016	7/20/2016 9:04:40 PM	17:04:40	2.0.10.248	90	Bar37-63.bmp	40	3	?	0r_4g.bmp	0r_4g.bmp	0r_2g.bmp	0r_2g.bmp			0r_2g.bmp		TrialProc	TrialList	0	cvbn	-999999	16	367071	0	b	1234	368305	266	-393	-127	-34	-152	27	32	6	9	90	0	0	0	0	4	4	2	2	0	2
Hungry_Donkey_bar_English_2	158	1	<?xml version="1.0"?>\n<Clock xmlns:dt="urn:schemas-microsoft-com:datatypes"><Description dt:dt="string">E-Prime Primary Realtime Clock</Description><StartTime><Timestamp dt:dt="int">0</Timestamp><DateUtc dt:dt="string">2016-07-20T21:04:40Z</DateUtc></StartTime><FrequencyChanges><FrequencyChange><Frequency dt:dt="r8">3507675</Frequency><Timestamp dt:dt="r8">238002756646</Timestamp><Current dt:dt="r8">0</Current><DateUtc dt:dt="string">2016-07-20T21:04:40Z</DateUtc></FrequencyChange></FrequencyChanges></Clock>\n	Hungry_Donkey_bar_English_2-158-1	60.017	-46	1.0.0.18	1	1780223140	Standard	2.0.10.353	2.0.10.353	07-20-2016	7/20/2016 9:04:40 PM	17:04:40	2.0.10.248	91	Bar37-63.bmp	41	2	?	0r_4g.bmp	0r_4g.bmp	0r_2g.bmp	0r_2g.bmp		0r_4g.bmp			TrialProc	TrialList	0	cvbn	-999999	16	370336	0	v	929	371265	270	-393	-123	-34	-148	27	32	7	10	91	0	0	0	0	4	4	2	2	0	4
Hungry_Donkey_bar_English_2	158	1	<?xml version="1.0"?>\n<Clock xmlns:dt="urn:schemas-microsoft-com:datatypes"><Description dt:dt="string">E-Prime Primary Realtime Clock</Description><StartTime><Timestamp dt:dt="int">0</Timestamp><DateUtc dt:dt="string">2016-07-20T21:04:40Z</DateUtc></StartTime><FrequencyChanges><FrequencyChange><Frequency dt:dt="r8">3507675</Frequency><Timestamp dt:dt="r8">238002756646</Timestamp><Current dt:dt="r8">0</Current><DateUtc dt:dt="string">2016-07-20T21:04:40Z</DateUtc></FrequencyChange></FrequencyChanges></Clock>\n	Hungry_Donkey_bar_English_2-158-1	60.017	-46	1.0.0.18	1	1780223140	Standard	2.0.10.353	2.0.10.353	07-20-2016	7/20/2016 9:04:40 PM	17:04:40	2.0.10.248	92	Bar37-63.bmp	41	2	?	10r_4g.bmp	0r_4g.bmp	2r_2g.bmp	0r_2g.bmp		0r_4g.bmp			TrialProc	TrialList	0	cvbn	-999999	16	373302	0	v	2267	375569	274	-393	-119	-34	-144	27	32	3	10	92	-10	0	-2	0	4	4	2	2	0	4
Hungry_Donkey_bar_English_2	158	1	<?xml version="1.0"?>\n<Clock xmlns:dt="urn:schemas-microsoft-com:datatypes"><Description dt:dt="string">E-Prime Primary Realtime Clock</Description><StartTime><Timestamp dt:dt="int">0</Timestamp><DateUtc dt:dt="string">2016-07-20T21:04:40Z</DateUtc></StartTime><FrequencyChanges><FrequencyChange><Frequency dt:dt="r8">3507675</Frequency><Timestamp dt:dt="r8">238002756646</Timestamp><Current dt:dt="r8">0</Current><DateUtc dt:dt="string">2016-07-20T21:04:40Z</DateUtc></FrequencyChange></FrequencyChanges></Clock>\n	Hungry_Donkey_bar_English_2-158-1	60.017	-46	1.0.0.18	1	1780223140	Standard	2.0.10.353	2.0.10.353	07-20-2016	7/20/2016 9:04:40 PM	17:04:40	2.0.10.248	93	Bar37-63.bmp	41	1	?	12r_4g.bmp	0r_4g.bmp	3r_2g.bmp	0r_2g.bmp	12r_4g.bmp				TrialProc	TrialList	0	cvbn	-999999	16	377601	0	c	304	377905	278	-405	-127	-42	-144	27	32	5	10	93	-12	0	-3	0	4	4	2	2	-12	4
Hungry_Donkey_bar_English_2	158	1	<?xml version="1.0"?>\n<Clock xmlns:dt="urn:schemas-microsoft-com:datatypes"><Description dt:dt="string">E-Prime Primary Realtime Clock</Description><StartTime><Timestamp dt:dt="int">0</Timestamp><DateUtc dt:dt="string">2016-07-20T21:04:40Z</DateUtc></StartTime><FrequencyChanges><FrequencyChange><Frequency dt:dt="r8">3507675</Frequency><Timestamp dt:dt="r8">238002756646</Timestamp><Current dt:dt="r8">0</Current><DateUtc dt:dt="string">2016-07-20T21:04:40Z</DateUtc></FrequencyChange></FrequencyChanges></Clock>\n	Hungry_Donkey_bar_English_2-158-1	60.017	-46	1.0.0.18	1	1780223140	Standard	2.0.10.353	2.0.10.353	07-20-2016	7/20/2016 9:04:40 PM	17:04:40	2.0.10.248	94	Bar37-63.bmp	41	2	?	10r_4g.bmp	0r_4g.bmp	2r_2g.bmp	0r_2g.bmp		0r_4g.bmp			TrialProc	TrialList	0	cvbn	-999999	16	379950	0	v	498	380448	282	-405	-123	-42	-140	27	32	2	10	94	-10	0	-2	0	4	4	2	2	0	4
Hungry_Donkey_bar_English_2	158	1	<?xml version="1.0"?>\n<Clock xmlns:dt="urn:schemas-microsoft-com:datatypes"><Description dt:dt="string">E-Prime Primary Realtime Clock</Description><StartTime><Timestamp dt:dt="int">0</Timestamp><DateUtc dt:dt="string">2016-07-20T21:04:40Z</DateUtc></StartTime><FrequencyChanges><FrequencyChange><Frequency dt:dt="r8">3507675</Frequency><Timestamp dt:dt="r8">238002756646</Timestamp><Current dt:dt="r8">0</Current><DateUtc dt:dt="string">2016-07-20T21:04:40Z</DateUtc></FrequencyChange></FrequencyChanges></Clock>\n	Hungry_Donkey_bar_English_2-158-1	60.017	-46	1.0.0.18	1	1780223140	Standard	2.0.10.353	2.0.10.353	07-20-2016	7/20/2016 9:04:40 PM	17:04:40	2.0.10.248	95	Bar37-63.bmp	41	3	?	0r_4g.bmp	0r_4g.bmp	0r_2g.bmp	0r_2g.bmp			0r_2g.bmp		TrialProc	TrialList	0	cvbn	-999999	16	382483	0	b	589	383072	284	-405	-121	-42	-140	29	32	9	10	95	0	0	0	0	4	4	2	2	0	2
Hungry_Donkey_bar_English_2	158	1	<?xml version="1.0"?>\n<Clock xmlns:dt="urn:schemas-microsoft-com:datatypes"><Description dt:dt="string">E-Prime Primary Realtime Clock</Description><StartTime><Timestamp dt:dt="int">0</Timestamp><DateUtc dt:dt="string">2016-07-20T21:04:40Z</DateUtc></StartTime><FrequencyChanges><FrequencyChange><Frequency dt:dt="r8">3507675</Frequency><Timestamp dt:dt="r8">238002756646</Timestamp><Current dt:dt="r8">0</Current><DateUtc dt:dt="string">2016-07-20T21:04:40Z</DateUtc></FrequencyChange></FrequencyChanges></Clock>\n	Hungry_Donkey_bar_English_2-158-1	60.017	-46	1.0.0.18	1	1780223140	Standard	2.0.10.353	2.0.10.353	07-20-2016	7/20/2016 9:04:40 PM	17:04:40	2.0.10.248	96	Bar37-63.bmp	41	4	?	0r_4g.bmp	0r_4g.bmp	0r_2g.bmp	0r_2g.bmp				0r_2g.bmp	TrialProc	TrialList	0	cvbn	-999999	16	385099	0	n	373	385472	286	-405	-119	-42	-140	29	34	10	10	96	0	0	0	0	4	4	2	2	0	2
Hungry_Donkey_bar_English_2	158	1	<?xml version="1.0"?>\n<Clock xmlns:dt="urn:schemas-microsoft-com:datatypes"><Description dt:dt="string">E-Prime Primary Realtime Clock</Description><StartTime><Timestamp dt:dt="int">0</Timestamp><DateUtc dt:dt="string">2016-07-20T21:04:40Z</DateUtc></StartTime><FrequencyChanges><FrequencyChange><Frequency dt:dt="r8">3507675</Frequency><Timestamp dt:dt="r8">238002756646</Timestamp><Current dt:dt="r8">0</Current><DateUtc dt:dt="string">2016-07-20T21:04:40Z</DateUtc></FrequencyChange></FrequencyChanges></Clock>\n	Hungry_Donkey_bar_English_2-158-1	60.017	-46	1.0.0.18	1	1780223140	Standard	2.0.10.353	2.0.10.353	07-20-2016	7/20/2016 9:04:40 PM	17:04:40	2.0.10.248	97	Bar37-63.bmp	42	4	?	0r_4g.bmp	0r_4g.bmp	0r_2g.bmp	0r_2g.bmp				0r_2g.bmp	TrialProc	TrialList	0	cvbn	-999999	16	387498	0	n	390	387888	288	-405	-117	-42	-140	29	36	8	10	97	0	0	0	0	4	4	2	2	0	2
Hungry_Donkey_bar_English_2	158	1	<?xml version="1.0"?>\n<Clock xmlns:dt="urn:schemas-microsoft-com:datatypes"><Description dt:dt="string">E-Prime Primary Realtime Clock</Description><StartTime><Timestamp dt:dt="int">0</Timestamp><DateUtc dt:dt="string">2016-07-20T21:04:40Z</DateUtc></StartTime><FrequencyChanges><FrequencyChange><Frequency dt:dt="r8">3507675</Frequency><Timestamp dt:dt="r8">238002756646</Timestamp><Current dt:dt="r8">0</Current><DateUtc dt:dt="string">2016-07-20T21:04:40Z</DateUtc></FrequencyChange></FrequencyChanges></Clock>\n	Hungry_Donkey_bar_English_2-158-1	60.017	-46	1.0.0.18	1	1780223140	Standard	2.0.10.353	2.0.10.353	07-20-2016	7/20/2016 9:04:40 PM	17:04:40	2.0.10.248	98	Bar37-63.bmp	42	3	?	8r_4g.bmp	50r_4g.bmp	1r_2g.bmp	10r_2g.bmp			1r_2g.bmp		TrialProc	TrialList	0	cvbn	-999999	16	389914	0	b	6	389920	290	-406	-116	-42	-140	30	36	1	10	98	-8	-50	-1	-10	4	4	2	2	-1	2
Hungry_Donkey_bar_English_2	158	1	<?xml version="1.0"?>\n<Clock xmlns:dt="urn:schemas-microsoft-com:datatypes"><Description dt:dt="string">E-Prime Primary Realtime Clock</Description><StartTime><Timestamp dt:dt="int">0</Timestamp><DateUtc dt:dt="string">2016-07-20T21:04:40Z</DateUtc></StartTime><FrequencyChanges><FrequencyChange><Frequency dt:dt="r8">3507675</Frequency><Timestamp dt:dt="r8">238002756646</Timestamp><Current dt:dt="r8">0</Current><DateUtc dt:dt="string">2016-07-20T21:04:40Z</DateUtc></FrequencyChange></FrequencyChanges></Clock>\n	Hungry_Donkey_bar_English_2-158-1	60.017	-46	1.0.0.18	1	1780223140	Standard	2.0.10.353	2.0.10.353	07-20-2016	7/20/2016 9:04:40 PM	17:04:40	2.0.10.248	99	Bar37-63.bmp	42	2	?	0r_4g.bmp	0r_4g.bmp	0r_2g.bmp	0r_2g.bmp		0r_4g.bmp			TrialProc	TrialList	0	cvbn	-999999	16	391947	0	v	1573	393520	294	-406	-112	-42	-136	30	36	6	10	99	0	0	0	0	4	4	2	2	0	4
Hungry_Donkey_bar_English_2	158	1	<?xml version="1.0"?>\n<Clock xmlns:dt="urn:schemas-microsoft-com:datatypes"><Description dt:dt="string">E-Prime Primary Realtime Clock</Description><StartTime><Timestamp dt:dt="int">0</Timestamp><DateUtc dt:dt="string">2016-07-20T21:04:40Z</DateUtc></StartTime><FrequencyChanges><FrequencyChange><Frequency dt:dt="r8">3507675</Frequency><Timestamp dt:dt="r8">238002756646</Timestamp><Current dt:dt="r8">0</Current><DateUtc dt:dt="string">2016-07-20T21:04:40Z</DateUtc></FrequencyChange></FrequencyChanges></Clock>\n	Hungry_Donkey_bar_English_2-158-1	60.017	-46	1.0.0.18	1	1780223140	Standard	2.0.10.353	2.0.10.353	07-20-2016	7/20/2016 9:04:40 PM	17:04:40	2.0.10.248	100	Bar37-63.bmp	42	3	?	10r_4g.bmp	0r_4g.bmp	2r_2g.bmp	0r_2g.bmp			2r_2g.bmp		TrialProc	TrialList	0	cvbn	-999999	16	395546	0	b	1878	397424	296	-408	-112	-42	-136	30	36	4	10	100	-10	0	-2	0	4	4	2	2	-2	2
Hungry_Donkey_bar_English_2	158	1	<?xml version="1.0"?>\n<Clock xmlns:dt="urn:schemas-microsoft-com:datatypes"><Description dt:dt="string">E-Prime Primary Realtime Clock</Description><StartTime><Timestamp dt:dt="int">0</Timestamp><DateUtc dt:dt="string">2016-07-20T21:04:40Z</DateUtc></StartTime><FrequencyChanges><FrequencyChange><Frequency dt:dt="r8">3507675</Frequency><Timestamp dt:dt="r8">238002756646</Timestamp><Current dt:dt="r8">0</Current><DateUtc dt:dt="string">2016-07-20T21:04:40Z</DateUtc></FrequencyChange></FrequencyChanges></Clock>\n	Hungry_Donkey_bar_English_2-158-1	60.017	-46	1.0.0.18	1	1780223140	Standard	2.0.10.353	2.0.10.353	07-20-2016	7/20/2016 9:04:40 PM	17:04:40	2.0.10.248	101	Bar37-63.bmp	42	4	?	0r_4g.bmp	0r_4g.bmp	0r_2g.bmp	0r_2g.bmp				0r_2g.bmp	TrialProc	TrialList	0	cvbn	-999999	16	399461	0	n	618	400079	298	-408	-110	-42	-136	30	38	10	11	101	0	0	0	0	4	4	2	2	0	2
Hungry_Donkey_bar_English_2	158	1	<?xml version="1.0"?>\n<Clock xmlns:dt="urn:schemas-microsoft-com:datatypes"><Description dt:dt="string">E-Prime Primary Realtime Clock</Description><StartTime><Timestamp dt:dt="int">0</Timestamp><DateUtc dt:dt="string">2016-07-20T21:04:40Z</DateUtc></StartTime><FrequencyChanges><FrequencyChange><Frequency dt:dt="r8">3507675</Frequency><Timestamp dt:dt="r8">238002756646</Timestamp><Current dt:dt="r8">0</Current><DateUtc dt:dt="string">2016-07-20T21:04:40Z</DateUtc></FrequencyChange></FrequencyChanges></Clock>\n	Hungry_Donkey_bar_English_2-158-1	60.017	-46	1.0.0.18	1	1780223140	Standard	2.0.10.353	2.0.10.353	07-20-2016	7/20/2016 9:04:40 PM	17:04:40	2.0.10.248	102	Bar37-63.bmp	43	2	?	10r_4g.bmp	0r_4g.bmp	2r_2g.bmp	0r_2g.bmp		0r_4g.bmp			TrialProc	TrialList	0	cvbn	-999999	16	402111	0	v	160	402271	302	-408	-106	-42	-132	30	38	4	11	102	-10	0	-2	0	4	4	2	2	0	4
Hungry_Donkey_bar_English_2	158	1	<?xml version="1.0"?>\n<Clock xmlns:dt="urn:schemas-microsoft-com:datatypes"><Description dt:dt="string">E-Prime Primary Realtime Clock</Description><StartTime><Timestamp dt:dt="int">0</Timestamp><DateUtc dt:dt="string">2016-07-20T21:04:40Z</DateUtc></StartTime><FrequencyChanges><FrequencyChange><Frequency dt:dt="r8">3507675</Frequency><Timestamp dt:dt="r8">238002756646</Timestamp><Current dt:dt="r8">0</Current><DateUtc dt:dt="string">2016-07-20T21:04:40Z</DateUtc></FrequencyChange></FrequencyChanges></Clock>\n	Hungry_Donkey_bar_English_2-158-1	60.017	-46	1.0.0.18	1	1780223140	Standard	2.0.10.353	2.0.10.353	07-20-2016	7/20/2016 9:04:40 PM	17:04:40	2.0.10.248	103	Bar37-63.bmp	43	3	?	0r_4g.bmp	0r_4g.bmp	0r_2g.bmp	0r_2g.bmp			0r_2g.bmp		TrialProc	TrialList	0	cvbn	-999999	16	404310	0	b	233	404543	304	-408	-104	-42	-132	32	38	9	11	103	0	0	0	0	4	4	2	2	0	2
Hungry_Donkey_bar_English_2	158	1	<?xml version="1.0"?>\n<Clock xmlns:dt="urn:schemas-microsoft-com:datatypes"><Description dt:dt="string">E-Prime Primary Realtime Clock</Description><StartTime><Timestamp dt:dt="int">0</Timestamp><DateUtc dt:dt="string">2016-07-20T21:04:40Z</DateUtc></StartTime><FrequencyChanges><FrequencyChange><Frequency dt:dt="r8">3507675</Frequency><Timestamp dt:dt="r8">238002756646</Timestamp><Current dt:dt="r8">0</Current><DateUtc dt:dt="string">2016-07-20T21:04:40Z</DateUtc></FrequencyChange></FrequencyChanges></Clock>\n	Hungry_Donkey_bar_English_2-158-1	60.017	-46	1.0.0.18	1	1780223140	Standard	2.0.10.353	2.0.10.353	07-20-2016	7/20/2016 9:04:40 PM	17:04:40	2.0.10.248	104	Bar37-63.bmp	42	4	?	8r_4g.bmp	50r_4g.bmp	1r_2g.bmp	10r_2g.bmp				10r_2g.bmp	TrialProc	TrialList	0	cvbn	-999999	16	406576	0	n	799	407375	306	-418	-112	-42	-132	32	30	1	11	104	-8	-50	-1	-10	4	4	2	2	-10	2
Hungry_Donkey_bar_English_2	158	1	<?xml version="1.0"?>\n<Clock xmlns:dt="urn:schemas-microsoft-com:datatypes"><Description dt:dt="string">E-Prime Primary Realtime Clock</Description><StartTime><Timestamp dt:dt="int">0</Timestamp><DateUtc dt:dt="string">2016-07-20T21:04:40Z</DateUtc></StartTime><FrequencyChanges><FrequencyChange><Frequency dt:dt="r8">3507675</Frequency><Timestamp dt:dt="r8">238002756646</Timestamp><Current dt:dt="r8">0</Current><DateUtc dt:dt="string">2016-07-20T21:04:40Z</DateUtc></FrequencyChange></FrequencyChanges></Clock>\n	Hungry_Donkey_bar_English_2-158-1	60.017	-46	1.0.0.18	1	1780223140	Standard	2.0.10.353	2.0.10.353	07-20-2016	7/20/2016 9:04:40 PM	17:04:40	2.0.10.248	105	Bar37-63.bmp	43	2	?	0r_4g.bmp	0r_4g.bmp	0r_2g.bmp	0r_2g.bmp		0r_4g.bmp			TrialProc	TrialList	0	cvbn	-999999	17	409409	0	v	846	410255	310	-418	-108	-42	-128	32	30	8	11	105	0	0	0	0	4	4	2	2	0	4
Hungry_Donkey_bar_English_2	158	1	<?xml version="1.0"?>\n<Clock xmlns:dt="urn:schemas-microsoft-com:datatypes"><Description dt:dt="string">E-Prime Primary Realtime Clock</Description><StartTime><Timestamp dt:dt="int">0</Timestamp><DateUtc dt:dt="string">2016-07-20T21:04:40Z</DateUtc></StartTime><FrequencyChanges><FrequencyChange><Frequency dt:dt="r8">3507675</Frequency><Timestamp dt:dt="r8">238002756646</Timestamp><Current dt:dt="r8">0</Current><DateUtc dt:dt="string">2016-07-20T21:04:40Z</DateUtc></FrequencyChange></FrequencyChanges></Clock>\n	Hungry_Donkey_bar_English_2-158-1	60.017	-46	1.0.0.18	1	1780223140	Standard	2.0.10.353	2.0.10.353	07-20-2016	7/20/2016 9:04:40 PM	17:04:40	2.0.10.248	106	Bar37-63.bmp	43	3	?	12r_4g.bmp	0r_4g.bmp	3r_2g.bmp	0r_2g.bmp			3r_2g.bmp		TrialProc	TrialList	0	cvbn	-999999	16	412291	0	b	1020	413311	312	-421	-109	-42	-128	31	30	5	11	106	-12	0	-3	0	4	4	2	2	-3	2
Hungry_Donkey_bar_English_2	158	1	<?xml version="1.0"?>\n<Clock xmlns:dt="urn:schemas-microsoft-com:datatypes"><Description dt:dt="string">E-Prime Primary Realtime Clock</Description><StartTime><Timestamp dt:dt="int">0</Timestamp><DateUtc dt:dt="string">2016-07-20T21:04:40Z</DateUtc></StartTime><FrequencyChanges><FrequencyChange><Frequency dt:dt="r8">3507675</Frequency><Timestamp dt:dt="r8">238002756646</Timestamp><Current dt:dt="r8">0</Current><DateUtc dt:dt="string">2016-07-20T21:04:40Z</DateUtc></FrequencyChange></FrequencyChanges></Clock>\n	Hungry_Donkey_bar_English_2-158-1	60.017	-46	1.0.0.18	1	1780223140	Standard	2.0.10.353	2.0.10.353	07-20-2016	7/20/2016 9:04:40 PM	17:04:40	2.0.10.248	107	Bar37-63.bmp	43	2	?	0r_4g.bmp	0r_4g.bmp	0r_2g.bmp	0r_2g.bmp		0r_4g.bmp			TrialProc	TrialList	0	cvbn	-999999	16	415340	0	v	403	415743	316	-421	-105	-42	-124	31	30	6	11	107	0	0	0	0	4	4	2	2	0	4
Hungry_Donkey_bar_English_2	158	1	<?xml version="1.0"?>\n<Clock xmlns:dt="urn:schemas-microsoft-com:datatypes"><Description dt:dt="string">E-Prime Primary Realtime Clock</Description><StartTime><Timestamp dt:dt="int">0</Timestamp><DateUtc dt:dt="string">2016-07-20T21:04:40Z</DateUtc></StartTime><FrequencyChanges><FrequencyChange><Frequency dt:dt="r8">3507675</Frequency><Timestamp dt:dt="r8">238002756646</Timestamp><Current dt:dt="r8">0</Current><DateUtc dt:dt="string">2016-07-20T21:04:40Z</DateUtc></FrequencyChange></FrequencyChanges></Clock>\n	Hungry_Donkey_bar_English_2-158-1	60.017	-46	1.0.0.18	1	1780223140	Standard	2.0.10.353	2.0.10.353	07-20-2016	7/20/2016 9:04:40 PM	17:04:40	2.0.10.248	108	Bar37-63.bmp	43	2	?	10r_4g.bmp	0r_4g.bmp	2r_2g.bmp	0r_2g.bmp		0r_4g.bmp			TrialProc	TrialList	0	cvbn	-999999	16	417773	0	v	338	418111	320	-421	-101	-42	-120	31	30	3	11	108	-10	0	-2	0	4	4	2	2	0	4
Hungry_Donkey_bar_English_2	158	1	<?xml version="1.0"?>\n<Clock xmlns:dt="urn:schemas-microsoft-com:datatypes"><Description dt:dt="string">E-Prime Primary Realtime Clock</Description><StartTime><Timestamp dt:dt="int">0</Timestamp><DateUtc dt:dt="string">2016-07-20T21:04:40Z</DateUtc></StartTime><FrequencyChanges><FrequencyChange><Frequency dt:dt="r8">3507675</Frequency><Timestamp dt:dt="r8">238002756646</Timestamp><Current dt:dt="r8">0</Current><DateUtc dt:dt="string">2016-07-20T21:04:40Z</DateUtc></FrequencyChange></FrequencyChanges></Clock>\n	Hungry_Donkey_bar_English_2-158-1	60.017	-46	1.0.0.18	1	1780223140	Standard	2.0.10.353	2.0.10.353	07-20-2016	7/20/2016 9:04:40 PM	17:04:40	2.0.10.248	109	Bar37-63.bmp	43	2	?	10r_4g.bmp	0r_4g.bmp	2r_2g.bmp	0r_2g.bmp		0r_4g.bmp			TrialProc	TrialList	0	cvbn	-999999	16	420139	0	v	35	420174	324	-421	-97	-42	-116	31	30	2	11	109	-10	0	-2	0	4	4	2	2	0	4
Hungry_Donkey_bar_English_2	158	1	<?xml version="1.0"?>\n<Clock xmlns:dt="urn:schemas-microsoft-com:datatypes"><Description dt:dt="string">E-Prime Primary Realtime Clock</Description><StartTime><Timestamp dt:dt="int">0</Timestamp><DateUtc dt:dt="string">2016-07-20T21:04:40Z</DateUtc></StartTime><FrequencyChanges><FrequencyChange><Frequency dt:dt="r8">3507675</Frequency><Timestamp dt:dt="r8">238002756646</Timestamp><Current dt:dt="r8">0</Current><DateUtc dt:dt="string">2016-07-20T21:04:40Z</DateUtc></FrequencyChange></FrequencyChanges></Clock>\n	Hungry_Donkey_bar_English_2-158-1	60.017	-46	1.0.0.18	1	1780223140	Standard	2.0.10.353	2.0.10.353	07-20-2016	7/20/2016 9:04:40 PM	17:04:40	2.0.10.248	110	Bar50-50.bmp	44	3	?	0r_4g.bmp	0r_4g.bmp	0r_2g.bmp	0r_2g.bmp			0r_2g.bmp		TrialProc	TrialList	0	cvbn	-999999	16	422205	0	b	1281	423486	326	-421	-95	-42	-116	33	30	7	11	110	0	0	0	0	4	4	2	2	0	2
