ExperimentName	Subject	Session	Clock.Information	DataFile.Basename	Display.RefreshRate	Eindtotaal[Session]	ExperimentVersion	Group	RandomSeed	RuntimeCapabilities	RuntimeVersion	RuntimeVersionExpected	SessionDate	SessionStartDateTimeUtc	SessionTime	StudioVersion	Block	BarImage	BarTotalWinst	DoorChoice	Eindtotaal[Block]	FBDoor1	FBDoor2	FBDoor3	FBDoor4	Image1	Image2	Image3	Image4	Procedure	Running	spel.ACC	spel.CRESP	spel.DurationError	spel.OnsetDelay	spel.OnsetTime	spel.OnsetToOnsetTime	spel.RESP	spel.RT	spel.RTTime	TotalGain	TotalLose	Totalsum	TotalsumD1	TotalsumD2	TotalsumD3	TotalsumD4	TrialList	TrialList.Cycle	TrialList.Sample	varV1	varV2	varV3	varV4	varW1	varW2	varW3	varW4	Verliesbedrag	Winstbedrag
Hungry_Donkey_bar_English_2	130	1	<?xml version="1.0"?>\n<Clock xmlns:dt="urn:schemas-microsoft-com:datatypes"><Description dt:dt="string">E-Prime Primary Realtime Clock</Description><StartTime><Timestamp dt:dt="int">0</Timestamp><DateUtc dt:dt="string">2016-02-16T23:48:01Z</DateUtc></StartTime><FrequencyChanges><FrequencyChange><Frequency dt:dt="r8">3507714</Frequency><Timestamp dt:dt="r8">318279462</Timestamp><Current dt:dt="r8">0</Current><DateUtc dt:dt="string">2016-02-16T23:48:01Z</DateUtc></FrequencyChange></FrequencyChanges></Clock>\n	Hungry_Donkey_bar_English_2-130-1	60.018	158	1.0.0.18	1	318989414	Standard	2.0.10.353	2.0.10.353	02-16-2016		18:48:01	2.0.10.248	1	Bar100-0.bmp	100	4	?	0r_4g.bmp	0r_4g.bmp	0r_2g.bmp	0r_2g.bmp				0r_2g.bmp	TrialProc	TrialList	0	cvbn	-999999	29	8117	0	n	2498	10615	2	0	2	0	0	0	2	8	1	1	0	0	0	0	4	4	2	2	0	2
Hungry_Donkey_bar_English_2	130	1	<?xml version="1.0"?>\n<Clock xmlns:dt="urn:schemas-microsoft-com:datatypes"><Description dt:dt="string">E-Prime Primary Realtime Clock</Description><StartTime><Timestamp dt:dt="int">0</Timestamp><DateUtc dt:dt="string">2016-02-16T23:48:01Z</DateUtc></StartTime><FrequencyChanges><FrequencyChange><Frequency dt:dt="r8">3507714</Frequency><Timestamp dt:dt="r8">318279462</Timestamp><Current dt:dt="r8">0</Current><DateUtc dt:dt="string">2016-02-16T23:48:01Z</DateUtc></FrequencyChange></FrequencyChanges></Clock>\n	Hungry_Donkey_bar_English_2-130-1	60.018	158	1.0.0.18	1	318989414	Standard	2.0.10.353	2.0.10.353	02-16-2016		18:48:01	2.0.10.248	2	Bar100-0.bmp	100	2	?	10r_4g.bmp	0r_4g.bmp	2r_2g.bmp	0r_2g.bmp		0r_4g.bmp			TrialProc	TrialList	0	cvbn	-999999	16	12649	0	v	1982	14631	6	0	6	0	4	0	2	4	1	2	-10	0	-2	0	4	4	2	2	0	4
Hungry_Donkey_bar_English_2	130	1	<?xml version="1.0"?>\n<Clock xmlns:dt="urn:schemas-microsoft-com:datatypes"><Description dt:dt="string">E-Prime Primary Realtime Clock</Description><StartTime><Timestamp dt:dt="int">0</Timestamp><DateUtc dt:dt="string">2016-02-16T23:48:01Z</DateUtc></StartTime><FrequencyChanges><FrequencyChange><Frequency dt:dt="r8">3507714</Frequency><Timestamp dt:dt="r8">318279462</Timestamp><Current dt:dt="r8">0</Current><DateUtc dt:dt="string">2016-02-16T23:48:01Z</DateUtc></FrequencyChange></FrequencyChanges></Clock>\n	Hungry_Donkey_bar_English_2-130-1	60.018	158	1.0.0.18	1	318989414	Standard	2.0.10.353	2.0.10.353	02-16-2016		18:48:01	2.0.10.248	3	Bar100-0.bmp	100	3	?	0r_4g.bmp	0r_4g.bmp	0r_2g.bmp	0r_2g.bmp			0r_2g.bmp		TrialProc	TrialList	0	cvbn	-999999	16	16665	0	b	798	17463	8	0	8	0	4	2	2	7	1	3	0	0	0	0	4	4	2	2	0	2
Hungry_Donkey_bar_English_2	130	1	<?xml version="1.0"?>\n<Clock xmlns:dt="urn:schemas-microsoft-com:datatypes"><Description dt:dt="string">E-Prime Primary Realtime Clock</Description><StartTime><Timestamp dt:dt="int">0</Timestamp><DateUtc dt:dt="string">2016-02-16T23:48:01Z</DateUtc></StartTime><FrequencyChanges><FrequencyChange><Frequency dt:dt="r8">3507714</Frequency><Timestamp dt:dt="r8">318279462</Timestamp><Current dt:dt="r8">0</Current><DateUtc dt:dt="string">2016-02-16T23:48:01Z</DateUtc></FrequencyChange></FrequencyChanges></Clock>\n	Hungry_Donkey_bar_English_2-130-1	60.018	158	1.0.0.18	1	318989414	Standard	2.0.10.353	2.0.10.353	02-16-2016		18:48:01	2.0.10.248	4	Bar100-0.bmp	100	1	?	0r_4g.bmp	0r_4g.bmp	0r_2g.bmp	0r_2g.bmp	0r_4g.bmp				TrialProc	TrialList	0	cvbn	-999999	16	19497	0	c	830	20327	12	0	12	4	4	2	2	10	1	4	0	0	0	0	4	4	2	2	0	4
Hungry_Donkey_bar_English_2	130	1	<?xml version="1.0"?>\n<Clock xmlns:dt="urn:schemas-microsoft-com:datatypes"><Description dt:dt="string">E-Prime Primary Realtime Clock</Description><StartTime><Timestamp dt:dt="int">0</Timestamp><DateUtc dt:dt="string">2016-02-16T23:48:01Z</DateUtc></StartTime><FrequencyChanges><FrequencyChange><Frequency dt:dt="r8">3507714</Frequency><Timestamp dt:dt="r8">318279462</Timestamp><Current dt:dt="r8">0</Current><DateUtc dt:dt="string">2016-02-16T23:48:01Z</DateUtc></FrequencyChange></FrequencyChanges></Clock>\n	Hungry_Donkey_bar_English_2-130-1	60.018	158	1.0.0.18	1	318989414	Standard	2.0.10.353	2.0.10.353	02-16-2016		18:48:01	2.0.10.248	5	Bar100-0.bmp	100	4	?	10r_4g.bmp	0r_4g.bmp	2r_2g.bmp	0r_2g.bmp				0r_2g.bmp	TrialProc	TrialList	0	cvbn	-999999	16	22363	0	n	860	23223	14	0	14	4	4	2	4	3	1	5	-10	0	-2	0	4	4	2	2	0	2
Hungry_Donkey_bar_English_2	130	1	<?xml version="1.0"?>\n<Clock xmlns:dt="urn:schemas-microsoft-com:datatypes"><Description dt:dt="string">E-Prime Primary Realtime Clock</Description><StartTime><Timestamp dt:dt="int">0</Timestamp><DateUtc dt:dt="string">2016-02-16T23:48:01Z</DateUtc></StartTime><FrequencyChanges><FrequencyChange><Frequency dt:dt="r8">3507714</Frequency><Timestamp dt:dt="r8">318279462</Timestamp><Current dt:dt="r8">0</Current><DateUtc dt:dt="string">2016-02-16T23:48:01Z</DateUtc></FrequencyChange></FrequencyChanges></Clock>\n	Hungry_Donkey_bar_English_2-130-1	60.018	158	1.0.0.18	1	318989414	Standard	2.0.10.353	2.0.10.353	02-16-2016		18:48:01	2.0.10.248	6	Bar100-0.bmp	100	3	?	0r_4g.bmp	0r_4g.bmp	0r_2g.bmp	0r_2g.bmp			0r_2g.bmp		TrialProc	TrialList	0	cvbn	-999999	16	25262	0	b	489	25751	16	0	16	4	4	4	4	6	1	6	0	0	0	0	4	4	2	2	0	2
Hungry_Donkey_bar_English_2	130	1	<?xml version="1.0"?>\n<Clock xmlns:dt="urn:schemas-microsoft-com:datatypes"><Description dt:dt="string">E-Prime Primary Realtime Clock</Description><StartTime><Timestamp dt:dt="int">0</Timestamp><DateUtc dt:dt="string">2016-02-16T23:48:01Z</DateUtc></StartTime><FrequencyChanges><FrequencyChange><Frequency dt:dt="r8">3507714</Frequency><Timestamp dt:dt="r8">318279462</Timestamp><Current dt:dt="r8">0</Current><DateUtc dt:dt="string">2016-02-16T23:48:01Z</DateUtc></FrequencyChange></FrequencyChanges></Clock>\n	Hungry_Donkey_bar_English_2-130-1	60.018	158	1.0.0.18	1	318989414	Standard	2.0.10.353	2.0.10.353	02-16-2016		18:48:01	2.0.10.248	7	Bar100-0.bmp	100	2	?	0r_4g.bmp	0r_4g.bmp	0r_2g.bmp	0r_2g.bmp		0r_4g.bmp			TrialProc	TrialList	0	cvbn	-999999	16	27778	0	v	420	28198	20	0	20	4	8	4	4	9	1	7	0	0	0	0	4	4	2	2	0	4
Hungry_Donkey_bar_English_2	130	1	<?xml version="1.0"?>\n<Clock xmlns:dt="urn:schemas-microsoft-com:datatypes"><Description dt:dt="string">E-Prime Primary Realtime Clock</Description><StartTime><Timestamp dt:dt="int">0</Timestamp><DateUtc dt:dt="string">2016-02-16T23:48:01Z</DateUtc></StartTime><FrequencyChanges><FrequencyChange><Frequency dt:dt="r8">3507714</Frequency><Timestamp dt:dt="r8">318279462</Timestamp><Current dt:dt="r8">0</Current><DateUtc dt:dt="string">2016-02-16T23:48:01Z</DateUtc></FrequencyChange></FrequencyChanges></Clock>\n	Hungry_Donkey_bar_English_2-130-1	60.018	158	1.0.0.18	1	318989414	Standard	2.0.10.353	2.0.10.353	02-16-2016		18:48:01	2.0.10.248	8	Bar63-37.bmp	67	1	?	12r_4g.bmp	0r_4g.bmp	3r_2g.bmp	0r_2g.bmp	12r_4g.bmp				TrialProc	TrialList	0	cvbn	-999999	16	30228	0	c	562	30790	24	-12	12	-4	8	4	4	5	1	8	-12	0	-3	0	4	4	2	2	-12	4
Hungry_Donkey_bar_English_2	130	1	<?xml version="1.0"?>\n<Clock xmlns:dt="urn:schemas-microsoft-com:datatypes"><Description dt:dt="string">E-Prime Primary Realtime Clock</Description><StartTime><Timestamp dt:dt="int">0</Timestamp><DateUtc dt:dt="string">2016-02-16T23:48:01Z</DateUtc></StartTime><FrequencyChanges><FrequencyChange><Frequency dt:dt="r8">3507714</Frequency><Timestamp dt:dt="r8">318279462</Timestamp><Current dt:dt="r8">0</Current><DateUtc dt:dt="string">2016-02-16T23:48:01Z</DateUtc></FrequencyChange></FrequencyChanges></Clock>\n	Hungry_Donkey_bar_English_2-130-1	60.018	158	1.0.0.18	1	318989414	Standard	2.0.10.353	2.0.10.353	02-16-2016		18:48:01	2.0.10.248	9	Bar63-37.bmp	67	3	?	8r_4g.bmp	50r_4g.bmp	1r_2g.bmp	10r_2g.bmp			1r_2g.bmp		TrialProc	TrialList	0	cvbn	-999999	16	32827	0	b	2651	35478	26	-13	13	-4	8	5	4	1	1	9	-8	-50	-1	-10	4	4	2	2	-1	2
Hungry_Donkey_bar_English_2	130	1	<?xml version="1.0"?>\n<Clock xmlns:dt="urn:schemas-microsoft-com:datatypes"><Description dt:dt="string">E-Prime Primary Realtime Clock</Description><StartTime><Timestamp dt:dt="int">0</Timestamp><DateUtc dt:dt="string">2016-02-16T23:48:01Z</DateUtc></StartTime><FrequencyChanges><FrequencyChange><Frequency dt:dt="r8">3507714</Frequency><Timestamp dt:dt="r8">318279462</Timestamp><Current dt:dt="r8">0</Current><DateUtc dt:dt="string">2016-02-16T23:48:01Z</DateUtc></FrequencyChange></FrequencyChanges></Clock>\n	Hungry_Donkey_bar_English_2-130-1	60.018	158	1.0.0.18	1	318989414	Standard	2.0.10.353	2.0.10.353	02-16-2016		18:48:01	2.0.10.248	10	Bar63-37.bmp	68	4	?	10r_4g.bmp	0r_4g.bmp	2r_2g.bmp	0r_2g.bmp				0r_2g.bmp	TrialProc	TrialList	0	cvbn	-999999	16	37509	0	n	641	38150	28	-13	15	-4	8	5	6	2	1	10	-10	0	-2	0	4	4	2	2	0	2
Hungry_Donkey_bar_English_2	130	1	<?xml version="1.0"?>\n<Clock xmlns:dt="urn:schemas-microsoft-com:datatypes"><Description dt:dt="string">E-Prime Primary Realtime Clock</Description><StartTime><Timestamp dt:dt="int">0</Timestamp><DateUtc dt:dt="string">2016-02-16T23:48:01Z</DateUtc></StartTime><FrequencyChanges><FrequencyChange><Frequency dt:dt="r8">3507714</Frequency><Timestamp dt:dt="r8">318279462</Timestamp><Current dt:dt="r8">0</Current><DateUtc dt:dt="string">2016-02-16T23:48:01Z</DateUtc></FrequencyChange></FrequencyChanges></Clock>\n	Hungry_Donkey_bar_English_2-130-1	60.018	158	1.0.0.18	1	318989414	Standard	2.0.10.353	2.0.10.353	02-16-2016		18:48:01	2.0.10.248	11	Bar63-37.bmp	67	3	?	10r_4g.bmp	0r_4g.bmp	2r_2g.bmp	0r_2g.bmp			2r_2g.bmp		TrialProc	TrialList	0	cvbn	-999999	16	40175	0	b	103	40278	30	-15	15	-4	8	5	6	2	2	11	-10	0	-2	0	4	4	2	2	-2	2
Hungry_Donkey_bar_English_2	130	1	<?xml version="1.0"?>\n<Clock xmlns:dt="urn:schemas-microsoft-com:datatypes"><Description dt:dt="string">E-Prime Primary Realtime Clock</Description><StartTime><Timestamp dt:dt="int">0</Timestamp><DateUtc dt:dt="string">2016-02-16T23:48:01Z</DateUtc></StartTime><FrequencyChanges><FrequencyChange><Frequency dt:dt="r8">3507714</Frequency><Timestamp dt:dt="r8">318279462</Timestamp><Current dt:dt="r8">0</Current><DateUtc dt:dt="string">2016-02-16T23:48:01Z</DateUtc></FrequencyChange></FrequencyChanges></Clock>\n	Hungry_Donkey_bar_English_2-130-1	60.018	158	1.0.0.18	1	318989414	Standard	2.0.10.353	2.0.10.353	02-16-2016		18:48:01	2.0.10.248	12	Bar63-37.bmp	69	2	?	0r_4g.bmp	0r_4g.bmp	0r_2g.bmp	0r_2g.bmp		0r_4g.bmp			TrialProc	TrialList	0	cvbn	-999999	16	42307	0	v	546	42853	34	-15	19	-4	12	5	6	8	2	12	0	0	0	0	4	4	2	2	0	4
Hungry_Donkey_bar_English_2	130	1	<?xml version="1.0"?>\n<Clock xmlns:dt="urn:schemas-microsoft-com:datatypes"><Description dt:dt="string">E-Prime Primary Realtime Clock</Description><StartTime><Timestamp dt:dt="int">0</Timestamp><DateUtc dt:dt="string">2016-02-16T23:48:01Z</DateUtc></StartTime><FrequencyChanges><FrequencyChange><Frequency dt:dt="r8">3507714</Frequency><Timestamp dt:dt="r8">318279462</Timestamp><Current dt:dt="r8">0</Current><DateUtc dt:dt="string">2016-02-16T23:48:01Z</DateUtc></FrequencyChange></FrequencyChanges></Clock>\n	Hungry_Donkey_bar_English_2-130-1	60.018	158	1.0.0.18	1	318989414	Standard	2.0.10.353	2.0.10.353	02-16-2016		18:48:01	2.0.10.248	13	Bar75-25.bmp	72	1	?	0r_4g.bmp	0r_4g.bmp	0r_2g.bmp	0r_2g.bmp	0r_4g.bmp				TrialProc	TrialList	0	cvbn	-999999	16	44890	0	c	507	45397	38	-15	23	0	12	5	6	10	2	13	0	0	0	0	4	4	2	2	0	4
Hungry_Donkey_bar_English_2	130	1	<?xml version="1.0"?>\n<Clock xmlns:dt="urn:schemas-microsoft-com:datatypes"><Description dt:dt="string">E-Prime Primary Realtime Clock</Description><StartTime><Timestamp dt:dt="int">0</Timestamp><DateUtc dt:dt="string">2016-02-16T23:48:01Z</DateUtc></StartTime><FrequencyChanges><FrequencyChange><Frequency dt:dt="r8">3507714</Frequency><Timestamp dt:dt="r8">318279462</Timestamp><Current dt:dt="r8">0</Current><DateUtc dt:dt="string">2016-02-16T23:48:01Z</DateUtc></FrequencyChange></FrequencyChanges></Clock>\n	Hungry_Donkey_bar_English_2-130-1	60.018	158	1.0.0.18	1	318989414	Standard	2.0.10.353	2.0.10.353	02-16-2016		18:48:01	2.0.10.248	14	Bar75-25.bmp	70	3	?	10r_4g.bmp	0r_4g.bmp	2r_2g.bmp	0r_2g.bmp			2r_2g.bmp		TrialProc	TrialList	0	cvbn	-999999	16	47439	0	b	566	48005	40	-17	23	0	12	5	6	4	2	14	-10	0	-2	0	4	4	2	2	-2	2
Hungry_Donkey_bar_English_2	130	1	<?xml version="1.0"?>\n<Clock xmlns:dt="urn:schemas-microsoft-com:datatypes"><Description dt:dt="string">E-Prime Primary Realtime Clock</Description><StartTime><Timestamp dt:dt="int">0</Timestamp><DateUtc dt:dt="string">2016-02-16T23:48:01Z</DateUtc></StartTime><FrequencyChanges><FrequencyChange><Frequency dt:dt="r8">3507714</Frequency><Timestamp dt:dt="r8">318279462</Timestamp><Current dt:dt="r8">0</Current><DateUtc dt:dt="string">2016-02-16T23:48:01Z</DateUtc></FrequencyChange></FrequencyChanges></Clock>\n	Hungry_Donkey_bar_English_2-130-1	60.018	158	1.0.0.18	1	318989414	Standard	2.0.10.353	2.0.10.353	02-16-2016		18:48:01	2.0.10.248	15	Bar75-25.bmp	72	2	?	10r_4g.bmp	0r_4g.bmp	2r_2g.bmp	0r_2g.bmp		0r_4g.bmp			TrialProc	TrialList	0	cvbn	-999999	16	50038	0	v	575	50613	44	-17	27	0	16	5	6	3	2	15	-10	0	-2	0	4	4	2	2	0	4
Hungry_Donkey_bar_English_2	130	1	<?xml version="1.0"?>\n<Clock xmlns:dt="urn:schemas-microsoft-com:datatypes"><Description dt:dt="string">E-Prime Primary Realtime Clock</Description><StartTime><Timestamp dt:dt="int">0</Timestamp><DateUtc dt:dt="string">2016-02-16T23:48:01Z</DateUtc></StartTime><FrequencyChanges><FrequencyChange><Frequency dt:dt="r8">3507714</Frequency><Timestamp dt:dt="r8">318279462</Timestamp><Current dt:dt="r8">0</Current><DateUtc dt:dt="string">2016-02-16T23:48:01Z</DateUtc></FrequencyChange></FrequencyChanges></Clock>\n	Hungry_Donkey_bar_English_2-130-1	60.018	158	1.0.0.18	1	318989414	Standard	2.0.10.353	2.0.10.353	02-16-2016		18:48:01	2.0.10.248	16	Bar75-25.bmp	73	4	?	12r_4g.bmp	0r_4g.bmp	3r_2g.bmp	0r_2g.bmp				0r_2g.bmp	TrialProc	TrialList	0	cvbn	-999999	16	52654	0	n	535	53189	46	-17	29	0	16	5	8	5	2	16	-12	0	-3	0	4	4	2	2	0	2
Hungry_Donkey_bar_English_2	130	1	<?xml version="1.0"?>\n<Clock xmlns:dt="urn:schemas-microsoft-com:datatypes"><Description dt:dt="string">E-Prime Primary Realtime Clock</Description><StartTime><Timestamp dt:dt="int">0</Timestamp><DateUtc dt:dt="string">2016-02-16T23:48:01Z</DateUtc></StartTime><FrequencyChanges><FrequencyChange><Frequency dt:dt="r8">3507714</Frequency><Timestamp dt:dt="r8">318279462</Timestamp><Current dt:dt="r8">0</Current><DateUtc dt:dt="string">2016-02-16T23:48:01Z</DateUtc></FrequencyChange></FrequencyChanges></Clock>\n	Hungry_Donkey_bar_English_2-130-1	60.018	158	1.0.0.18	1	318989414	Standard	2.0.10.353	2.0.10.353	02-16-2016		18:48:01	2.0.10.248	17	Bar75-25.bmp	73	3	?	8r_4g.bmp	50r_4g.bmp	1r_2g.bmp	10r_2g.bmp			1r_2g.bmp		TrialProc	TrialList	0	cvbn	-999999	16	55220	0	b	545	55765	48	-18	30	0	16	6	8	1	2	17	-8	-50	-1	-10	4	4	2	2	-1	2
Hungry_Donkey_bar_English_2	130	1	<?xml version="1.0"?>\n<Clock xmlns:dt="urn:schemas-microsoft-com:datatypes"><Description dt:dt="string">E-Prime Primary Realtime Clock</Description><StartTime><Timestamp dt:dt="int">0</Timestamp><DateUtc dt:dt="string">2016-02-16T23:48:01Z</DateUtc></StartTime><FrequencyChanges><FrequencyChange><Frequency dt:dt="r8">3507714</Frequency><Timestamp dt:dt="r8">318279462</Timestamp><Current dt:dt="r8">0</Current><DateUtc dt:dt="string">2016-02-16T23:48:01Z</DateUtc></FrequencyChange></FrequencyChanges></Clock>\n	Hungry_Donkey_bar_English_2-130-1	60.018	158	1.0.0.18	1	318989414	Standard	2.0.10.353	2.0.10.353	02-16-2016		18:48:01	2.0.10.248	18	Bar75-25.bmp	74	2	?	0r_4g.bmp	0r_4g.bmp	0r_2g.bmp	0r_2g.bmp		0r_4g.bmp			TrialProc	TrialList	0	cvbn	-999999	16	57803	0	v	570	58373	52	-18	34	0	20	6	8	6	2	18	0	0	0	0	4	4	2	2	0	4
Hungry_Donkey_bar_English_2	130	1	<?xml version="1.0"?>\n<Clock xmlns:dt="urn:schemas-microsoft-com:datatypes"><Description dt:dt="string">E-Prime Primary Realtime Clock</Description><StartTime><Timestamp dt:dt="int">0</Timestamp><DateUtc dt:dt="string">2016-02-16T23:48:01Z</DateUtc></StartTime><FrequencyChanges><FrequencyChange><Frequency dt:dt="r8">3507714</Frequency><Timestamp dt:dt="r8">318279462</Timestamp><Current dt:dt="r8">0</Current><DateUtc dt:dt="string">2016-02-16T23:48:01Z</DateUtc></FrequencyChange></FrequencyChanges></Clock>\n	Hungry_Donkey_bar_English_2-130-1	60.018	158	1.0.0.18	1	318989414	Standard	2.0.10.353	2.0.10.353	02-16-2016		18:48:01	2.0.10.248	19	Bar75-25.bmp	76	1	?	0r_4g.bmp	0r_4g.bmp	0r_2g.bmp	0r_2g.bmp	0r_4g.bmp				TrialProc	TrialList	0	cvbn	-999999	16	60402	0	c	434	60836	56	-18	38	4	20	6	8	7	2	19	0	0	0	0	4	4	2	2	0	4
Hungry_Donkey_bar_English_2	130	1	<?xml version="1.0"?>\n<Clock xmlns:dt="urn:schemas-microsoft-com:datatypes"><Description dt:dt="string">E-Prime Primary Realtime Clock</Description><StartTime><Timestamp dt:dt="int">0</Timestamp><DateUtc dt:dt="string">2016-02-16T23:48:01Z</DateUtc></StartTime><FrequencyChanges><FrequencyChange><Frequency dt:dt="r8">3507714</Frequency><Timestamp dt:dt="r8">318279462</Timestamp><Current dt:dt="r8">0</Current><DateUtc dt:dt="string">2016-02-16T23:48:01Z</DateUtc></FrequencyChange></FrequencyChanges></Clock>\n	Hungry_Donkey_bar_English_2-130-1	60.018	158	1.0.0.18	1	318989414	Standard	2.0.10.353	2.0.10.353	02-16-2016		18:48:01	2.0.10.248	20	Bar75-25.bmp	76	3	?	0r_4g.bmp	0r_4g.bmp	0r_2g.bmp	0r_2g.bmp			0r_2g.bmp		TrialProc	TrialList	0	cvbn	-999999	16	62868	0	b	416	63284	58	-18	40	4	20	8	8	9	2	20	0	0	0	0	4	4	2	2	0	2
Hungry_Donkey_bar_English_2	130	1	<?xml version="1.0"?>\n<Clock xmlns:dt="urn:schemas-microsoft-com:datatypes"><Description dt:dt="string">E-Prime Primary Realtime Clock</Description><StartTime><Timestamp dt:dt="int">0</Timestamp><DateUtc dt:dt="string">2016-02-16T23:48:01Z</DateUtc></StartTime><FrequencyChanges><FrequencyChange><Frequency dt:dt="r8">3507714</Frequency><Timestamp dt:dt="r8">318279462</Timestamp><Current dt:dt="r8">0</Current><DateUtc dt:dt="string">2016-02-16T23:48:01Z</DateUtc></FrequencyChange></FrequencyChanges></Clock>\n	Hungry_Donkey_bar_English_2-130-1	60.018	158	1.0.0.18	1	318989414	Standard	2.0.10.353	2.0.10.353	02-16-2016		18:48:01	2.0.10.248	21	Bar50-50.bmp	48	2	?	8r_4g.bmp	50r_4g.bmp	1r_2g.bmp	10r_2g.bmp		50r_4g.bmp			TrialProc	TrialList	0	cvbn	-999999	16	65317	0	v	399	65716	62	-68	-6	4	-26	8	8	1	3	21	-8	-50	-1	-10	4	4	2	2	-50	4
Hungry_Donkey_bar_English_2	130	1	<?xml version="1.0"?>\n<Clock xmlns:dt="urn:schemas-microsoft-com:datatypes"><Description dt:dt="string">E-Prime Primary Realtime Clock</Description><StartTime><Timestamp dt:dt="int">0</Timestamp><DateUtc dt:dt="string">2016-02-16T23:48:01Z</DateUtc></StartTime><FrequencyChanges><FrequencyChange><Frequency dt:dt="r8">3507714</Frequency><Timestamp dt:dt="r8">318279462</Timestamp><Current dt:dt="r8">0</Current><DateUtc dt:dt="string">2016-02-16T23:48:01Z</DateUtc></FrequencyChange></FrequencyChanges></Clock>\n	Hungry_Donkey_bar_English_2-130-1	60.018	158	1.0.0.18	1	318989414	Standard	2.0.10.353	2.0.10.353	02-16-2016		18:48:01	2.0.10.248	22	Bar50-50.bmp	48	4	?	10r_4g.bmp	0r_4g.bmp	2r_2g.bmp	0r_2g.bmp				0r_2g.bmp	TrialProc	TrialList	0	cvbn	-999999	16	67766	0	n	3598	71364	64	-68	-4	4	-26	8	10	4	3	22	-10	0	-2	0	4	4	2	2	0	2
Hungry_Donkey_bar_English_2	130	1	<?xml version="1.0"?>\n<Clock xmlns:dt="urn:schemas-microsoft-com:datatypes"><Description dt:dt="string">E-Prime Primary Realtime Clock</Description><StartTime><Timestamp dt:dt="int">0</Timestamp><DateUtc dt:dt="string">2016-02-16T23:48:01Z</DateUtc></StartTime><FrequencyChanges><FrequencyChange><Frequency dt:dt="r8">3507714</Frequency><Timestamp dt:dt="r8">318279462</Timestamp><Current dt:dt="r8">0</Current><DateUtc dt:dt="string">2016-02-16T23:48:01Z</DateUtc></FrequencyChange></FrequencyChanges></Clock>\n	Hungry_Donkey_bar_English_2-130-1	60.018	158	1.0.0.18	1	318989414	Standard	2.0.10.353	2.0.10.353	02-16-2016		18:48:01	2.0.10.248	23	Bar50-50.bmp	50	2	?	0r_4g.bmp	0r_4g.bmp	0r_2g.bmp	0r_2g.bmp		0r_4g.bmp			TrialProc	TrialList	0	cvbn	-999999	16	73398	0	v	3389	76787	68	-68	0	4	-22	8	10	10	3	23	0	0	0	0	4	4	2	2	0	4
Hungry_Donkey_bar_English_2	130	1	<?xml version="1.0"?>\n<Clock xmlns:dt="urn:schemas-microsoft-com:datatypes"><Description dt:dt="string">E-Prime Primary Realtime Clock</Description><StartTime><Timestamp dt:dt="int">0</Timestamp><DateUtc dt:dt="string">2016-02-16T23:48:01Z</DateUtc></StartTime><FrequencyChanges><FrequencyChange><Frequency dt:dt="r8">3507714</Frequency><Timestamp dt:dt="r8">318279462</Timestamp><Current dt:dt="r8">0</Current><DateUtc dt:dt="string">2016-02-16T23:48:01Z</DateUtc></FrequencyChange></FrequencyChanges></Clock>\n	Hungry_Donkey_bar_English_2-130-1	60.018	158	1.0.0.18	1	318989414	Standard	2.0.10.353	2.0.10.353	02-16-2016		18:48:01	2.0.10.248	24	Bar50-50.bmp	51	3	?	0r_4g.bmp	0r_4g.bmp	0r_2g.bmp	0r_2g.bmp			0r_2g.bmp		TrialProc	TrialList	0	cvbn	-999999	16	78830	0	b	1029	79859	70	-68	2	4	-22	10	10	7	3	24	0	0	0	0	4	4	2	2	0	2
Hungry_Donkey_bar_English_2	130	1	<?xml version="1.0"?>\n<Clock xmlns:dt="urn:schemas-microsoft-com:datatypes"><Description dt:dt="string">E-Prime Primary Realtime Clock</Description><StartTime><Timestamp dt:dt="int">0</Timestamp><DateUtc dt:dt="string">2016-02-16T23:48:01Z</DateUtc></StartTime><FrequencyChanges><FrequencyChange><Frequency dt:dt="r8">3507714</Frequency><Timestamp dt:dt="r8">318279462</Timestamp><Current dt:dt="r8">0</Current><DateUtc dt:dt="string">2016-02-16T23:48:01Z</DateUtc></FrequencyChange></FrequencyChanges></Clock>\n	Hungry_Donkey_bar_English_2-130-1	60.018	158	1.0.0.18	1	318989414	Standard	2.0.10.353	2.0.10.353	02-16-2016		18:48:01	2.0.10.248	25	Bar50-50.bmp	52	2	?	12r_4g.bmp	0r_4g.bmp	3r_2g.bmp	0r_2g.bmp		0r_4g.bmp			TrialProc	TrialList	0	cvbn	-999999	17	81896	0	v	555	82451	74	-68	6	4	-18	10	10	5	3	25	-12	0	-3	0	4	4	2	2	0	4
Hungry_Donkey_bar_English_2	130	1	<?xml version="1.0"?>\n<Clock xmlns:dt="urn:schemas-microsoft-com:datatypes"><Description dt:dt="string">E-Prime Primary Realtime Clock</Description><StartTime><Timestamp dt:dt="int">0</Timestamp><DateUtc dt:dt="string">2016-02-16T23:48:01Z</DateUtc></StartTime><FrequencyChanges><FrequencyChange><Frequency dt:dt="r8">3507714</Frequency><Timestamp dt:dt="r8">318279462</Timestamp><Current dt:dt="r8">0</Current><DateUtc dt:dt="string">2016-02-16T23:48:01Z</DateUtc></FrequencyChange></FrequencyChanges></Clock>\n	Hungry_Donkey_bar_English_2-130-1	60.018	158	1.0.0.18	1	318989414	Standard	2.0.10.353	2.0.10.353	02-16-2016		18:48:01	2.0.10.248	26	Bar50-50.bmp	52	3	?	10r_4g.bmp	0r_4g.bmp	2r_2g.bmp	0r_2g.bmp			2r_2g.bmp		TrialProc	TrialList	0	cvbn	-999999	16	84478	0	b	485	84963	76	-70	6	4	-18	10	10	2	3	26	-10	0	-2	0	4	4	2	2	-2	2
Hungry_Donkey_bar_English_2	130	1	<?xml version="1.0"?>\n<Clock xmlns:dt="urn:schemas-microsoft-com:datatypes"><Description dt:dt="string">E-Prime Primary Realtime Clock</Description><StartTime><Timestamp dt:dt="int">0</Timestamp><DateUtc dt:dt="string">2016-02-16T23:48:01Z</DateUtc></StartTime><FrequencyChanges><FrequencyChange><Frequency dt:dt="r8">3507714</Frequency><Timestamp dt:dt="r8">318279462</Timestamp><Current dt:dt="r8">0</Current><DateUtc dt:dt="string">2016-02-16T23:48:01Z</DateUtc></FrequencyChange></FrequencyChanges></Clock>\n	Hungry_Donkey_bar_English_2-130-1	60.018	158	1.0.0.18	1	318989414	Standard	2.0.10.353	2.0.10.353	02-16-2016		18:48:01	2.0.10.248	27	Bar50-50.bmp	53	1	?	0r_4g.bmp	0r_4g.bmp	0r_2g.bmp	0r_2g.bmp	0r_4g.bmp				TrialProc	TrialList	0	cvbn	-999999	16	86994	0	c	465	87459	80	-70	10	8	-18	10	10	8	3	27	0	0	0	0	4	4	2	2	0	4
Hungry_Donkey_bar_English_2	130	1	<?xml version="1.0"?>\n<Clock xmlns:dt="urn:schemas-microsoft-com:datatypes"><Description dt:dt="string">E-Prime Primary Realtime Clock</Description><StartTime><Timestamp dt:dt="int">0</Timestamp><DateUtc dt:dt="string">2016-02-16T23:48:01Z</DateUtc></StartTime><FrequencyChanges><FrequencyChange><Frequency dt:dt="r8">3507714</Frequency><Timestamp dt:dt="r8">318279462</Timestamp><Current dt:dt="r8">0</Current><DateUtc dt:dt="string">2016-02-16T23:48:01Z</DateUtc></FrequencyChange></FrequencyChanges></Clock>\n	Hungry_Donkey_bar_English_2-130-1	60.018	158	1.0.0.18	1	318989414	Standard	2.0.10.353	2.0.10.353	02-16-2016		18:48:01	2.0.10.248	28	Bar50-50.bmp	55	2	?	0r_4g.bmp	0r_4g.bmp	0r_2g.bmp	0r_2g.bmp		0r_4g.bmp			TrialProc	TrialList	0	cvbn	-999999	16	89493	0	v	510	90003	84	-70	14	8	-14	10	10	9	3	28	0	0	0	0	4	4	2	2	0	4
Hungry_Donkey_bar_English_2	130	1	<?xml version="1.0"?>\n<Clock xmlns:dt="urn:schemas-microsoft-com:datatypes"><Description dt:dt="string">E-Prime Primary Realtime Clock</Description><StartTime><Timestamp dt:dt="int">0</Timestamp><DateUtc dt:dt="string">2016-02-16T23:48:01Z</DateUtc></StartTime><FrequencyChanges><FrequencyChange><Frequency dt:dt="r8">3507714</Frequency><Timestamp dt:dt="r8">318279462</Timestamp><Current dt:dt="r8">0</Current><DateUtc dt:dt="string">2016-02-16T23:48:01Z</DateUtc></FrequencyChange></FrequencyChanges></Clock>\n	Hungry_Donkey_bar_English_2-130-1	60.018	158	1.0.0.18	1	318989414	Standard	2.0.10.353	2.0.10.353	02-16-2016		18:48:01	2.0.10.248	29	Bar50-50.bmp	54	3	?	10r_4g.bmp	0r_4g.bmp	2r_2g.bmp	0r_2g.bmp			2r_2g.bmp		TrialProc	TrialList	0	cvbn	-999999	17	92043	0	b	520	92563	86	-72	14	8	-14	10	10	3	3	29	-10	0	-2	0	4	4	2	2	-2	2
Hungry_Donkey_bar_English_2	130	1	<?xml version="1.0"?>\n<Clock xmlns:dt="urn:schemas-microsoft-com:datatypes"><Description dt:dt="string">E-Prime Primary Realtime Clock</Description><StartTime><Timestamp dt:dt="int">0</Timestamp><DateUtc dt:dt="string">2016-02-16T23:48:01Z</DateUtc></StartTime><FrequencyChanges><FrequencyChange><Frequency dt:dt="r8">3507714</Frequency><Timestamp dt:dt="r8">318279462</Timestamp><Current dt:dt="r8">0</Current><DateUtc dt:dt="string">2016-02-16T23:48:01Z</DateUtc></FrequencyChange></FrequencyChanges></Clock>\n	Hungry_Donkey_bar_English_2-130-1	60.018	158	1.0.0.18	1	318989414	Standard	2.0.10.353	2.0.10.353	02-16-2016		18:48:01	2.0.10.248	30	Bar50-50.bmp	55	4	?	0r_4g.bmp	0r_4g.bmp	0r_2g.bmp	0r_2g.bmp				0r_2g.bmp	TrialProc	TrialList	0	cvbn	-999999	16	94592	0	n	386	94978	88	-72	16	8	-14	10	12	6	3	30	0	0	0	0	4	4	2	2	0	2
Hungry_Donkey_bar_English_2	130	1	<?xml version="1.0"?>\n<Clock xmlns:dt="urn:schemas-microsoft-com:datatypes"><Description dt:dt="string">E-Prime Primary Realtime Clock</Description><StartTime><Timestamp dt:dt="int">0</Timestamp><DateUtc dt:dt="string">2016-02-16T23:48:01Z</DateUtc></StartTime><FrequencyChanges><FrequencyChange><Frequency dt:dt="r8">3507714</Frequency><Timestamp dt:dt="r8">318279462</Timestamp><Current dt:dt="r8">0</Current><DateUtc dt:dt="string">2016-02-16T23:48:01Z</DateUtc></FrequencyChange></FrequencyChanges></Clock>\n	Hungry_Donkey_bar_English_2-130-1	60.018	158	1.0.0.18	1	318989414	Standard	2.0.10.353	2.0.10.353	02-16-2016		18:48:01	2.0.10.248	31	Bar50-50.bmp	56	2	?	10r_4g.bmp	0r_4g.bmp	2r_2g.bmp	0r_2g.bmp		0r_4g.bmp			TrialProc	TrialList	0	cvbn	-999999	16	97008	0	v	1922	98930	92	-72	20	8	-10	10	12	3	4	31	-10	0	-2	0	4	4	2	2	0	4
Hungry_Donkey_bar_English_2	130	1	<?xml version="1.0"?>\n<Clock xmlns:dt="urn:schemas-microsoft-com:datatypes"><Description dt:dt="string">E-Prime Primary Realtime Clock</Description><StartTime><Timestamp dt:dt="int">0</Timestamp><DateUtc dt:dt="string">2016-02-16T23:48:01Z</DateUtc></StartTime><FrequencyChanges><FrequencyChange><Frequency dt:dt="r8">3507714</Frequency><Timestamp dt:dt="r8">318279462</Timestamp><Current dt:dt="r8">0</Current><DateUtc dt:dt="string">2016-02-16T23:48:01Z</DateUtc></FrequencyChange></FrequencyChanges></Clock>\n	Hungry_Donkey_bar_English_2-130-1	60.018	158	1.0.0.18	1	318989414	Standard	2.0.10.353	2.0.10.353	02-16-2016		18:48:01	2.0.10.248	32	Bar50-50.bmp	55	1	?	8r_4g.bmp	50r_4g.bmp	1r_2g.bmp	10r_2g.bmp	8r_4g.bmp				TrialProc	TrialList	0	cvbn	-999999	17	100957	0	c	517	101474	96	-80	16	4	-10	10	12	1	4	32	-8	-50	-1	-10	4	4	2	2	-8	4
Hungry_Donkey_bar_English_2	130	1	<?xml version="1.0"?>\n<Clock xmlns:dt="urn:schemas-microsoft-com:datatypes"><Description dt:dt="string">E-Prime Primary Realtime Clock</Description><StartTime><Timestamp dt:dt="int">0</Timestamp><DateUtc dt:dt="string">2016-02-16T23:48:01Z</DateUtc></StartTime><FrequencyChanges><FrequencyChange><Frequency dt:dt="r8">3507714</Frequency><Timestamp dt:dt="r8">318279462</Timestamp><Current dt:dt="r8">0</Current><DateUtc dt:dt="string">2016-02-16T23:48:01Z</DateUtc></FrequencyChange></FrequencyChanges></Clock>\n	Hungry_Donkey_bar_English_2-130-1	60.018	158	1.0.0.18	1	318989414	Standard	2.0.10.353	2.0.10.353	02-16-2016		18:48:01	2.0.10.248	33	Bar50-50.bmp	55	3	?	0r_4g.bmp	0r_4g.bmp	0r_2g.bmp	0r_2g.bmp			0r_2g.bmp		TrialProc	TrialList	0	cvbn	-999999	16	103506	0	b	3184	106690	98	-80	18	4	-10	12	12	9	4	33	0	0	0	0	4	4	2	2	0	2
Hungry_Donkey_bar_English_2	130	1	<?xml version="1.0"?>\n<Clock xmlns:dt="urn:schemas-microsoft-com:datatypes"><Description dt:dt="string">E-Prime Primary Realtime Clock</Description><StartTime><Timestamp dt:dt="int">0</Timestamp><DateUtc dt:dt="string">2016-02-16T23:48:01Z</DateUtc></StartTime><FrequencyChanges><FrequencyChange><Frequency dt:dt="r8">3507714</Frequency><Timestamp dt:dt="r8">318279462</Timestamp><Current dt:dt="r8">0</Current><DateUtc dt:dt="string">2016-02-16T23:48:01Z</DateUtc></FrequencyChange></FrequencyChanges></Clock>\n	Hungry_Donkey_bar_English_2-130-1	60.018	158	1.0.0.18	1	318989414	Standard	2.0.10.353	2.0.10.353	02-16-2016		18:48:01	2.0.10.248	34	Bar50-50.bmp	56	2	?	0r_4g.bmp	0r_4g.bmp	0r_2g.bmp	0r_2g.bmp		0r_4g.bmp			TrialProc	TrialList	0	cvbn	-999999	16	108721	0	v	305	109026	102	-80	22	4	-6	12	12	8	4	34	0	0	0	0	4	4	2	2	0	4
Hungry_Donkey_bar_English_2	130	1	<?xml version="1.0"?>\n<Clock xmlns:dt="urn:schemas-microsoft-com:datatypes"><Description dt:dt="string">E-Prime Primary Realtime Clock</Description><StartTime><Timestamp dt:dt="int">0</Timestamp><DateUtc dt:dt="string">2016-02-16T23:48:01Z</DateUtc></StartTime><FrequencyChanges><FrequencyChange><Frequency dt:dt="r8">3507714</Frequency><Timestamp dt:dt="r8">318279462</Timestamp><Current dt:dt="r8">0</Current><DateUtc dt:dt="string">2016-02-16T23:48:01Z</DateUtc></FrequencyChange></FrequencyChanges></Clock>\n	Hungry_Donkey_bar_English_2-130-1	60.018	158	1.0.0.18	1	318989414	Standard	2.0.10.353	2.0.10.353	02-16-2016		18:48:01	2.0.10.248	35	Bar63-37.bmp	57	4	?	10r_4g.bmp	0r_4g.bmp	2r_2g.bmp	0r_2g.bmp				0r_2g.bmp	TrialProc	TrialList	0	cvbn	-999999	17	111054	0	n	5315	116369	104	-80	24	4	-6	12	14	2	4	35	-10	0	-2	0	4	4	2	2	0	2
Hungry_Donkey_bar_English_2	130	1	<?xml version="1.0"?>\n<Clock xmlns:dt="urn:schemas-microsoft-com:datatypes"><Description dt:dt="string">E-Prime Primary Realtime Clock</Description><StartTime><Timestamp dt:dt="int">0</Timestamp><DateUtc dt:dt="string">2016-02-16T23:48:01Z</DateUtc></StartTime><FrequencyChanges><FrequencyChange><Frequency dt:dt="r8">3507714</Frequency><Timestamp dt:dt="r8">318279462</Timestamp><Current dt:dt="r8">0</Current><DateUtc dt:dt="string">2016-02-16T23:48:01Z</DateUtc></FrequencyChange></FrequencyChanges></Clock>\n	Hungry_Donkey_bar_English_2-130-1	60.018	158	1.0.0.18	1	318989414	Standard	2.0.10.353	2.0.10.353	02-16-2016		18:48:01	2.0.10.248	36	Bar63-37.bmp	57	3	?	0r_4g.bmp	0r_4g.bmp	0r_2g.bmp	0r_2g.bmp			0r_2g.bmp		TrialProc	TrialList	0	cvbn	-999999	16	118401	0	b	816	119217	106	-80	26	4	-6	14	14	6	4	36	0	0	0	0	4	4	2	2	0	2
Hungry_Donkey_bar_English_2	130	1	<?xml version="1.0"?>\n<Clock xmlns:dt="urn:schemas-microsoft-com:datatypes"><Description dt:dt="string">E-Prime Primary Realtime Clock</Description><StartTime><Timestamp dt:dt="int">0</Timestamp><DateUtc dt:dt="string">2016-02-16T23:48:01Z</DateUtc></StartTime><FrequencyChanges><FrequencyChange><Frequency dt:dt="r8">3507714</Frequency><Timestamp dt:dt="r8">318279462</Timestamp><Current dt:dt="r8">0</Current><DateUtc dt:dt="string">2016-02-16T23:48:01Z</DateUtc></FrequencyChange></FrequencyChanges></Clock>\n	Hungry_Donkey_bar_English_2-130-1	60.018	158	1.0.0.18	1	318989414	Standard	2.0.10.353	2.0.10.353	02-16-2016		18:48:01	2.0.10.248	37	Bar63-37.bmp	58	2	?	12r_4g.bmp	0r_4g.bmp	3r_2g.bmp	0r_2g.bmp		0r_4g.bmp			TrialProc	TrialList	0	cvbn	-999999	17	121251	0	v	1166	122417	110	-80	30	4	-2	14	14	5	4	37	-12	0	-3	0	4	4	2	2	0	4
Hungry_Donkey_bar_English_2	130	1	<?xml version="1.0"?>\n<Clock xmlns:dt="urn:schemas-microsoft-com:datatypes"><Description dt:dt="string">E-Prime Primary Realtime Clock</Description><StartTime><Timestamp dt:dt="int">0</Timestamp><DateUtc dt:dt="string">2016-02-16T23:48:01Z</DateUtc></StartTime><FrequencyChanges><FrequencyChange><Frequency dt:dt="r8">3507714</Frequency><Timestamp dt:dt="r8">318279462</Timestamp><Current dt:dt="r8">0</Current><DateUtc dt:dt="string">2016-02-16T23:48:01Z</DateUtc></FrequencyChange></FrequencyChanges></Clock>\n	Hungry_Donkey_bar_English_2-130-1	60.018	158	1.0.0.18	1	318989414	Standard	2.0.10.353	2.0.10.353	02-16-2016		18:48:01	2.0.10.248	38	Bar50-50.bmp	56	1	?	10r_4g.bmp	0r_4g.bmp	2r_2g.bmp	0r_2g.bmp	10r_4g.bmp				TrialProc	TrialList	0	cvbn	-999999	17	124450	0	c	559	125009	114	-90	24	-2	-2	14	14	4	4	38	-10	0	-2	0	4	4	2	2	-10	4
Hungry_Donkey_bar_English_2	130	1	<?xml version="1.0"?>\n<Clock xmlns:dt="urn:schemas-microsoft-com:datatypes"><Description dt:dt="string">E-Prime Primary Realtime Clock</Description><StartTime><Timestamp dt:dt="int">0</Timestamp><DateUtc dt:dt="string">2016-02-16T23:48:01Z</DateUtc></StartTime><FrequencyChanges><FrequencyChange><Frequency dt:dt="r8">3507714</Frequency><Timestamp dt:dt="r8">318279462</Timestamp><Current dt:dt="r8">0</Current><DateUtc dt:dt="string">2016-02-16T23:48:01Z</DateUtc></FrequencyChange></FrequencyChanges></Clock>\n	Hungry_Donkey_bar_English_2-130-1	60.018	158	1.0.0.18	1	318989414	Standard	2.0.10.353	2.0.10.353	02-16-2016		18:48:01	2.0.10.248	39	Bar50-50.bmp	56	4	?	0r_4g.bmp	0r_4g.bmp	0r_2g.bmp	0r_2g.bmp				0r_2g.bmp	TrialProc	TrialList	0	cvbn	-999999	16	127049	0	n	727	127776	116	-90	26	-2	-2	14	16	10	4	39	0	0	0	0	4	4	2	2	0	2
Hungry_Donkey_bar_English_2	130	1	<?xml version="1.0"?>\n<Clock xmlns:dt="urn:schemas-microsoft-com:datatypes"><Description dt:dt="string">E-Prime Primary Realtime Clock</Description><StartTime><Timestamp dt:dt="int">0</Timestamp><DateUtc dt:dt="string">2016-02-16T23:48:01Z</DateUtc></StartTime><FrequencyChanges><FrequencyChange><Frequency dt:dt="r8">3507714</Frequency><Timestamp dt:dt="r8">318279462</Timestamp><Current dt:dt="r8">0</Current><DateUtc dt:dt="string">2016-02-16T23:48:01Z</DateUtc></FrequencyChange></FrequencyChanges></Clock>\n	Hungry_Donkey_bar_English_2-130-1	60.018	158	1.0.0.18	1	318989414	Standard	2.0.10.353	2.0.10.353	02-16-2016		18:48:01	2.0.10.248	40	Bar63-37.bmp	57	3	?	0r_4g.bmp	0r_4g.bmp	0r_2g.bmp	0r_2g.bmp			0r_2g.bmp		TrialProc	TrialList	0	cvbn	-999999	16	129815	0	b	505	130320	118	-90	28	-2	-2	16	16	7	4	40	0	0	0	0	4	4	2	2	0	2
Hungry_Donkey_bar_English_2	130	1	<?xml version="1.0"?>\n<Clock xmlns:dt="urn:schemas-microsoft-com:datatypes"><Description dt:dt="string">E-Prime Primary Realtime Clock</Description><StartTime><Timestamp dt:dt="int">0</Timestamp><DateUtc dt:dt="string">2016-02-16T23:48:01Z</DateUtc></StartTime><FrequencyChanges><FrequencyChange><Frequency dt:dt="r8">3507714</Frequency><Timestamp dt:dt="r8">318279462</Timestamp><Current dt:dt="r8">0</Current><DateUtc dt:dt="string">2016-02-16T23:48:01Z</DateUtc></FrequencyChange></FrequencyChanges></Clock>\n	Hungry_Donkey_bar_English_2-130-1	60.018	158	1.0.0.18	1	318989414	Standard	2.0.10.353	2.0.10.353	02-16-2016		18:48:01	2.0.10.248	41	Bar63-37.bmp	58	2	?	0r_4g.bmp	0r_4g.bmp	0r_2g.bmp	0r_2g.bmp		0r_4g.bmp			TrialProc	TrialList	0	cvbn	-999999	16	132347	0	v	789	133136	122	-90	32	-2	2	16	16	9	5	41	0	0	0	0	4	4	2	2	0	4
Hungry_Donkey_bar_English_2	130	1	<?xml version="1.0"?>\n<Clock xmlns:dt="urn:schemas-microsoft-com:datatypes"><Description dt:dt="string">E-Prime Primary Realtime Clock</Description><StartTime><Timestamp dt:dt="int">0</Timestamp><DateUtc dt:dt="string">2016-02-16T23:48:01Z</DateUtc></StartTime><FrequencyChanges><FrequencyChange><Frequency dt:dt="r8">3507714</Frequency><Timestamp dt:dt="r8">318279462</Timestamp><Current dt:dt="r8">0</Current><DateUtc dt:dt="string">2016-02-16T23:48:01Z</DateUtc></FrequencyChange></FrequencyChanges></Clock>\n	Hungry_Donkey_bar_English_2-130-1	60.018	158	1.0.0.18	1	318989414	Standard	2.0.10.353	2.0.10.353	02-16-2016		18:48:01	2.0.10.248	42	Bar63-37.bmp	58	4	?	0r_4g.bmp	0r_4g.bmp	0r_2g.bmp	0r_2g.bmp				0r_2g.bmp	TrialProc	TrialList	0	cvbn	-999999	16	135163	0	n	533	135696	124	-90	34	-2	2	16	18	6	5	42	0	0	0	0	4	4	2	2	0	2
Hungry_Donkey_bar_English_2	130	1	<?xml version="1.0"?>\n<Clock xmlns:dt="urn:schemas-microsoft-com:datatypes"><Description dt:dt="string">E-Prime Primary Realtime Clock</Description><StartTime><Timestamp dt:dt="int">0</Timestamp><DateUtc dt:dt="string">2016-02-16T23:48:01Z</DateUtc></StartTime><FrequencyChanges><FrequencyChange><Frequency dt:dt="r8">3507714</Frequency><Timestamp dt:dt="r8">318279462</Timestamp><Current dt:dt="r8">0</Current><DateUtc dt:dt="string">2016-02-16T23:48:01Z</DateUtc></FrequencyChange></FrequencyChanges></Clock>\n	Hungry_Donkey_bar_English_2-130-1	60.018	158	1.0.0.18	1	318989414	Standard	2.0.10.353	2.0.10.353	02-16-2016		18:48:01	2.0.10.248	43	Bar63-37.bmp	58	3	?	10r_4g.bmp	0r_4g.bmp	2r_2g.bmp	0r_2g.bmp			2r_2g.bmp		TrialProc	TrialList	0	cvbn	-999999	16	137729	0	b	511	138240	126	-92	34	-2	2	16	18	3	5	43	-10	0	-2	0	4	4	2	2	-2	2
Hungry_Donkey_bar_English_2	130	1	<?xml version="1.0"?>\n<Clock xmlns:dt="urn:schemas-microsoft-com:datatypes"><Description dt:dt="string">E-Prime Primary Realtime Clock</Description><StartTime><Timestamp dt:dt="int">0</Timestamp><DateUtc dt:dt="string">2016-02-16T23:48:01Z</DateUtc></StartTime><FrequencyChanges><FrequencyChange><Frequency dt:dt="r8">3507714</Frequency><Timestamp dt:dt="r8">318279462</Timestamp><Current dt:dt="r8">0</Current><DateUtc dt:dt="string">2016-02-16T23:48:01Z</DateUtc></FrequencyChange></FrequencyChanges></Clock>\n	Hungry_Donkey_bar_English_2-130-1	60.018	158	1.0.0.18	1	318989414	Standard	2.0.10.353	2.0.10.353	02-16-2016		18:48:01	2.0.10.248	44	Bar63-37.bmp	59	2	?	0r_4g.bmp	0r_4g.bmp	0r_2g.bmp	0r_2g.bmp		0r_4g.bmp			TrialProc	TrialList	0	cvbn	-999999	16	140278	0	v	634	140912	130	-92	38	-2	6	16	18	8	5	44	0	0	0	0	4	4	2	2	0	4
Hungry_Donkey_bar_English_2	130	1	<?xml version="1.0"?>\n<Clock xmlns:dt="urn:schemas-microsoft-com:datatypes"><Description dt:dt="string">E-Prime Primary Realtime Clock</Description><StartTime><Timestamp dt:dt="int">0</Timestamp><DateUtc dt:dt="string">2016-02-16T23:48:01Z</DateUtc></StartTime><FrequencyChanges><FrequencyChange><Frequency dt:dt="r8">3507714</Frequency><Timestamp dt:dt="r8">318279462</Timestamp><Current dt:dt="r8">0</Current><DateUtc dt:dt="string">2016-02-16T23:48:01Z</DateUtc></FrequencyChange></FrequencyChanges></Clock>\n	Hungry_Donkey_bar_English_2-130-1	60.018	158	1.0.0.18	1	318989414	Standard	2.0.10.353	2.0.10.353	02-16-2016		18:48:01	2.0.10.248	45	Bar63-37.bmp	59	1	?	0r_4g.bmp	0r_4g.bmp	0r_2g.bmp	0r_2g.bmp	0r_4g.bmp				TrialProc	TrialList	0	cvbn	-999999	16	142944	0	c	2207	145151	134	-92	42	2	6	16	18	7	5	45	0	0	0	0	4	4	2	2	0	4
Hungry_Donkey_bar_English_2	130	1	<?xml version="1.0"?>\n<Clock xmlns:dt="urn:schemas-microsoft-com:datatypes"><Description dt:dt="string">E-Prime Primary Realtime Clock</Description><StartTime><Timestamp dt:dt="int">0</Timestamp><DateUtc dt:dt="string">2016-02-16T23:48:01Z</DateUtc></StartTime><FrequencyChanges><FrequencyChange><Frequency dt:dt="r8">3507714</Frequency><Timestamp dt:dt="r8">318279462</Timestamp><Current dt:dt="r8">0</Current><DateUtc dt:dt="string">2016-02-16T23:48:01Z</DateUtc></FrequencyChange></FrequencyChanges></Clock>\n	Hungry_Donkey_bar_English_2-130-1	60.018	158	1.0.0.18	1	318989414	Standard	2.0.10.353	2.0.10.353	02-16-2016		18:48:01	2.0.10.248	46	Bar63-37.bmp	60	2	?	12r_4g.bmp	0r_4g.bmp	3r_2g.bmp	0r_2g.bmp		0r_4g.bmp			TrialProc	TrialList	0	cvbn	-999999	16	147193	0	v	1174	148367	138	-92	46	2	10	16	18	5	5	46	-12	0	-3	0	4	4	2	2	0	4
Hungry_Donkey_bar_English_2	130	1	<?xml version="1.0"?>\n<Clock xmlns:dt="urn:schemas-microsoft-com:datatypes"><Description dt:dt="string">E-Prime Primary Realtime Clock</Description><StartTime><Timestamp dt:dt="int">0</Timestamp><DateUtc dt:dt="string">2016-02-16T23:48:01Z</DateUtc></StartTime><FrequencyChanges><FrequencyChange><Frequency dt:dt="r8">3507714</Frequency><Timestamp dt:dt="r8">318279462</Timestamp><Current dt:dt="r8">0</Current><DateUtc dt:dt="string">2016-02-16T23:48:01Z</DateUtc></FrequencyChange></FrequencyChanges></Clock>\n	Hungry_Donkey_bar_English_2-130-1	60.018	158	1.0.0.18	1	318989414	Standard	2.0.10.353	2.0.10.353	02-16-2016		18:48:01	2.0.10.248	47	Bar63-37.bmp	60	3	?	10r_4g.bmp	0r_4g.bmp	2r_2g.bmp	0r_2g.bmp			2r_2g.bmp		TrialProc	TrialList	0	cvbn	-999999	16	150392	0	b	647	151039	140	-94	46	2	10	16	18	2	5	47	-10	0	-2	0	4	4	2	2	-2	2
Hungry_Donkey_bar_English_2	130	1	<?xml version="1.0"?>\n<Clock xmlns:dt="urn:schemas-microsoft-com:datatypes"><Description dt:dt="string">E-Prime Primary Realtime Clock</Description><StartTime><Timestamp dt:dt="int">0</Timestamp><DateUtc dt:dt="string">2016-02-16T23:48:01Z</DateUtc></StartTime><FrequencyChanges><FrequencyChange><Frequency dt:dt="r8">3507714</Frequency><Timestamp dt:dt="r8">318279462</Timestamp><Current dt:dt="r8">0</Current><DateUtc dt:dt="string">2016-02-16T23:48:01Z</DateUtc></FrequencyChange></FrequencyChanges></Clock>\n	Hungry_Donkey_bar_English_2-130-1	60.018	158	1.0.0.18	1	318989414	Standard	2.0.10.353	2.0.10.353	02-16-2016		18:48:01	2.0.10.248	48	Bar63-37.bmp	61	2	?	10r_4g.bmp	0r_4g.bmp	2r_2g.bmp	0r_2g.bmp		0r_4g.bmp			TrialProc	TrialList	0	cvbn	-999999	16	153074	0	v	2589	155663	144	-94	50	2	14	16	18	4	5	48	-10	0	-2	0	4	4	2	2	0	4
Hungry_Donkey_bar_English_2	130	1	<?xml version="1.0"?>\n<Clock xmlns:dt="urn:schemas-microsoft-com:datatypes"><Description dt:dt="string">E-Prime Primary Realtime Clock</Description><StartTime><Timestamp dt:dt="int">0</Timestamp><DateUtc dt:dt="string">2016-02-16T23:48:01Z</DateUtc></StartTime><FrequencyChanges><FrequencyChange><Frequency dt:dt="r8">3507714</Frequency><Timestamp dt:dt="r8">318279462</Timestamp><Current dt:dt="r8">0</Current><DateUtc dt:dt="string">2016-02-16T23:48:01Z</DateUtc></FrequencyChange></FrequencyChanges></Clock>\n	Hungry_Donkey_bar_English_2-130-1	60.018	158	1.0.0.18	1	318989414	Standard	2.0.10.353	2.0.10.353	02-16-2016		18:48:01	2.0.10.248	49	Bar63-37.bmp	61	3	?	0r_4g.bmp	0r_4g.bmp	0r_2g.bmp	0r_2g.bmp			0r_2g.bmp		TrialProc	TrialList	0	cvbn	-999999	16	157690	0	b	1045	158735	146	-94	52	2	14	18	18	10	5	49	0	0	0	0	4	4	2	2	0	2
Hungry_Donkey_bar_English_2	130	1	<?xml version="1.0"?>\n<Clock xmlns:dt="urn:schemas-microsoft-com:datatypes"><Description dt:dt="string">E-Prime Primary Realtime Clock</Description><StartTime><Timestamp dt:dt="int">0</Timestamp><DateUtc dt:dt="string">2016-02-16T23:48:01Z</DateUtc></StartTime><FrequencyChanges><FrequencyChange><Frequency dt:dt="r8">3507714</Frequency><Timestamp dt:dt="r8">318279462</Timestamp><Current dt:dt="r8">0</Current><DateUtc dt:dt="string">2016-02-16T23:48:01Z</DateUtc></FrequencyChange></FrequencyChanges></Clock>\n	Hungry_Donkey_bar_English_2-130-1	60.018	158	1.0.0.18	1	318989414	Standard	2.0.10.353	2.0.10.353	02-16-2016		18:48:01	2.0.10.248	50	Bar63-37.bmp	59	4	?	8r_4g.bmp	50r_4g.bmp	1r_2g.bmp	10r_2g.bmp				10r_2g.bmp	TrialProc	TrialList	0	cvbn	-999999	16	160772	0	n	970	161742	148	-104	44	2	14	18	10	1	5	50	-8	-50	-1	-10	4	4	2	2	-10	2
Hungry_Donkey_bar_English_2	130	1	<?xml version="1.0"?>\n<Clock xmlns:dt="urn:schemas-microsoft-com:datatypes"><Description dt:dt="string">E-Prime Primary Realtime Clock</Description><StartTime><Timestamp dt:dt="int">0</Timestamp><DateUtc dt:dt="string">2016-02-16T23:48:01Z</DateUtc></StartTime><FrequencyChanges><FrequencyChange><Frequency dt:dt="r8">3507714</Frequency><Timestamp dt:dt="r8">318279462</Timestamp><Current dt:dt="r8">0</Current><DateUtc dt:dt="string">2016-02-16T23:48:01Z</DateUtc></FrequencyChange></FrequencyChanges></Clock>\n	Hungry_Donkey_bar_English_2-130-1	60.018	158	1.0.0.18	1	318989414	Standard	2.0.10.353	2.0.10.353	02-16-2016		18:48:01	2.0.10.248	51	Bar63-37.bmp	57	1	?	10r_4g.bmp	0r_4g.bmp	2r_2g.bmp	0r_2g.bmp	10r_4g.bmp				TrialProc	TrialList	0	cvbn	-999999	16	163771	0	c	1571	165342	152	-114	38	-4	14	18	10	3	6	51	-10	0	-2	0	4	4	2	2	-10	4
Hungry_Donkey_bar_English_2	130	1	<?xml version="1.0"?>\n<Clock xmlns:dt="urn:schemas-microsoft-com:datatypes"><Description dt:dt="string">E-Prime Primary Realtime Clock</Description><StartTime><Timestamp dt:dt="int">0</Timestamp><DateUtc dt:dt="string">2016-02-16T23:48:01Z</DateUtc></StartTime><FrequencyChanges><FrequencyChange><Frequency dt:dt="r8">3507714</Frequency><Timestamp dt:dt="r8">318279462</Timestamp><Current dt:dt="r8">0</Current><DateUtc dt:dt="string">2016-02-16T23:48:01Z</DateUtc></FrequencyChange></FrequencyChanges></Clock>\n	Hungry_Donkey_bar_English_2-130-1	60.018	158	1.0.0.18	1	318989414	Standard	2.0.10.353	2.0.10.353	02-16-2016		18:48:01	2.0.10.248	52	Bar63-37.bmp	58	2	?	0r_4g.bmp	0r_4g.bmp	0r_2g.bmp	0r_2g.bmp		0r_4g.bmp			TrialProc	TrialList	0	cvbn	-999999	16	167370	0	v	1524	168894	156	-114	42	-4	18	18	10	8	6	52	0	0	0	0	4	4	2	2	0	4
Hungry_Donkey_bar_English_2	130	1	<?xml version="1.0"?>\n<Clock xmlns:dt="urn:schemas-microsoft-com:datatypes"><Description dt:dt="string">E-Prime Primary Realtime Clock</Description><StartTime><Timestamp dt:dt="int">0</Timestamp><DateUtc dt:dt="string">2016-02-16T23:48:01Z</DateUtc></StartTime><FrequencyChanges><FrequencyChange><Frequency dt:dt="r8">3507714</Frequency><Timestamp dt:dt="r8">318279462</Timestamp><Current dt:dt="r8">0</Current><DateUtc dt:dt="string">2016-02-16T23:48:01Z</DateUtc></FrequencyChange></FrequencyChanges></Clock>\n	Hungry_Donkey_bar_English_2-130-1	60.018	158	1.0.0.18	1	318989414	Standard	2.0.10.353	2.0.10.353	02-16-2016		18:48:01	2.0.10.248	53	Bar63-37.bmp	58	3	?	8r_4g.bmp	50r_4g.bmp	1r_2g.bmp	10r_2g.bmp			1r_2g.bmp		TrialProc	TrialList	0	cvbn	-999999	16	170919	0	b	1575	172494	158	-115	43	-4	18	19	10	1	6	53	-8	-50	-1	-10	4	4	2	2	-1	2
Hungry_Donkey_bar_English_2	130	1	<?xml version="1.0"?>\n<Clock xmlns:dt="urn:schemas-microsoft-com:datatypes"><Description dt:dt="string">E-Prime Primary Realtime Clock</Description><StartTime><Timestamp dt:dt="int">0</Timestamp><DateUtc dt:dt="string">2016-02-16T23:48:01Z</DateUtc></StartTime><FrequencyChanges><FrequencyChange><Frequency dt:dt="r8">3507714</Frequency><Timestamp dt:dt="r8">318279462</Timestamp><Current dt:dt="r8">0</Current><DateUtc dt:dt="string">2016-02-16T23:48:01Z</DateUtc></FrequencyChange></FrequencyChanges></Clock>\n	Hungry_Donkey_bar_English_2-130-1	60.018	158	1.0.0.18	1	318989414	Standard	2.0.10.353	2.0.10.353	02-16-2016		18:48:01	2.0.10.248	54	Bar63-37.bmp	58	2	?	10r_4g.bmp	0r_4g.bmp	2r_2g.bmp	0r_2g.bmp		0r_4g.bmp			TrialProc	TrialList	0	cvbn	-999999	16	174535	0	v	1895	176430	162	-115	47	-4	22	19	10	4	6	54	-10	0	-2	0	4	4	2	2	0	4
Hungry_Donkey_bar_English_2	130	1	<?xml version="1.0"?>\n<Clock xmlns:dt="urn:schemas-microsoft-com:datatypes"><Description dt:dt="string">E-Prime Primary Realtime Clock</Description><StartTime><Timestamp dt:dt="int">0</Timestamp><DateUtc dt:dt="string">2016-02-16T23:48:01Z</DateUtc></StartTime><FrequencyChanges><FrequencyChange><Frequency dt:dt="r8">3507714</Frequency><Timestamp dt:dt="r8">318279462</Timestamp><Current dt:dt="r8">0</Current><DateUtc dt:dt="string">2016-02-16T23:48:01Z</DateUtc></FrequencyChange></FrequencyChanges></Clock>\n	Hungry_Donkey_bar_English_2-130-1	60.018	158	1.0.0.18	1	318989414	Standard	2.0.10.353	2.0.10.353	02-16-2016		18:48:01	2.0.10.248	55	Bar63-37.bmp	59	4	?	0r_4g.bmp	0r_4g.bmp	0r_2g.bmp	0r_2g.bmp				0r_2g.bmp	TrialProc	TrialList	0	cvbn	-999999	16	178467	0	n	634	179101	164	-115	49	-4	22	19	12	10	6	55	0	0	0	0	4	4	2	2	0	2
Hungry_Donkey_bar_English_2	130	1	<?xml version="1.0"?>\n<Clock xmlns:dt="urn:schemas-microsoft-com:datatypes"><Description dt:dt="string">E-Prime Primary Realtime Clock</Description><StartTime><Timestamp dt:dt="int">0</Timestamp><DateUtc dt:dt="string">2016-02-16T23:48:01Z</DateUtc></StartTime><FrequencyChanges><FrequencyChange><Frequency dt:dt="r8">3507714</Frequency><Timestamp dt:dt="r8">318279462</Timestamp><Current dt:dt="r8">0</Current><DateUtc dt:dt="string">2016-02-16T23:48:01Z</DateUtc></FrequencyChange></FrequencyChanges></Clock>\n	Hungry_Donkey_bar_English_2-130-1	60.018	158	1.0.0.18	1	318989414	Standard	2.0.10.353	2.0.10.353	02-16-2016		18:48:01	2.0.10.248	56	Bar63-37.bmp	59	2	?	0r_4g.bmp	0r_4g.bmp	0r_2g.bmp	0r_2g.bmp		0r_4g.bmp			TrialProc	TrialList	0	cvbn	-999999	16	181133	0	v	768	181901	168	-115	53	-4	26	19	12	9	6	56	0	0	0	0	4	4	2	2	0	4
Hungry_Donkey_bar_English_2	130	1	<?xml version="1.0"?>\n<Clock xmlns:dt="urn:schemas-microsoft-com:datatypes"><Description dt:dt="string">E-Prime Primary Realtime Clock</Description><StartTime><Timestamp dt:dt="int">0</Timestamp><DateUtc dt:dt="string">2016-02-16T23:48:01Z</DateUtc></StartTime><FrequencyChanges><FrequencyChange><Frequency dt:dt="r8">3507714</Frequency><Timestamp dt:dt="r8">318279462</Timestamp><Current dt:dt="r8">0</Current><DateUtc dt:dt="string">2016-02-16T23:48:01Z</DateUtc></FrequencyChange></FrequencyChanges></Clock>\n	Hungry_Donkey_bar_English_2-130-1	60.018	158	1.0.0.18	1	318989414	Standard	2.0.10.353	2.0.10.353	02-16-2016		18:48:01	2.0.10.248	57	Bar63-37.bmp	60	3	?	0r_4g.bmp	0r_4g.bmp	0r_2g.bmp	0r_2g.bmp			0r_2g.bmp		TrialProc	TrialList	0	cvbn	-999999	16	183932	0	b	1185	185117	170	-115	55	-4	26	21	12	6	6	57	0	0	0	0	4	4	2	2	0	2
Hungry_Donkey_bar_English_2	130	1	<?xml version="1.0"?>\n<Clock xmlns:dt="urn:schemas-microsoft-com:datatypes"><Description dt:dt="string">E-Prime Primary Realtime Clock</Description><StartTime><Timestamp dt:dt="int">0</Timestamp><DateUtc dt:dt="string">2016-02-16T23:48:01Z</DateUtc></StartTime><FrequencyChanges><FrequencyChange><Frequency dt:dt="r8">3507714</Frequency><Timestamp dt:dt="r8">318279462</Timestamp><Current dt:dt="r8">0</Current><DateUtc dt:dt="string">2016-02-16T23:48:01Z</DateUtc></FrequencyChange></FrequencyChanges></Clock>\n	Hungry_Donkey_bar_English_2-130-1	60.018	158	1.0.0.18	1	318989414	Standard	2.0.10.353	2.0.10.353	02-16-2016		18:48:01	2.0.10.248	58	Bar63-37.bmp	60	1	?	0r_4g.bmp	0r_4g.bmp	0r_2g.bmp	0r_2g.bmp	0r_4g.bmp				TrialProc	TrialList	0	cvbn	-999999	16	187148	0	c	689	187837	174	-115	59	0	26	21	12	7	6	58	0	0	0	0	4	4	2	2	0	4
Hungry_Donkey_bar_English_2	130	1	<?xml version="1.0"?>\n<Clock xmlns:dt="urn:schemas-microsoft-com:datatypes"><Description dt:dt="string">E-Prime Primary Realtime Clock</Description><StartTime><Timestamp dt:dt="int">0</Timestamp><DateUtc dt:dt="string">2016-02-16T23:48:01Z</DateUtc></StartTime><FrequencyChanges><FrequencyChange><Frequency dt:dt="r8">3507714</Frequency><Timestamp dt:dt="r8">318279462</Timestamp><Current dt:dt="r8">0</Current><DateUtc dt:dt="string">2016-02-16T23:48:01Z</DateUtc></FrequencyChange></FrequencyChanges></Clock>\n	Hungry_Donkey_bar_English_2-130-1	60.018	158	1.0.0.18	1	318989414	Standard	2.0.10.353	2.0.10.353	02-16-2016		18:48:01	2.0.10.248	59	Bar63-37.bmp	61	2	?	12r_4g.bmp	0r_4g.bmp	3r_2g.bmp	0r_2g.bmp		0r_4g.bmp			TrialProc	TrialList	0	cvbn	-999999	16	189863	0	v	662	190525	178	-115	63	0	30	21	12	5	6	59	-12	0	-3	0	4	4	2	2	0	4
Hungry_Donkey_bar_English_2	130	1	<?xml version="1.0"?>\n<Clock xmlns:dt="urn:schemas-microsoft-com:datatypes"><Description dt:dt="string">E-Prime Primary Realtime Clock</Description><StartTime><Timestamp dt:dt="int">0</Timestamp><DateUtc dt:dt="string">2016-02-16T23:48:01Z</DateUtc></StartTime><FrequencyChanges><FrequencyChange><Frequency dt:dt="r8">3507714</Frequency><Timestamp dt:dt="r8">318279462</Timestamp><Current dt:dt="r8">0</Current><DateUtc dt:dt="string">2016-02-16T23:48:01Z</DateUtc></FrequencyChange></FrequencyChanges></Clock>\n	Hungry_Donkey_bar_English_2-130-1	60.018	158	1.0.0.18	1	318989414	Standard	2.0.10.353	2.0.10.353	02-16-2016		18:48:01	2.0.10.248	60	Bar63-37.bmp	61	3	?	10r_4g.bmp	0r_4g.bmp	2r_2g.bmp	0r_2g.bmp			2r_2g.bmp		TrialProc	TrialList	0	cvbn	-999999	16	192563	0	b	490	193053	180	-117	63	0	30	21	12	2	6	60	-10	0	-2	0	4	4	2	2	-2	2
Hungry_Donkey_bar_English_2	130	1	<?xml version="1.0"?>\n<Clock xmlns:dt="urn:schemas-microsoft-com:datatypes"><Description dt:dt="string">E-Prime Primary Realtime Clock</Description><StartTime><Timestamp dt:dt="int">0</Timestamp><DateUtc dt:dt="string">2016-02-16T23:48:01Z</DateUtc></StartTime><FrequencyChanges><FrequencyChange><Frequency dt:dt="r8">3507714</Frequency><Timestamp dt:dt="r8">318279462</Timestamp><Current dt:dt="r8">0</Current><DateUtc dt:dt="string">2016-02-16T23:48:01Z</DateUtc></FrequencyChange></FrequencyChanges></Clock>\n	Hungry_Donkey_bar_English_2-130-1	60.018	158	1.0.0.18	1	318989414	Standard	2.0.10.353	2.0.10.353	02-16-2016		18:48:01	2.0.10.248	61	Bar63-37.bmp	61	4	?	0r_4g.bmp	0r_4g.bmp	0r_2g.bmp	0r_2g.bmp				0r_2g.bmp	TrialProc	TrialList	0	cvbn	-999999	16	195079	0	n	277	195356	182	-117	65	0	30	21	14	8	7	61	0	0	0	0	4	4	2	2	0	2
Hungry_Donkey_bar_English_2	130	1	<?xml version="1.0"?>\n<Clock xmlns:dt="urn:schemas-microsoft-com:datatypes"><Description dt:dt="string">E-Prime Primary Realtime Clock</Description><StartTime><Timestamp dt:dt="int">0</Timestamp><DateUtc dt:dt="string">2016-02-16T23:48:01Z</DateUtc></StartTime><FrequencyChanges><FrequencyChange><Frequency dt:dt="r8">3507714</Frequency><Timestamp dt:dt="r8">318279462</Timestamp><Current dt:dt="r8">0</Current><DateUtc dt:dt="string">2016-02-16T23:48:01Z</DateUtc></FrequencyChange></FrequencyChanges></Clock>\n	Hungry_Donkey_bar_English_2-130-1	60.018	158	1.0.0.18	1	318989414	Standard	2.0.10.353	2.0.10.353	02-16-2016		18:48:01	2.0.10.248	62	Bar63-37.bmp	61	3	?	8r_4g.bmp	50r_4g.bmp	1r_2g.bmp	10r_2g.bmp			1r_2g.bmp		TrialProc	TrialList	0	cvbn	-999999	17	197395	0	b	25	197420	184	-118	66	0	30	22	14	1	7	62	-8	-50	-1	-10	4	4	2	2	-1	2
Hungry_Donkey_bar_English_2	130	1	<?xml version="1.0"?>\n<Clock xmlns:dt="urn:schemas-microsoft-com:datatypes"><Description dt:dt="string">E-Prime Primary Realtime Clock</Description><StartTime><Timestamp dt:dt="int">0</Timestamp><DateUtc dt:dt="string">2016-02-16T23:48:01Z</DateUtc></StartTime><FrequencyChanges><FrequencyChange><Frequency dt:dt="r8">3507714</Frequency><Timestamp dt:dt="r8">318279462</Timestamp><Current dt:dt="r8">0</Current><DateUtc dt:dt="string">2016-02-16T23:48:01Z</DateUtc></FrequencyChange></FrequencyChanges></Clock>\n	Hungry_Donkey_bar_English_2-130-1	60.018	158	1.0.0.18	1	318989414	Standard	2.0.10.353	2.0.10.353	02-16-2016		18:48:01	2.0.10.248	63	Bar63-37.bmp	61	2	?	0r_4g.bmp	0r_4g.bmp	0r_2g.bmp	0r_2g.bmp		0r_4g.bmp			TrialProc	TrialList	0	cvbn	-999999	16	199444	0	v	888	200332	188	-118	70	0	34	22	14	7	7	63	0	0	0	0	4	4	2	2	0	4
Hungry_Donkey_bar_English_2	130	1	<?xml version="1.0"?>\n<Clock xmlns:dt="urn:schemas-microsoft-com:datatypes"><Description dt:dt="string">E-Prime Primary Realtime Clock</Description><StartTime><Timestamp dt:dt="int">0</Timestamp><DateUtc dt:dt="string">2016-02-16T23:48:01Z</DateUtc></StartTime><FrequencyChanges><FrequencyChange><Frequency dt:dt="r8">3507714</Frequency><Timestamp dt:dt="r8">318279462</Timestamp><Current dt:dt="r8">0</Current><DateUtc dt:dt="string">2016-02-16T23:48:01Z</DateUtc></FrequencyChange></FrequencyChanges></Clock>\n	Hungry_Donkey_bar_English_2-130-1	60.018	158	1.0.0.18	1	318989414	Standard	2.0.10.353	2.0.10.353	02-16-2016		18:48:01	2.0.10.248	64	Bar63-37.bmp	60	1	?	10r_4g.bmp	0r_4g.bmp	2r_2g.bmp	0r_2g.bmp	10r_4g.bmp				TrialProc	TrialList	0	cvbn	-999999	16	202360	0	c	516	202876	192	-128	64	-6	34	22	14	4	7	64	-10	0	-2	0	4	4	2	2	-10	4
Hungry_Donkey_bar_English_2	130	1	<?xml version="1.0"?>\n<Clock xmlns:dt="urn:schemas-microsoft-com:datatypes"><Description dt:dt="string">E-Prime Primary Realtime Clock</Description><StartTime><Timestamp dt:dt="int">0</Timestamp><DateUtc dt:dt="string">2016-02-16T23:48:01Z</DateUtc></StartTime><FrequencyChanges><FrequencyChange><Frequency dt:dt="r8">3507714</Frequency><Timestamp dt:dt="r8">318279462</Timestamp><Current dt:dt="r8">0</Current><DateUtc dt:dt="string">2016-02-16T23:48:01Z</DateUtc></FrequencyChange></FrequencyChanges></Clock>\n	Hungry_Donkey_bar_English_2-130-1	60.018	158	1.0.0.18	1	318989414	Standard	2.0.10.353	2.0.10.353	02-16-2016		18:48:01	2.0.10.248	65	Bar63-37.bmp	60	2	?	0r_4g.bmp	0r_4g.bmp	0r_2g.bmp	0r_2g.bmp		0r_4g.bmp			TrialProc	TrialList	0	cvbn	-999999	16	204909	0	v	1215	206124	196	-128	68	-6	38	22	14	9	7	65	0	0	0	0	4	4	2	2	0	4
Hungry_Donkey_bar_English_2	130	1	<?xml version="1.0"?>\n<Clock xmlns:dt="urn:schemas-microsoft-com:datatypes"><Description dt:dt="string">E-Prime Primary Realtime Clock</Description><StartTime><Timestamp dt:dt="int">0</Timestamp><DateUtc dt:dt="string">2016-02-16T23:48:01Z</DateUtc></StartTime><FrequencyChanges><FrequencyChange><Frequency dt:dt="r8">3507714</Frequency><Timestamp dt:dt="r8">318279462</Timestamp><Current dt:dt="r8">0</Current><DateUtc dt:dt="string">2016-02-16T23:48:01Z</DateUtc></FrequencyChange></FrequencyChanges></Clock>\n	Hungry_Donkey_bar_English_2-130-1	60.018	158	1.0.0.18	1	318989414	Standard	2.0.10.353	2.0.10.353	02-16-2016		18:48:01	2.0.10.248	66	Bar63-37.bmp	61	3	?	0r_4g.bmp	0r_4g.bmp	0r_2g.bmp	0r_2g.bmp			0r_2g.bmp		TrialProc	TrialList	0	cvbn	-999999	16	208158	0	b	510	208668	198	-128	70	-6	38	24	14	6	7	66	0	0	0	0	4	4	2	2	0	2
Hungry_Donkey_bar_English_2	130	1	<?xml version="1.0"?>\n<Clock xmlns:dt="urn:schemas-microsoft-com:datatypes"><Description dt:dt="string">E-Prime Primary Realtime Clock</Description><StartTime><Timestamp dt:dt="int">0</Timestamp><DateUtc dt:dt="string">2016-02-16T23:48:01Z</DateUtc></StartTime><FrequencyChanges><FrequencyChange><Frequency dt:dt="r8">3507714</Frequency><Timestamp dt:dt="r8">318279462</Timestamp><Current dt:dt="r8">0</Current><DateUtc dt:dt="string">2016-02-16T23:48:01Z</DateUtc></FrequencyChange></FrequencyChanges></Clock>\n	Hungry_Donkey_bar_English_2-130-1	60.018	158	1.0.0.18	1	318989414	Standard	2.0.10.353	2.0.10.353	02-16-2016		18:48:01	2.0.10.248	67	Bar63-37.bmp	61	4	?	10r_4g.bmp	0r_4g.bmp	2r_2g.bmp	0r_2g.bmp				0r_2g.bmp	TrialProc	TrialList	0	cvbn	-999999	16	210707	0	n	904	211611	200	-128	72	-6	38	24	16	2	7	67	-10	0	-2	0	4	4	2	2	0	2
Hungry_Donkey_bar_English_2	130	1	<?xml version="1.0"?>\n<Clock xmlns:dt="urn:schemas-microsoft-com:datatypes"><Description dt:dt="string">E-Prime Primary Realtime Clock</Description><StartTime><Timestamp dt:dt="int">0</Timestamp><DateUtc dt:dt="string">2016-02-16T23:48:01Z</DateUtc></StartTime><FrequencyChanges><FrequencyChange><Frequency dt:dt="r8">3507714</Frequency><Timestamp dt:dt="r8">318279462</Timestamp><Current dt:dt="r8">0</Current><DateUtc dt:dt="string">2016-02-16T23:48:01Z</DateUtc></FrequencyChange></FrequencyChanges></Clock>\n	Hungry_Donkey_bar_English_2-130-1	60.018	158	1.0.0.18	1	318989414	Standard	2.0.10.353	2.0.10.353	02-16-2016		18:48:01	2.0.10.248	68	Bar63-37.bmp	61	3	?	0r_4g.bmp	0r_4g.bmp	0r_2g.bmp	0r_2g.bmp			0r_2g.bmp		TrialProc	TrialList	0	cvbn	-999999	16	213640	0	b	7075	220715	202	-128	74	-6	38	26	16	10	7	68	0	0	0	0	4	4	2	2	0	2
Hungry_Donkey_bar_English_2	130	1	<?xml version="1.0"?>\n<Clock xmlns:dt="urn:schemas-microsoft-com:datatypes"><Description dt:dt="string">E-Prime Primary Realtime Clock</Description><StartTime><Timestamp dt:dt="int">0</Timestamp><DateUtc dt:dt="string">2016-02-16T23:48:01Z</DateUtc></StartTime><FrequencyChanges><FrequencyChange><Frequency dt:dt="r8">3507714</Frequency><Timestamp dt:dt="r8">318279462</Timestamp><Current dt:dt="r8">0</Current><DateUtc dt:dt="string">2016-02-16T23:48:01Z</DateUtc></FrequencyChange></FrequencyChanges></Clock>\n	Hungry_Donkey_bar_English_2-130-1	60.018	158	1.0.0.18	1	318989414	Standard	2.0.10.353	2.0.10.353	02-16-2016		18:48:01	2.0.10.248	69	Bar63-37.bmp	62	2	?	12r_4g.bmp	0r_4g.bmp	3r_2g.bmp	0r_2g.bmp		0r_4g.bmp			TrialProc	TrialList	0	cvbn	-999999	16	222754	0	v	521	223275	206	-128	78	-6	42	26	16	5	7	69	-12	0	-3	0	4	4	2	2	0	4
Hungry_Donkey_bar_English_2	130	1	<?xml version="1.0"?>\n<Clock xmlns:dt="urn:schemas-microsoft-com:datatypes"><Description dt:dt="string">E-Prime Primary Realtime Clock</Description><StartTime><Timestamp dt:dt="int">0</Timestamp><DateUtc dt:dt="string">2016-02-16T23:48:01Z</DateUtc></StartTime><FrequencyChanges><FrequencyChange><Frequency dt:dt="r8">3507714</Frequency><Timestamp dt:dt="r8">318279462</Timestamp><Current dt:dt="r8">0</Current><DateUtc dt:dt="string">2016-02-16T23:48:01Z</DateUtc></FrequencyChange></FrequencyChanges></Clock>\n	Hungry_Donkey_bar_English_2-130-1	60.018	158	1.0.0.18	1	318989414	Standard	2.0.10.353	2.0.10.353	02-16-2016		18:48:01	2.0.10.248	70	Bar63-37.bmp	60	1	?	10r_4g.bmp	0r_4g.bmp	2r_2g.bmp	0r_2g.bmp	10r_4g.bmp				TrialProc	TrialList	0	cvbn	-999999	16	225303	0	c	420	225723	210	-138	72	-12	42	26	16	3	7	70	-10	0	-2	0	4	4	2	2	-10	4
Hungry_Donkey_bar_English_2	130	1	<?xml version="1.0"?>\n<Clock xmlns:dt="urn:schemas-microsoft-com:datatypes"><Description dt:dt="string">E-Prime Primary Realtime Clock</Description><StartTime><Timestamp dt:dt="int">0</Timestamp><DateUtc dt:dt="string">2016-02-16T23:48:01Z</DateUtc></StartTime><FrequencyChanges><FrequencyChange><Frequency dt:dt="r8">3507714</Frequency><Timestamp dt:dt="r8">318279462</Timestamp><Current dt:dt="r8">0</Current><DateUtc dt:dt="string">2016-02-16T23:48:01Z</DateUtc></FrequencyChange></FrequencyChanges></Clock>\n	Hungry_Donkey_bar_English_2-130-1	60.018	158	1.0.0.18	1	318989414	Standard	2.0.10.353	2.0.10.353	02-16-2016		18:48:01	2.0.10.248	71	Bar63-37.bmp	61	2	?	0r_4g.bmp	0r_4g.bmp	0r_2g.bmp	0r_2g.bmp		0r_4g.bmp			TrialProc	TrialList	0	cvbn	-999999	16	227752	0	v	450	228202	214	-138	76	-12	46	26	16	8	8	71	0	0	0	0	4	4	2	2	0	4
Hungry_Donkey_bar_English_2	130	1	<?xml version="1.0"?>\n<Clock xmlns:dt="urn:schemas-microsoft-com:datatypes"><Description dt:dt="string">E-Prime Primary Realtime Clock</Description><StartTime><Timestamp dt:dt="int">0</Timestamp><DateUtc dt:dt="string">2016-02-16T23:48:01Z</DateUtc></StartTime><FrequencyChanges><FrequencyChange><Frequency dt:dt="r8">3507714</Frequency><Timestamp dt:dt="r8">318279462</Timestamp><Current dt:dt="r8">0</Current><DateUtc dt:dt="string">2016-02-16T23:48:01Z</DateUtc></FrequencyChange></FrequencyChanges></Clock>\n	Hungry_Donkey_bar_English_2-130-1	60.018	158	1.0.0.18	1	318989414	Standard	2.0.10.353	2.0.10.353	02-16-2016		18:48:01	2.0.10.248	72	Bar63-37.bmp	61	3	?	12r_4g.bmp	0r_4g.bmp	3r_2g.bmp	0r_2g.bmp			3r_2g.bmp		TrialProc	TrialList	0	cvbn	-999999	16	230235	0	b	431	230666	216	-141	75	-12	46	25	16	5	8	72	-12	0	-3	0	4	4	2	2	-3	2
Hungry_Donkey_bar_English_2	130	1	<?xml version="1.0"?>\n<Clock xmlns:dt="urn:schemas-microsoft-com:datatypes"><Description dt:dt="string">E-Prime Primary Realtime Clock</Description><StartTime><Timestamp dt:dt="int">0</Timestamp><DateUtc dt:dt="string">2016-02-16T23:48:01Z</DateUtc></StartTime><FrequencyChanges><FrequencyChange><Frequency dt:dt="r8">3507714</Frequency><Timestamp dt:dt="r8">318279462</Timestamp><Current dt:dt="r8">0</Current><DateUtc dt:dt="string">2016-02-16T23:48:01Z</DateUtc></FrequencyChange></FrequencyChanges></Clock>\n	Hungry_Donkey_bar_English_2-130-1	60.018	158	1.0.0.18	1	318989414	Standard	2.0.10.353	2.0.10.353	02-16-2016		18:48:01	2.0.10.248	73	Bar63-37.bmp	60	3	?	10r_4g.bmp	0r_4g.bmp	2r_2g.bmp	0r_2g.bmp			2r_2g.bmp		TrialProc	TrialList	0	cvbn	-999999	16	232701	0	b	477	233178	218	-143	75	-12	46	25	16	4	8	73	-10	0	-2	0	4	4	2	2	-2	2
Hungry_Donkey_bar_English_2	130	1	<?xml version="1.0"?>\n<Clock xmlns:dt="urn:schemas-microsoft-com:datatypes"><Description dt:dt="string">E-Prime Primary Realtime Clock</Description><StartTime><Timestamp dt:dt="int">0</Timestamp><DateUtc dt:dt="string">2016-02-16T23:48:01Z</DateUtc></StartTime><FrequencyChanges><FrequencyChange><Frequency dt:dt="r8">3507714</Frequency><Timestamp dt:dt="r8">318279462</Timestamp><Current dt:dt="r8">0</Current><DateUtc dt:dt="string">2016-02-16T23:48:01Z</DateUtc></FrequencyChange></FrequencyChanges></Clock>\n	Hungry_Donkey_bar_English_2-130-1	60.018	158	1.0.0.18	1	318989414	Standard	2.0.10.353	2.0.10.353	02-16-2016		18:48:01	2.0.10.248	74	Bar63-37.bmp	60	3	?	10r_4g.bmp	0r_4g.bmp	2r_2g.bmp	0r_2g.bmp			2r_2g.bmp		TrialProc	TrialList	0	cvbn	-999999	16	235217	0	b	489	235706	220	-145	75	-12	46	25	16	3	8	74	-10	0	-2	0	4	4	2	2	-2	2
Hungry_Donkey_bar_English_2	130	1	<?xml version="1.0"?>\n<Clock xmlns:dt="urn:schemas-microsoft-com:datatypes"><Description dt:dt="string">E-Prime Primary Realtime Clock</Description><StartTime><Timestamp dt:dt="int">0</Timestamp><DateUtc dt:dt="string">2016-02-16T23:48:01Z</DateUtc></StartTime><FrequencyChanges><FrequencyChange><Frequency dt:dt="r8">3507714</Frequency><Timestamp dt:dt="r8">318279462</Timestamp><Current dt:dt="r8">0</Current><DateUtc dt:dt="string">2016-02-16T23:48:01Z</DateUtc></FrequencyChange></FrequencyChanges></Clock>\n	Hungry_Donkey_bar_English_2-130-1	60.018	158	1.0.0.18	1	318989414	Standard	2.0.10.353	2.0.10.353	02-16-2016		18:48:01	2.0.10.248	75	Bar63-37.bmp	61	2	?	0r_4g.bmp	0r_4g.bmp	0r_2g.bmp	0r_2g.bmp		0r_4g.bmp			TrialProc	TrialList	0	cvbn	-999999	16	237733	0	v	533	238266	224	-145	79	-12	50	25	16	9	8	75	0	0	0	0	4	4	2	2	0	4
Hungry_Donkey_bar_English_2	130	1	<?xml version="1.0"?>\n<Clock xmlns:dt="urn:schemas-microsoft-com:datatypes"><Description dt:dt="string">E-Prime Primary Realtime Clock</Description><StartTime><Timestamp dt:dt="int">0</Timestamp><DateUtc dt:dt="string">2016-02-16T23:48:01Z</DateUtc></StartTime><FrequencyChanges><FrequencyChange><Frequency dt:dt="r8">3507714</Frequency><Timestamp dt:dt="r8">318279462</Timestamp><Current dt:dt="r8">0</Current><DateUtc dt:dt="string">2016-02-16T23:48:01Z</DateUtc></FrequencyChange></FrequencyChanges></Clock>\n	Hungry_Donkey_bar_English_2-130-1	60.018	158	1.0.0.18	1	318989414	Standard	2.0.10.353	2.0.10.353	02-16-2016		18:48:01	2.0.10.248	76	Bar63-37.bmp	61	4	?	0r_4g.bmp	0r_4g.bmp	0r_2g.bmp	0r_2g.bmp				0r_2g.bmp	TrialProc	TrialList	0	cvbn	-999999	16	240298	0	n	480	240778	226	-145	81	-12	50	25	18	6	8	76	0	0	0	0	4	4	2	2	0	2
Hungry_Donkey_bar_English_2	130	1	<?xml version="1.0"?>\n<Clock xmlns:dt="urn:schemas-microsoft-com:datatypes"><Description dt:dt="string">E-Prime Primary Realtime Clock</Description><StartTime><Timestamp dt:dt="int">0</Timestamp><DateUtc dt:dt="string">2016-02-16T23:48:01Z</DateUtc></StartTime><FrequencyChanges><FrequencyChange><Frequency dt:dt="r8">3507714</Frequency><Timestamp dt:dt="r8">318279462</Timestamp><Current dt:dt="r8">0</Current><DateUtc dt:dt="string">2016-02-16T23:48:01Z</DateUtc></FrequencyChange></FrequencyChanges></Clock>\n	Hungry_Donkey_bar_English_2-130-1	60.018	158	1.0.0.18	1	318989414	Standard	2.0.10.353	2.0.10.353	02-16-2016		18:48:01	2.0.10.248	77	Bar63-37.bmp	60	1	?	10r_4g.bmp	0r_4g.bmp	2r_2g.bmp	0r_2g.bmp	10r_4g.bmp				TrialProc	TrialList	0	cvbn	-999999	16	242814	0	c	652	243466	230	-155	75	-18	50	25	18	2	8	77	-10	0	-2	0	4	4	2	2	-10	4
Hungry_Donkey_bar_English_2	130	1	<?xml version="1.0"?>\n<Clock xmlns:dt="urn:schemas-microsoft-com:datatypes"><Description dt:dt="string">E-Prime Primary Realtime Clock</Description><StartTime><Timestamp dt:dt="int">0</Timestamp><DateUtc dt:dt="string">2016-02-16T23:48:01Z</DateUtc></StartTime><FrequencyChanges><FrequencyChange><Frequency dt:dt="r8">3507714</Frequency><Timestamp dt:dt="r8">318279462</Timestamp><Current dt:dt="r8">0</Current><DateUtc dt:dt="string">2016-02-16T23:48:01Z</DateUtc></FrequencyChange></FrequencyChanges></Clock>\n	Hungry_Donkey_bar_English_2-130-1	60.018	158	1.0.0.18	1	318989414	Standard	2.0.10.353	2.0.10.353	02-16-2016		18:48:01	2.0.10.248	78	Bar63-37.bmp	60	2	?	0r_4g.bmp	0r_4g.bmp	0r_2g.bmp	0r_2g.bmp		0r_4g.bmp			TrialProc	TrialList	0	cvbn	-999999	16	245497	0	v	96	245593	234	-155	79	-18	54	25	18	10	8	78	0	0	0	0	4	4	2	2	0	4
Hungry_Donkey_bar_English_2	130	1	<?xml version="1.0"?>\n<Clock xmlns:dt="urn:schemas-microsoft-com:datatypes"><Description dt:dt="string">E-Prime Primary Realtime Clock</Description><StartTime><Timestamp dt:dt="int">0</Timestamp><DateUtc dt:dt="string">2016-02-16T23:48:01Z</DateUtc></StartTime><FrequencyChanges><FrequencyChange><Frequency dt:dt="r8">3507714</Frequency><Timestamp dt:dt="r8">318279462</Timestamp><Current dt:dt="r8">0</Current><DateUtc dt:dt="string">2016-02-16T23:48:01Z</DateUtc></FrequencyChange></FrequencyChanges></Clock>\n	Hungry_Donkey_bar_English_2-130-1	60.018	158	1.0.0.18	1	318989414	Standard	2.0.10.353	2.0.10.353	02-16-2016		18:48:01	2.0.10.248	79	Bar50-50.bmp	54	2	?	8r_4g.bmp	50r_4g.bmp	1r_2g.bmp	10r_2g.bmp		50r_4g.bmp			TrialProc	TrialList	0	cvbn	-999999	16	247630	0	v	475	248105	238	-205	33	-18	8	25	18	1	8	79	-8	-50	-1	-10	4	4	2	2	-50	4
Hungry_Donkey_bar_English_2	130	1	<?xml version="1.0"?>\n<Clock xmlns:dt="urn:schemas-microsoft-com:datatypes"><Description dt:dt="string">E-Prime Primary Realtime Clock</Description><StartTime><Timestamp dt:dt="int">0</Timestamp><DateUtc dt:dt="string">2016-02-16T23:48:01Z</DateUtc></StartTime><FrequencyChanges><FrequencyChange><Frequency dt:dt="r8">3507714</Frequency><Timestamp dt:dt="r8">318279462</Timestamp><Current dt:dt="r8">0</Current><DateUtc dt:dt="string">2016-02-16T23:48:01Z</DateUtc></FrequencyChange></FrequencyChanges></Clock>\n	Hungry_Donkey_bar_English_2-130-1	60.018	158	1.0.0.18	1	318989414	Standard	2.0.10.353	2.0.10.353	02-16-2016		18:48:01	2.0.10.248	80	Bar50-50.bmp	54	3	?	0r_4g.bmp	0r_4g.bmp	0r_2g.bmp	0r_2g.bmp			0r_2g.bmp		TrialProc	TrialList	0	cvbn	-999999	15	250129	0	b	744	250873	240	-205	35	-18	8	27	18	7	8	80	0	0	0	0	4	4	2	2	0	2
Hungry_Donkey_bar_English_2	130	1	<?xml version="1.0"?>\n<Clock xmlns:dt="urn:schemas-microsoft-com:datatypes"><Description dt:dt="string">E-Prime Primary Realtime Clock</Description><StartTime><Timestamp dt:dt="int">0</Timestamp><DateUtc dt:dt="string">2016-02-16T23:48:01Z</DateUtc></StartTime><FrequencyChanges><FrequencyChange><Frequency dt:dt="r8">3507714</Frequency><Timestamp dt:dt="r8">318279462</Timestamp><Current dt:dt="r8">0</Current><DateUtc dt:dt="string">2016-02-16T23:48:01Z</DateUtc></FrequencyChange></FrequencyChanges></Clock>\n	Hungry_Donkey_bar_English_2-130-1	60.018	158	1.0.0.18	1	318989414	Standard	2.0.10.353	2.0.10.353	02-16-2016		18:48:01	2.0.10.248	81	Bar50-50.bmp	54	3	?	10r_4g.bmp	0r_4g.bmp	2r_2g.bmp	0r_2g.bmp			2r_2g.bmp		TrialProc	TrialList	0	cvbn	-999999	16	252911	0	b	666	253577	242	-207	35	-18	8	27	18	2	9	81	-10	0	-2	0	4	4	2	2	-2	2
Hungry_Donkey_bar_English_2	130	1	<?xml version="1.0"?>\n<Clock xmlns:dt="urn:schemas-microsoft-com:datatypes"><Description dt:dt="string">E-Prime Primary Realtime Clock</Description><StartTime><Timestamp dt:dt="int">0</Timestamp><DateUtc dt:dt="string">2016-02-16T23:48:01Z</DateUtc></StartTime><FrequencyChanges><FrequencyChange><Frequency dt:dt="r8">3507714</Frequency><Timestamp dt:dt="r8">318279462</Timestamp><Current dt:dt="r8">0</Current><DateUtc dt:dt="string">2016-02-16T23:48:01Z</DateUtc></FrequencyChange></FrequencyChanges></Clock>\n	Hungry_Donkey_bar_English_2-130-1	60.018	158	1.0.0.18	1	318989414	Standard	2.0.10.353	2.0.10.353	02-16-2016		18:48:01	2.0.10.248	82	Bar50-50.bmp	54	2	?	0r_4g.bmp	0r_4g.bmp	0r_2g.bmp	0r_2g.bmp		0r_4g.bmp			TrialProc	TrialList	0	cvbn	-999999	16	255611	0	v	46	255657	246	-207	39	-18	12	27	18	6	9	82	0	0	0	0	4	4	2	2	0	4
Hungry_Donkey_bar_English_2	130	1	<?xml version="1.0"?>\n<Clock xmlns:dt="urn:schemas-microsoft-com:datatypes"><Description dt:dt="string">E-Prime Primary Realtime Clock</Description><StartTime><Timestamp dt:dt="int">0</Timestamp><DateUtc dt:dt="string">2016-02-16T23:48:01Z</DateUtc></StartTime><FrequencyChanges><FrequencyChange><Frequency dt:dt="r8">3507714</Frequency><Timestamp dt:dt="r8">318279462</Timestamp><Current dt:dt="r8">0</Current><DateUtc dt:dt="string">2016-02-16T23:48:01Z</DateUtc></FrequencyChange></FrequencyChanges></Clock>\n	Hungry_Donkey_bar_English_2-130-1	60.018	158	1.0.0.18	1	318989414	Standard	2.0.10.353	2.0.10.353	02-16-2016		18:48:01	2.0.10.248	83	Bar50-50.bmp	55	4	?	0r_4g.bmp	0r_4g.bmp	0r_2g.bmp	0r_2g.bmp				0r_2g.bmp	TrialProc	TrialList	0	cvbn	-999999	16	257693	0	n	828	258521	248	-207	41	-18	12	27	20	8	9	83	0	0	0	0	4	4	2	2	0	2
Hungry_Donkey_bar_English_2	130	1	<?xml version="1.0"?>\n<Clock xmlns:dt="urn:schemas-microsoft-com:datatypes"><Description dt:dt="string">E-Prime Primary Realtime Clock</Description><StartTime><Timestamp dt:dt="int">0</Timestamp><DateUtc dt:dt="string">2016-02-16T23:48:01Z</DateUtc></StartTime><FrequencyChanges><FrequencyChange><Frequency dt:dt="r8">3507714</Frequency><Timestamp dt:dt="r8">318279462</Timestamp><Current dt:dt="r8">0</Current><DateUtc dt:dt="string">2016-02-16T23:48:01Z</DateUtc></FrequencyChange></FrequencyChanges></Clock>\n	Hungry_Donkey_bar_English_2-130-1	60.018	158	1.0.0.18	1	318989414	Standard	2.0.10.353	2.0.10.353	02-16-2016		18:48:01	2.0.10.248	84	Bar50-50.bmp	54	3	?	10r_4g.bmp	0r_4g.bmp	2r_2g.bmp	0r_2g.bmp			2r_2g.bmp		TrialProc	TrialList	0	cvbn	-999999	16	260559	0	b	665	261224	250	-209	41	-18	12	27	20	4	9	84	-10	0	-2	0	4	4	2	2	-2	2
Hungry_Donkey_bar_English_2	130	1	<?xml version="1.0"?>\n<Clock xmlns:dt="urn:schemas-microsoft-com:datatypes"><Description dt:dt="string">E-Prime Primary Realtime Clock</Description><StartTime><Timestamp dt:dt="int">0</Timestamp><DateUtc dt:dt="string">2016-02-16T23:48:01Z</DateUtc></StartTime><FrequencyChanges><FrequencyChange><Frequency dt:dt="r8">3507714</Frequency><Timestamp dt:dt="r8">318279462</Timestamp><Current dt:dt="r8">0</Current><DateUtc dt:dt="string">2016-02-16T23:48:01Z</DateUtc></FrequencyChange></FrequencyChanges></Clock>\n	Hungry_Donkey_bar_English_2-130-1	60.018	158	1.0.0.18	1	318989414	Standard	2.0.10.353	2.0.10.353	02-16-2016		18:48:01	2.0.10.248	85	Bar50-50.bmp	55	2	?	0r_4g.bmp	0r_4g.bmp	0r_2g.bmp	0r_2g.bmp		0r_4g.bmp			TrialProc	TrialList	0	cvbn	-999999	16	263258	0	v	3134	266392	254	-209	45	-18	16	27	20	9	9	85	0	0	0	0	4	4	2	2	0	4
Hungry_Donkey_bar_English_2	130	1	<?xml version="1.0"?>\n<Clock xmlns:dt="urn:schemas-microsoft-com:datatypes"><Description dt:dt="string">E-Prime Primary Realtime Clock</Description><StartTime><Timestamp dt:dt="int">0</Timestamp><DateUtc dt:dt="string">2016-02-16T23:48:01Z</DateUtc></StartTime><FrequencyChanges><FrequencyChange><Frequency dt:dt="r8">3507714</Frequency><Timestamp dt:dt="r8">318279462</Timestamp><Current dt:dt="r8">0</Current><DateUtc dt:dt="string">2016-02-16T23:48:01Z</DateUtc></FrequencyChange></FrequencyChanges></Clock>\n	Hungry_Donkey_bar_English_2-130-1	60.018	158	1.0.0.18	1	318989414	Standard	2.0.10.353	2.0.10.353	02-16-2016		18:48:01	2.0.10.248	86	Bar50-50.bmp	54	1	?	12r_4g.bmp	0r_4g.bmp	3r_2g.bmp	0r_2g.bmp	12r_4g.bmp				TrialProc	TrialList	0	cvbn	-999999	16	268423	0	c	721	269144	258	-221	37	-26	16	27	20	5	9	86	-12	0	-3	0	4	4	2	2	-12	4
Hungry_Donkey_bar_English_2	130	1	<?xml version="1.0"?>\n<Clock xmlns:dt="urn:schemas-microsoft-com:datatypes"><Description dt:dt="string">E-Prime Primary Realtime Clock</Description><StartTime><Timestamp dt:dt="int">0</Timestamp><DateUtc dt:dt="string">2016-02-16T23:48:01Z</DateUtc></StartTime><FrequencyChanges><FrequencyChange><Frequency dt:dt="r8">3507714</Frequency><Timestamp dt:dt="r8">318279462</Timestamp><Current dt:dt="r8">0</Current><DateUtc dt:dt="string">2016-02-16T23:48:01Z</DateUtc></FrequencyChange></FrequencyChanges></Clock>\n	Hungry_Donkey_bar_English_2-130-1	60.018	158	1.0.0.18	1	318989414	Standard	2.0.10.353	2.0.10.353	02-16-2016		18:48:01	2.0.10.248	87	Bar50-50.bmp	53	4	?	8r_4g.bmp	50r_4g.bmp	1r_2g.bmp	10r_2g.bmp				10r_2g.bmp	TrialProc	TrialList	0	cvbn	-999999	16	271173	0	n	435	271608	260	-231	29	-26	16	27	12	1	9	87	-8	-50	-1	-10	4	4	2	2	-10	2
Hungry_Donkey_bar_English_2	130	1	<?xml version="1.0"?>\n<Clock xmlns:dt="urn:schemas-microsoft-com:datatypes"><Description dt:dt="string">E-Prime Primary Realtime Clock</Description><StartTime><Timestamp dt:dt="int">0</Timestamp><DateUtc dt:dt="string">2016-02-16T23:48:01Z</DateUtc></StartTime><FrequencyChanges><FrequencyChange><Frequency dt:dt="r8">3507714</Frequency><Timestamp dt:dt="r8">318279462</Timestamp><Current dt:dt="r8">0</Current><DateUtc dt:dt="string">2016-02-16T23:48:01Z</DateUtc></FrequencyChange></FrequencyChanges></Clock>\n	Hungry_Donkey_bar_English_2-130-1	60.018	158	1.0.0.18	1	318989414	Standard	2.0.10.353	2.0.10.353	02-16-2016		18:48:01	2.0.10.248	88	Bar50-50.bmp	53	3	?	0r_4g.bmp	0r_4g.bmp	0r_2g.bmp	0r_2g.bmp			0r_2g.bmp		TrialProc	TrialList	0	cvbn	-999999	16	273639	0	b	33	273672	262	-231	31	-26	16	29	12	7	9	88	0	0	0	0	4	4	2	2	0	2
Hungry_Donkey_bar_English_2	130	1	<?xml version="1.0"?>\n<Clock xmlns:dt="urn:schemas-microsoft-com:datatypes"><Description dt:dt="string">E-Prime Primary Realtime Clock</Description><StartTime><Timestamp dt:dt="int">0</Timestamp><DateUtc dt:dt="string">2016-02-16T23:48:01Z</DateUtc></StartTime><FrequencyChanges><FrequencyChange><Frequency dt:dt="r8">3507714</Frequency><Timestamp dt:dt="r8">318279462</Timestamp><Current dt:dt="r8">0</Current><DateUtc dt:dt="string">2016-02-16T23:48:01Z</DateUtc></FrequencyChange></FrequencyChanges></Clock>\n	Hungry_Donkey_bar_English_2-130-1	60.018	158	1.0.0.18	1	318989414	Standard	2.0.10.353	2.0.10.353	02-16-2016		18:48:01	2.0.10.248	89	Bar50-50.bmp	54	2	?	0r_4g.bmp	0r_4g.bmp	0r_2g.bmp	0r_2g.bmp		0r_4g.bmp			TrialProc	TrialList	0	cvbn	-999999	16	275705	0	v	143	275848	266	-231	35	-26	20	29	12	10	9	89	0	0	0	0	4	4	2	2	0	4
Hungry_Donkey_bar_English_2	130	1	<?xml version="1.0"?>\n<Clock xmlns:dt="urn:schemas-microsoft-com:datatypes"><Description dt:dt="string">E-Prime Primary Realtime Clock</Description><StartTime><Timestamp dt:dt="int">0</Timestamp><DateUtc dt:dt="string">2016-02-16T23:48:01Z</DateUtc></StartTime><FrequencyChanges><FrequencyChange><Frequency dt:dt="r8">3507714</Frequency><Timestamp dt:dt="r8">318279462</Timestamp><Current dt:dt="r8">0</Current><DateUtc dt:dt="string">2016-02-16T23:48:01Z</DateUtc></FrequencyChange></FrequencyChanges></Clock>\n	Hungry_Donkey_bar_English_2-130-1	60.018	158	1.0.0.18	1	318989414	Standard	2.0.10.353	2.0.10.353	02-16-2016		18:48:01	2.0.10.248	90	Bar50-50.bmp	53	3	?	10r_4g.bmp	0r_4g.bmp	2r_2g.bmp	0r_2g.bmp			2r_2g.bmp		TrialProc	TrialList	0	cvbn	-999999	16	277887	0	b	456	278343	268	-233	35	-26	20	29	12	3	9	90	-10	0	-2	0	4	4	2	2	-2	2
Hungry_Donkey_bar_English_2	130	1	<?xml version="1.0"?>\n<Clock xmlns:dt="urn:schemas-microsoft-com:datatypes"><Description dt:dt="string">E-Prime Primary Realtime Clock</Description><StartTime><Timestamp dt:dt="int">0</Timestamp><DateUtc dt:dt="string">2016-02-16T23:48:01Z</DateUtc></StartTime><FrequencyChanges><FrequencyChange><Frequency dt:dt="r8">3507714</Frequency><Timestamp dt:dt="r8">318279462</Timestamp><Current dt:dt="r8">0</Current><DateUtc dt:dt="string">2016-02-16T23:48:01Z</DateUtc></FrequencyChange></FrequencyChanges></Clock>\n	Hungry_Donkey_bar_English_2-130-1	60.018	158	1.0.0.18	1	318989414	Standard	2.0.10.353	2.0.10.353	02-16-2016		18:48:01	2.0.10.248	91	Bar50-50.bmp	54	2	?	0r_4g.bmp	0r_4g.bmp	0r_2g.bmp	0r_2g.bmp		0r_4g.bmp			TrialProc	TrialList	0	cvbn	-999999	16	280387	0	v	468	280855	272	-233	39	-26	24	29	12	8	10	91	0	0	0	0	4	4	2	2	0	4
Hungry_Donkey_bar_English_2	130	1	<?xml version="1.0"?>\n<Clock xmlns:dt="urn:schemas-microsoft-com:datatypes"><Description dt:dt="string">E-Prime Primary Realtime Clock</Description><StartTime><Timestamp dt:dt="int">0</Timestamp><DateUtc dt:dt="string">2016-02-16T23:48:01Z</DateUtc></StartTime><FrequencyChanges><FrequencyChange><Frequency dt:dt="r8">3507714</Frequency><Timestamp dt:dt="r8">318279462</Timestamp><Current dt:dt="r8">0</Current><DateUtc dt:dt="string">2016-02-16T23:48:01Z</DateUtc></FrequencyChange></FrequencyChanges></Clock>\n	Hungry_Donkey_bar_English_2-130-1	60.018	158	1.0.0.18	1	318989414	Standard	2.0.10.353	2.0.10.353	02-16-2016		18:48:01	2.0.10.248	92	Bar50-50.bmp	54	2	?	10r_4g.bmp	0r_4g.bmp	2r_2g.bmp	0r_2g.bmp		0r_4g.bmp			TrialProc	TrialList	0	cvbn	-999999	16	282886	0	v	497	283383	276	-233	43	-26	28	29	12	3	10	92	-10	0	-2	0	4	4	2	2	0	4
Hungry_Donkey_bar_English_2	130	1	<?xml version="1.0"?>\n<Clock xmlns:dt="urn:schemas-microsoft-com:datatypes"><Description dt:dt="string">E-Prime Primary Realtime Clock</Description><StartTime><Timestamp dt:dt="int">0</Timestamp><DateUtc dt:dt="string">2016-02-16T23:48:01Z</DateUtc></StartTime><FrequencyChanges><FrequencyChange><Frequency dt:dt="r8">3507714</Frequency><Timestamp dt:dt="r8">318279462</Timestamp><Current dt:dt="r8">0</Current><DateUtc dt:dt="string">2016-02-16T23:48:01Z</DateUtc></FrequencyChange></FrequencyChanges></Clock>\n	Hungry_Donkey_bar_English_2-130-1	60.018	158	1.0.0.18	1	318989414	Standard	2.0.10.353	2.0.10.353	02-16-2016		18:48:01	2.0.10.248	93	Bar50-50.bmp	55	2	?	0r_4g.bmp	0r_4g.bmp	0r_2g.bmp	0r_2g.bmp		0r_4g.bmp			TrialProc	TrialList	0	cvbn	-999999	16	285418	0	v	845	286263	280	-233	47	-26	32	29	12	10	10	93	0	0	0	0	4	4	2	2	0	4
Hungry_Donkey_bar_English_2	130	1	<?xml version="1.0"?>\n<Clock xmlns:dt="urn:schemas-microsoft-com:datatypes"><Description dt:dt="string">E-Prime Primary Realtime Clock</Description><StartTime><Timestamp dt:dt="int">0</Timestamp><DateUtc dt:dt="string">2016-02-16T23:48:01Z</DateUtc></StartTime><FrequencyChanges><FrequencyChange><Frequency dt:dt="r8">3507714</Frequency><Timestamp dt:dt="r8">318279462</Timestamp><Current dt:dt="r8">0</Current><DateUtc dt:dt="string">2016-02-16T23:48:01Z</DateUtc></FrequencyChange></FrequencyChanges></Clock>\n	Hungry_Donkey_bar_English_2-130-1	60.018	158	1.0.0.18	1	318989414	Standard	2.0.10.353	2.0.10.353	02-16-2016		18:48:01	2.0.10.248	94	Bar50-50.bmp	55	2	?	10r_4g.bmp	0r_4g.bmp	2r_2g.bmp	0r_2g.bmp		0r_4g.bmp			TrialProc	TrialList	0	cvbn	-999999	16	288301	0	v	698	288999	284	-233	51	-26	36	29	12	4	10	94	-10	0	-2	0	4	4	2	2	0	4
Hungry_Donkey_bar_English_2	130	1	<?xml version="1.0"?>\n<Clock xmlns:dt="urn:schemas-microsoft-com:datatypes"><Description dt:dt="string">E-Prime Primary Realtime Clock</Description><StartTime><Timestamp dt:dt="int">0</Timestamp><DateUtc dt:dt="string">2016-02-16T23:48:01Z</DateUtc></StartTime><FrequencyChanges><FrequencyChange><Frequency dt:dt="r8">3507714</Frequency><Timestamp dt:dt="r8">318279462</Timestamp><Current dt:dt="r8">0</Current><DateUtc dt:dt="string">2016-02-16T23:48:01Z</DateUtc></FrequencyChange></FrequencyChanges></Clock>\n	Hungry_Donkey_bar_English_2-130-1	60.018	158	1.0.0.18	1	318989414	Standard	2.0.10.353	2.0.10.353	02-16-2016		18:48:01	2.0.10.248	95	Bar50-50.bmp	55	2	?	12r_4g.bmp	0r_4g.bmp	3r_2g.bmp	0r_2g.bmp		0r_4g.bmp			TrialProc	TrialList	0	cvbn	-999999	16	291033	0	v	510	291543	288	-233	55	-26	40	29	12	5	10	95	-12	0	-3	0	4	4	2	2	0	4
Hungry_Donkey_bar_English_2	130	1	<?xml version="1.0"?>\n<Clock xmlns:dt="urn:schemas-microsoft-com:datatypes"><Description dt:dt="string">E-Prime Primary Realtime Clock</Description><StartTime><Timestamp dt:dt="int">0</Timestamp><DateUtc dt:dt="string">2016-02-16T23:48:01Z</DateUtc></StartTime><FrequencyChanges><FrequencyChange><Frequency dt:dt="r8">3507714</Frequency><Timestamp dt:dt="r8">318279462</Timestamp><Current dt:dt="r8">0</Current><DateUtc dt:dt="string">2016-02-16T23:48:01Z</DateUtc></FrequencyChange></FrequencyChanges></Clock>\n	Hungry_Donkey_bar_English_2-130-1	60.018	158	1.0.0.18	1	318989414	Standard	2.0.10.353	2.0.10.353	02-16-2016		18:48:01	2.0.10.248	96	Bar50-50.bmp	56	2	?	10r_4g.bmp	0r_4g.bmp	2r_2g.bmp	0r_2g.bmp		0r_4g.bmp			TrialProc	TrialList	0	cvbn	-999999	16	293566	0	v	521	294087	292	-233	59	-26	44	29	12	2	10	96	-10	0	-2	0	4	4	2	2	0	4
Hungry_Donkey_bar_English_2	130	1	<?xml version="1.0"?>\n<Clock xmlns:dt="urn:schemas-microsoft-com:datatypes"><Description dt:dt="string">E-Prime Primary Realtime Clock</Description><StartTime><Timestamp dt:dt="int">0</Timestamp><DateUtc dt:dt="string">2016-02-16T23:48:01Z</DateUtc></StartTime><FrequencyChanges><FrequencyChange><Frequency dt:dt="r8">3507714</Frequency><Timestamp dt:dt="r8">318279462</Timestamp><Current dt:dt="r8">0</Current><DateUtc dt:dt="string">2016-02-16T23:48:01Z</DateUtc></FrequencyChange></FrequencyChanges></Clock>\n	Hungry_Donkey_bar_English_2-130-1	60.018	158	1.0.0.18	1	318989414	Standard	2.0.10.353	2.0.10.353	02-16-2016		18:48:01	2.0.10.248	97	Bar50-50.bmp	56	2	?	0r_4g.bmp	0r_4g.bmp	0r_2g.bmp	0r_2g.bmp		0r_4g.bmp			TrialProc	TrialList	0	cvbn	-999999	16	296115	0	v	739	296854	296	-233	63	-26	48	29	12	7	10	97	0	0	0	0	4	4	2	2	0	4
Hungry_Donkey_bar_English_2	130	1	<?xml version="1.0"?>\n<Clock xmlns:dt="urn:schemas-microsoft-com:datatypes"><Description dt:dt="string">E-Prime Primary Realtime Clock</Description><StartTime><Timestamp dt:dt="int">0</Timestamp><DateUtc dt:dt="string">2016-02-16T23:48:01Z</DateUtc></StartTime><FrequencyChanges><FrequencyChange><Frequency dt:dt="r8">3507714</Frequency><Timestamp dt:dt="r8">318279462</Timestamp><Current dt:dt="r8">0</Current><DateUtc dt:dt="string">2016-02-16T23:48:01Z</DateUtc></FrequencyChange></FrequencyChanges></Clock>\n	Hungry_Donkey_bar_English_2-130-1	60.018	158	1.0.0.18	1	318989414	Standard	2.0.10.353	2.0.10.353	02-16-2016		18:48:01	2.0.10.248	98	Bar50-50.bmp	56	2	?	0r_4g.bmp	0r_4g.bmp	0r_2g.bmp	0r_2g.bmp		0r_4g.bmp			TrialProc	TrialList	0	cvbn	-999999	16	298881	0	v	325	299206	300	-233	67	-26	52	29	12	6	10	98	0	0	0	0	4	4	2	2	0	4
Hungry_Donkey_bar_English_2	130	1	<?xml version="1.0"?>\n<Clock xmlns:dt="urn:schemas-microsoft-com:datatypes"><Description dt:dt="string">E-Prime Primary Realtime Clock</Description><StartTime><Timestamp dt:dt="int">0</Timestamp><DateUtc dt:dt="string">2016-02-16T23:48:01Z</DateUtc></StartTime><FrequencyChanges><FrequencyChange><Frequency dt:dt="r8">3507714</Frequency><Timestamp dt:dt="r8">318279462</Timestamp><Current dt:dt="r8">0</Current><DateUtc dt:dt="string">2016-02-16T23:48:01Z</DateUtc></FrequencyChange></FrequencyChanges></Clock>\n	Hungry_Donkey_bar_English_2-130-1	60.018	158	1.0.0.18	1	318989414	Standard	2.0.10.353	2.0.10.353	02-16-2016		18:48:01	2.0.10.248	99	Bar50-50.bmp	52	2	?	8r_4g.bmp	50r_4g.bmp	1r_2g.bmp	10r_2g.bmp		50r_4g.bmp			TrialProc	TrialList	0	cvbn	-999999	15	301230	0	v	568	301798	304	-283	21	-26	6	29	12	1	10	99	-8	-50	-1	-10	4	4	2	2	-50	4
Hungry_Donkey_bar_English_2	130	1	<?xml version="1.0"?>\n<Clock xmlns:dt="urn:schemas-microsoft-com:datatypes"><Description dt:dt="string">E-Prime Primary Realtime Clock</Description><StartTime><Timestamp dt:dt="int">0</Timestamp><DateUtc dt:dt="string">2016-02-16T23:48:01Z</DateUtc></StartTime><FrequencyChanges><FrequencyChange><Frequency dt:dt="r8">3507714</Frequency><Timestamp dt:dt="r8">318279462</Timestamp><Current dt:dt="r8">0</Current><DateUtc dt:dt="string">2016-02-16T23:48:01Z</DateUtc></FrequencyChange></FrequencyChanges></Clock>\n	Hungry_Donkey_bar_English_2-130-1	60.018	158	1.0.0.18	1	318989414	Standard	2.0.10.353	2.0.10.353	02-16-2016		18:48:01	2.0.10.248	100	Bar50-50.bmp	52	3	?	0r_4g.bmp	0r_4g.bmp	0r_2g.bmp	0r_2g.bmp			0r_2g.bmp		TrialProc	TrialList	0	cvbn	-999999	16	303830	0	b	656	304486	306	-283	23	-26	6	31	12	9	10	100	0	0	0	0	4	4	2	2	0	2
Hungry_Donkey_bar_English_2	130	1	<?xml version="1.0"?>\n<Clock xmlns:dt="urn:schemas-microsoft-com:datatypes"><Description dt:dt="string">E-Prime Primary Realtime Clock</Description><StartTime><Timestamp dt:dt="int">0</Timestamp><DateUtc dt:dt="string">2016-02-16T23:48:01Z</DateUtc></StartTime><FrequencyChanges><FrequencyChange><Frequency dt:dt="r8">3507714</Frequency><Timestamp dt:dt="r8">318279462</Timestamp><Current dt:dt="r8">0</Current><DateUtc dt:dt="string">2016-02-16T23:48:01Z</DateUtc></FrequencyChange></FrequencyChanges></Clock>\n	Hungry_Donkey_bar_English_2-130-1	60.018	158	1.0.0.18	1	318989414	Standard	2.0.10.353	2.0.10.353	02-16-2016		18:48:01	2.0.10.248	101	Bar50-50.bmp	52	3	?	10r_4g.bmp	0r_4g.bmp	2r_2g.bmp	0r_2g.bmp			2r_2g.bmp		TrialProc	TrialList	0	cvbn	-999999	16	306512	0	b	422	306934	308	-285	23	-26	6	31	12	4	11	101	-10	0	-2	0	4	4	2	2	-2	2
Hungry_Donkey_bar_English_2	130	1	<?xml version="1.0"?>\n<Clock xmlns:dt="urn:schemas-microsoft-com:datatypes"><Description dt:dt="string">E-Prime Primary Realtime Clock</Description><StartTime><Timestamp dt:dt="int">0</Timestamp><DateUtc dt:dt="string">2016-02-16T23:48:01Z</DateUtc></StartTime><FrequencyChanges><FrequencyChange><Frequency dt:dt="r8">3507714</Frequency><Timestamp dt:dt="r8">318279462</Timestamp><Current dt:dt="r8">0</Current><DateUtc dt:dt="string">2016-02-16T23:48:01Z</DateUtc></FrequencyChange></FrequencyChanges></Clock>\n	Hungry_Donkey_bar_English_2-130-1	60.018	158	1.0.0.18	1	318989414	Standard	2.0.10.353	2.0.10.353	02-16-2016		18:48:01	2.0.10.248	102	Bar50-50.bmp	52	2	?	12r_4g.bmp	0r_4g.bmp	3r_2g.bmp	0r_2g.bmp		0r_4g.bmp			TrialProc	TrialList	0	cvbn	-999999	16	308961	0	v	405	309366	312	-285	27	-26	10	31	12	5	11	102	-12	0	-3	0	4	4	2	2	0	4
Hungry_Donkey_bar_English_2	130	1	<?xml version="1.0"?>\n<Clock xmlns:dt="urn:schemas-microsoft-com:datatypes"><Description dt:dt="string">E-Prime Primary Realtime Clock</Description><StartTime><Timestamp dt:dt="int">0</Timestamp><DateUtc dt:dt="string">2016-02-16T23:48:01Z</DateUtc></StartTime><FrequencyChanges><FrequencyChange><Frequency dt:dt="r8">3507714</Frequency><Timestamp dt:dt="r8">318279462</Timestamp><Current dt:dt="r8">0</Current><DateUtc dt:dt="string">2016-02-16T23:48:01Z</DateUtc></FrequencyChange></FrequencyChanges></Clock>\n	Hungry_Donkey_bar_English_2-130-1	60.018	158	1.0.0.18	1	318989414	Standard	2.0.10.353	2.0.10.353	02-16-2016		18:48:01	2.0.10.248	103	Bar50-50.bmp	53	2	?	10r_4g.bmp	0r_4g.bmp	2r_2g.bmp	0r_2g.bmp		0r_4g.bmp			TrialProc	TrialList	0	cvbn	-999999	16	311394	0	v	2563	313957	316	-285	31	-26	14	31	12	2	11	103	-10	0	-2	0	4	4	2	2	0	4
Hungry_Donkey_bar_English_2	130	1	<?xml version="1.0"?>\n<Clock xmlns:dt="urn:schemas-microsoft-com:datatypes"><Description dt:dt="string">E-Prime Primary Realtime Clock</Description><StartTime><Timestamp dt:dt="int">0</Timestamp><DateUtc dt:dt="string">2016-02-16T23:48:01Z</DateUtc></StartTime><FrequencyChanges><FrequencyChange><Frequency dt:dt="r8">3507714</Frequency><Timestamp dt:dt="r8">318279462</Timestamp><Current dt:dt="r8">0</Current><DateUtc dt:dt="string">2016-02-16T23:48:01Z</DateUtc></FrequencyChange></FrequencyChanges></Clock>\n	Hungry_Donkey_bar_English_2-130-1	60.018	158	1.0.0.18	1	318989414	Standard	2.0.10.353	2.0.10.353	02-16-2016		18:48:01	2.0.10.248	104	Bar50-50.bmp	53	1	?	0r_4g.bmp	0r_4g.bmp	0r_2g.bmp	0r_2g.bmp	0r_4g.bmp				TrialProc	TrialList	0	cvbn	-999999	16	315993	0	c	748	316741	320	-285	35	-22	14	31	12	7	11	104	0	0	0	0	4	4	2	2	0	4
Hungry_Donkey_bar_English_2	130	1	<?xml version="1.0"?>\n<Clock xmlns:dt="urn:schemas-microsoft-com:datatypes"><Description dt:dt="string">E-Prime Primary Realtime Clock</Description><StartTime><Timestamp dt:dt="int">0</Timestamp><DateUtc dt:dt="string">2016-02-16T23:48:01Z</DateUtc></StartTime><FrequencyChanges><FrequencyChange><Frequency dt:dt="r8">3507714</Frequency><Timestamp dt:dt="r8">318279462</Timestamp><Current dt:dt="r8">0</Current><DateUtc dt:dt="string">2016-02-16T23:48:01Z</DateUtc></FrequencyChange></FrequencyChanges></Clock>\n	Hungry_Donkey_bar_English_2-130-1	60.018	158	1.0.0.18	1	318989414	Standard	2.0.10.353	2.0.10.353	02-16-2016		18:48:01	2.0.10.248	105	Bar50-50.bmp	52	4	?	8r_4g.bmp	50r_4g.bmp	1r_2g.bmp	10r_2g.bmp				10r_2g.bmp	TrialProc	TrialList	0	cvbn	-999999	16	318775	0	n	318	319093	322	-295	27	-22	14	31	4	1	11	105	-8	-50	-1	-10	4	4	2	2	-10	2
Hungry_Donkey_bar_English_2	130	1	<?xml version="1.0"?>\n<Clock xmlns:dt="urn:schemas-microsoft-com:datatypes"><Description dt:dt="string">E-Prime Primary Realtime Clock</Description><StartTime><Timestamp dt:dt="int">0</Timestamp><DateUtc dt:dt="string">2016-02-16T23:48:01Z</DateUtc></StartTime><FrequencyChanges><FrequencyChange><Frequency dt:dt="r8">3507714</Frequency><Timestamp dt:dt="r8">318279462</Timestamp><Current dt:dt="r8">0</Current><DateUtc dt:dt="string">2016-02-16T23:48:01Z</DateUtc></FrequencyChange></FrequencyChanges></Clock>\n	Hungry_Donkey_bar_English_2-130-1	60.018	158	1.0.0.18	1	318989414	Standard	2.0.10.353	2.0.10.353	02-16-2016		18:48:01	2.0.10.248	106	Bar50-50.bmp	52	3	?	0r_4g.bmp	0r_4g.bmp	0r_2g.bmp	0r_2g.bmp			0r_2g.bmp		TrialProc	TrialList	0	cvbn	-999999	16	321124	0	b	289	321413	324	-295	29	-22	14	33	4	9	11	106	0	0	0	0	4	4	2	2	0	2
Hungry_Donkey_bar_English_2	130	1	<?xml version="1.0"?>\n<Clock xmlns:dt="urn:schemas-microsoft-com:datatypes"><Description dt:dt="string">E-Prime Primary Realtime Clock</Description><StartTime><Timestamp dt:dt="int">0</Timestamp><DateUtc dt:dt="string">2016-02-16T23:48:01Z</DateUtc></StartTime><FrequencyChanges><FrequencyChange><Frequency dt:dt="r8">3507714</Frequency><Timestamp dt:dt="r8">318279462</Timestamp><Current dt:dt="r8">0</Current><DateUtc dt:dt="string">2016-02-16T23:48:01Z</DateUtc></FrequencyChange></FrequencyChanges></Clock>\n	Hungry_Donkey_bar_English_2-130-1	60.018	158	1.0.0.18	1	318989414	Standard	2.0.10.353	2.0.10.353	02-16-2016		18:48:01	2.0.10.248	107	Bar50-50.bmp	53	2	?	0r_4g.bmp	0r_4g.bmp	0r_2g.bmp	0r_2g.bmp		0r_4g.bmp			TrialProc	TrialList	0	cvbn	-999999	16	323440	0	v	869	324309	328	-295	33	-22	18	33	4	6	11	107	0	0	0	0	4	4	2	2	0	4
Hungry_Donkey_bar_English_2	130	1	<?xml version="1.0"?>\n<Clock xmlns:dt="urn:schemas-microsoft-com:datatypes"><Description dt:dt="string">E-Prime Primary Realtime Clock</Description><StartTime><Timestamp dt:dt="int">0</Timestamp><DateUtc dt:dt="string">2016-02-16T23:48:01Z</DateUtc></StartTime><FrequencyChanges><FrequencyChange><Frequency dt:dt="r8">3507714</Frequency><Timestamp dt:dt="r8">318279462</Timestamp><Current dt:dt="r8">0</Current><DateUtc dt:dt="string">2016-02-16T23:48:01Z</DateUtc></FrequencyChange></FrequencyChanges></Clock>\n	Hungry_Donkey_bar_English_2-130-1	60.018	158	1.0.0.18	1	318989414	Standard	2.0.10.353	2.0.10.353	02-16-2016		18:48:01	2.0.10.248	108	Bar50-50.bmp	53	1	?	0r_4g.bmp	0r_4g.bmp	0r_2g.bmp	0r_2g.bmp	0r_4g.bmp				TrialProc	TrialList	0	cvbn	-999999	16	326340	0	c	657	326997	332	-295	37	-18	18	33	4	10	11	108	0	0	0	0	4	4	2	2	0	4
Hungry_Donkey_bar_English_2	130	1	<?xml version="1.0"?>\n<Clock xmlns:dt="urn:schemas-microsoft-com:datatypes"><Description dt:dt="string">E-Prime Primary Realtime Clock</Description><StartTime><Timestamp dt:dt="int">0</Timestamp><DateUtc dt:dt="string">2016-02-16T23:48:01Z</DateUtc></StartTime><FrequencyChanges><FrequencyChange><Frequency dt:dt="r8">3507714</Frequency><Timestamp dt:dt="r8">318279462</Timestamp><Current dt:dt="r8">0</Current><DateUtc dt:dt="string">2016-02-16T23:48:01Z</DateUtc></FrequencyChange></FrequencyChanges></Clock>\n	Hungry_Donkey_bar_English_2-130-1	60.018	158	1.0.0.18	1	318989414	Standard	2.0.10.353	2.0.10.353	02-16-2016		18:48:01	2.0.10.248	109	Bar50-50.bmp	53	2	?	0r_4g.bmp	0r_4g.bmp	0r_2g.bmp	0r_2g.bmp		0r_4g.bmp			TrialProc	TrialList	0	cvbn	-999999	16	329039	0	v	133	329172	336	-295	41	-18	22	33	4	8	11	109	0	0	0	0	4	4	2	2	0	4
Hungry_Donkey_bar_English_2	130	1	<?xml version="1.0"?>\n<Clock xmlns:dt="urn:schemas-microsoft-com:datatypes"><Description dt:dt="string">E-Prime Primary Realtime Clock</Description><StartTime><Timestamp dt:dt="int">0</Timestamp><DateUtc dt:dt="string">2016-02-16T23:48:01Z</DateUtc></StartTime><FrequencyChanges><FrequencyChange><Frequency dt:dt="r8">3507714</Frequency><Timestamp dt:dt="r8">318279462</Timestamp><Current dt:dt="r8">0</Current><DateUtc dt:dt="string">2016-02-16T23:48:01Z</DateUtc></FrequencyChange></FrequencyChanges></Clock>\n	Hungry_Donkey_bar_English_2-130-1	60.018	158	1.0.0.18	1	318989414	Standard	2.0.10.353	2.0.10.353	02-16-2016		18:48:01	2.0.10.248	110	Bar50-50.bmp	53	3	?	10r_4g.bmp	0r_4g.bmp	2r_2g.bmp	0r_2g.bmp			2r_2g.bmp		TrialProc	TrialList	0	cvbn	-999999	16	331205	0	b	959	332164	338	-297	41	-18	22	33	4	3	11	110	-10	0	-2	0	4	4	2	2	-2	2
Hungry_Donkey_bar_English_2	130	1	<?xml version="1.0"?>\n<Clock xmlns:dt="urn:schemas-microsoft-com:datatypes"><Description dt:dt="string">E-Prime Primary Realtime Clock</Description><StartTime><Timestamp dt:dt="int">0</Timestamp><DateUtc dt:dt="string">2016-02-16T23:48:01Z</DateUtc></StartTime><FrequencyChanges><FrequencyChange><Frequency dt:dt="r8">3507714</Frequency><Timestamp dt:dt="r8">318279462</Timestamp><Current dt:dt="r8">0</Current><DateUtc dt:dt="string">2016-02-16T23:48:01Z</DateUtc></FrequencyChange></FrequencyChanges></Clock>\n	Hungry_Donkey_bar_English_2-130-1	60.018	158	1.0.0.18	1	318989414	Standard	2.0.10.353	2.0.10.353	02-16-2016		18:48:01	2.0.10.248	111	Bar50-50.bmp	53	3	?	0r_4g.bmp	0r_4g.bmp	0r_2g.bmp	0r_2g.bmp			0r_2g.bmp		TrialProc	TrialList	0	cvbn	-999999	16	334204	0	b	1272	335476	340	-297	43	-18	22	35	4	7	12	111	0	0	0	0	4	4	2	2	0	2
Hungry_Donkey_bar_English_2	130	1	<?xml version="1.0"?>\n<Clock xmlns:dt="urn:schemas-microsoft-com:datatypes"><Description dt:dt="string">E-Prime Primary Realtime Clock</Description><StartTime><Timestamp dt:dt="int">0</Timestamp><DateUtc dt:dt="string">2016-02-16T23:48:01Z</DateUtc></StartTime><FrequencyChanges><FrequencyChange><Frequency dt:dt="r8">3507714</Frequency><Timestamp dt:dt="r8">318279462</Timestamp><Current dt:dt="r8">0</Current><DateUtc dt:dt="string">2016-02-16T23:48:01Z</DateUtc></FrequencyChange></FrequencyChanges></Clock>\n	Hungry_Donkey_bar_English_2-130-1	60.018	158	1.0.0.18	1	318989414	Standard	2.0.10.353	2.0.10.353	02-16-2016		18:48:01	2.0.10.248	112	Bar50-50.bmp	53	3	?	10r_4g.bmp	0r_4g.bmp	2r_2g.bmp	0r_2g.bmp			2r_2g.bmp		TrialProc	TrialList	0	cvbn	-999999	16	337503	0	b	709	338212	342	-299	43	-18	22	35	4	3	12	112	-10	0	-2	0	4	4	2	2	-2	2
Hungry_Donkey_bar_English_2	130	1	<?xml version="1.0"?>\n<Clock xmlns:dt="urn:schemas-microsoft-com:datatypes"><Description dt:dt="string">E-Prime Primary Realtime Clock</Description><StartTime><Timestamp dt:dt="int">0</Timestamp><DateUtc dt:dt="string">2016-02-16T23:48:01Z</DateUtc></StartTime><FrequencyChanges><FrequencyChange><Frequency dt:dt="r8">3507714</Frequency><Timestamp dt:dt="r8">318279462</Timestamp><Current dt:dt="r8">0</Current><DateUtc dt:dt="string">2016-02-16T23:48:01Z</DateUtc></FrequencyChange></FrequencyChanges></Clock>\n	Hungry_Donkey_bar_English_2-130-1	60.018	158	1.0.0.18	1	318989414	Standard	2.0.10.353	2.0.10.353	02-16-2016		18:48:01	2.0.10.248	113	Bar50-50.bmp	54	2	?	0r_4g.bmp	0r_4g.bmp	0r_2g.bmp	0r_2g.bmp		0r_4g.bmp			TrialProc	TrialList	0	cvbn	-999999	16	340252	0	v	680	340932	346	-299	47	-18	26	35	4	6	12	113	0	0	0	0	4	4	2	2	0	4
Hungry_Donkey_bar_English_2	130	1	<?xml version="1.0"?>\n<Clock xmlns:dt="urn:schemas-microsoft-com:datatypes"><Description dt:dt="string">E-Prime Primary Realtime Clock</Description><StartTime><Timestamp dt:dt="int">0</Timestamp><DateUtc dt:dt="string">2016-02-16T23:48:01Z</DateUtc></StartTime><FrequencyChanges><FrequencyChange><Frequency dt:dt="r8">3507714</Frequency><Timestamp dt:dt="r8">318279462</Timestamp><Current dt:dt="r8">0</Current><DateUtc dt:dt="string">2016-02-16T23:48:01Z</DateUtc></FrequencyChange></FrequencyChanges></Clock>\n	Hungry_Donkey_bar_English_2-130-1	60.018	158	1.0.0.18	1	318989414	Standard	2.0.10.353	2.0.10.353	02-16-2016		18:48:01	2.0.10.248	114	Bar50-50.bmp	54	4	?	12r_4g.bmp	0r_4g.bmp	3r_2g.bmp	0r_2g.bmp				0r_2g.bmp	TrialProc	TrialList	0	cvbn	-999999	16	342968	0	n	2444	345412	348	-299	49	-18	26	35	6	5	12	114	-12	0	-3	0	4	4	2	2	0	2
