ExperimentName	Subject	Session	Clock.Information	DataFile.Basename	Display.RefreshRate	Eindtotaal[Session]	ExperimentVersion	Group	RandomSeed	RuntimeCapabilities	RuntimeVersion	RuntimeVersionExpected	SessionDate	SessionStartDateTimeUtc	SessionTime	StudioVersion	Block	BarImage	BarTotalWinst	DoorChoice	Eindtotaal[Block]	FBDoor1	FBDoor2	FBDoor3	FBDoor4	Image1	Image2	Image3	Image4	Procedure	Running	spel.ACC	spel.CRESP	spel.DurationError	spel.OnsetDelay	spel.OnsetTime	spel.OnsetToOnsetTime	spel.RESP	spel.RT	spel.RTTime	TotalGain	TotalLose	Totalsum	TotalsumD1	TotalsumD2	TotalsumD3	TotalsumD4	TrialList	TrialList.Cycle	TrialList.Sample	varV1	varV2	varV3	varV4	varW1	varW2	varW3	varW4	Verliesbedrag	Winstbedrag
Hungry_Donkey_bar_English_2	106	3	<?xml version="1.0"?>\n<Clock xmlns:dt="urn:schemas-microsoft-com:datatypes"><Description dt:dt="string">E-Prime Primary Realtime Clock</Description><StartTime><Timestamp dt:dt="int">0</Timestamp><DateUtc dt:dt="string">2015-06-04T22:04:16Z</DateUtc></StartTime><FrequencyChanges><FrequencyChange><Frequency dt:dt="r8">3507675</Frequency><Timestamp dt:dt="r8">321925983</Timestamp><Current dt:dt="r8">0</Current><DateUtc dt:dt="string">2015-06-04T22:04:16Z</DateUtc></FrequencyChange></FrequencyChanges></Clock>\n	Hungry_Donkey_bar_English_2-106-3	60.018	-65	1.0.0.18	1	322616436	Standard	2.0.10.353	2.0.10.353	06-04-2015		18:04:16	2.0.10.248	1	Bar100-0.bmp	100	1	?	0r_4g.bmp	0r_4g.bmp	0r_2g.bmp	0r_2g.bmp	0r_4g.bmp				TrialProc	TrialList	0	cvbn	-999999	24	1712635	0	c	2455	1715090	4	0	4	4	0	0	0	10	1	1	0	0	0	0	4	4	2	2	0	4
Hungry_Donkey_bar_English_2	106	3	<?xml version="1.0"?>\n<Clock xmlns:dt="urn:schemas-microsoft-com:datatypes"><Description dt:dt="string">E-Prime Primary Realtime Clock</Description><StartTime><Timestamp dt:dt="int">0</Timestamp><DateUtc dt:dt="string">2015-06-04T22:04:16Z</DateUtc></StartTime><FrequencyChanges><FrequencyChange><Frequency dt:dt="r8">3507675</Frequency><Timestamp dt:dt="r8">321925983</Timestamp><Current dt:dt="r8">0</Current><DateUtc dt:dt="string">2015-06-04T22:04:16Z</DateUtc></FrequencyChange></FrequencyChanges></Clock>\n	Hungry_Donkey_bar_English_2-106-3	60.018	-65	1.0.0.18	1	322616436	Standard	2.0.10.353	2.0.10.353	06-04-2015		18:04:16	2.0.10.248	2	Bar100-0.bmp	100	4	?	10r_4g.bmp	0r_4g.bmp	2r_2g.bmp	0r_2g.bmp				0r_2g.bmp	TrialProc	TrialList	0	cvbn	-999999	16	1717134	0	n	3172	1720306	6	0	6	4	0	0	2	3	1	2	-10	0	-2	0	4	4	2	2	0	2
Hungry_Donkey_bar_English_2	106	3	<?xml version="1.0"?>\n<Clock xmlns:dt="urn:schemas-microsoft-com:datatypes"><Description dt:dt="string">E-Prime Primary Realtime Clock</Description><StartTime><Timestamp dt:dt="int">0</Timestamp><DateUtc dt:dt="string">2015-06-04T22:04:16Z</DateUtc></StartTime><FrequencyChanges><FrequencyChange><Frequency dt:dt="r8">3507675</Frequency><Timestamp dt:dt="r8">321925983</Timestamp><Current dt:dt="r8">0</Current><DateUtc dt:dt="string">2015-06-04T22:04:16Z</DateUtc></FrequencyChange></FrequencyChanges></Clock>\n	Hungry_Donkey_bar_English_2-106-3	60.018	-65	1.0.0.18	1	322616436	Standard	2.0.10.353	2.0.10.353	06-04-2015		18:04:16	2.0.10.248	3	Bar100-0.bmp	100	2	?	0r_4g.bmp	0r_4g.bmp	0r_2g.bmp	0r_2g.bmp		0r_4g.bmp			TrialProc	TrialList	0	cvbn	-999999	16	1722349	0	v	357	1722706	10	0	10	4	4	0	2	7	1	3	0	0	0	0	4	4	2	2	0	4
Hungry_Donkey_bar_English_2	106	3	<?xml version="1.0"?>\n<Clock xmlns:dt="urn:schemas-microsoft-com:datatypes"><Description dt:dt="string">E-Prime Primary Realtime Clock</Description><StartTime><Timestamp dt:dt="int">0</Timestamp><DateUtc dt:dt="string">2015-06-04T22:04:16Z</DateUtc></StartTime><FrequencyChanges><FrequencyChange><Frequency dt:dt="r8">3507675</Frequency><Timestamp dt:dt="r8">321925983</Timestamp><Current dt:dt="r8">0</Current><DateUtc dt:dt="string">2015-06-04T22:04:16Z</DateUtc></FrequencyChange></FrequencyChanges></Clock>\n	Hungry_Donkey_bar_English_2-106-3	60.018	-65	1.0.0.18	1	322616436	Standard	2.0.10.353	2.0.10.353	06-04-2015		18:04:16	2.0.10.248	4	Bar87-13.bmp	92	3	?	8r_4g.bmp	50r_4g.bmp	1r_2g.bmp	10r_2g.bmp			1r_2g.bmp		TrialProc	TrialList	0	cvbn	-999999	16	1724732	0	b	374	1725106	12	-1	11	4	4	1	2	1	1	4	-8	-50	-1	-10	4	4	2	2	-1	2
Hungry_Donkey_bar_English_2	106	3	<?xml version="1.0"?>\n<Clock xmlns:dt="urn:schemas-microsoft-com:datatypes"><Description dt:dt="string">E-Prime Primary Realtime Clock</Description><StartTime><Timestamp dt:dt="int">0</Timestamp><DateUtc dt:dt="string">2015-06-04T22:04:16Z</DateUtc></StartTime><FrequencyChanges><FrequencyChange><Frequency dt:dt="r8">3507675</Frequency><Timestamp dt:dt="r8">321925983</Timestamp><Current dt:dt="r8">0</Current><DateUtc dt:dt="string">2015-06-04T22:04:16Z</DateUtc></FrequencyChange></FrequencyChanges></Clock>\n	Hungry_Donkey_bar_English_2-106-3	60.018	-65	1.0.0.18	1	322616436	Standard	2.0.10.353	2.0.10.353	06-04-2015		18:04:16	2.0.10.248	5	Bar87-13.bmp	93	4	?	12r_4g.bmp	0r_4g.bmp	3r_2g.bmp	0r_2g.bmp				0r_2g.bmp	TrialProc	TrialList	0	cvbn	-999999	16	1727148	0	n	214	1727362	14	-1	13	4	4	1	4	5	1	5	-12	0	-3	0	4	4	2	2	0	2
Hungry_Donkey_bar_English_2	106	3	<?xml version="1.0"?>\n<Clock xmlns:dt="urn:schemas-microsoft-com:datatypes"><Description dt:dt="string">E-Prime Primary Realtime Clock</Description><StartTime><Timestamp dt:dt="int">0</Timestamp><DateUtc dt:dt="string">2015-06-04T22:04:16Z</DateUtc></StartTime><FrequencyChanges><FrequencyChange><Frequency dt:dt="r8">3507675</Frequency><Timestamp dt:dt="r8">321925983</Timestamp><Current dt:dt="r8">0</Current><DateUtc dt:dt="string">2015-06-04T22:04:16Z</DateUtc></FrequencyChange></FrequencyChanges></Clock>\n	Hungry_Donkey_bar_English_2-106-3	60.018	-65	1.0.0.18	1	322616436	Standard	2.0.10.353	2.0.10.353	06-04-2015		18:04:16	2.0.10.248	6	Bar100-0.bmp	95	2	?	0r_4g.bmp	0r_4g.bmp	0r_2g.bmp	0r_2g.bmp		0r_4g.bmp			TrialProc	TrialList	0	cvbn	-999999	16	1729397	0	v	237	1729634	18	-1	17	4	8	1	4	9	1	6	0	0	0	0	4	4	2	2	0	4
Hungry_Donkey_bar_English_2	106	3	<?xml version="1.0"?>\n<Clock xmlns:dt="urn:schemas-microsoft-com:datatypes"><Description dt:dt="string">E-Prime Primary Realtime Clock</Description><StartTime><Timestamp dt:dt="int">0</Timestamp><DateUtc dt:dt="string">2015-06-04T22:04:16Z</DateUtc></StartTime><FrequencyChanges><FrequencyChange><Frequency dt:dt="r8">3507675</Frequency><Timestamp dt:dt="r8">321925983</Timestamp><Current dt:dt="r8">0</Current><DateUtc dt:dt="string">2015-06-04T22:04:16Z</DateUtc></FrequencyChange></FrequencyChanges></Clock>\n	Hungry_Donkey_bar_English_2-106-3	60.018	-65	1.0.0.18	1	322616436	Standard	2.0.10.353	2.0.10.353	06-04-2015		18:04:16	2.0.10.248	7	Bar100-0.bmp	96	2	?	0r_4g.bmp	0r_4g.bmp	0r_2g.bmp	0r_2g.bmp		0r_4g.bmp			TrialProc	TrialList	0	cvbn	-999999	16	1731663	0	v	227	1731890	22	-1	21	4	12	1	4	6	1	7	0	0	0	0	4	4	2	2	0	4
Hungry_Donkey_bar_English_2	106	3	<?xml version="1.0"?>\n<Clock xmlns:dt="urn:schemas-microsoft-com:datatypes"><Description dt:dt="string">E-Prime Primary Realtime Clock</Description><StartTime><Timestamp dt:dt="int">0</Timestamp><DateUtc dt:dt="string">2015-06-04T22:04:16Z</DateUtc></StartTime><FrequencyChanges><FrequencyChange><Frequency dt:dt="r8">3507675</Frequency><Timestamp dt:dt="r8">321925983</Timestamp><Current dt:dt="r8">0</Current><DateUtc dt:dt="string">2015-06-04T22:04:16Z</DateUtc></FrequencyChange></FrequencyChanges></Clock>\n	Hungry_Donkey_bar_English_2-106-3	60.018	-65	1.0.0.18	1	322616436	Standard	2.0.10.353	2.0.10.353	06-04-2015		18:04:16	2.0.10.248	8	Bar100-0.bmp	96	2	?	10r_4g.bmp	0r_4g.bmp	2r_2g.bmp	0r_2g.bmp		0r_4g.bmp			TrialProc	TrialList	0	cvbn	-999999	16	1733929	0	v	249	1734178	26	-1	25	4	16	1	4	2	1	8	-10	0	-2	0	4	4	2	2	0	4
Hungry_Donkey_bar_English_2	106	3	<?xml version="1.0"?>\n<Clock xmlns:dt="urn:schemas-microsoft-com:datatypes"><Description dt:dt="string">E-Prime Primary Realtime Clock</Description><StartTime><Timestamp dt:dt="int">0</Timestamp><DateUtc dt:dt="string">2015-06-04T22:04:16Z</DateUtc></StartTime><FrequencyChanges><FrequencyChange><Frequency dt:dt="r8">3507675</Frequency><Timestamp dt:dt="r8">321925983</Timestamp><Current dt:dt="r8">0</Current><DateUtc dt:dt="string">2015-06-04T22:04:16Z</DateUtc></FrequencyChange></FrequencyChanges></Clock>\n	Hungry_Donkey_bar_English_2-106-3	60.018	-65	1.0.0.18	1	322616436	Standard	2.0.10.353	2.0.10.353	06-04-2015		18:04:16	2.0.10.248	9	Bar100-0.bmp	97	2	?	0r_4g.bmp	0r_4g.bmp	0r_2g.bmp	0r_2g.bmp		0r_4g.bmp			TrialProc	TrialList	0	cvbn	-999999	16	1736212	0	v	301	1736513	30	-1	29	4	20	1	4	8	1	9	0	0	0	0	4	4	2	2	0	4
Hungry_Donkey_bar_English_2	106	3	<?xml version="1.0"?>\n<Clock xmlns:dt="urn:schemas-microsoft-com:datatypes"><Description dt:dt="string">E-Prime Primary Realtime Clock</Description><StartTime><Timestamp dt:dt="int">0</Timestamp><DateUtc dt:dt="string">2015-06-04T22:04:16Z</DateUtc></StartTime><FrequencyChanges><FrequencyChange><Frequency dt:dt="r8">3507675</Frequency><Timestamp dt:dt="r8">321925983</Timestamp><Current dt:dt="r8">0</Current><DateUtc dt:dt="string">2015-06-04T22:04:16Z</DateUtc></FrequencyChange></FrequencyChanges></Clock>\n	Hungry_Donkey_bar_English_2-106-3	60.018	-65	1.0.0.18	1	322616436	Standard	2.0.10.353	2.0.10.353	06-04-2015		18:04:16	2.0.10.248	10	Bar100-0.bmp	97	4	?	10r_4g.bmp	0r_4g.bmp	2r_2g.bmp	0r_2g.bmp				0r_2g.bmp	TrialProc	TrialList	0	cvbn	-999999	16	1738544	0	n	209	1738753	32	-1	31	4	20	1	6	4	1	10	-10	0	-2	0	4	4	2	2	0	2
Hungry_Donkey_bar_English_2	106	3	<?xml version="1.0"?>\n<Clock xmlns:dt="urn:schemas-microsoft-com:datatypes"><Description dt:dt="string">E-Prime Primary Realtime Clock</Description><StartTime><Timestamp dt:dt="int">0</Timestamp><DateUtc dt:dt="string">2015-06-04T22:04:16Z</DateUtc></StartTime><FrequencyChanges><FrequencyChange><Frequency dt:dt="r8">3507675</Frequency><Timestamp dt:dt="r8">321925983</Timestamp><Current dt:dt="r8">0</Current><DateUtc dt:dt="string">2015-06-04T22:04:16Z</DateUtc></FrequencyChange></FrequencyChanges></Clock>\n	Hungry_Donkey_bar_English_2-106-3	60.018	-65	1.0.0.18	1	322616436	Standard	2.0.10.353	2.0.10.353	06-04-2015		18:04:16	2.0.10.248	11	Bar87-13.bmp	92	3	?	10r_4g.bmp	0r_4g.bmp	2r_2g.bmp	0r_2g.bmp			2r_2g.bmp		TrialProc	TrialList	0	cvbn	-999999	16	1740777	0	b	200	1740977	34	-3	31	4	20	1	6	2	2	11	-10	0	-2	0	4	4	2	2	-2	2
Hungry_Donkey_bar_English_2	106	3	<?xml version="1.0"?>\n<Clock xmlns:dt="urn:schemas-microsoft-com:datatypes"><Description dt:dt="string">E-Prime Primary Realtime Clock</Description><StartTime><Timestamp dt:dt="int">0</Timestamp><DateUtc dt:dt="string">2015-06-04T22:04:16Z</DateUtc></StartTime><FrequencyChanges><FrequencyChange><Frequency dt:dt="r8">3507675</Frequency><Timestamp dt:dt="r8">321925983</Timestamp><Current dt:dt="r8">0</Current><DateUtc dt:dt="string">2015-06-04T22:04:16Z</DateUtc></FrequencyChange></FrequencyChanges></Clock>\n	Hungry_Donkey_bar_English_2-106-3	60.018	-65	1.0.0.18	1	322616436	Standard	2.0.10.353	2.0.10.353	06-04-2015		18:04:16	2.0.10.248	12	Bar87-13.bmp	93	2	?	10r_4g.bmp	0r_4g.bmp	2r_2g.bmp	0r_2g.bmp		0r_4g.bmp			TrialProc	TrialList	0	cvbn	-999999	16	1743010	0	v	111	1743121	38	-3	35	4	24	1	6	3	2	12	-10	0	-2	0	4	4	2	2	0	4
Hungry_Donkey_bar_English_2	106	3	<?xml version="1.0"?>\n<Clock xmlns:dt="urn:schemas-microsoft-com:datatypes"><Description dt:dt="string">E-Prime Primary Realtime Clock</Description><StartTime><Timestamp dt:dt="int">0</Timestamp><DateUtc dt:dt="string">2015-06-04T22:04:16Z</DateUtc></StartTime><FrequencyChanges><FrequencyChange><Frequency dt:dt="r8">3507675</Frequency><Timestamp dt:dt="r8">321925983</Timestamp><Current dt:dt="r8">0</Current><DateUtc dt:dt="string">2015-06-04T22:04:16Z</DateUtc></FrequencyChange></FrequencyChanges></Clock>\n	Hungry_Donkey_bar_English_2-106-3	60.018	-65	1.0.0.18	1	322616436	Standard	2.0.10.353	2.0.10.353	06-04-2015		18:04:16	2.0.10.248	13	Bar75-25.bmp	79	1	?	8r_4g.bmp	50r_4g.bmp	1r_2g.bmp	10r_2g.bmp	8r_4g.bmp				TrialProc	TrialList	0	cvbn	-999999	16	1745159	0	c	554	1745713	42	-11	31	0	24	1	6	1	2	13	-8	-50	-1	-10	4	4	2	2	-8	4
Hungry_Donkey_bar_English_2	106	3	<?xml version="1.0"?>\n<Clock xmlns:dt="urn:schemas-microsoft-com:datatypes"><Description dt:dt="string">E-Prime Primary Realtime Clock</Description><StartTime><Timestamp dt:dt="int">0</Timestamp><DateUtc dt:dt="string">2015-06-04T22:04:16Z</DateUtc></StartTime><FrequencyChanges><FrequencyChange><Frequency dt:dt="r8">3507675</Frequency><Timestamp dt:dt="r8">321925983</Timestamp><Current dt:dt="r8">0</Current><DateUtc dt:dt="string">2015-06-04T22:04:16Z</DateUtc></FrequencyChange></FrequencyChanges></Clock>\n	Hungry_Donkey_bar_English_2-106-3	60.018	-65	1.0.0.18	1	322616436	Standard	2.0.10.353	2.0.10.353	06-04-2015		18:04:16	2.0.10.248	14	Bar75-25.bmp	80	4	?	12r_4g.bmp	0r_4g.bmp	3r_2g.bmp	0r_2g.bmp				0r_2g.bmp	TrialProc	TrialList	0	cvbn	-999999	16	1747742	0	n	323	1748065	44	-11	33	0	24	1	8	5	2	14	-12	0	-3	0	4	4	2	2	0	2
Hungry_Donkey_bar_English_2	106	3	<?xml version="1.0"?>\n<Clock xmlns:dt="urn:schemas-microsoft-com:datatypes"><Description dt:dt="string">E-Prime Primary Realtime Clock</Description><StartTime><Timestamp dt:dt="int">0</Timestamp><DateUtc dt:dt="string">2015-06-04T22:04:16Z</DateUtc></StartTime><FrequencyChanges><FrequencyChange><Frequency dt:dt="r8">3507675</Frequency><Timestamp dt:dt="r8">321925983</Timestamp><Current dt:dt="r8">0</Current><DateUtc dt:dt="string">2015-06-04T22:04:16Z</DateUtc></FrequencyChange></FrequencyChanges></Clock>\n	Hungry_Donkey_bar_English_2-106-3	60.018	-65	1.0.0.18	1	322616436	Standard	2.0.10.353	2.0.10.353	06-04-2015		18:04:16	2.0.10.248	15	Bar75-25.bmp	81	2	?	10r_4g.bmp	0r_4g.bmp	2r_2g.bmp	0r_2g.bmp		0r_4g.bmp			TrialProc	TrialList	0	cvbn	-999999	16	1750091	0	v	598	1750689	48	-11	37	0	28	1	8	4	2	15	-10	0	-2	0	4	4	2	2	0	4
Hungry_Donkey_bar_English_2	106	3	<?xml version="1.0"?>\n<Clock xmlns:dt="urn:schemas-microsoft-com:datatypes"><Description dt:dt="string">E-Prime Primary Realtime Clock</Description><StartTime><Timestamp dt:dt="int">0</Timestamp><DateUtc dt:dt="string">2015-06-04T22:04:16Z</DateUtc></StartTime><FrequencyChanges><FrequencyChange><Frequency dt:dt="r8">3507675</Frequency><Timestamp dt:dt="r8">321925983</Timestamp><Current dt:dt="r8">0</Current><DateUtc dt:dt="string">2015-06-04T22:04:16Z</DateUtc></FrequencyChange></FrequencyChanges></Clock>\n	Hungry_Donkey_bar_English_2-106-3	60.018	-65	1.0.0.18	1	322616436	Standard	2.0.10.353	2.0.10.353	06-04-2015		18:04:16	2.0.10.248	16	Bar87-13.bmp	83	2	?	0r_4g.bmp	0r_4g.bmp	0r_2g.bmp	0r_2g.bmp		0r_4g.bmp			TrialProc	TrialList	0	cvbn	-999999	16	1752724	0	v	237	1752961	52	-11	41	0	32	1	8	10	2	16	0	0	0	0	4	4	2	2	0	4
Hungry_Donkey_bar_English_2	106	3	<?xml version="1.0"?>\n<Clock xmlns:dt="urn:schemas-microsoft-com:datatypes"><Description dt:dt="string">E-Prime Primary Realtime Clock</Description><StartTime><Timestamp dt:dt="int">0</Timestamp><DateUtc dt:dt="string">2015-06-04T22:04:16Z</DateUtc></StartTime><FrequencyChanges><FrequencyChange><Frequency dt:dt="r8">3507675</Frequency><Timestamp dt:dt="r8">321925983</Timestamp><Current dt:dt="r8">0</Current><DateUtc dt:dt="string">2015-06-04T22:04:16Z</DateUtc></FrequencyChange></FrequencyChanges></Clock>\n	Hungry_Donkey_bar_English_2-106-3	60.018	-65	1.0.0.18	1	322616436	Standard	2.0.10.353	2.0.10.353	06-04-2015		18:04:16	2.0.10.248	17	Bar87-13.bmp	84	2	?	0r_4g.bmp	0r_4g.bmp	0r_2g.bmp	0r_2g.bmp		0r_4g.bmp			TrialProc	TrialList	0	cvbn	-999999	16	1754990	0	v	274	1755264	56	-11	45	0	36	1	8	8	2	17	0	0	0	0	4	4	2	2	0	4
Hungry_Donkey_bar_English_2	106	3	<?xml version="1.0"?>\n<Clock xmlns:dt="urn:schemas-microsoft-com:datatypes"><Description dt:dt="string">E-Prime Primary Realtime Clock</Description><StartTime><Timestamp dt:dt="int">0</Timestamp><DateUtc dt:dt="string">2015-06-04T22:04:16Z</DateUtc></StartTime><FrequencyChanges><FrequencyChange><Frequency dt:dt="r8">3507675</Frequency><Timestamp dt:dt="r8">321925983</Timestamp><Current dt:dt="r8">0</Current><DateUtc dt:dt="string">2015-06-04T22:04:16Z</DateUtc></FrequencyChange></FrequencyChanges></Clock>\n	Hungry_Donkey_bar_English_2-106-3	60.018	-65	1.0.0.18	1	322616436	Standard	2.0.10.353	2.0.10.353	06-04-2015		18:04:16	2.0.10.248	18	Bar87-13.bmp	84	4	?	0r_4g.bmp	0r_4g.bmp	0r_2g.bmp	0r_2g.bmp				0r_2g.bmp	TrialProc	TrialList	0	cvbn	-999999	16	1757289	0	n	327	1757616	58	-11	47	0	36	1	10	7	2	18	0	0	0	0	4	4	2	2	0	2
Hungry_Donkey_bar_English_2	106	3	<?xml version="1.0"?>\n<Clock xmlns:dt="urn:schemas-microsoft-com:datatypes"><Description dt:dt="string">E-Prime Primary Realtime Clock</Description><StartTime><Timestamp dt:dt="int">0</Timestamp><DateUtc dt:dt="string">2015-06-04T22:04:16Z</DateUtc></StartTime><FrequencyChanges><FrequencyChange><Frequency dt:dt="r8">3507675</Frequency><Timestamp dt:dt="r8">321925983</Timestamp><Current dt:dt="r8">0</Current><DateUtc dt:dt="string">2015-06-04T22:04:16Z</DateUtc></FrequencyChange></FrequencyChanges></Clock>\n	Hungry_Donkey_bar_English_2-106-3	60.018	-65	1.0.0.18	1	322616436	Standard	2.0.10.353	2.0.10.353	06-04-2015		18:04:16	2.0.10.248	19	Bar87-13.bmp	85	3	?	0r_4g.bmp	0r_4g.bmp	0r_2g.bmp	0r_2g.bmp			0r_2g.bmp		TrialProc	TrialList	0	cvbn	-999999	16	1759655	0	b	233	1759888	60	-11	49	0	36	3	10	9	2	19	0	0	0	0	4	4	2	2	0	2
Hungry_Donkey_bar_English_2	106	3	<?xml version="1.0"?>\n<Clock xmlns:dt="urn:schemas-microsoft-com:datatypes"><Description dt:dt="string">E-Prime Primary Realtime Clock</Description><StartTime><Timestamp dt:dt="int">0</Timestamp><DateUtc dt:dt="string">2015-06-04T22:04:16Z</DateUtc></StartTime><FrequencyChanges><FrequencyChange><Frequency dt:dt="r8">3507675</Frequency><Timestamp dt:dt="r8">321925983</Timestamp><Current dt:dt="r8">0</Current><DateUtc dt:dt="string">2015-06-04T22:04:16Z</DateUtc></FrequencyChange></FrequencyChanges></Clock>\n	Hungry_Donkey_bar_English_2-106-3	60.018	-65	1.0.0.18	1	322616436	Standard	2.0.10.353	2.0.10.353	06-04-2015		18:04:16	2.0.10.248	20	Bar87-13.bmp	85	1	?	0r_4g.bmp	0r_4g.bmp	0r_2g.bmp	0r_2g.bmp	0r_4g.bmp				TrialProc	TrialList	0	cvbn	-999999	16	1761921	0	c	15	1761936	64	-11	53	4	36	3	10	6	2	20	0	0	0	0	4	4	2	2	0	4
Hungry_Donkey_bar_English_2	106	3	<?xml version="1.0"?>\n<Clock xmlns:dt="urn:schemas-microsoft-com:datatypes"><Description dt:dt="string">E-Prime Primary Realtime Clock</Description><StartTime><Timestamp dt:dt="int">0</Timestamp><DateUtc dt:dt="string">2015-06-04T22:04:16Z</DateUtc></StartTime><FrequencyChanges><FrequencyChange><Frequency dt:dt="r8">3507675</Frequency><Timestamp dt:dt="r8">321925983</Timestamp><Current dt:dt="r8">0</Current><DateUtc dt:dt="string">2015-06-04T22:04:16Z</DateUtc></FrequencyChange></FrequencyChanges></Clock>\n	Hungry_Donkey_bar_English_2-106-3	60.018	-65	1.0.0.18	1	322616436	Standard	2.0.10.353	2.0.10.353	06-04-2015		18:04:16	2.0.10.248	21	Bar87-13.bmp	86	4	?	10r_4g.bmp	0r_4g.bmp	2r_2g.bmp	0r_2g.bmp				0r_2g.bmp	TrialProc	TrialList	0	cvbn	-999999	16	1763970	0	n	830	1764800	66	-11	55	4	36	3	12	2	3	21	-10	0	-2	0	4	4	2	2	0	2
Hungry_Donkey_bar_English_2	106	3	<?xml version="1.0"?>\n<Clock xmlns:dt="urn:schemas-microsoft-com:datatypes"><Description dt:dt="string">E-Prime Primary Realtime Clock</Description><StartTime><Timestamp dt:dt="int">0</Timestamp><DateUtc dt:dt="string">2015-06-04T22:04:16Z</DateUtc></StartTime><FrequencyChanges><FrequencyChange><Frequency dt:dt="r8">3507675</Frequency><Timestamp dt:dt="r8">321925983</Timestamp><Current dt:dt="r8">0</Current><DateUtc dt:dt="string">2015-06-04T22:04:16Z</DateUtc></FrequencyChange></FrequencyChanges></Clock>\n	Hungry_Donkey_bar_English_2-106-3	60.018	-65	1.0.0.18	1	322616436	Standard	2.0.10.353	2.0.10.353	06-04-2015		18:04:16	2.0.10.248	22	Bar87-13.bmp	86	2	?	0r_4g.bmp	0r_4g.bmp	0r_2g.bmp	0r_2g.bmp		0r_4g.bmp			TrialProc	TrialList	0	cvbn	-999999	16	1766836	0	v	124	1766960	70	-11	59	4	40	3	12	9	3	22	0	0	0	0	4	4	2	2	0	4
Hungry_Donkey_bar_English_2	106	3	<?xml version="1.0"?>\n<Clock xmlns:dt="urn:schemas-microsoft-com:datatypes"><Description dt:dt="string">E-Prime Primary Realtime Clock</Description><StartTime><Timestamp dt:dt="int">0</Timestamp><DateUtc dt:dt="string">2015-06-04T22:04:16Z</DateUtc></StartTime><FrequencyChanges><FrequencyChange><Frequency dt:dt="r8">3507675</Frequency><Timestamp dt:dt="r8">321925983</Timestamp><Current dt:dt="r8">0</Current><DateUtc dt:dt="string">2015-06-04T22:04:16Z</DateUtc></FrequencyChange></FrequencyChanges></Clock>\n	Hungry_Donkey_bar_English_2-106-3	60.018	-65	1.0.0.18	1	322616436	Standard	2.0.10.353	2.0.10.353	06-04-2015		18:04:16	2.0.10.248	23	Bar87-13.bmp	85	3	?	10r_4g.bmp	0r_4g.bmp	2r_2g.bmp	0r_2g.bmp			2r_2g.bmp		TrialProc	TrialList	0	cvbn	-999999	16	1768986	0	b	230	1769216	72	-13	59	4	40	3	12	3	3	23	-10	0	-2	0	4	4	2	2	-2	2
Hungry_Donkey_bar_English_2	106	3	<?xml version="1.0"?>\n<Clock xmlns:dt="urn:schemas-microsoft-com:datatypes"><Description dt:dt="string">E-Prime Primary Realtime Clock</Description><StartTime><Timestamp dt:dt="int">0</Timestamp><DateUtc dt:dt="string">2015-06-04T22:04:16Z</DateUtc></StartTime><FrequencyChanges><FrequencyChange><Frequency dt:dt="r8">3507675</Frequency><Timestamp dt:dt="r8">321925983</Timestamp><Current dt:dt="r8">0</Current><DateUtc dt:dt="string">2015-06-04T22:04:16Z</DateUtc></FrequencyChange></FrequencyChanges></Clock>\n	Hungry_Donkey_bar_English_2-106-3	60.018	-65	1.0.0.18	1	322616436	Standard	2.0.10.353	2.0.10.353	06-04-2015		18:04:16	2.0.10.248	24	Bar87-13.bmp	85	3	?	0r_4g.bmp	0r_4g.bmp	0r_2g.bmp	0r_2g.bmp			0r_2g.bmp		TrialProc	TrialList	0	cvbn	-999999	16	1771252	0	b	252	1771504	74	-13	61	4	40	5	12	6	3	24	0	0	0	0	4	4	2	2	0	2
Hungry_Donkey_bar_English_2	106	3	<?xml version="1.0"?>\n<Clock xmlns:dt="urn:schemas-microsoft-com:datatypes"><Description dt:dt="string">E-Prime Primary Realtime Clock</Description><StartTime><Timestamp dt:dt="int">0</Timestamp><DateUtc dt:dt="string">2015-06-04T22:04:16Z</DateUtc></StartTime><FrequencyChanges><FrequencyChange><Frequency dt:dt="r8">3507675</Frequency><Timestamp dt:dt="r8">321925983</Timestamp><Current dt:dt="r8">0</Current><DateUtc dt:dt="string">2015-06-04T22:04:16Z</DateUtc></FrequencyChange></FrequencyChanges></Clock>\n	Hungry_Donkey_bar_English_2-106-3	60.018	-65	1.0.0.18	1	322616436	Standard	2.0.10.353	2.0.10.353	06-04-2015		18:04:16	2.0.10.248	25	Bar75-25.bmp	76	1	?	12r_4g.bmp	0r_4g.bmp	3r_2g.bmp	0r_2g.bmp	12r_4g.bmp				TrialProc	TrialList	0	cvbn	-999999	16	1773534	0	c	562	1774096	78	-25	53	-4	40	5	12	5	3	25	-12	0	-3	0	4	4	2	2	-12	4
Hungry_Donkey_bar_English_2	106	3	<?xml version="1.0"?>\n<Clock xmlns:dt="urn:schemas-microsoft-com:datatypes"><Description dt:dt="string">E-Prime Primary Realtime Clock</Description><StartTime><Timestamp dt:dt="int">0</Timestamp><DateUtc dt:dt="string">2015-06-04T22:04:16Z</DateUtc></StartTime><FrequencyChanges><FrequencyChange><Frequency dt:dt="r8">3507675</Frequency><Timestamp dt:dt="r8">321925983</Timestamp><Current dt:dt="r8">0</Current><DateUtc dt:dt="string">2015-06-04T22:04:16Z</DateUtc></FrequencyChange></FrequencyChanges></Clock>\n	Hungry_Donkey_bar_English_2-106-3	60.018	-65	1.0.0.18	1	322616436	Standard	2.0.10.353	2.0.10.353	06-04-2015		18:04:16	2.0.10.248	26	Bar75-25.bmp	77	2	?	10r_4g.bmp	0r_4g.bmp	2r_2g.bmp	0r_2g.bmp		0r_4g.bmp			TrialProc	TrialList	0	cvbn	-999999	16	1776134	0	v	1113	1777247	82	-25	57	-4	44	5	12	4	3	26	-10	0	-2	0	4	4	2	2	0	4
Hungry_Donkey_bar_English_2	106	3	<?xml version="1.0"?>\n<Clock xmlns:dt="urn:schemas-microsoft-com:datatypes"><Description dt:dt="string">E-Prime Primary Realtime Clock</Description><StartTime><Timestamp dt:dt="int">0</Timestamp><DateUtc dt:dt="string">2015-06-04T22:04:16Z</DateUtc></StartTime><FrequencyChanges><FrequencyChange><Frequency dt:dt="r8">3507675</Frequency><Timestamp dt:dt="r8">321925983</Timestamp><Current dt:dt="r8">0</Current><DateUtc dt:dt="string">2015-06-04T22:04:16Z</DateUtc></FrequencyChange></FrequencyChanges></Clock>\n	Hungry_Donkey_bar_English_2-106-3	60.018	-65	1.0.0.18	1	322616436	Standard	2.0.10.353	2.0.10.353	06-04-2015		18:04:16	2.0.10.248	27	Bar75-25.bmp	77	2	?	0r_4g.bmp	0r_4g.bmp	0r_2g.bmp	0r_2g.bmp		0r_4g.bmp			TrialProc	TrialList	0	cvbn	-999999	16	1779283	0	v	220	1779503	86	-25	61	-4	48	5	12	10	3	27	0	0	0	0	4	4	2	2	0	4
Hungry_Donkey_bar_English_2	106	3	<?xml version="1.0"?>\n<Clock xmlns:dt="urn:schemas-microsoft-com:datatypes"><Description dt:dt="string">E-Prime Primary Realtime Clock</Description><StartTime><Timestamp dt:dt="int">0</Timestamp><DateUtc dt:dt="string">2015-06-04T22:04:16Z</DateUtc></StartTime><FrequencyChanges><FrequencyChange><Frequency dt:dt="r8">3507675</Frequency><Timestamp dt:dt="r8">321925983</Timestamp><Current dt:dt="r8">0</Current><DateUtc dt:dt="string">2015-06-04T22:04:16Z</DateUtc></FrequencyChange></FrequencyChanges></Clock>\n	Hungry_Donkey_bar_English_2-106-3	60.018	-65	1.0.0.18	1	322616436	Standard	2.0.10.353	2.0.10.353	06-04-2015		18:04:16	2.0.10.248	28	Bar50-50.bmp	55	2	?	8r_4g.bmp	50r_4g.bmp	1r_2g.bmp	10r_2g.bmp		50r_4g.bmp			TrialProc	TrialList	0	cvbn	-999999	16	1781532	0	v	243	1781775	90	-75	15	-4	2	5	12	1	3	28	-8	-50	-1	-10	4	4	2	2	-50	4
Hungry_Donkey_bar_English_2	106	3	<?xml version="1.0"?>\n<Clock xmlns:dt="urn:schemas-microsoft-com:datatypes"><Description dt:dt="string">E-Prime Primary Realtime Clock</Description><StartTime><Timestamp dt:dt="int">0</Timestamp><DateUtc dt:dt="string">2015-06-04T22:04:16Z</DateUtc></StartTime><FrequencyChanges><FrequencyChange><Frequency dt:dt="r8">3507675</Frequency><Timestamp dt:dt="r8">321925983</Timestamp><Current dt:dt="r8">0</Current><DateUtc dt:dt="string">2015-06-04T22:04:16Z</DateUtc></FrequencyChange></FrequencyChanges></Clock>\n	Hungry_Donkey_bar_English_2-106-3	60.018	-65	1.0.0.18	1	322616436	Standard	2.0.10.353	2.0.10.353	06-04-2015		18:04:16	2.0.10.248	29	Bar50-50.bmp	55	4	?	0r_4g.bmp	0r_4g.bmp	0r_2g.bmp	0r_2g.bmp				0r_2g.bmp	TrialProc	TrialList	0	cvbn	-999999	16	1783815	0	n	456	1784271	92	-75	17	-4	2	5	14	8	3	29	0	0	0	0	4	4	2	2	0	2
Hungry_Donkey_bar_English_2	106	3	<?xml version="1.0"?>\n<Clock xmlns:dt="urn:schemas-microsoft-com:datatypes"><Description dt:dt="string">E-Prime Primary Realtime Clock</Description><StartTime><Timestamp dt:dt="int">0</Timestamp><DateUtc dt:dt="string">2015-06-04T22:04:16Z</DateUtc></StartTime><FrequencyChanges><FrequencyChange><Frequency dt:dt="r8">3507675</Frequency><Timestamp dt:dt="r8">321925983</Timestamp><Current dt:dt="r8">0</Current><DateUtc dt:dt="string">2015-06-04T22:04:16Z</DateUtc></FrequencyChange></FrequencyChanges></Clock>\n	Hungry_Donkey_bar_English_2-106-3	60.018	-65	1.0.0.18	1	322616436	Standard	2.0.10.353	2.0.10.353	06-04-2015		18:04:16	2.0.10.248	30	Bar50-50.bmp	56	2	?	0r_4g.bmp	0r_4g.bmp	0r_2g.bmp	0r_2g.bmp		0r_4g.bmp			TrialProc	TrialList	0	cvbn	-999999	16	1786297	0	v	390	1786687	96	-75	21	-4	6	5	14	7	3	30	0	0	0	0	4	4	2	2	0	4
Hungry_Donkey_bar_English_2	106	3	<?xml version="1.0"?>\n<Clock xmlns:dt="urn:schemas-microsoft-com:datatypes"><Description dt:dt="string">E-Prime Primary Realtime Clock</Description><StartTime><Timestamp dt:dt="int">0</Timestamp><DateUtc dt:dt="string">2015-06-04T22:04:16Z</DateUtc></StartTime><FrequencyChanges><FrequencyChange><Frequency dt:dt="r8">3507675</Frequency><Timestamp dt:dt="r8">321925983</Timestamp><Current dt:dt="r8">0</Current><DateUtc dt:dt="string">2015-06-04T22:04:16Z</DateUtc></FrequencyChange></FrequencyChanges></Clock>\n	Hungry_Donkey_bar_English_2-106-3	60.018	-65	1.0.0.18	1	322616436	Standard	2.0.10.353	2.0.10.353	06-04-2015		18:04:16	2.0.10.248	31	Bar50-50.bmp	53	1	?	12r_4g.bmp	0r_4g.bmp	3r_2g.bmp	0r_2g.bmp	12r_4g.bmp				TrialProc	TrialList	0	cvbn	-999999	16	1788713	0	c	342	1789055	100	-87	13	-12	6	5	14	5	4	31	-12	0	-3	0	4	4	2	2	-12	4
Hungry_Donkey_bar_English_2	106	3	<?xml version="1.0"?>\n<Clock xmlns:dt="urn:schemas-microsoft-com:datatypes"><Description dt:dt="string">E-Prime Primary Realtime Clock</Description><StartTime><Timestamp dt:dt="int">0</Timestamp><DateUtc dt:dt="string">2015-06-04T22:04:16Z</DateUtc></StartTime><FrequencyChanges><FrequencyChange><Frequency dt:dt="r8">3507675</Frequency><Timestamp dt:dt="r8">321925983</Timestamp><Current dt:dt="r8">0</Current><DateUtc dt:dt="string">2015-06-04T22:04:16Z</DateUtc></FrequencyChange></FrequencyChanges></Clock>\n	Hungry_Donkey_bar_English_2-106-3	60.018	-65	1.0.0.18	1	322616436	Standard	2.0.10.353	2.0.10.353	06-04-2015		18:04:16	2.0.10.248	32	Bar50-50.bmp	54	4	?	10r_4g.bmp	0r_4g.bmp	2r_2g.bmp	0r_2g.bmp				0r_2g.bmp	TrialProc	TrialList	0	cvbn	-999999	16	1791079	0	n	280	1791359	102	-87	15	-12	6	5	16	2	4	32	-10	0	-2	0	4	4	2	2	0	2
Hungry_Donkey_bar_English_2	106	3	<?xml version="1.0"?>\n<Clock xmlns:dt="urn:schemas-microsoft-com:datatypes"><Description dt:dt="string">E-Prime Primary Realtime Clock</Description><StartTime><Timestamp dt:dt="int">0</Timestamp><DateUtc dt:dt="string">2015-06-04T22:04:16Z</DateUtc></StartTime><FrequencyChanges><FrequencyChange><Frequency dt:dt="r8">3507675</Frequency><Timestamp dt:dt="r8">321925983</Timestamp><Current dt:dt="r8">0</Current><DateUtc dt:dt="string">2015-06-04T22:04:16Z</DateUtc></FrequencyChange></FrequencyChanges></Clock>\n	Hungry_Donkey_bar_English_2-106-3	60.018	-65	1.0.0.18	1	322616436	Standard	2.0.10.353	2.0.10.353	06-04-2015		18:04:16	2.0.10.248	33	Bar50-50.bmp	55	2	?	10r_4g.bmp	0r_4g.bmp	2r_2g.bmp	0r_2g.bmp		0r_4g.bmp			TrialProc	TrialList	0	cvbn	-999999	16	1793395	0	v	300	1793695	106	-87	19	-12	10	5	16	4	4	33	-10	0	-2	0	4	4	2	2	0	4
Hungry_Donkey_bar_English_2	106	3	<?xml version="1.0"?>\n<Clock xmlns:dt="urn:schemas-microsoft-com:datatypes"><Description dt:dt="string">E-Prime Primary Realtime Clock</Description><StartTime><Timestamp dt:dt="int">0</Timestamp><DateUtc dt:dt="string">2015-06-04T22:04:16Z</DateUtc></StartTime><FrequencyChanges><FrequencyChange><Frequency dt:dt="r8">3507675</Frequency><Timestamp dt:dt="r8">321925983</Timestamp><Current dt:dt="r8">0</Current><DateUtc dt:dt="string">2015-06-04T22:04:16Z</DateUtc></FrequencyChange></FrequencyChanges></Clock>\n	Hungry_Donkey_bar_English_2-106-3	60.018	-65	1.0.0.18	1	322616436	Standard	2.0.10.353	2.0.10.353	06-04-2015		18:04:16	2.0.10.248	34	Bar50-50.bmp	55	3	?	0r_4g.bmp	0r_4g.bmp	0r_2g.bmp	0r_2g.bmp			0r_2g.bmp		TrialProc	TrialList	0	cvbn	-999999	16	1795728	0	b	526	1796254	108	-87	21	-12	10	7	16	6	4	34	0	0	0	0	4	4	2	2	0	2
Hungry_Donkey_bar_English_2	106	3	<?xml version="1.0"?>\n<Clock xmlns:dt="urn:schemas-microsoft-com:datatypes"><Description dt:dt="string">E-Prime Primary Realtime Clock</Description><StartTime><Timestamp dt:dt="int">0</Timestamp><DateUtc dt:dt="string">2015-06-04T22:04:16Z</DateUtc></StartTime><FrequencyChanges><FrequencyChange><Frequency dt:dt="r8">3507675</Frequency><Timestamp dt:dt="r8">321925983</Timestamp><Current dt:dt="r8">0</Current><DateUtc dt:dt="string">2015-06-04T22:04:16Z</DateUtc></FrequencyChange></FrequencyChanges></Clock>\n	Hungry_Donkey_bar_English_2-106-3	60.018	-65	1.0.0.18	1	322616436	Standard	2.0.10.353	2.0.10.353	06-04-2015		18:04:16	2.0.10.248	35	Bar50-50.bmp	54	1	?	8r_4g.bmp	50r_4g.bmp	1r_2g.bmp	10r_2g.bmp	8r_4g.bmp				TrialProc	TrialList	0	cvbn	-999999	16	1798294	0	c	312	1798606	112	-95	17	-16	10	7	16	1	4	35	-8	-50	-1	-10	4	4	2	2	-8	4
Hungry_Donkey_bar_English_2	106	3	<?xml version="1.0"?>\n<Clock xmlns:dt="urn:schemas-microsoft-com:datatypes"><Description dt:dt="string">E-Prime Primary Realtime Clock</Description><StartTime><Timestamp dt:dt="int">0</Timestamp><DateUtc dt:dt="string">2015-06-04T22:04:16Z</DateUtc></StartTime><FrequencyChanges><FrequencyChange><Frequency dt:dt="r8">3507675</Frequency><Timestamp dt:dt="r8">321925983</Timestamp><Current dt:dt="r8">0</Current><DateUtc dt:dt="string">2015-06-04T22:04:16Z</DateUtc></FrequencyChange></FrequencyChanges></Clock>\n	Hungry_Donkey_bar_English_2-106-3	60.018	-65	1.0.0.18	1	322616436	Standard	2.0.10.353	2.0.10.353	06-04-2015		18:04:16	2.0.10.248	36	Bar50-50.bmp	55	4	?	10r_4g.bmp	0r_4g.bmp	2r_2g.bmp	0r_2g.bmp				0r_2g.bmp	TrialProc	TrialList	0	cvbn	-999999	16	1800643	0	n	171	1800814	114	-95	19	-16	10	7	18	3	4	36	-10	0	-2	0	4	4	2	2	0	2
Hungry_Donkey_bar_English_2	106	3	<?xml version="1.0"?>\n<Clock xmlns:dt="urn:schemas-microsoft-com:datatypes"><Description dt:dt="string">E-Prime Primary Realtime Clock</Description><StartTime><Timestamp dt:dt="int">0</Timestamp><DateUtc dt:dt="string">2015-06-04T22:04:16Z</DateUtc></StartTime><FrequencyChanges><FrequencyChange><Frequency dt:dt="r8">3507675</Frequency><Timestamp dt:dt="r8">321925983</Timestamp><Current dt:dt="r8">0</Current><DateUtc dt:dt="string">2015-06-04T22:04:16Z</DateUtc></FrequencyChange></FrequencyChanges></Clock>\n	Hungry_Donkey_bar_English_2-106-3	60.018	-65	1.0.0.18	1	322616436	Standard	2.0.10.353	2.0.10.353	06-04-2015		18:04:16	2.0.10.248	37	Bar50-50.bmp	55	2	?	0r_4g.bmp	0r_4g.bmp	0r_2g.bmp	0r_2g.bmp		0r_4g.bmp			TrialProc	TrialList	0	cvbn	-999999	16	1802843	0	v	371	1803214	118	-95	23	-16	14	7	18	8	4	37	0	0	0	0	4	4	2	2	0	4
Hungry_Donkey_bar_English_2	106	3	<?xml version="1.0"?>\n<Clock xmlns:dt="urn:schemas-microsoft-com:datatypes"><Description dt:dt="string">E-Prime Primary Realtime Clock</Description><StartTime><Timestamp dt:dt="int">0</Timestamp><DateUtc dt:dt="string">2015-06-04T22:04:16Z</DateUtc></StartTime><FrequencyChanges><FrequencyChange><Frequency dt:dt="r8">3507675</Frequency><Timestamp dt:dt="r8">321925983</Timestamp><Current dt:dt="r8">0</Current><DateUtc dt:dt="string">2015-06-04T22:04:16Z</DateUtc></FrequencyChange></FrequencyChanges></Clock>\n	Hungry_Donkey_bar_English_2-106-3	60.018	-65	1.0.0.18	1	322616436	Standard	2.0.10.353	2.0.10.353	06-04-2015		18:04:16	2.0.10.248	38	Bar50-50.bmp	56	2	?	0r_4g.bmp	0r_4g.bmp	0r_2g.bmp	0r_2g.bmp		0r_4g.bmp			TrialProc	TrialList	0	cvbn	-999999	16	1805242	0	v	228	1805470	122	-95	27	-16	18	7	18	10	4	38	0	0	0	0	4	4	2	2	0	4
Hungry_Donkey_bar_English_2	106	3	<?xml version="1.0"?>\n<Clock xmlns:dt="urn:schemas-microsoft-com:datatypes"><Description dt:dt="string">E-Prime Primary Realtime Clock</Description><StartTime><Timestamp dt:dt="int">0</Timestamp><DateUtc dt:dt="string">2015-06-04T22:04:16Z</DateUtc></StartTime><FrequencyChanges><FrequencyChange><Frequency dt:dt="r8">3507675</Frequency><Timestamp dt:dt="r8">321925983</Timestamp><Current dt:dt="r8">0</Current><DateUtc dt:dt="string">2015-06-04T22:04:16Z</DateUtc></FrequencyChange></FrequencyChanges></Clock>\n	Hungry_Donkey_bar_English_2-106-3	60.018	-65	1.0.0.18	1	322616436	Standard	2.0.10.353	2.0.10.353	06-04-2015		18:04:16	2.0.10.248	39	Bar63-37.bmp	57	4	?	0r_4g.bmp	0r_4g.bmp	0r_2g.bmp	0r_2g.bmp				0r_2g.bmp	TrialProc	TrialList	0	cvbn	-999999	16	1807508	0	n	346	1807854	124	-95	29	-16	18	7	20	7	4	39	0	0	0	0	4	4	2	2	0	2
Hungry_Donkey_bar_English_2	106	3	<?xml version="1.0"?>\n<Clock xmlns:dt="urn:schemas-microsoft-com:datatypes"><Description dt:dt="string">E-Prime Primary Realtime Clock</Description><StartTime><Timestamp dt:dt="int">0</Timestamp><DateUtc dt:dt="string">2015-06-04T22:04:16Z</DateUtc></StartTime><FrequencyChanges><FrequencyChange><Frequency dt:dt="r8">3507675</Frequency><Timestamp dt:dt="r8">321925983</Timestamp><Current dt:dt="r8">0</Current><DateUtc dt:dt="string">2015-06-04T22:04:16Z</DateUtc></FrequencyChange></FrequencyChanges></Clock>\n	Hungry_Donkey_bar_English_2-106-3	60.018	-65	1.0.0.18	1	322616436	Standard	2.0.10.353	2.0.10.353	06-04-2015		18:04:16	2.0.10.248	40	Bar63-37.bmp	57	1	?	0r_4g.bmp	0r_4g.bmp	0r_2g.bmp	0r_2g.bmp	0r_4g.bmp				TrialProc	TrialList	0	cvbn	-999999	16	1809891	0	c	379	1810270	128	-95	33	-12	18	7	20	9	4	40	0	0	0	0	4	4	2	2	0	4
Hungry_Donkey_bar_English_2	106	3	<?xml version="1.0"?>\n<Clock xmlns:dt="urn:schemas-microsoft-com:datatypes"><Description dt:dt="string">E-Prime Primary Realtime Clock</Description><StartTime><Timestamp dt:dt="int">0</Timestamp><DateUtc dt:dt="string">2015-06-04T22:04:16Z</DateUtc></StartTime><FrequencyChanges><FrequencyChange><Frequency dt:dt="r8">3507675</Frequency><Timestamp dt:dt="r8">321925983</Timestamp><Current dt:dt="r8">0</Current><DateUtc dt:dt="string">2015-06-04T22:04:16Z</DateUtc></FrequencyChange></FrequencyChanges></Clock>\n	Hungry_Donkey_bar_English_2-106-3	60.018	-65	1.0.0.18	1	322616436	Standard	2.0.10.353	2.0.10.353	06-04-2015		18:04:16	2.0.10.248	41	Bar63-37.bmp	58	2	?	0r_4g.bmp	0r_4g.bmp	0r_2g.bmp	0r_2g.bmp		0r_4g.bmp			TrialProc	TrialList	0	cvbn	-999999	16	1812307	0	v	379	1812686	132	-95	37	-12	22	7	20	9	5	41	0	0	0	0	4	4	2	2	0	4
Hungry_Donkey_bar_English_2	106	3	<?xml version="1.0"?>\n<Clock xmlns:dt="urn:schemas-microsoft-com:datatypes"><Description dt:dt="string">E-Prime Primary Realtime Clock</Description><StartTime><Timestamp dt:dt="int">0</Timestamp><DateUtc dt:dt="string">2015-06-04T22:04:16Z</DateUtc></StartTime><FrequencyChanges><FrequencyChange><Frequency dt:dt="r8">3507675</Frequency><Timestamp dt:dt="r8">321925983</Timestamp><Current dt:dt="r8">0</Current><DateUtc dt:dt="string">2015-06-04T22:04:16Z</DateUtc></FrequencyChange></FrequencyChanges></Clock>\n	Hungry_Donkey_bar_English_2-106-3	60.018	-65	1.0.0.18	1	322616436	Standard	2.0.10.353	2.0.10.353	06-04-2015		18:04:16	2.0.10.248	42	Bar63-37.bmp	59	4	?	0r_4g.bmp	0r_4g.bmp	0r_2g.bmp	0r_2g.bmp				0r_2g.bmp	TrialProc	TrialList	0	cvbn	-999999	16	1814723	0	n	347	1815070	134	-95	39	-12	22	7	22	7	5	42	0	0	0	0	4	4	2	2	0	2
Hungry_Donkey_bar_English_2	106	3	<?xml version="1.0"?>\n<Clock xmlns:dt="urn:schemas-microsoft-com:datatypes"><Description dt:dt="string">E-Prime Primary Realtime Clock</Description><StartTime><Timestamp dt:dt="int">0</Timestamp><DateUtc dt:dt="string">2015-06-04T22:04:16Z</DateUtc></StartTime><FrequencyChanges><FrequencyChange><Frequency dt:dt="r8">3507675</Frequency><Timestamp dt:dt="r8">321925983</Timestamp><Current dt:dt="r8">0</Current><DateUtc dt:dt="string">2015-06-04T22:04:16Z</DateUtc></FrequencyChange></FrequencyChanges></Clock>\n	Hungry_Donkey_bar_English_2-106-3	60.018	-65	1.0.0.18	1	322616436	Standard	2.0.10.353	2.0.10.353	06-04-2015		18:04:16	2.0.10.248	43	Bar63-37.bmp	58	3	?	10r_4g.bmp	0r_4g.bmp	2r_2g.bmp	0r_2g.bmp			2r_2g.bmp		TrialProc	TrialList	0	cvbn	-999999	16	1817105	0	b	284	1817389	136	-97	39	-12	22	7	22	2	5	43	-10	0	-2	0	4	4	2	2	-2	2
Hungry_Donkey_bar_English_2	106	3	<?xml version="1.0"?>\n<Clock xmlns:dt="urn:schemas-microsoft-com:datatypes"><Description dt:dt="string">E-Prime Primary Realtime Clock</Description><StartTime><Timestamp dt:dt="int">0</Timestamp><DateUtc dt:dt="string">2015-06-04T22:04:16Z</DateUtc></StartTime><FrequencyChanges><FrequencyChange><Frequency dt:dt="r8">3507675</Frequency><Timestamp dt:dt="r8">321925983</Timestamp><Current dt:dt="r8">0</Current><DateUtc dt:dt="string">2015-06-04T22:04:16Z</DateUtc></FrequencyChange></FrequencyChanges></Clock>\n	Hungry_Donkey_bar_English_2-106-3	60.018	-65	1.0.0.18	1	322616436	Standard	2.0.10.353	2.0.10.353	06-04-2015		18:04:16	2.0.10.248	44	Bar50-50.bmp	56	1	?	12r_4g.bmp	0r_4g.bmp	3r_2g.bmp	0r_2g.bmp	12r_4g.bmp				TrialProc	TrialList	0	cvbn	-999999	16	1819421	0	c	224	1819645	140	-109	31	-20	22	7	22	5	5	44	-12	0	-3	0	4	4	2	2	-12	4
Hungry_Donkey_bar_English_2	106	3	<?xml version="1.0"?>\n<Clock xmlns:dt="urn:schemas-microsoft-com:datatypes"><Description dt:dt="string">E-Prime Primary Realtime Clock</Description><StartTime><Timestamp dt:dt="int">0</Timestamp><DateUtc dt:dt="string">2015-06-04T22:04:16Z</DateUtc></StartTime><FrequencyChanges><FrequencyChange><Frequency dt:dt="r8">3507675</Frequency><Timestamp dt:dt="r8">321925983</Timestamp><Current dt:dt="r8">0</Current><DateUtc dt:dt="string">2015-06-04T22:04:16Z</DateUtc></FrequencyChange></FrequencyChanges></Clock>\n	Hungry_Donkey_bar_English_2-106-3	60.018	-65	1.0.0.18	1	322616436	Standard	2.0.10.353	2.0.10.353	06-04-2015		18:04:16	2.0.10.248	45	Bar63-37.bmp	57	4	?	10r_4g.bmp	0r_4g.bmp	2r_2g.bmp	0r_2g.bmp				0r_2g.bmp	TrialProc	TrialList	0	cvbn	-999999	16	1821671	0	n	342	1822013	142	-109	33	-20	22	7	24	4	5	45	-10	0	-2	0	4	4	2	2	0	2
Hungry_Donkey_bar_English_2	106	3	<?xml version="1.0"?>\n<Clock xmlns:dt="urn:schemas-microsoft-com:datatypes"><Description dt:dt="string">E-Prime Primary Realtime Clock</Description><StartTime><Timestamp dt:dt="int">0</Timestamp><DateUtc dt:dt="string">2015-06-04T22:04:16Z</DateUtc></StartTime><FrequencyChanges><FrequencyChange><Frequency dt:dt="r8">3507675</Frequency><Timestamp dt:dt="r8">321925983</Timestamp><Current dt:dt="r8">0</Current><DateUtc dt:dt="string">2015-06-04T22:04:16Z</DateUtc></FrequencyChange></FrequencyChanges></Clock>\n	Hungry_Donkey_bar_English_2-106-3	60.018	-65	1.0.0.18	1	322616436	Standard	2.0.10.353	2.0.10.353	06-04-2015		18:04:16	2.0.10.248	46	Bar63-37.bmp	57	2	?	0r_4g.bmp	0r_4g.bmp	0r_2g.bmp	0r_2g.bmp		0r_4g.bmp			TrialProc	TrialList	0	cvbn	-999999	16	1824053	0	v	264	1824317	146	-109	37	-20	26	7	24	6	5	46	0	0	0	0	4	4	2	2	0	4
Hungry_Donkey_bar_English_2	106	3	<?xml version="1.0"?>\n<Clock xmlns:dt="urn:schemas-microsoft-com:datatypes"><Description dt:dt="string">E-Prime Primary Realtime Clock</Description><StartTime><Timestamp dt:dt="int">0</Timestamp><DateUtc dt:dt="string">2015-06-04T22:04:16Z</DateUtc></StartTime><FrequencyChanges><FrequencyChange><Frequency dt:dt="r8">3507675</Frequency><Timestamp dt:dt="r8">321925983</Timestamp><Current dt:dt="r8">0</Current><DateUtc dt:dt="string">2015-06-04T22:04:16Z</DateUtc></FrequencyChange></FrequencyChanges></Clock>\n	Hungry_Donkey_bar_English_2-106-3	60.018	-65	1.0.0.18	1	322616436	Standard	2.0.10.353	2.0.10.353	06-04-2015		18:04:16	2.0.10.248	47	Bar63-37.bmp	58	4	?	10r_4g.bmp	0r_4g.bmp	2r_2g.bmp	0r_2g.bmp				0r_2g.bmp	TrialProc	TrialList	0	cvbn	-999999	16	1826353	0	n	156	1826509	148	-109	39	-20	26	7	26	3	5	47	-10	0	-2	0	4	4	2	2	0	2
Hungry_Donkey_bar_English_2	106	3	<?xml version="1.0"?>\n<Clock xmlns:dt="urn:schemas-microsoft-com:datatypes"><Description dt:dt="string">E-Prime Primary Realtime Clock</Description><StartTime><Timestamp dt:dt="int">0</Timestamp><DateUtc dt:dt="string">2015-06-04T22:04:16Z</DateUtc></StartTime><FrequencyChanges><FrequencyChange><Frequency dt:dt="r8">3507675</Frequency><Timestamp dt:dt="r8">321925983</Timestamp><Current dt:dt="r8">0</Current><DateUtc dt:dt="string">2015-06-04T22:04:16Z</DateUtc></FrequencyChange></FrequencyChanges></Clock>\n	Hungry_Donkey_bar_English_2-106-3	60.018	-65	1.0.0.18	1	322616436	Standard	2.0.10.353	2.0.10.353	06-04-2015		18:04:16	2.0.10.248	48	Bar63-37.bmp	58	3	?	8r_4g.bmp	50r_4g.bmp	1r_2g.bmp	10r_2g.bmp			1r_2g.bmp		TrialProc	TrialList	0	cvbn	-999999	16	1828535	0	b	422	1828957	150	-110	40	-20	26	8	26	1	5	48	-8	-50	-1	-10	4	4	2	2	-1	2
Hungry_Donkey_bar_English_2	106	3	<?xml version="1.0"?>\n<Clock xmlns:dt="urn:schemas-microsoft-com:datatypes"><Description dt:dt="string">E-Prime Primary Realtime Clock</Description><StartTime><Timestamp dt:dt="int">0</Timestamp><DateUtc dt:dt="string">2015-06-04T22:04:16Z</DateUtc></StartTime><FrequencyChanges><FrequencyChange><Frequency dt:dt="r8">3507675</Frequency><Timestamp dt:dt="r8">321925983</Timestamp><Current dt:dt="r8">0</Current><DateUtc dt:dt="string">2015-06-04T22:04:16Z</DateUtc></FrequencyChange></FrequencyChanges></Clock>\n	Hungry_Donkey_bar_English_2-106-3	60.018	-65	1.0.0.18	1	322616436	Standard	2.0.10.353	2.0.10.353	06-04-2015		18:04:16	2.0.10.248	49	Bar63-37.bmp	58	1	?	0r_4g.bmp	0r_4g.bmp	0r_2g.bmp	0r_2g.bmp	0r_4g.bmp				TrialProc	TrialList	0	cvbn	-999999	16	1830985	0	c	324	1831309	154	-110	44	-16	26	8	26	8	5	49	0	0	0	0	4	4	2	2	0	4
Hungry_Donkey_bar_English_2	106	3	<?xml version="1.0"?>\n<Clock xmlns:dt="urn:schemas-microsoft-com:datatypes"><Description dt:dt="string">E-Prime Primary Realtime Clock</Description><StartTime><Timestamp dt:dt="int">0</Timestamp><DateUtc dt:dt="string">2015-06-04T22:04:16Z</DateUtc></StartTime><FrequencyChanges><FrequencyChange><Frequency dt:dt="r8">3507675</Frequency><Timestamp dt:dt="r8">321925983</Timestamp><Current dt:dt="r8">0</Current><DateUtc dt:dt="string">2015-06-04T22:04:16Z</DateUtc></FrequencyChange></FrequencyChanges></Clock>\n	Hungry_Donkey_bar_English_2-106-3	60.018	-65	1.0.0.18	1	322616436	Standard	2.0.10.353	2.0.10.353	06-04-2015		18:04:16	2.0.10.248	50	Bar63-37.bmp	59	1	?	0r_4g.bmp	0r_4g.bmp	0r_2g.bmp	0r_2g.bmp	0r_4g.bmp				TrialProc	TrialList	0	cvbn	-999999	16	1833334	0	c	247	1833581	158	-110	48	-12	26	8	26	10	5	50	0	0	0	0	4	4	2	2	0	4
Hungry_Donkey_bar_English_2	106	3	<?xml version="1.0"?>\n<Clock xmlns:dt="urn:schemas-microsoft-com:datatypes"><Description dt:dt="string">E-Prime Primary Realtime Clock</Description><StartTime><Timestamp dt:dt="int">0</Timestamp><DateUtc dt:dt="string">2015-06-04T22:04:16Z</DateUtc></StartTime><FrequencyChanges><FrequencyChange><Frequency dt:dt="r8">3507675</Frequency><Timestamp dt:dt="r8">321925983</Timestamp><Current dt:dt="r8">0</Current><DateUtc dt:dt="string">2015-06-04T22:04:16Z</DateUtc></FrequencyChange></FrequencyChanges></Clock>\n	Hungry_Donkey_bar_English_2-106-3	60.018	-65	1.0.0.18	1	322616436	Standard	2.0.10.353	2.0.10.353	06-04-2015		18:04:16	2.0.10.248	51	Bar63-37.bmp	60	2	?	10r_4g.bmp	0r_4g.bmp	2r_2g.bmp	0r_2g.bmp		0r_4g.bmp			TrialProc	TrialList	0	cvbn	-999999	16	1835617	0	v	252	1835869	162	-110	52	-12	30	8	26	3	6	51	-10	0	-2	0	4	4	2	2	0	4
Hungry_Donkey_bar_English_2	106	3	<?xml version="1.0"?>\n<Clock xmlns:dt="urn:schemas-microsoft-com:datatypes"><Description dt:dt="string">E-Prime Primary Realtime Clock</Description><StartTime><Timestamp dt:dt="int">0</Timestamp><DateUtc dt:dt="string">2015-06-04T22:04:16Z</DateUtc></StartTime><FrequencyChanges><FrequencyChange><Frequency dt:dt="r8">3507675</Frequency><Timestamp dt:dt="r8">321925983</Timestamp><Current dt:dt="r8">0</Current><DateUtc dt:dt="string">2015-06-04T22:04:16Z</DateUtc></FrequencyChange></FrequencyChanges></Clock>\n	Hungry_Donkey_bar_English_2-106-3	60.018	-65	1.0.0.18	1	322616436	Standard	2.0.10.353	2.0.10.353	06-04-2015		18:04:16	2.0.10.248	52	Bar63-37.bmp	58	1	?	12r_4g.bmp	0r_4g.bmp	3r_2g.bmp	0r_2g.bmp	12r_4g.bmp				TrialProc	TrialList	0	cvbn	-999999	16	1837899	0	c	193	1838092	166	-122	44	-20	30	8	26	5	6	52	-12	0	-3	0	4	4	2	2	-12	4
Hungry_Donkey_bar_English_2	106	3	<?xml version="1.0"?>\n<Clock xmlns:dt="urn:schemas-microsoft-com:datatypes"><Description dt:dt="string">E-Prime Primary Realtime Clock</Description><StartTime><Timestamp dt:dt="int">0</Timestamp><DateUtc dt:dt="string">2015-06-04T22:04:16Z</DateUtc></StartTime><FrequencyChanges><FrequencyChange><Frequency dt:dt="r8">3507675</Frequency><Timestamp dt:dt="r8">321925983</Timestamp><Current dt:dt="r8">0</Current><DateUtc dt:dt="string">2015-06-04T22:04:16Z</DateUtc></FrequencyChange></FrequencyChanges></Clock>\n	Hungry_Donkey_bar_English_2-106-3	60.018	-65	1.0.0.18	1	322616436	Standard	2.0.10.353	2.0.10.353	06-04-2015		18:04:16	2.0.10.248	53	Bar63-37.bmp	58	4	?	0r_4g.bmp	0r_4g.bmp	0r_2g.bmp	0r_2g.bmp				0r_2g.bmp	TrialProc	TrialList	0	cvbn	-999999	16	1840132	0	n	200	1840332	168	-122	46	-20	30	8	28	8	6	53	0	0	0	0	4	4	2	2	0	2
Hungry_Donkey_bar_English_2	106	3	<?xml version="1.0"?>\n<Clock xmlns:dt="urn:schemas-microsoft-com:datatypes"><Description dt:dt="string">E-Prime Primary Realtime Clock</Description><StartTime><Timestamp dt:dt="int">0</Timestamp><DateUtc dt:dt="string">2015-06-04T22:04:16Z</DateUtc></StartTime><FrequencyChanges><FrequencyChange><Frequency dt:dt="r8">3507675</Frequency><Timestamp dt:dt="r8">321925983</Timestamp><Current dt:dt="r8">0</Current><DateUtc dt:dt="string">2015-06-04T22:04:16Z</DateUtc></FrequencyChange></FrequencyChanges></Clock>\n	Hungry_Donkey_bar_English_2-106-3	60.018	-65	1.0.0.18	1	322616436	Standard	2.0.10.353	2.0.10.353	06-04-2015		18:04:16	2.0.10.248	54	Bar63-37.bmp	58	3	?	8r_4g.bmp	50r_4g.bmp	1r_2g.bmp	10r_2g.bmp			1r_2g.bmp		TrialProc	TrialList	0	cvbn	-999999	16	1842365	0	b	463	1842828	170	-123	47	-20	30	9	28	1	6	54	-8	-50	-1	-10	4	4	2	2	-1	2
Hungry_Donkey_bar_English_2	106	3	<?xml version="1.0"?>\n<Clock xmlns:dt="urn:schemas-microsoft-com:datatypes"><Description dt:dt="string">E-Prime Primary Realtime Clock</Description><StartTime><Timestamp dt:dt="int">0</Timestamp><DateUtc dt:dt="string">2015-06-04T22:04:16Z</DateUtc></StartTime><FrequencyChanges><FrequencyChange><Frequency dt:dt="r8">3507675</Frequency><Timestamp dt:dt="r8">321925983</Timestamp><Current dt:dt="r8">0</Current><DateUtc dt:dt="string">2015-06-04T22:04:16Z</DateUtc></FrequencyChange></FrequencyChanges></Clock>\n	Hungry_Donkey_bar_English_2-106-3	60.018	-65	1.0.0.18	1	322616436	Standard	2.0.10.353	2.0.10.353	06-04-2015		18:04:16	2.0.10.248	55	Bar63-37.bmp	59	2	?	0r_4g.bmp	0r_4g.bmp	0r_2g.bmp	0r_2g.bmp		0r_4g.bmp			TrialProc	TrialList	0	cvbn	-999999	16	1844864	0	v	380	1845244	174	-123	51	-20	34	9	28	10	6	55	0	0	0	0	4	4	2	2	0	4
Hungry_Donkey_bar_English_2	106	3	<?xml version="1.0"?>\n<Clock xmlns:dt="urn:schemas-microsoft-com:datatypes"><Description dt:dt="string">E-Prime Primary Realtime Clock</Description><StartTime><Timestamp dt:dt="int">0</Timestamp><DateUtc dt:dt="string">2015-06-04T22:04:16Z</DateUtc></StartTime><FrequencyChanges><FrequencyChange><Frequency dt:dt="r8">3507675</Frequency><Timestamp dt:dt="r8">321925983</Timestamp><Current dt:dt="r8">0</Current><DateUtc dt:dt="string">2015-06-04T22:04:16Z</DateUtc></FrequencyChange></FrequencyChanges></Clock>\n	Hungry_Donkey_bar_English_2-106-3	60.018	-65	1.0.0.18	1	322616436	Standard	2.0.10.353	2.0.10.353	06-04-2015		18:04:16	2.0.10.248	56	Bar63-37.bmp	57	1	?	10r_4g.bmp	0r_4g.bmp	2r_2g.bmp	0r_2g.bmp	10r_4g.bmp				TrialProc	TrialList	0	cvbn	-999999	16	1847280	0	c	236	1847516	178	-133	45	-26	34	9	28	4	6	56	-10	0	-2	0	4	4	2	2	-10	4
Hungry_Donkey_bar_English_2	106	3	<?xml version="1.0"?>\n<Clock xmlns:dt="urn:schemas-microsoft-com:datatypes"><Description dt:dt="string">E-Prime Primary Realtime Clock</Description><StartTime><Timestamp dt:dt="int">0</Timestamp><DateUtc dt:dt="string">2015-06-04T22:04:16Z</DateUtc></StartTime><FrequencyChanges><FrequencyChange><Frequency dt:dt="r8">3507675</Frequency><Timestamp dt:dt="r8">321925983</Timestamp><Current dt:dt="r8">0</Current><DateUtc dt:dt="string">2015-06-04T22:04:16Z</DateUtc></FrequencyChange></FrequencyChanges></Clock>\n	Hungry_Donkey_bar_English_2-106-3	60.018	-65	1.0.0.18	1	322616436	Standard	2.0.10.353	2.0.10.353	06-04-2015		18:04:16	2.0.10.248	57	Bar63-37.bmp	58	4	?	0r_4g.bmp	0r_4g.bmp	0r_2g.bmp	0r_2g.bmp				0r_2g.bmp	TrialProc	TrialList	0	cvbn	-999999	16	1849546	0	n	210	1849756	180	-133	47	-26	34	9	30	6	6	57	0	0	0	0	4	4	2	2	0	2
Hungry_Donkey_bar_English_2	106	3	<?xml version="1.0"?>\n<Clock xmlns:dt="urn:schemas-microsoft-com:datatypes"><Description dt:dt="string">E-Prime Primary Realtime Clock</Description><StartTime><Timestamp dt:dt="int">0</Timestamp><DateUtc dt:dt="string">2015-06-04T22:04:16Z</DateUtc></StartTime><FrequencyChanges><FrequencyChange><Frequency dt:dt="r8">3507675</Frequency><Timestamp dt:dt="r8">321925983</Timestamp><Current dt:dt="r8">0</Current><DateUtc dt:dt="string">2015-06-04T22:04:16Z</DateUtc></FrequencyChange></FrequencyChanges></Clock>\n	Hungry_Donkey_bar_English_2-106-3	60.018	-65	1.0.0.18	1	322616436	Standard	2.0.10.353	2.0.10.353	06-04-2015		18:04:16	2.0.10.248	58	Bar63-37.bmp	58	4	?	0r_4g.bmp	0r_4g.bmp	0r_2g.bmp	0r_2g.bmp				0r_2g.bmp	TrialProc	TrialList	0	cvbn	-999999	16	1851779	0	n	457	1852236	182	-133	49	-26	34	9	32	7	6	58	0	0	0	0	4	4	2	2	0	2
Hungry_Donkey_bar_English_2	106	3	<?xml version="1.0"?>\n<Clock xmlns:dt="urn:schemas-microsoft-com:datatypes"><Description dt:dt="string">E-Prime Primary Realtime Clock</Description><StartTime><Timestamp dt:dt="int">0</Timestamp><DateUtc dt:dt="string">2015-06-04T22:04:16Z</DateUtc></StartTime><FrequencyChanges><FrequencyChange><Frequency dt:dt="r8">3507675</Frequency><Timestamp dt:dt="r8">321925983</Timestamp><Current dt:dt="r8">0</Current><DateUtc dt:dt="string">2015-06-04T22:04:16Z</DateUtc></FrequencyChange></FrequencyChanges></Clock>\n	Hungry_Donkey_bar_English_2-106-3	60.018	-65	1.0.0.18	1	322616436	Standard	2.0.10.353	2.0.10.353	06-04-2015		18:04:16	2.0.10.248	59	Bar63-37.bmp	58	4	?	0r_4g.bmp	0r_4g.bmp	0r_2g.bmp	0r_2g.bmp				0r_2g.bmp	TrialProc	TrialList	0	cvbn	-999999	16	1854261	0	n	535	1854796	184	-133	51	-26	34	9	34	9	6	59	0	0	0	0	4	4	2	2	0	2
Hungry_Donkey_bar_English_2	106	3	<?xml version="1.0"?>\n<Clock xmlns:dt="urn:schemas-microsoft-com:datatypes"><Description dt:dt="string">E-Prime Primary Realtime Clock</Description><StartTime><Timestamp dt:dt="int">0</Timestamp><DateUtc dt:dt="string">2015-06-04T22:04:16Z</DateUtc></StartTime><FrequencyChanges><FrequencyChange><Frequency dt:dt="r8">3507675</Frequency><Timestamp dt:dt="r8">321925983</Timestamp><Current dt:dt="r8">0</Current><DateUtc dt:dt="string">2015-06-04T22:04:16Z</DateUtc></FrequencyChange></FrequencyChanges></Clock>\n	Hungry_Donkey_bar_English_2-106-3	60.018	-65	1.0.0.18	1	322616436	Standard	2.0.10.353	2.0.10.353	06-04-2015		18:04:16	2.0.10.248	60	Bar63-37.bmp	59	2	?	10r_4g.bmp	0r_4g.bmp	2r_2g.bmp	0r_2g.bmp		0r_4g.bmp			TrialProc	TrialList	0	cvbn	-999999	16	1856827	0	v	273	1857100	188	-133	55	-26	38	9	34	2	6	60	-10	0	-2	0	4	4	2	2	0	4
Hungry_Donkey_bar_English_2	106	3	<?xml version="1.0"?>\n<Clock xmlns:dt="urn:schemas-microsoft-com:datatypes"><Description dt:dt="string">E-Prime Primary Realtime Clock</Description><StartTime><Timestamp dt:dt="int">0</Timestamp><DateUtc dt:dt="string">2015-06-04T22:04:16Z</DateUtc></StartTime><FrequencyChanges><FrequencyChange><Frequency dt:dt="r8">3507675</Frequency><Timestamp dt:dt="r8">321925983</Timestamp><Current dt:dt="r8">0</Current><DateUtc dt:dt="string">2015-06-04T22:04:16Z</DateUtc></FrequencyChange></FrequencyChanges></Clock>\n	Hungry_Donkey_bar_English_2-106-3	60.018	-65	1.0.0.18	1	322616436	Standard	2.0.10.353	2.0.10.353	06-04-2015		18:04:16	2.0.10.248	61	Bar63-37.bmp	57	1	?	10r_4g.bmp	0r_4g.bmp	2r_2g.bmp	0r_2g.bmp	10r_4g.bmp				TrialProc	TrialList	0	cvbn	-999999	17	1859127	0	c	292	1859419	192	-143	49	-32	38	9	34	3	7	61	-10	0	-2	0	4	4	2	2	-10	4
Hungry_Donkey_bar_English_2	106	3	<?xml version="1.0"?>\n<Clock xmlns:dt="urn:schemas-microsoft-com:datatypes"><Description dt:dt="string">E-Prime Primary Realtime Clock</Description><StartTime><Timestamp dt:dt="int">0</Timestamp><DateUtc dt:dt="string">2015-06-04T22:04:16Z</DateUtc></StartTime><FrequencyChanges><FrequencyChange><Frequency dt:dt="r8">3507675</Frequency><Timestamp dt:dt="r8">321925983</Timestamp><Current dt:dt="r8">0</Current><DateUtc dt:dt="string">2015-06-04T22:04:16Z</DateUtc></FrequencyChange></FrequencyChanges></Clock>\n	Hungry_Donkey_bar_English_2-106-3	60.018	-65	1.0.0.18	1	322616436	Standard	2.0.10.353	2.0.10.353	06-04-2015		18:04:16	2.0.10.248	62	Bar63-37.bmp	58	3	?	0r_4g.bmp	0r_4g.bmp	0r_2g.bmp	0r_2g.bmp			0r_2g.bmp		TrialProc	TrialList	0	cvbn	-999999	16	1861443	0	b	264	1861707	194	-143	51	-32	38	11	34	8	7	62	0	0	0	0	4	4	2	2	0	2
Hungry_Donkey_bar_English_2	106	3	<?xml version="1.0"?>\n<Clock xmlns:dt="urn:schemas-microsoft-com:datatypes"><Description dt:dt="string">E-Prime Primary Realtime Clock</Description><StartTime><Timestamp dt:dt="int">0</Timestamp><DateUtc dt:dt="string">2015-06-04T22:04:16Z</DateUtc></StartTime><FrequencyChanges><FrequencyChange><Frequency dt:dt="r8">3507675</Frequency><Timestamp dt:dt="r8">321925983</Timestamp><Current dt:dt="r8">0</Current><DateUtc dt:dt="string">2015-06-04T22:04:16Z</DateUtc></FrequencyChange></FrequencyChanges></Clock>\n	Hungry_Donkey_bar_English_2-106-3	60.018	-65	1.0.0.18	1	322616436	Standard	2.0.10.353	2.0.10.353	06-04-2015		18:04:16	2.0.10.248	63	Bar63-37.bmp	58	4	?	0r_4g.bmp	0r_4g.bmp	0r_2g.bmp	0r_2g.bmp				0r_2g.bmp	TrialProc	TrialList	0	cvbn	-999999	16	1863742	0	n	317	1864059	196	-143	53	-32	38	11	36	6	7	63	0	0	0	0	4	4	2	2	0	2
Hungry_Donkey_bar_English_2	106	3	<?xml version="1.0"?>\n<Clock xmlns:dt="urn:schemas-microsoft-com:datatypes"><Description dt:dt="string">E-Prime Primary Realtime Clock</Description><StartTime><Timestamp dt:dt="int">0</Timestamp><DateUtc dt:dt="string">2015-06-04T22:04:16Z</DateUtc></StartTime><FrequencyChanges><FrequencyChange><Frequency dt:dt="r8">3507675</Frequency><Timestamp dt:dt="r8">321925983</Timestamp><Current dt:dt="r8">0</Current><DateUtc dt:dt="string">2015-06-04T22:04:16Z</DateUtc></FrequencyChange></FrequencyChanges></Clock>\n	Hungry_Donkey_bar_English_2-106-3	60.018	-65	1.0.0.18	1	322616436	Standard	2.0.10.353	2.0.10.353	06-04-2015		18:04:16	2.0.10.248	64	Bar63-37.bmp	58	3	?	0r_4g.bmp	0r_4g.bmp	0r_2g.bmp	0r_2g.bmp			0r_2g.bmp		TrialProc	TrialList	0	cvbn	-999999	16	1866091	0	b	304	1866395	198	-143	55	-32	38	13	36	9	7	64	0	0	0	0	4	4	2	2	0	2
Hungry_Donkey_bar_English_2	106	3	<?xml version="1.0"?>\n<Clock xmlns:dt="urn:schemas-microsoft-com:datatypes"><Description dt:dt="string">E-Prime Primary Realtime Clock</Description><StartTime><Timestamp dt:dt="int">0</Timestamp><DateUtc dt:dt="string">2015-06-04T22:04:16Z</DateUtc></StartTime><FrequencyChanges><FrequencyChange><Frequency dt:dt="r8">3507675</Frequency><Timestamp dt:dt="r8">321925983</Timestamp><Current dt:dt="r8">0</Current><DateUtc dt:dt="string">2015-06-04T22:04:16Z</DateUtc></FrequencyChange></FrequencyChanges></Clock>\n	Hungry_Donkey_bar_English_2-106-3	60.018	-65	1.0.0.18	1	322616436	Standard	2.0.10.353	2.0.10.353	06-04-2015		18:04:16	2.0.10.248	65	Bar63-37.bmp	59	2	?	0r_4g.bmp	0r_4g.bmp	0r_2g.bmp	0r_2g.bmp		0r_4g.bmp			TrialProc	TrialList	0	cvbn	-999999	16	1868424	0	v	243	1868667	202	-143	59	-32	42	13	36	10	7	65	0	0	0	0	4	4	2	2	0	4
Hungry_Donkey_bar_English_2	106	3	<?xml version="1.0"?>\n<Clock xmlns:dt="urn:schemas-microsoft-com:datatypes"><Description dt:dt="string">E-Prime Primary Realtime Clock</Description><StartTime><Timestamp dt:dt="int">0</Timestamp><DateUtc dt:dt="string">2015-06-04T22:04:16Z</DateUtc></StartTime><FrequencyChanges><FrequencyChange><Frequency dt:dt="r8">3507675</Frequency><Timestamp dt:dt="r8">321925983</Timestamp><Current dt:dt="r8">0</Current><DateUtc dt:dt="string">2015-06-04T22:04:16Z</DateUtc></FrequencyChange></FrequencyChanges></Clock>\n	Hungry_Donkey_bar_English_2-106-3	60.018	-65	1.0.0.18	1	322616436	Standard	2.0.10.353	2.0.10.353	06-04-2015		18:04:16	2.0.10.248	66	Bar63-37.bmp	57	1	?	10r_4g.bmp	0r_4g.bmp	2r_2g.bmp	0r_2g.bmp	10r_4g.bmp				TrialProc	TrialList	0	cvbn	-999999	17	1870707	0	c	328	1871035	206	-153	53	-38	42	13	36	2	7	66	-10	0	-2	0	4	4	2	2	-10	4
Hungry_Donkey_bar_English_2	106	3	<?xml version="1.0"?>\n<Clock xmlns:dt="urn:schemas-microsoft-com:datatypes"><Description dt:dt="string">E-Prime Primary Realtime Clock</Description><StartTime><Timestamp dt:dt="int">0</Timestamp><DateUtc dt:dt="string">2015-06-04T22:04:16Z</DateUtc></StartTime><FrequencyChanges><FrequencyChange><Frequency dt:dt="r8">3507675</Frequency><Timestamp dt:dt="r8">321925983</Timestamp><Current dt:dt="r8">0</Current><DateUtc dt:dt="string">2015-06-04T22:04:16Z</DateUtc></FrequencyChange></FrequencyChanges></Clock>\n	Hungry_Donkey_bar_English_2-106-3	60.018	-65	1.0.0.18	1	322616436	Standard	2.0.10.353	2.0.10.353	06-04-2015		18:04:16	2.0.10.248	67	Bar63-37.bmp	58	4	?	10r_4g.bmp	0r_4g.bmp	2r_2g.bmp	0r_2g.bmp				0r_2g.bmp	TrialProc	TrialList	0	cvbn	-999999	17	1873073	0	n	474	1873547	208	-153	55	-38	42	13	38	4	7	67	-10	0	-2	0	4	4	2	2	0	2
Hungry_Donkey_bar_English_2	106	3	<?xml version="1.0"?>\n<Clock xmlns:dt="urn:schemas-microsoft-com:datatypes"><Description dt:dt="string">E-Prime Primary Realtime Clock</Description><StartTime><Timestamp dt:dt="int">0</Timestamp><DateUtc dt:dt="string">2015-06-04T22:04:16Z</DateUtc></StartTime><FrequencyChanges><FrequencyChange><Frequency dt:dt="r8">3507675</Frequency><Timestamp dt:dt="r8">321925983</Timestamp><Current dt:dt="r8">0</Current><DateUtc dt:dt="string">2015-06-04T22:04:16Z</DateUtc></FrequencyChange></FrequencyChanges></Clock>\n	Hungry_Donkey_bar_English_2-106-3	60.018	-65	1.0.0.18	1	322616436	Standard	2.0.10.353	2.0.10.353	06-04-2015		18:04:16	2.0.10.248	68	Bar50-50.bmp	56	1	?	12r_4g.bmp	0r_4g.bmp	3r_2g.bmp	0r_2g.bmp	12r_4g.bmp				TrialProc	TrialList	0	cvbn	-999999	16	1875572	0	c	23	1875595	212	-165	47	-46	42	13	38	5	7	68	-12	0	-3	0	4	4	2	2	-12	4
Hungry_Donkey_bar_English_2	106	3	<?xml version="1.0"?>\n<Clock xmlns:dt="urn:schemas-microsoft-com:datatypes"><Description dt:dt="string">E-Prime Primary Realtime Clock</Description><StartTime><Timestamp dt:dt="int">0</Timestamp><DateUtc dt:dt="string">2015-06-04T22:04:16Z</DateUtc></StartTime><FrequencyChanges><FrequencyChange><Frequency dt:dt="r8">3507675</Frequency><Timestamp dt:dt="r8">321925983</Timestamp><Current dt:dt="r8">0</Current><DateUtc dt:dt="string">2015-06-04T22:04:16Z</DateUtc></FrequencyChange></FrequencyChanges></Clock>\n	Hungry_Donkey_bar_English_2-106-3	60.018	-65	1.0.0.18	1	322616436	Standard	2.0.10.353	2.0.10.353	06-04-2015		18:04:16	2.0.10.248	69	Bar50-50.bmp	50	2	?	8r_4g.bmp	50r_4g.bmp	1r_2g.bmp	10r_2g.bmp		50r_4g.bmp			TrialProc	TrialList	0	cvbn	-999999	16	1877621	0	v	486	1878107	216	-215	1	-46	-4	13	38	1	7	69	-8	-50	-1	-10	4	4	2	2	-50	4
Hungry_Donkey_bar_English_2	106	3	<?xml version="1.0"?>\n<Clock xmlns:dt="urn:schemas-microsoft-com:datatypes"><Description dt:dt="string">E-Prime Primary Realtime Clock</Description><StartTime><Timestamp dt:dt="int">0</Timestamp><DateUtc dt:dt="string">2015-06-04T22:04:16Z</DateUtc></StartTime><FrequencyChanges><FrequencyChange><Frequency dt:dt="r8">3507675</Frequency><Timestamp dt:dt="r8">321925983</Timestamp><Current dt:dt="r8">0</Current><DateUtc dt:dt="string">2015-06-04T22:04:16Z</DateUtc></FrequencyChange></FrequencyChanges></Clock>\n	Hungry_Donkey_bar_English_2-106-3	60.018	-65	1.0.0.18	1	322616436	Standard	2.0.10.353	2.0.10.353	06-04-2015		18:04:16	2.0.10.248	70	Bar50-50.bmp	50	3	?	0r_4g.bmp	0r_4g.bmp	0r_2g.bmp	0r_2g.bmp			0r_2g.bmp		TrialProc	TrialList	0	cvbn	-999999	16	1880137	0	b	1249	1881386	218	-215	3	-46	-4	15	38	7	7	70	0	0	0	0	4	4	2	2	0	2
Hungry_Donkey_bar_English_2	106	3	<?xml version="1.0"?>\n<Clock xmlns:dt="urn:schemas-microsoft-com:datatypes"><Description dt:dt="string">E-Prime Primary Realtime Clock</Description><StartTime><Timestamp dt:dt="int">0</Timestamp><DateUtc dt:dt="string">2015-06-04T22:04:16Z</DateUtc></StartTime><FrequencyChanges><FrequencyChange><Frequency dt:dt="r8">3507675</Frequency><Timestamp dt:dt="r8">321925983</Timestamp><Current dt:dt="r8">0</Current><DateUtc dt:dt="string">2015-06-04T22:04:16Z</DateUtc></FrequencyChange></FrequencyChanges></Clock>\n	Hungry_Donkey_bar_English_2-106-3	60.018	-65	1.0.0.18	1	322616436	Standard	2.0.10.353	2.0.10.353	06-04-2015		18:04:16	2.0.10.248	71	Bar50-50.bmp	51	4	?	0r_4g.bmp	0r_4g.bmp	0r_2g.bmp	0r_2g.bmp				0r_2g.bmp	TrialProc	TrialList	0	cvbn	-999999	16	1883420	0	n	350	1883770	220	-215	5	-46	-4	15	40	7	8	71	0	0	0	0	4	4	2	2	0	2
Hungry_Donkey_bar_English_2	106	3	<?xml version="1.0"?>\n<Clock xmlns:dt="urn:schemas-microsoft-com:datatypes"><Description dt:dt="string">E-Prime Primary Realtime Clock</Description><StartTime><Timestamp dt:dt="int">0</Timestamp><DateUtc dt:dt="string">2015-06-04T22:04:16Z</DateUtc></StartTime><FrequencyChanges><FrequencyChange><Frequency dt:dt="r8">3507675</Frequency><Timestamp dt:dt="r8">321925983</Timestamp><Current dt:dt="r8">0</Current><DateUtc dt:dt="string">2015-06-04T22:04:16Z</DateUtc></FrequencyChange></FrequencyChanges></Clock>\n	Hungry_Donkey_bar_English_2-106-3	60.018	-65	1.0.0.18	1	322616436	Standard	2.0.10.353	2.0.10.353	06-04-2015		18:04:16	2.0.10.248	72	Bar50-50.bmp	51	1	?	0r_4g.bmp	0r_4g.bmp	0r_2g.bmp	0r_2g.bmp	0r_4g.bmp				TrialProc	TrialList	0	cvbn	-999999	16	1885802	0	c	224	1886026	224	-215	9	-42	-4	15	40	10	8	72	0	0	0	0	4	4	2	2	0	4
Hungry_Donkey_bar_English_2	106	3	<?xml version="1.0"?>\n<Clock xmlns:dt="urn:schemas-microsoft-com:datatypes"><Description dt:dt="string">E-Prime Primary Realtime Clock</Description><StartTime><Timestamp dt:dt="int">0</Timestamp><DateUtc dt:dt="string">2015-06-04T22:04:16Z</DateUtc></StartTime><FrequencyChanges><FrequencyChange><Frequency dt:dt="r8">3507675</Frequency><Timestamp dt:dt="r8">321925983</Timestamp><Current dt:dt="r8">0</Current><DateUtc dt:dt="string">2015-06-04T22:04:16Z</DateUtc></FrequencyChange></FrequencyChanges></Clock>\n	Hungry_Donkey_bar_English_2-106-3	60.018	-65	1.0.0.18	1	322616436	Standard	2.0.10.353	2.0.10.353	06-04-2015		18:04:16	2.0.10.248	73	Bar50-50.bmp	51	2	?	10r_4g.bmp	0r_4g.bmp	2r_2g.bmp	0r_2g.bmp		0r_4g.bmp			TrialProc	TrialList	0	cvbn	-999999	16	1888052	0	v	470	1888522	228	-215	13	-42	0	15	40	2	8	73	-10	0	-2	0	4	4	2	2	0	4
Hungry_Donkey_bar_English_2	106	3	<?xml version="1.0"?>\n<Clock xmlns:dt="urn:schemas-microsoft-com:datatypes"><Description dt:dt="string">E-Prime Primary Realtime Clock</Description><StartTime><Timestamp dt:dt="int">0</Timestamp><DateUtc dt:dt="string">2015-06-04T22:04:16Z</DateUtc></StartTime><FrequencyChanges><FrequencyChange><Frequency dt:dt="r8">3507675</Frequency><Timestamp dt:dt="r8">321925983</Timestamp><Current dt:dt="r8">0</Current><DateUtc dt:dt="string">2015-06-04T22:04:16Z</DateUtc></FrequencyChange></FrequencyChanges></Clock>\n	Hungry_Donkey_bar_English_2-106-3	60.018	-65	1.0.0.18	1	322616436	Standard	2.0.10.353	2.0.10.353	06-04-2015		18:04:16	2.0.10.248	74	Bar50-50.bmp	52	4	?	0r_4g.bmp	0r_4g.bmp	0r_2g.bmp	0r_2g.bmp				0r_2g.bmp	TrialProc	TrialList	0	cvbn	-999999	16	1890551	0	n	163	1890714	230	-215	15	-42	0	15	42	6	8	74	0	0	0	0	4	4	2	2	0	2
Hungry_Donkey_bar_English_2	106	3	<?xml version="1.0"?>\n<Clock xmlns:dt="urn:schemas-microsoft-com:datatypes"><Description dt:dt="string">E-Prime Primary Realtime Clock</Description><StartTime><Timestamp dt:dt="int">0</Timestamp><DateUtc dt:dt="string">2015-06-04T22:04:16Z</DateUtc></StartTime><FrequencyChanges><FrequencyChange><Frequency dt:dt="r8">3507675</Frequency><Timestamp dt:dt="r8">321925983</Timestamp><Current dt:dt="r8">0</Current><DateUtc dt:dt="string">2015-06-04T22:04:16Z</DateUtc></FrequencyChange></FrequencyChanges></Clock>\n	Hungry_Donkey_bar_English_2-106-3	60.018	-65	1.0.0.18	1	322616436	Standard	2.0.10.353	2.0.10.353	06-04-2015		18:04:16	2.0.10.248	75	Bar50-50.bmp	52	3	?	10r_4g.bmp	0r_4g.bmp	2r_2g.bmp	0r_2g.bmp			2r_2g.bmp		TrialProc	TrialList	0	cvbn	-999999	16	1892750	0	b	252	1893002	232	-217	15	-42	0	15	42	4	8	75	-10	0	-2	0	4	4	2	2	-2	2
Hungry_Donkey_bar_English_2	106	3	<?xml version="1.0"?>\n<Clock xmlns:dt="urn:schemas-microsoft-com:datatypes"><Description dt:dt="string">E-Prime Primary Realtime Clock</Description><StartTime><Timestamp dt:dt="int">0</Timestamp><DateUtc dt:dt="string">2015-06-04T22:04:16Z</DateUtc></StartTime><FrequencyChanges><FrequencyChange><Frequency dt:dt="r8">3507675</Frequency><Timestamp dt:dt="r8">321925983</Timestamp><Current dt:dt="r8">0</Current><DateUtc dt:dt="string">2015-06-04T22:04:16Z</DateUtc></FrequencyChange></FrequencyChanges></Clock>\n	Hungry_Donkey_bar_English_2-106-3	60.018	-65	1.0.0.18	1	322616436	Standard	2.0.10.353	2.0.10.353	06-04-2015		18:04:16	2.0.10.248	76	Bar50-50.bmp	51	1	?	10r_4g.bmp	0r_4g.bmp	2r_2g.bmp	0r_2g.bmp	10r_4g.bmp				TrialProc	TrialList	0	cvbn	-999999	16	1895033	0	c	161	1895194	236	-227	9	-48	0	15	42	3	8	76	-10	0	-2	0	4	4	2	2	-10	4
Hungry_Donkey_bar_English_2	106	3	<?xml version="1.0"?>\n<Clock xmlns:dt="urn:schemas-microsoft-com:datatypes"><Description dt:dt="string">E-Prime Primary Realtime Clock</Description><StartTime><Timestamp dt:dt="int">0</Timestamp><DateUtc dt:dt="string">2015-06-04T22:04:16Z</DateUtc></StartTime><FrequencyChanges><FrequencyChange><Frequency dt:dt="r8">3507675</Frequency><Timestamp dt:dt="r8">321925983</Timestamp><Current dt:dt="r8">0</Current><DateUtc dt:dt="string">2015-06-04T22:04:16Z</DateUtc></FrequencyChange></FrequencyChanges></Clock>\n	Hungry_Donkey_bar_English_2-106-3	60.018	-65	1.0.0.18	1	322616436	Standard	2.0.10.353	2.0.10.353	06-04-2015		18:04:16	2.0.10.248	77	Bar50-50.bmp	51	3	?	0r_4g.bmp	0r_4g.bmp	0r_2g.bmp	0r_2g.bmp			0r_2g.bmp		TrialProc	TrialList	0	cvbn	-999999	16	1897232	0	b	346	1897578	238	-227	11	-48	0	17	42	8	8	77	0	0	0	0	4	4	2	2	0	2
Hungry_Donkey_bar_English_2	106	3	<?xml version="1.0"?>\n<Clock xmlns:dt="urn:schemas-microsoft-com:datatypes"><Description dt:dt="string">E-Prime Primary Realtime Clock</Description><StartTime><Timestamp dt:dt="int">0</Timestamp><DateUtc dt:dt="string">2015-06-04T22:04:16Z</DateUtc></StartTime><FrequencyChanges><FrequencyChange><Frequency dt:dt="r8">3507675</Frequency><Timestamp dt:dt="r8">321925983</Timestamp><Current dt:dt="r8">0</Current><DateUtc dt:dt="string">2015-06-04T22:04:16Z</DateUtc></FrequencyChange></FrequencyChanges></Clock>\n	Hungry_Donkey_bar_English_2-106-3	60.018	-65	1.0.0.18	1	322616436	Standard	2.0.10.353	2.0.10.353	06-04-2015		18:04:16	2.0.10.248	78	Bar50-50.bmp	52	2	?	12r_4g.bmp	0r_4g.bmp	3r_2g.bmp	0r_2g.bmp		0r_4g.bmp			TrialProc	TrialList	0	cvbn	-999999	16	1899615	0	v	235	1899850	242	-227	15	-48	4	17	42	5	8	78	-12	0	-3	0	4	4	2	2	0	4
Hungry_Donkey_bar_English_2	106	3	<?xml version="1.0"?>\n<Clock xmlns:dt="urn:schemas-microsoft-com:datatypes"><Description dt:dt="string">E-Prime Primary Realtime Clock</Description><StartTime><Timestamp dt:dt="int">0</Timestamp><DateUtc dt:dt="string">2015-06-04T22:04:16Z</DateUtc></StartTime><FrequencyChanges><FrequencyChange><Frequency dt:dt="r8">3507675</Frequency><Timestamp dt:dt="r8">321925983</Timestamp><Current dt:dt="r8">0</Current><DateUtc dt:dt="string">2015-06-04T22:04:16Z</DateUtc></FrequencyChange></FrequencyChanges></Clock>\n	Hungry_Donkey_bar_English_2-106-3	60.018	-65	1.0.0.18	1	322616436	Standard	2.0.10.353	2.0.10.353	06-04-2015		18:04:16	2.0.10.248	79	Bar50-50.bmp	52	2	?	0r_4g.bmp	0r_4g.bmp	0r_2g.bmp	0r_2g.bmp		0r_4g.bmp			TrialProc	TrialList	0	cvbn	-999999	16	1901881	0	v	192	1902073	246	-227	19	-48	8	17	42	9	8	79	0	0	0	0	4	4	2	2	0	4
Hungry_Donkey_bar_English_2	106	3	<?xml version="1.0"?>\n<Clock xmlns:dt="urn:schemas-microsoft-com:datatypes"><Description dt:dt="string">E-Prime Primary Realtime Clock</Description><StartTime><Timestamp dt:dt="int">0</Timestamp><DateUtc dt:dt="string">2015-06-04T22:04:16Z</DateUtc></StartTime><FrequencyChanges><FrequencyChange><Frequency dt:dt="r8">3507675</Frequency><Timestamp dt:dt="r8">321925983</Timestamp><Current dt:dt="r8">0</Current><DateUtc dt:dt="string">2015-06-04T22:04:16Z</DateUtc></FrequencyChange></FrequencyChanges></Clock>\n	Hungry_Donkey_bar_English_2-106-3	60.018	-65	1.0.0.18	1	322616436	Standard	2.0.10.353	2.0.10.353	06-04-2015		18:04:16	2.0.10.248	80	Bar50-50.bmp	47	2	?	8r_4g.bmp	50r_4g.bmp	1r_2g.bmp	10r_2g.bmp		50r_4g.bmp			TrialProc	TrialList	0	cvbn	-999999	16	1904114	0	v	247	1904361	250	-277	-27	-48	-38	17	42	1	8	80	-8	-50	-1	-10	4	4	2	2	-50	4
Hungry_Donkey_bar_English_2	106	3	<?xml version="1.0"?>\n<Clock xmlns:dt="urn:schemas-microsoft-com:datatypes"><Description dt:dt="string">E-Prime Primary Realtime Clock</Description><StartTime><Timestamp dt:dt="int">0</Timestamp><DateUtc dt:dt="string">2015-06-04T22:04:16Z</DateUtc></StartTime><FrequencyChanges><FrequencyChange><Frequency dt:dt="r8">3507675</Frequency><Timestamp dt:dt="r8">321925983</Timestamp><Current dt:dt="r8">0</Current><DateUtc dt:dt="string">2015-06-04T22:04:16Z</DateUtc></FrequencyChange></FrequencyChanges></Clock>\n	Hungry_Donkey_bar_English_2-106-3	60.018	-65	1.0.0.18	1	322616436	Standard	2.0.10.353	2.0.10.353	06-04-2015		18:04:16	2.0.10.248	81	Bar50-50.bmp	48	4	?	0r_4g.bmp	0r_4g.bmp	0r_2g.bmp	0r_2g.bmp				0r_2g.bmp	TrialProc	TrialList	0	cvbn	-999999	16	1906396	0	n	381	1906777	252	-277	-25	-48	-38	17	44	8	9	81	0	0	0	0	4	4	2	2	0	2
Hungry_Donkey_bar_English_2	106	3	<?xml version="1.0"?>\n<Clock xmlns:dt="urn:schemas-microsoft-com:datatypes"><Description dt:dt="string">E-Prime Primary Realtime Clock</Description><StartTime><Timestamp dt:dt="int">0</Timestamp><DateUtc dt:dt="string">2015-06-04T22:04:16Z</DateUtc></StartTime><FrequencyChanges><FrequencyChange><Frequency dt:dt="r8">3507675</Frequency><Timestamp dt:dt="r8">321925983</Timestamp><Current dt:dt="r8">0</Current><DateUtc dt:dt="string">2015-06-04T22:04:16Z</DateUtc></FrequencyChange></FrequencyChanges></Clock>\n	Hungry_Donkey_bar_English_2-106-3	60.018	-65	1.0.0.18	1	322616436	Standard	2.0.10.353	2.0.10.353	06-04-2015		18:04:16	2.0.10.248	82	Bar50-50.bmp	48	4	?	10r_4g.bmp	0r_4g.bmp	2r_2g.bmp	0r_2g.bmp				0r_2g.bmp	TrialProc	TrialList	0	cvbn	-999999	16	1908812	0	n	45	1908857	254	-277	-23	-48	-38	17	46	3	9	82	-10	0	-2	0	4	4	2	2	0	2
Hungry_Donkey_bar_English_2	106	3	<?xml version="1.0"?>\n<Clock xmlns:dt="urn:schemas-microsoft-com:datatypes"><Description dt:dt="string">E-Prime Primary Realtime Clock</Description><StartTime><Timestamp dt:dt="int">0</Timestamp><DateUtc dt:dt="string">2015-06-04T22:04:16Z</DateUtc></StartTime><FrequencyChanges><FrequencyChange><Frequency dt:dt="r8">3507675</Frequency><Timestamp dt:dt="r8">321925983</Timestamp><Current dt:dt="r8">0</Current><DateUtc dt:dt="string">2015-06-04T22:04:16Z</DateUtc></FrequencyChange></FrequencyChanges></Clock>\n	Hungry_Donkey_bar_English_2-106-3	60.018	-65	1.0.0.18	1	322616436	Standard	2.0.10.353	2.0.10.353	06-04-2015		18:04:16	2.0.10.248	83	Bar50-50.bmp	47	1	?	10r_4g.bmp	0r_4g.bmp	2r_2g.bmp	0r_2g.bmp	10r_4g.bmp				TrialProc	TrialList	0	cvbn	-999999	16	1910895	0	c	298	1911193	258	-287	-29	-54	-38	17	46	2	9	83	-10	0	-2	0	4	4	2	2	-10	4
Hungry_Donkey_bar_English_2	106	3	<?xml version="1.0"?>\n<Clock xmlns:dt="urn:schemas-microsoft-com:datatypes"><Description dt:dt="string">E-Prime Primary Realtime Clock</Description><StartTime><Timestamp dt:dt="int">0</Timestamp><DateUtc dt:dt="string">2015-06-04T22:04:16Z</DateUtc></StartTime><FrequencyChanges><FrequencyChange><Frequency dt:dt="r8">3507675</Frequency><Timestamp dt:dt="r8">321925983</Timestamp><Current dt:dt="r8">0</Current><DateUtc dt:dt="string">2015-06-04T22:04:16Z</DateUtc></FrequencyChange></FrequencyChanges></Clock>\n	Hungry_Donkey_bar_English_2-106-3	60.018	-65	1.0.0.18	1	322616436	Standard	2.0.10.353	2.0.10.353	06-04-2015		18:04:16	2.0.10.248	84	Bar50-50.bmp	48	3	?	0r_4g.bmp	0r_4g.bmp	0r_2g.bmp	0r_2g.bmp			0r_2g.bmp		TrialProc	TrialList	0	cvbn	-999999	16	1913228	0	b	285	1913513	260	-287	-27	-54	-38	19	46	10	9	84	0	0	0	0	4	4	2	2	0	2
Hungry_Donkey_bar_English_2	106	3	<?xml version="1.0"?>\n<Clock xmlns:dt="urn:schemas-microsoft-com:datatypes"><Description dt:dt="string">E-Prime Primary Realtime Clock</Description><StartTime><Timestamp dt:dt="int">0</Timestamp><DateUtc dt:dt="string">2015-06-04T22:04:16Z</DateUtc></StartTime><FrequencyChanges><FrequencyChange><Frequency dt:dt="r8">3507675</Frequency><Timestamp dt:dt="r8">321925983</Timestamp><Current dt:dt="r8">0</Current><DateUtc dt:dt="string">2015-06-04T22:04:16Z</DateUtc></FrequencyChange></FrequencyChanges></Clock>\n	Hungry_Donkey_bar_English_2-106-3	60.018	-65	1.0.0.18	1	322616436	Standard	2.0.10.353	2.0.10.353	06-04-2015		18:04:16	2.0.10.248	85	Bar50-50.bmp	48	3	?	8r_4g.bmp	50r_4g.bmp	1r_2g.bmp	10r_2g.bmp			1r_2g.bmp		TrialProc	TrialList	0	cvbn	-999999	16	1915544	0	b	577	1916121	262	-288	-26	-54	-38	20	46	1	9	85	-8	-50	-1	-10	4	4	2	2	-1	2
Hungry_Donkey_bar_English_2	106	3	<?xml version="1.0"?>\n<Clock xmlns:dt="urn:schemas-microsoft-com:datatypes"><Description dt:dt="string">E-Prime Primary Realtime Clock</Description><StartTime><Timestamp dt:dt="int">0</Timestamp><DateUtc dt:dt="string">2015-06-04T22:04:16Z</DateUtc></StartTime><FrequencyChanges><FrequencyChange><Frequency dt:dt="r8">3507675</Frequency><Timestamp dt:dt="r8">321925983</Timestamp><Current dt:dt="r8">0</Current><DateUtc dt:dt="string">2015-06-04T22:04:16Z</DateUtc></FrequencyChange></FrequencyChanges></Clock>\n	Hungry_Donkey_bar_English_2-106-3	60.018	-65	1.0.0.18	1	322616436	Standard	2.0.10.353	2.0.10.353	06-04-2015		18:04:16	2.0.10.248	86	Bar50-50.bmp	48	2	?	0r_4g.bmp	0r_4g.bmp	0r_2g.bmp	0r_2g.bmp		0r_4g.bmp			TrialProc	TrialList	0	cvbn	-999999	16	1918160	0	v	297	1918457	266	-288	-22	-54	-34	20	46	6	9	86	0	0	0	0	4	4	2	2	0	4
Hungry_Donkey_bar_English_2	106	3	<?xml version="1.0"?>\n<Clock xmlns:dt="urn:schemas-microsoft-com:datatypes"><Description dt:dt="string">E-Prime Primary Realtime Clock</Description><StartTime><Timestamp dt:dt="int">0</Timestamp><DateUtc dt:dt="string">2015-06-04T22:04:16Z</DateUtc></StartTime><FrequencyChanges><FrequencyChange><Frequency dt:dt="r8">3507675</Frequency><Timestamp dt:dt="r8">321925983</Timestamp><Current dt:dt="r8">0</Current><DateUtc dt:dt="string">2015-06-04T22:04:16Z</DateUtc></FrequencyChange></FrequencyChanges></Clock>\n	Hungry_Donkey_bar_English_2-106-3	60.018	-65	1.0.0.18	1	322616436	Standard	2.0.10.353	2.0.10.353	06-04-2015		18:04:16	2.0.10.248	87	Bar50-50.bmp	48	2	?	10r_4g.bmp	0r_4g.bmp	2r_2g.bmp	0r_2g.bmp		0r_4g.bmp			TrialProc	TrialList	0	cvbn	-999999	16	1920492	0	v	252	1920744	270	-288	-18	-54	-30	20	46	4	9	87	-10	0	-2	0	4	4	2	2	0	4
Hungry_Donkey_bar_English_2	106	3	<?xml version="1.0"?>\n<Clock xmlns:dt="urn:schemas-microsoft-com:datatypes"><Description dt:dt="string">E-Prime Primary Realtime Clock</Description><StartTime><Timestamp dt:dt="int">0</Timestamp><DateUtc dt:dt="string">2015-06-04T22:04:16Z</DateUtc></StartTime><FrequencyChanges><FrequencyChange><Frequency dt:dt="r8">3507675</Frequency><Timestamp dt:dt="r8">321925983</Timestamp><Current dt:dt="r8">0</Current><DateUtc dt:dt="string">2015-06-04T22:04:16Z</DateUtc></FrequencyChange></FrequencyChanges></Clock>\n	Hungry_Donkey_bar_English_2-106-3	60.018	-65	1.0.0.18	1	322616436	Standard	2.0.10.353	2.0.10.353	06-04-2015		18:04:16	2.0.10.248	88	Bar50-50.bmp	49	2	?	0r_4g.bmp	0r_4g.bmp	0r_2g.bmp	0r_2g.bmp		0r_4g.bmp			TrialProc	TrialList	0	cvbn	-999999	16	1922775	0	v	417	1923192	274	-288	-14	-54	-26	20	46	9	9	88	0	0	0	0	4	4	2	2	0	4
Hungry_Donkey_bar_English_2	106	3	<?xml version="1.0"?>\n<Clock xmlns:dt="urn:schemas-microsoft-com:datatypes"><Description dt:dt="string">E-Prime Primary Realtime Clock</Description><StartTime><Timestamp dt:dt="int">0</Timestamp><DateUtc dt:dt="string">2015-06-04T22:04:16Z</DateUtc></StartTime><FrequencyChanges><FrequencyChange><Frequency dt:dt="r8">3507675</Frequency><Timestamp dt:dt="r8">321925983</Timestamp><Current dt:dt="r8">0</Current><DateUtc dt:dt="string">2015-06-04T22:04:16Z</DateUtc></FrequencyChange></FrequencyChanges></Clock>\n	Hungry_Donkey_bar_English_2-106-3	60.018	-65	1.0.0.18	1	322616436	Standard	2.0.10.353	2.0.10.353	06-04-2015		18:04:16	2.0.10.248	89	Bar50-50.bmp	49	4	?	0r_4g.bmp	0r_4g.bmp	0r_2g.bmp	0r_2g.bmp				0r_2g.bmp	TrialProc	TrialList	0	cvbn	-999999	16	1925224	0	n	208	1925432	276	-288	-12	-54	-26	20	48	7	9	89	0	0	0	0	4	4	2	2	0	2
Hungry_Donkey_bar_English_2	106	3	<?xml version="1.0"?>\n<Clock xmlns:dt="urn:schemas-microsoft-com:datatypes"><Description dt:dt="string">E-Prime Primary Realtime Clock</Description><StartTime><Timestamp dt:dt="int">0</Timestamp><DateUtc dt:dt="string">2015-06-04T22:04:16Z</DateUtc></StartTime><FrequencyChanges><FrequencyChange><Frequency dt:dt="r8">3507675</Frequency><Timestamp dt:dt="r8">321925983</Timestamp><Current dt:dt="r8">0</Current><DateUtc dt:dt="string">2015-06-04T22:04:16Z</DateUtc></FrequencyChange></FrequencyChanges></Clock>\n	Hungry_Donkey_bar_English_2-106-3	60.018	-65	1.0.0.18	1	322616436	Standard	2.0.10.353	2.0.10.353	06-04-2015		18:04:16	2.0.10.248	90	Bar50-50.bmp	49	2	?	12r_4g.bmp	0r_4g.bmp	3r_2g.bmp	0r_2g.bmp		0r_4g.bmp			TrialProc	TrialList	0	cvbn	-999999	16	1927474	0	v	86	1927560	280	-288	-8	-54	-22	20	48	5	9	90	-12	0	-3	0	4	4	2	2	0	4
Hungry_Donkey_bar_English_2	106	3	<?xml version="1.0"?>\n<Clock xmlns:dt="urn:schemas-microsoft-com:datatypes"><Description dt:dt="string">E-Prime Primary Realtime Clock</Description><StartTime><Timestamp dt:dt="int">0</Timestamp><DateUtc dt:dt="string">2015-06-04T22:04:16Z</DateUtc></StartTime><FrequencyChanges><FrequencyChange><Frequency dt:dt="r8">3507675</Frequency><Timestamp dt:dt="r8">321925983</Timestamp><Current dt:dt="r8">0</Current><DateUtc dt:dt="string">2015-06-04T22:04:16Z</DateUtc></FrequencyChange></FrequencyChanges></Clock>\n	Hungry_Donkey_bar_English_2-106-3	60.018	-65	1.0.0.18	1	322616436	Standard	2.0.10.353	2.0.10.353	06-04-2015		18:04:16	2.0.10.248	91	Bar50-50.bmp	50	2	?	0r_4g.bmp	0r_4g.bmp	0r_2g.bmp	0r_2g.bmp		0r_4g.bmp			TrialProc	TrialList	0	cvbn	-999999	16	1929590	0	v	210	1929800	284	-288	-4	-54	-18	20	48	9	10	91	0	0	0	0	4	4	2	2	0	4
Hungry_Donkey_bar_English_2	106	3	<?xml version="1.0"?>\n<Clock xmlns:dt="urn:schemas-microsoft-com:datatypes"><Description dt:dt="string">E-Prime Primary Realtime Clock</Description><StartTime><Timestamp dt:dt="int">0</Timestamp><DateUtc dt:dt="string">2015-06-04T22:04:16Z</DateUtc></StartTime><FrequencyChanges><FrequencyChange><Frequency dt:dt="r8">3507675</Frequency><Timestamp dt:dt="r8">321925983</Timestamp><Current dt:dt="r8">0</Current><DateUtc dt:dt="string">2015-06-04T22:04:16Z</DateUtc></FrequencyChange></FrequencyChanges></Clock>\n	Hungry_Donkey_bar_English_2-106-3	60.018	-65	1.0.0.18	1	322616436	Standard	2.0.10.353	2.0.10.353	06-04-2015		18:04:16	2.0.10.248	92	Bar50-50.bmp	50	4	?	12r_4g.bmp	0r_4g.bmp	3r_2g.bmp	0r_2g.bmp				0r_2g.bmp	TrialProc	TrialList	0	cvbn	-999999	16	1931839	0	n	281	1932120	286	-288	-2	-54	-18	20	50	5	10	92	-12	0	-3	0	4	4	2	2	0	2
Hungry_Donkey_bar_English_2	106	3	<?xml version="1.0"?>\n<Clock xmlns:dt="urn:schemas-microsoft-com:datatypes"><Description dt:dt="string">E-Prime Primary Realtime Clock</Description><StartTime><Timestamp dt:dt="int">0</Timestamp><DateUtc dt:dt="string">2015-06-04T22:04:16Z</DateUtc></StartTime><FrequencyChanges><FrequencyChange><Frequency dt:dt="r8">3507675</Frequency><Timestamp dt:dt="r8">321925983</Timestamp><Current dt:dt="r8">0</Current><DateUtc dt:dt="string">2015-06-04T22:04:16Z</DateUtc></FrequencyChange></FrequencyChanges></Clock>\n	Hungry_Donkey_bar_English_2-106-3	60.018	-65	1.0.0.18	1	322616436	Standard	2.0.10.353	2.0.10.353	06-04-2015		18:04:16	2.0.10.248	93	Bar50-50.bmp	50	4	?	0r_4g.bmp	0r_4g.bmp	0r_2g.bmp	0r_2g.bmp				0r_2g.bmp	TrialProc	TrialList	0	cvbn	-999999	16	1934155	0	n	317	1934472	288	-288	0	-54	-18	20	52	6	10	93	0	0	0	0	4	4	2	2	0	2
Hungry_Donkey_bar_English_2	106	3	<?xml version="1.0"?>\n<Clock xmlns:dt="urn:schemas-microsoft-com:datatypes"><Description dt:dt="string">E-Prime Primary Realtime Clock</Description><StartTime><Timestamp dt:dt="int">0</Timestamp><DateUtc dt:dt="string">2015-06-04T22:04:16Z</DateUtc></StartTime><FrequencyChanges><FrequencyChange><Frequency dt:dt="r8">3507675</Frequency><Timestamp dt:dt="r8">321925983</Timestamp><Current dt:dt="r8">0</Current><DateUtc dt:dt="string">2015-06-04T22:04:16Z</DateUtc></FrequencyChange></FrequencyChanges></Clock>\n	Hungry_Donkey_bar_English_2-106-3	60.018	-65	1.0.0.18	1	322616436	Standard	2.0.10.353	2.0.10.353	06-04-2015		18:04:16	2.0.10.248	94	Bar50-50.bmp	50	2	?	0r_4g.bmp	0r_4g.bmp	0r_2g.bmp	0r_2g.bmp		0r_4g.bmp			TrialProc	TrialList	0	cvbn	-999999	16	1936504	0	v	480	1936984	292	-288	4	-54	-14	20	52	7	10	94	0	0	0	0	4	4	2	2	0	4
Hungry_Donkey_bar_English_2	106	3	<?xml version="1.0"?>\n<Clock xmlns:dt="urn:schemas-microsoft-com:datatypes"><Description dt:dt="string">E-Prime Primary Realtime Clock</Description><StartTime><Timestamp dt:dt="int">0</Timestamp><DateUtc dt:dt="string">2015-06-04T22:04:16Z</DateUtc></StartTime><FrequencyChanges><FrequencyChange><Frequency dt:dt="r8">3507675</Frequency><Timestamp dt:dt="r8">321925983</Timestamp><Current dt:dt="r8">0</Current><DateUtc dt:dt="string">2015-06-04T22:04:16Z</DateUtc></FrequencyChange></FrequencyChanges></Clock>\n	Hungry_Donkey_bar_English_2-106-3	60.018	-65	1.0.0.18	1	322616436	Standard	2.0.10.353	2.0.10.353	06-04-2015		18:04:16	2.0.10.248	95	Bar50-50.bmp	47	2	?	8r_4g.bmp	50r_4g.bmp	1r_2g.bmp	10r_2g.bmp		50r_4g.bmp			TrialProc	TrialList	0	cvbn	-999999	16	1939020	0	v	284	1939304	296	-338	-42	-54	-60	20	52	1	10	95	-8	-50	-1	-10	4	4	2	2	-50	4
Hungry_Donkey_bar_English_2	106	3	<?xml version="1.0"?>\n<Clock xmlns:dt="urn:schemas-microsoft-com:datatypes"><Description dt:dt="string">E-Prime Primary Realtime Clock</Description><StartTime><Timestamp dt:dt="int">0</Timestamp><DateUtc dt:dt="string">2015-06-04T22:04:16Z</DateUtc></StartTime><FrequencyChanges><FrequencyChange><Frequency dt:dt="r8">3507675</Frequency><Timestamp dt:dt="r8">321925983</Timestamp><Current dt:dt="r8">0</Current><DateUtc dt:dt="string">2015-06-04T22:04:16Z</DateUtc></FrequencyChange></FrequencyChanges></Clock>\n	Hungry_Donkey_bar_English_2-106-3	60.018	-65	1.0.0.18	1	322616436	Standard	2.0.10.353	2.0.10.353	06-04-2015		18:04:16	2.0.10.248	96	Bar50-50.bmp	47	3	?	10r_4g.bmp	0r_4g.bmp	2r_2g.bmp	0r_2g.bmp			2r_2g.bmp		TrialProc	TrialList	0	cvbn	-999999	16	1941336	0	b	511	1941847	298	-340	-42	-54	-60	20	52	4	10	96	-10	0	-2	0	4	4	2	2	-2	2
Hungry_Donkey_bar_English_2	106	3	<?xml version="1.0"?>\n<Clock xmlns:dt="urn:schemas-microsoft-com:datatypes"><Description dt:dt="string">E-Prime Primary Realtime Clock</Description><StartTime><Timestamp dt:dt="int">0</Timestamp><DateUtc dt:dt="string">2015-06-04T22:04:16Z</DateUtc></StartTime><FrequencyChanges><FrequencyChange><Frequency dt:dt="r8">3507675</Frequency><Timestamp dt:dt="r8">321925983</Timestamp><Current dt:dt="r8">0</Current><DateUtc dt:dt="string">2015-06-04T22:04:16Z</DateUtc></FrequencyChange></FrequencyChanges></Clock>\n	Hungry_Donkey_bar_English_2-106-3	60.018	-65	1.0.0.18	1	322616436	Standard	2.0.10.353	2.0.10.353	06-04-2015		18:04:16	2.0.10.248	97	Bar50-50.bmp	47	3	?	0r_4g.bmp	0r_4g.bmp	0r_2g.bmp	0r_2g.bmp			0r_2g.bmp		TrialProc	TrialList	0	cvbn	-999999	16	1943886	0	b	361	1944247	300	-340	-40	-54	-60	22	52	10	10	97	0	0	0	0	4	4	2	2	0	2
Hungry_Donkey_bar_English_2	106	3	<?xml version="1.0"?>\n<Clock xmlns:dt="urn:schemas-microsoft-com:datatypes"><Description dt:dt="string">E-Prime Primary Realtime Clock</Description><StartTime><Timestamp dt:dt="int">0</Timestamp><DateUtc dt:dt="string">2015-06-04T22:04:16Z</DateUtc></StartTime><FrequencyChanges><FrequencyChange><Frequency dt:dt="r8">3507675</Frequency><Timestamp dt:dt="r8">321925983</Timestamp><Current dt:dt="r8">0</Current><DateUtc dt:dt="string">2015-06-04T22:04:16Z</DateUtc></FrequencyChange></FrequencyChanges></Clock>\n	Hungry_Donkey_bar_English_2-106-3	60.018	-65	1.0.0.18	1	322616436	Standard	2.0.10.353	2.0.10.353	06-04-2015		18:04:16	2.0.10.248	98	Bar50-50.bmp	47	3	?	0r_4g.bmp	0r_4g.bmp	0r_2g.bmp	0r_2g.bmp			0r_2g.bmp		TrialProc	TrialList	0	cvbn	-999999	16	1946285	0	b	26	1946311	302	-340	-38	-54	-60	24	52	8	10	98	0	0	0	0	4	4	2	2	0	2
Hungry_Donkey_bar_English_2	106	3	<?xml version="1.0"?>\n<Clock xmlns:dt="urn:schemas-microsoft-com:datatypes"><Description dt:dt="string">E-Prime Primary Realtime Clock</Description><StartTime><Timestamp dt:dt="int">0</Timestamp><DateUtc dt:dt="string">2015-06-04T22:04:16Z</DateUtc></StartTime><FrequencyChanges><FrequencyChange><Frequency dt:dt="r8">3507675</Frequency><Timestamp dt:dt="r8">321925983</Timestamp><Current dt:dt="r8">0</Current><DateUtc dt:dt="string">2015-06-04T22:04:16Z</DateUtc></FrequencyChange></FrequencyChanges></Clock>\n	Hungry_Donkey_bar_English_2-106-3	60.018	-65	1.0.0.18	1	322616436	Standard	2.0.10.353	2.0.10.353	06-04-2015		18:04:16	2.0.10.248	99	Bar50-50.bmp	47	4	?	10r_4g.bmp	0r_4g.bmp	2r_2g.bmp	0r_2g.bmp				0r_2g.bmp	TrialProc	TrialList	0	cvbn	-999999	15	1948334	0	n	441	1948775	304	-340	-36	-54	-60	24	54	2	10	99	-10	0	-2	0	4	4	2	2	0	2
Hungry_Donkey_bar_English_2	106	3	<?xml version="1.0"?>\n<Clock xmlns:dt="urn:schemas-microsoft-com:datatypes"><Description dt:dt="string">E-Prime Primary Realtime Clock</Description><StartTime><Timestamp dt:dt="int">0</Timestamp><DateUtc dt:dt="string">2015-06-04T22:04:16Z</DateUtc></StartTime><FrequencyChanges><FrequencyChange><Frequency dt:dt="r8">3507675</Frequency><Timestamp dt:dt="r8">321925983</Timestamp><Current dt:dt="r8">0</Current><DateUtc dt:dt="string">2015-06-04T22:04:16Z</DateUtc></FrequencyChange></FrequencyChanges></Clock>\n	Hungry_Donkey_bar_English_2-106-3	60.018	-65	1.0.0.18	1	322616436	Standard	2.0.10.353	2.0.10.353	06-04-2015		18:04:16	2.0.10.248	100	Bar50-50.bmp	47	1	?	10r_4g.bmp	0r_4g.bmp	2r_2g.bmp	0r_2g.bmp	10r_4g.bmp				TrialProc	TrialList	0	cvbn	-999999	15	1950800	0	c	807	1951607	308	-350	-42	-60	-60	24	54	3	10	100	-10	0	-2	0	4	4	2	2	-10	4
Hungry_Donkey_bar_English_2	106	3	<?xml version="1.0"?>\n<Clock xmlns:dt="urn:schemas-microsoft-com:datatypes"><Description dt:dt="string">E-Prime Primary Realtime Clock</Description><StartTime><Timestamp dt:dt="int">0</Timestamp><DateUtc dt:dt="string">2015-06-04T22:04:16Z</DateUtc></StartTime><FrequencyChanges><FrequencyChange><Frequency dt:dt="r8">3507675</Frequency><Timestamp dt:dt="r8">321925983</Timestamp><Current dt:dt="r8">0</Current><DateUtc dt:dt="string">2015-06-04T22:04:16Z</DateUtc></FrequencyChange></FrequencyChanges></Clock>\n	Hungry_Donkey_bar_English_2-106-3	60.018	-65	1.0.0.18	1	322616436	Standard	2.0.10.353	2.0.10.353	06-04-2015		18:04:16	2.0.10.248	101	Bar50-50.bmp	47	2	?	0r_4g.bmp	0r_4g.bmp	0r_2g.bmp	0r_2g.bmp		0r_4g.bmp			TrialProc	TrialList	0	cvbn	-999999	17	1953650	0	v	373	1954023	312	-350	-38	-60	-56	24	54	9	11	101	0	0	0	0	4	4	2	2	0	4
Hungry_Donkey_bar_English_2	106	3	<?xml version="1.0"?>\n<Clock xmlns:dt="urn:schemas-microsoft-com:datatypes"><Description dt:dt="string">E-Prime Primary Realtime Clock</Description><StartTime><Timestamp dt:dt="int">0</Timestamp><DateUtc dt:dt="string">2015-06-04T22:04:16Z</DateUtc></StartTime><FrequencyChanges><FrequencyChange><Frequency dt:dt="r8">3507675</Frequency><Timestamp dt:dt="r8">321925983</Timestamp><Current dt:dt="r8">0</Current><DateUtc dt:dt="string">2015-06-04T22:04:16Z</DateUtc></FrequencyChange></FrequencyChanges></Clock>\n	Hungry_Donkey_bar_English_2-106-3	60.018	-65	1.0.0.18	1	322616436	Standard	2.0.10.353	2.0.10.353	06-04-2015		18:04:16	2.0.10.248	102	Bar50-50.bmp	47	1	?	0r_4g.bmp	0r_4g.bmp	0r_2g.bmp	0r_2g.bmp	0r_4g.bmp				TrialProc	TrialList	0	cvbn	-999999	17	1956066	0	c	261	1956327	316	-350	-34	-56	-56	24	54	10	11	102	0	0	0	0	4	4	2	2	0	4
Hungry_Donkey_bar_English_2	106	3	<?xml version="1.0"?>\n<Clock xmlns:dt="urn:schemas-microsoft-com:datatypes"><Description dt:dt="string">E-Prime Primary Realtime Clock</Description><StartTime><Timestamp dt:dt="int">0</Timestamp><DateUtc dt:dt="string">2015-06-04T22:04:16Z</DateUtc></StartTime><FrequencyChanges><FrequencyChange><Frequency dt:dt="r8">3507675</Frequency><Timestamp dt:dt="r8">321925983</Timestamp><Current dt:dt="r8">0</Current><DateUtc dt:dt="string">2015-06-04T22:04:16Z</DateUtc></FrequencyChange></FrequencyChanges></Clock>\n	Hungry_Donkey_bar_English_2-106-3	60.018	-65	1.0.0.18	1	322616436	Standard	2.0.10.353	2.0.10.353	06-04-2015		18:04:16	2.0.10.248	103	Bar50-50.bmp	47	1	?	10r_4g.bmp	0r_4g.bmp	2r_2g.bmp	0r_2g.bmp	10r_4g.bmp				TrialProc	TrialList	0	cvbn	-999999	16	1958365	0	c	538	1958903	320	-360	-40	-62	-56	24	54	3	11	103	-10	0	-2	0	4	4	2	2	-10	4
Hungry_Donkey_bar_English_2	106	3	<?xml version="1.0"?>\n<Clock xmlns:dt="urn:schemas-microsoft-com:datatypes"><Description dt:dt="string">E-Prime Primary Realtime Clock</Description><StartTime><Timestamp dt:dt="int">0</Timestamp><DateUtc dt:dt="string">2015-06-04T22:04:16Z</DateUtc></StartTime><FrequencyChanges><FrequencyChange><Frequency dt:dt="r8">3507675</Frequency><Timestamp dt:dt="r8">321925983</Timestamp><Current dt:dt="r8">0</Current><DateUtc dt:dt="string">2015-06-04T22:04:16Z</DateUtc></FrequencyChange></FrequencyChanges></Clock>\n	Hungry_Donkey_bar_English_2-106-3	60.018	-65	1.0.0.18	1	322616436	Standard	2.0.10.353	2.0.10.353	06-04-2015		18:04:16	2.0.10.248	104	Bar50-50.bmp	47	1	?	0r_4g.bmp	0r_4g.bmp	0r_2g.bmp	0r_2g.bmp	0r_4g.bmp				TrialProc	TrialList	0	cvbn	-999999	16	1960947	0	c	308	1961255	324	-360	-36	-58	-56	24	54	8	11	104	0	0	0	0	4	4	2	2	0	4
Hungry_Donkey_bar_English_2	106	3	<?xml version="1.0"?>\n<Clock xmlns:dt="urn:schemas-microsoft-com:datatypes"><Description dt:dt="string">E-Prime Primary Realtime Clock</Description><StartTime><Timestamp dt:dt="int">0</Timestamp><DateUtc dt:dt="string">2015-06-04T22:04:16Z</DateUtc></StartTime><FrequencyChanges><FrequencyChange><Frequency dt:dt="r8">3507675</Frequency><Timestamp dt:dt="r8">321925983</Timestamp><Current dt:dt="r8">0</Current><DateUtc dt:dt="string">2015-06-04T22:04:16Z</DateUtc></FrequencyChange></FrequencyChanges></Clock>\n	Hungry_Donkey_bar_English_2-106-3	60.018	-65	1.0.0.18	1	322616436	Standard	2.0.10.353	2.0.10.353	06-04-2015		18:04:16	2.0.10.248	105	Bar50-50.bmp	48	2	?	10r_4g.bmp	0r_4g.bmp	2r_2g.bmp	0r_2g.bmp		0r_4g.bmp			TrialProc	TrialList	0	cvbn	-999999	16	1963280	0	v	262	1963542	328	-360	-32	-58	-52	24	54	4	11	105	-10	0	-2	0	4	4	2	2	0	4
Hungry_Donkey_bar_English_2	106	3	<?xml version="1.0"?>\n<Clock xmlns:dt="urn:schemas-microsoft-com:datatypes"><Description dt:dt="string">E-Prime Primary Realtime Clock</Description><StartTime><Timestamp dt:dt="int">0</Timestamp><DateUtc dt:dt="string">2015-06-04T22:04:16Z</DateUtc></StartTime><FrequencyChanges><FrequencyChange><Frequency dt:dt="r8">3507675</Frequency><Timestamp dt:dt="r8">321925983</Timestamp><Current dt:dt="r8">0</Current><DateUtc dt:dt="string">2015-06-04T22:04:16Z</DateUtc></FrequencyChange></FrequencyChanges></Clock>\n	Hungry_Donkey_bar_English_2-106-3	60.018	-65	1.0.0.18	1	322616436	Standard	2.0.10.353	2.0.10.353	06-04-2015		18:04:16	2.0.10.248	106	Bar50-50.bmp	47	4	?	8r_4g.bmp	50r_4g.bmp	1r_2g.bmp	10r_2g.bmp				10r_2g.bmp	TrialProc	TrialList	0	cvbn	-999999	16	1965579	0	n	235	1965814	330	-370	-40	-58	-52	24	46	1	11	106	-8	-50	-1	-10	4	4	2	2	-10	2
Hungry_Donkey_bar_English_2	106	3	<?xml version="1.0"?>\n<Clock xmlns:dt="urn:schemas-microsoft-com:datatypes"><Description dt:dt="string">E-Prime Primary Realtime Clock</Description><StartTime><Timestamp dt:dt="int">0</Timestamp><DateUtc dt:dt="string">2015-06-04T22:04:16Z</DateUtc></StartTime><FrequencyChanges><FrequencyChange><Frequency dt:dt="r8">3507675</Frequency><Timestamp dt:dt="r8">321925983</Timestamp><Current dt:dt="r8">0</Current><DateUtc dt:dt="string">2015-06-04T22:04:16Z</DateUtc></FrequencyChange></FrequencyChanges></Clock>\n	Hungry_Donkey_bar_English_2-106-3	60.018	-65	1.0.0.18	1	322616436	Standard	2.0.10.353	2.0.10.353	06-04-2015		18:04:16	2.0.10.248	107	Bar50-50.bmp	47	2	?	0r_4g.bmp	0r_4g.bmp	0r_2g.bmp	0r_2g.bmp		0r_4g.bmp			TrialProc	TrialList	0	cvbn	-999999	16	1967845	0	v	705	1968550	334	-370	-36	-58	-48	24	46	6	11	107	0	0	0	0	4	4	2	2	0	4
Hungry_Donkey_bar_English_2	106	3	<?xml version="1.0"?>\n<Clock xmlns:dt="urn:schemas-microsoft-com:datatypes"><Description dt:dt="string">E-Prime Primary Realtime Clock</Description><StartTime><Timestamp dt:dt="int">0</Timestamp><DateUtc dt:dt="string">2015-06-04T22:04:16Z</DateUtc></StartTime><FrequencyChanges><FrequencyChange><Frequency dt:dt="r8">3507675</Frequency><Timestamp dt:dt="r8">321925983</Timestamp><Current dt:dt="r8">0</Current><DateUtc dt:dt="string">2015-06-04T22:04:16Z</DateUtc></FrequencyChange></FrequencyChanges></Clock>\n	Hungry_Donkey_bar_English_2-106-3	60.018	-65	1.0.0.18	1	322616436	Standard	2.0.10.353	2.0.10.353	06-04-2015		18:04:16	2.0.10.248	108	Bar50-50.bmp	48	2	?	10r_4g.bmp	0r_4g.bmp	2r_2g.bmp	0r_2g.bmp		0r_4g.bmp			TrialProc	TrialList	0	cvbn	-999999	16	1970578	0	v	324	1970902	338	-370	-32	-58	-44	24	46	2	11	108	-10	0	-2	0	4	4	2	2	0	4
Hungry_Donkey_bar_English_2	106	3	<?xml version="1.0"?>\n<Clock xmlns:dt="urn:schemas-microsoft-com:datatypes"><Description dt:dt="string">E-Prime Primary Realtime Clock</Description><StartTime><Timestamp dt:dt="int">0</Timestamp><DateUtc dt:dt="string">2015-06-04T22:04:16Z</DateUtc></StartTime><FrequencyChanges><FrequencyChange><Frequency dt:dt="r8">3507675</Frequency><Timestamp dt:dt="r8">321925983</Timestamp><Current dt:dt="r8">0</Current><DateUtc dt:dt="string">2015-06-04T22:04:16Z</DateUtc></FrequencyChange></FrequencyChanges></Clock>\n	Hungry_Donkey_bar_English_2-106-3	60.018	-65	1.0.0.18	1	322616436	Standard	2.0.10.353	2.0.10.353	06-04-2015		18:04:16	2.0.10.248	109	Bar50-50.bmp	48	2	?	0r_4g.bmp	0r_4g.bmp	0r_2g.bmp	0r_2g.bmp		0r_4g.bmp			TrialProc	TrialList	0	cvbn	-999999	16	1972927	0	v	279	1973206	342	-370	-28	-58	-40	24	46	7	11	109	0	0	0	0	4	4	2	2	0	4
Hungry_Donkey_bar_English_2	106	3	<?xml version="1.0"?>\n<Clock xmlns:dt="urn:schemas-microsoft-com:datatypes"><Description dt:dt="string">E-Prime Primary Realtime Clock</Description><StartTime><Timestamp dt:dt="int">0</Timestamp><DateUtc dt:dt="string">2015-06-04T22:04:16Z</DateUtc></StartTime><FrequencyChanges><FrequencyChange><Frequency dt:dt="r8">3507675</Frequency><Timestamp dt:dt="r8">321925983</Timestamp><Current dt:dt="r8">0</Current><DateUtc dt:dt="string">2015-06-04T22:04:16Z</DateUtc></FrequencyChange></FrequencyChanges></Clock>\n	Hungry_Donkey_bar_English_2-106-3	60.018	-65	1.0.0.18	1	322616436	Standard	2.0.10.353	2.0.10.353	06-04-2015		18:04:16	2.0.10.248	110	Bar50-50.bmp	48	2	?	12r_4g.bmp	0r_4g.bmp	3r_2g.bmp	0r_2g.bmp		0r_4g.bmp			TrialProc	TrialList	0	cvbn	-999999	16	1975243	0	v	283	1975526	346	-370	-24	-58	-36	24	46	5	11	110	-12	0	-3	0	4	4	2	2	0	4
Hungry_Donkey_bar_English_2	106	3	<?xml version="1.0"?>\n<Clock xmlns:dt="urn:schemas-microsoft-com:datatypes"><Description dt:dt="string">E-Prime Primary Realtime Clock</Description><StartTime><Timestamp dt:dt="int">0</Timestamp><DateUtc dt:dt="string">2015-06-04T22:04:16Z</DateUtc></StartTime><FrequencyChanges><FrequencyChange><Frequency dt:dt="r8">3507675</Frequency><Timestamp dt:dt="r8">321925983</Timestamp><Current dt:dt="r8">0</Current><DateUtc dt:dt="string">2015-06-04T22:04:16Z</DateUtc></FrequencyChange></FrequencyChanges></Clock>\n	Hungry_Donkey_bar_English_2-106-3	60.018	-65	1.0.0.18	1	322616436	Standard	2.0.10.353	2.0.10.353	06-04-2015		18:04:16	2.0.10.248	111	Bar50-50.bmp	45	2	?	8r_4g.bmp	50r_4g.bmp	1r_2g.bmp	10r_2g.bmp		50r_4g.bmp			TrialProc	TrialList	0	cvbn	-999999	16	1977559	0	v	1071	1978630	350	-420	-70	-58	-82	24	46	1	12	111	-8	-50	-1	-10	4	4	2	2	-50	4
Hungry_Donkey_bar_English_2	106	3	<?xml version="1.0"?>\n<Clock xmlns:dt="urn:schemas-microsoft-com:datatypes"><Description dt:dt="string">E-Prime Primary Realtime Clock</Description><StartTime><Timestamp dt:dt="int">0</Timestamp><DateUtc dt:dt="string">2015-06-04T22:04:16Z</DateUtc></StartTime><FrequencyChanges><FrequencyChange><Frequency dt:dt="r8">3507675</Frequency><Timestamp dt:dt="r8">321925983</Timestamp><Current dt:dt="r8">0</Current><DateUtc dt:dt="string">2015-06-04T22:04:16Z</DateUtc></FrequencyChange></FrequencyChanges></Clock>\n	Hungry_Donkey_bar_English_2-106-3	60.018	-65	1.0.0.18	1	322616436	Standard	2.0.10.353	2.0.10.353	06-04-2015		18:04:16	2.0.10.248	112	Bar50-50.bmp	46	4	?	0r_4g.bmp	0r_4g.bmp	0r_2g.bmp	0r_2g.bmp				0r_2g.bmp	TrialProc	TrialList	0	cvbn	-999999	16	1980658	0	n	420	1981078	352	-420	-68	-58	-82	24	48	8	12	112	0	0	0	0	4	4	2	2	0	2
Hungry_Donkey_bar_English_2	106	3	<?xml version="1.0"?>\n<Clock xmlns:dt="urn:schemas-microsoft-com:datatypes"><Description dt:dt="string">E-Prime Primary Realtime Clock</Description><StartTime><Timestamp dt:dt="int">0</Timestamp><DateUtc dt:dt="string">2015-06-04T22:04:16Z</DateUtc></StartTime><FrequencyChanges><FrequencyChange><Frequency dt:dt="r8">3507675</Frequency><Timestamp dt:dt="r8">321925983</Timestamp><Current dt:dt="r8">0</Current><DateUtc dt:dt="string">2015-06-04T22:04:16Z</DateUtc></FrequencyChange></FrequencyChanges></Clock>\n	Hungry_Donkey_bar_English_2-106-3	60.018	-65	1.0.0.18	1	322616436	Standard	2.0.10.353	2.0.10.353	06-04-2015		18:04:16	2.0.10.248	113	Bar50-50.bmp	45	1	?	10r_4g.bmp	0r_4g.bmp	2r_2g.bmp	0r_2g.bmp	10r_4g.bmp				TrialProc	TrialList	0	cvbn	-999999	16	1983108	0	c	625	1983733	356	-430	-74	-64	-82	24	48	4	12	113	-10	0	-2	0	4	4	2	2	-10	4
Hungry_Donkey_bar_English_2	106	3	<?xml version="1.0"?>\n<Clock xmlns:dt="urn:schemas-microsoft-com:datatypes"><Description dt:dt="string">E-Prime Primary Realtime Clock</Description><StartTime><Timestamp dt:dt="int">0</Timestamp><DateUtc dt:dt="string">2015-06-04T22:04:16Z</DateUtc></StartTime><FrequencyChanges><FrequencyChange><Frequency dt:dt="r8">3507675</Frequency><Timestamp dt:dt="r8">321925983</Timestamp><Current dt:dt="r8">0</Current><DateUtc dt:dt="string">2015-06-04T22:04:16Z</DateUtc></FrequencyChange></FrequencyChanges></Clock>\n	Hungry_Donkey_bar_English_2-106-3	60.018	-65	1.0.0.18	1	322616436	Standard	2.0.10.353	2.0.10.353	06-04-2015		18:04:16	2.0.10.248	114	Bar50-50.bmp	45	3	?	0r_4g.bmp	0r_4g.bmp	0r_2g.bmp	0r_2g.bmp			0r_2g.bmp		TrialProc	TrialList	0	cvbn	-999999	15	1985757	0	b	360	1986117	358	-430	-72	-64	-82	26	48	6	12	114	0	0	0	0	4	4	2	2	0	2
