ExperimentName	Subject	Session	Clock.Information	DataFile.Basename	Display.RefreshRate	Eindtotaal[Session]	ExperimentVersion	Group	RandomSeed	RuntimeCapabilities	RuntimeVersion	RuntimeVersionExpected	SessionDate	SessionStartDateTimeUtc	SessionTime	StudioVersion	Block	BarImage	BarTotalWinst	DoorChoice	Eindtotaal[Block]	FBDoor1	FBDoor2	FBDoor3	FBDoor4	Image1	Image2	Image3	Image4	Procedure	Running	spel.ACC	spel.CRESP	spel.DurationError	spel.OnsetDelay	spel.OnsetTime	spel.OnsetToOnsetTime	spel.RESP	spel.RT	spel.RTTime	TotalGain	TotalLose	Totalsum	TotalsumD1	TotalsumD2	TotalsumD3	TotalsumD4	TrialList	TrialList.Cycle	TrialList.Sample	varV1	varV2	varV3	varV4	varW1	varW2	varW3	varW4	Verliesbedrag	Winstbedrag
Hungry_Donkey_bar_English_2	115	1	<?xml version="1.0"?>\n<Clock xmlns:dt="urn:schemas-microsoft-com:datatypes"><Description dt:dt="string">E-Prime Primary Realtime Clock</Description><StartTime><Timestamp dt:dt="int">0</Timestamp><DateUtc dt:dt="string">2015-07-29T21:03:36Z</DateUtc></StartTime><FrequencyChanges><FrequencyChange><Frequency dt:dt="r8">3507695</Frequency><Timestamp dt:dt="r8">2139965252997</Timestamp><Current dt:dt="r8">0</Current><DateUtc dt:dt="string">2015-07-29T21:03:36Z</DateUtc></FrequencyChange></FrequencyChanges></Clock>\n	Hungry_Donkey_bar_English_2-115-1	60.018	-128	1.0.0.18	1	1072216389	Standard	2.0.10.353	2.0.10.353	07-29-2015	7/29/2015 9:03:36 PM	17:03:36	2.0.10.248	1	Bar100-0.bmp	100	2	?	0r_4g.bmp	0r_4g.bmp	0r_2g.bmp	0r_2g.bmp		0r_4g.bmp			TrialProc	TrialList	0	cvbn	-999999	27	106833	0	v	3124	109957	4	0	4	0	4	0	0	8	1	1	0	0	0	0	4	4	2	2	0	4
Hungry_Donkey_bar_English_2	115	1	<?xml version="1.0"?>\n<Clock xmlns:dt="urn:schemas-microsoft-com:datatypes"><Description dt:dt="string">E-Prime Primary Realtime Clock</Description><StartTime><Timestamp dt:dt="int">0</Timestamp><DateUtc dt:dt="string">2015-07-29T21:03:36Z</DateUtc></StartTime><FrequencyChanges><FrequencyChange><Frequency dt:dt="r8">3507695</Frequency><Timestamp dt:dt="r8">2139965252997</Timestamp><Current dt:dt="r8">0</Current><DateUtc dt:dt="string">2015-07-29T21:03:36Z</DateUtc></FrequencyChange></FrequencyChanges></Clock>\n	Hungry_Donkey_bar_English_2-115-1	60.018	-128	1.0.0.18	1	1072216389	Standard	2.0.10.353	2.0.10.353	07-29-2015	7/29/2015 9:03:36 PM	17:03:36	2.0.10.248	2	Bar100-0.bmp	100	3	?	0r_4g.bmp	0r_4g.bmp	0r_2g.bmp	0r_2g.bmp			0r_2g.bmp		TrialProc	TrialList	0	cvbn	-999999	16	111998	0	b	2807	114805	6	0	6	0	4	2	0	7	1	2	0	0	0	0	4	4	2	2	0	2
Hungry_Donkey_bar_English_2	115	1	<?xml version="1.0"?>\n<Clock xmlns:dt="urn:schemas-microsoft-com:datatypes"><Description dt:dt="string">E-Prime Primary Realtime Clock</Description><StartTime><Timestamp dt:dt="int">0</Timestamp><DateUtc dt:dt="string">2015-07-29T21:03:36Z</DateUtc></StartTime><FrequencyChanges><FrequencyChange><Frequency dt:dt="r8">3507695</Frequency><Timestamp dt:dt="r8">2139965252997</Timestamp><Current dt:dt="r8">0</Current><DateUtc dt:dt="string">2015-07-29T21:03:36Z</DateUtc></FrequencyChange></FrequencyChanges></Clock>\n	Hungry_Donkey_bar_English_2-115-1	60.018	-128	1.0.0.18	1	1072216389	Standard	2.0.10.353	2.0.10.353	07-29-2015	7/29/2015 9:03:36 PM	17:03:36	2.0.10.248	3	Bar50-50.bmp	50	1	?	10r_4g.bmp	0r_4g.bmp	2r_2g.bmp	0r_2g.bmp	10r_4g.bmp				TrialProc	TrialList	0	cvbn	-999999	16	116847	0	c	1158	118005	10	-10	0	-6	4	2	0	4	1	3	-10	0	-2	0	4	4	2	2	-10	4
Hungry_Donkey_bar_English_2	115	1	<?xml version="1.0"?>\n<Clock xmlns:dt="urn:schemas-microsoft-com:datatypes"><Description dt:dt="string">E-Prime Primary Realtime Clock</Description><StartTime><Timestamp dt:dt="int">0</Timestamp><DateUtc dt:dt="string">2015-07-29T21:03:36Z</DateUtc></StartTime><FrequencyChanges><FrequencyChange><Frequency dt:dt="r8">3507695</Frequency><Timestamp dt:dt="r8">2139965252997</Timestamp><Current dt:dt="r8">0</Current><DateUtc dt:dt="string">2015-07-29T21:03:36Z</DateUtc></FrequencyChange></FrequencyChanges></Clock>\n	Hungry_Donkey_bar_English_2-115-1	60.018	-128	1.0.0.18	1	1072216389	Standard	2.0.10.353	2.0.10.353	07-29-2015	7/29/2015 9:03:36 PM	17:03:36	2.0.10.248	4	Bar50-50.bmp	55	4	?	10r_4g.bmp	0r_4g.bmp	2r_2g.bmp	0r_2g.bmp				0r_2g.bmp	TrialProc	TrialList	0	cvbn	-999999	16	120046	0	n	2407	122453	12	-10	2	-6	4	2	2	2	1	4	-10	0	-2	0	4	4	2	2	0	2
Hungry_Donkey_bar_English_2	115	1	<?xml version="1.0"?>\n<Clock xmlns:dt="urn:schemas-microsoft-com:datatypes"><Description dt:dt="string">E-Prime Primary Realtime Clock</Description><StartTime><Timestamp dt:dt="int">0</Timestamp><DateUtc dt:dt="string">2015-07-29T21:03:36Z</DateUtc></StartTime><FrequencyChanges><FrequencyChange><Frequency dt:dt="r8">3507695</Frequency><Timestamp dt:dt="r8">2139965252997</Timestamp><Current dt:dt="r8">0</Current><DateUtc dt:dt="string">2015-07-29T21:03:36Z</DateUtc></FrequencyChange></FrequencyChanges></Clock>\n	Hungry_Donkey_bar_English_2-115-1	60.018	-128	1.0.0.18	1	1072216389	Standard	2.0.10.353	2.0.10.353	07-29-2015	7/29/2015 9:03:36 PM	17:03:36	2.0.10.248	5	Bar63-37.bmp	62	2	?	10r_4g.bmp	0r_4g.bmp	2r_2g.bmp	0r_2g.bmp		0r_4g.bmp			TrialProc	TrialList	0	cvbn	-999999	16	124478	0	v	2342	126820	16	-10	6	-6	8	2	2	3	1	5	-10	0	-2	0	4	4	2	2	0	4
Hungry_Donkey_bar_English_2	115	1	<?xml version="1.0"?>\n<Clock xmlns:dt="urn:schemas-microsoft-com:datatypes"><Description dt:dt="string">E-Prime Primary Realtime Clock</Description><StartTime><Timestamp dt:dt="int">0</Timestamp><DateUtc dt:dt="string">2015-07-29T21:03:36Z</DateUtc></StartTime><FrequencyChanges><FrequencyChange><Frequency dt:dt="r8">3507695</Frequency><Timestamp dt:dt="r8">2139965252997</Timestamp><Current dt:dt="r8">0</Current><DateUtc dt:dt="string">2015-07-29T21:03:36Z</DateUtc></FrequencyChange></FrequencyChanges></Clock>\n	Hungry_Donkey_bar_English_2-115-1	60.018	-128	1.0.0.18	1	1072216389	Standard	2.0.10.353	2.0.10.353	07-29-2015	7/29/2015 9:03:36 PM	17:03:36	2.0.10.248	6	Bar63-37.bmp	67	2	?	0r_4g.bmp	0r_4g.bmp	0r_2g.bmp	0r_2g.bmp		0r_4g.bmp			TrialProc	TrialList	0	cvbn	-999999	16	128860	0	v	1112	129972	20	-10	10	-6	12	2	2	6	1	6	0	0	0	0	4	4	2	2	0	4
Hungry_Donkey_bar_English_2	115	1	<?xml version="1.0"?>\n<Clock xmlns:dt="urn:schemas-microsoft-com:datatypes"><Description dt:dt="string">E-Prime Primary Realtime Clock</Description><StartTime><Timestamp dt:dt="int">0</Timestamp><DateUtc dt:dt="string">2015-07-29T21:03:36Z</DateUtc></StartTime><FrequencyChanges><FrequencyChange><Frequency dt:dt="r8">3507695</Frequency><Timestamp dt:dt="r8">2139965252997</Timestamp><Current dt:dt="r8">0</Current><DateUtc dt:dt="string">2015-07-29T21:03:36Z</DateUtc></FrequencyChange></FrequencyChanges></Clock>\n	Hungry_Donkey_bar_English_2-115-1	60.018	-128	1.0.0.18	1	1072216389	Standard	2.0.10.353	2.0.10.353	07-29-2015	7/29/2015 9:03:36 PM	17:03:36	2.0.10.248	7	Bar75-25.bmp	71	2	?	0r_4g.bmp	0r_4g.bmp	0r_2g.bmp	0r_2g.bmp		0r_4g.bmp			TrialProc	TrialList	0	cvbn	-999999	16	132009	0	v	971	132980	24	-10	14	-6	16	2	2	10	1	7	0	0	0	0	4	4	2	2	0	4
Hungry_Donkey_bar_English_2	115	1	<?xml version="1.0"?>\n<Clock xmlns:dt="urn:schemas-microsoft-com:datatypes"><Description dt:dt="string">E-Prime Primary Realtime Clock</Description><StartTime><Timestamp dt:dt="int">0</Timestamp><DateUtc dt:dt="string">2015-07-29T21:03:36Z</DateUtc></StartTime><FrequencyChanges><FrequencyChange><Frequency dt:dt="r8">3507695</Frequency><Timestamp dt:dt="r8">2139965252997</Timestamp><Current dt:dt="r8">0</Current><DateUtc dt:dt="string">2015-07-29T21:03:36Z</DateUtc></FrequencyChange></FrequencyChanges></Clock>\n	Hungry_Donkey_bar_English_2-115-1	60.018	-128	1.0.0.18	1	1072216389	Standard	2.0.10.353	2.0.10.353	07-29-2015	7/29/2015 9:03:36 PM	17:03:36	2.0.10.248	8	Bar75-25.bmp	74	2	?	12r_4g.bmp	0r_4g.bmp	3r_2g.bmp	0r_2g.bmp		0r_4g.bmp			TrialProc	TrialList	0	cvbn	-999999	16	135008	0	v	836	135844	28	-10	18	-6	20	2	2	5	1	8	-12	0	-3	0	4	4	2	2	0	4
Hungry_Donkey_bar_English_2	115	1	<?xml version="1.0"?>\n<Clock xmlns:dt="urn:schemas-microsoft-com:datatypes"><Description dt:dt="string">E-Prime Primary Realtime Clock</Description><StartTime><Timestamp dt:dt="int">0</Timestamp><DateUtc dt:dt="string">2015-07-29T21:03:36Z</DateUtc></StartTime><FrequencyChanges><FrequencyChange><Frequency dt:dt="r8">3507695</Frequency><Timestamp dt:dt="r8">2139965252997</Timestamp><Current dt:dt="r8">0</Current><DateUtc dt:dt="string">2015-07-29T21:03:36Z</DateUtc></FrequencyChange></FrequencyChanges></Clock>\n	Hungry_Donkey_bar_English_2-115-1	60.018	-128	1.0.0.18	1	1072216389	Standard	2.0.10.353	2.0.10.353	07-29-2015	7/29/2015 9:03:36 PM	17:03:36	2.0.10.248	9	Bar75-25.bmp	76	2	?	0r_4g.bmp	0r_4g.bmp	0r_2g.bmp	0r_2g.bmp		0r_4g.bmp			TrialProc	TrialList	0	cvbn	-999999	16	137874	0	v	770	138644	32	-10	22	-6	24	2	2	9	1	9	0	0	0	0	4	4	2	2	0	4
Hungry_Donkey_bar_English_2	115	1	<?xml version="1.0"?>\n<Clock xmlns:dt="urn:schemas-microsoft-com:datatypes"><Description dt:dt="string">E-Prime Primary Realtime Clock</Description><StartTime><Timestamp dt:dt="int">0</Timestamp><DateUtc dt:dt="string">2015-07-29T21:03:36Z</DateUtc></StartTime><FrequencyChanges><FrequencyChange><Frequency dt:dt="r8">3507695</Frequency><Timestamp dt:dt="r8">2139965252997</Timestamp><Current dt:dt="r8">0</Current><DateUtc dt:dt="string">2015-07-29T21:03:36Z</DateUtc></FrequencyChange></FrequencyChanges></Clock>\n	Hungry_Donkey_bar_English_2-115-1	60.018	-128	1.0.0.18	1	1072216389	Standard	2.0.10.353	2.0.10.353	07-29-2015	7/29/2015 9:03:36 PM	17:03:36	2.0.10.248	10	Bar37-63.bmp	38	2	?	8r_4g.bmp	50r_4g.bmp	1r_2g.bmp	10r_2g.bmp		50r_4g.bmp			TrialProc	TrialList	0	cvbn	-999999	16	140673	0	v	1843	142516	36	-60	-24	-6	-22	2	2	1	1	10	-8	-50	-1	-10	4	4	2	2	-50	4
Hungry_Donkey_bar_English_2	115	1	<?xml version="1.0"?>\n<Clock xmlns:dt="urn:schemas-microsoft-com:datatypes"><Description dt:dt="string">E-Prime Primary Realtime Clock</Description><StartTime><Timestamp dt:dt="int">0</Timestamp><DateUtc dt:dt="string">2015-07-29T21:03:36Z</DateUtc></StartTime><FrequencyChanges><FrequencyChange><Frequency dt:dt="r8">3507695</Frequency><Timestamp dt:dt="r8">2139965252997</Timestamp><Current dt:dt="r8">0</Current><DateUtc dt:dt="string">2015-07-29T21:03:36Z</DateUtc></FrequencyChange></FrequencyChanges></Clock>\n	Hungry_Donkey_bar_English_2-115-1	60.018	-128	1.0.0.18	1	1072216389	Standard	2.0.10.353	2.0.10.353	07-29-2015	7/29/2015 9:03:36 PM	17:03:36	2.0.10.248	11	Bar37-63.bmp	40	2	?	0r_4g.bmp	0r_4g.bmp	0r_2g.bmp	0r_2g.bmp		0r_4g.bmp			TrialProc	TrialList	0	cvbn	-999999	16	144555	0	v	2856	147411	40	-60	-20	-6	-18	2	2	8	2	11	0	0	0	0	4	4	2	2	0	4
Hungry_Donkey_bar_English_2	115	1	<?xml version="1.0"?>\n<Clock xmlns:dt="urn:schemas-microsoft-com:datatypes"><Description dt:dt="string">E-Prime Primary Realtime Clock</Description><StartTime><Timestamp dt:dt="int">0</Timestamp><DateUtc dt:dt="string">2015-07-29T21:03:36Z</DateUtc></StartTime><FrequencyChanges><FrequencyChange><Frequency dt:dt="r8">3507695</Frequency><Timestamp dt:dt="r8">2139965252997</Timestamp><Current dt:dt="r8">0</Current><DateUtc dt:dt="string">2015-07-29T21:03:36Z</DateUtc></FrequencyChange></FrequencyChanges></Clock>\n	Hungry_Donkey_bar_English_2-115-1	60.018	-128	1.0.0.18	1	1072216389	Standard	2.0.10.353	2.0.10.353	07-29-2015	7/29/2015 9:03:36 PM	17:03:36	2.0.10.248	12	Bar25-75.bmp	29	2	?	8r_4g.bmp	50r_4g.bmp	1r_2g.bmp	10r_2g.bmp		50r_4g.bmp			TrialProc	TrialList	0	cvbn	-999999	16	149437	0	v	630	150067	44	-110	-66	-6	-64	2	2	1	2	12	-8	-50	-1	-10	4	4	2	2	-50	4
Hungry_Donkey_bar_English_2	115	1	<?xml version="1.0"?>\n<Clock xmlns:dt="urn:schemas-microsoft-com:datatypes"><Description dt:dt="string">E-Prime Primary Realtime Clock</Description><StartTime><Timestamp dt:dt="int">0</Timestamp><DateUtc dt:dt="string">2015-07-29T21:03:36Z</DateUtc></StartTime><FrequencyChanges><FrequencyChange><Frequency dt:dt="r8">3507695</Frequency><Timestamp dt:dt="r8">2139965252997</Timestamp><Current dt:dt="r8">0</Current><DateUtc dt:dt="string">2015-07-29T21:03:36Z</DateUtc></FrequencyChange></FrequencyChanges></Clock>\n	Hungry_Donkey_bar_English_2-115-1	60.018	-128	1.0.0.18	1	1072216389	Standard	2.0.10.353	2.0.10.353	07-29-2015	7/29/2015 9:03:36 PM	17:03:36	2.0.10.248	13	Bar25-75.bmp	29	3	?	10r_4g.bmp	0r_4g.bmp	2r_2g.bmp	0r_2g.bmp			2r_2g.bmp		TrialProc	TrialList	0	cvbn	-999999	16	152103	0	b	636	152739	46	-112	-66	-6	-64	2	2	2	2	13	-10	0	-2	0	4	4	2	2	-2	2
Hungry_Donkey_bar_English_2	115	1	<?xml version="1.0"?>\n<Clock xmlns:dt="urn:schemas-microsoft-com:datatypes"><Description dt:dt="string">E-Prime Primary Realtime Clock</Description><StartTime><Timestamp dt:dt="int">0</Timestamp><DateUtc dt:dt="string">2015-07-29T21:03:36Z</DateUtc></StartTime><FrequencyChanges><FrequencyChange><Frequency dt:dt="r8">3507695</Frequency><Timestamp dt:dt="r8">2139965252997</Timestamp><Current dt:dt="r8">0</Current><DateUtc dt:dt="string">2015-07-29T21:03:36Z</DateUtc></FrequencyChange></FrequencyChanges></Clock>\n	Hungry_Donkey_bar_English_2-115-1	60.018	-128	1.0.0.18	1	1072216389	Standard	2.0.10.353	2.0.10.353	07-29-2015	7/29/2015 9:03:36 PM	17:03:36	2.0.10.248	14	Bar25-75.bmp	31	2	?	0r_4g.bmp	0r_4g.bmp	0r_2g.bmp	0r_2g.bmp		0r_4g.bmp			TrialProc	TrialList	0	cvbn	-999999	16	154769	0	v	482	155251	50	-112	-62	-6	-60	2	2	6	2	14	0	0	0	0	4	4	2	2	0	4
Hungry_Donkey_bar_English_2	115	1	<?xml version="1.0"?>\n<Clock xmlns:dt="urn:schemas-microsoft-com:datatypes"><Description dt:dt="string">E-Prime Primary Realtime Clock</Description><StartTime><Timestamp dt:dt="int">0</Timestamp><DateUtc dt:dt="string">2015-07-29T21:03:36Z</DateUtc></StartTime><FrequencyChanges><FrequencyChange><Frequency dt:dt="r8">3507695</Frequency><Timestamp dt:dt="r8">2139965252997</Timestamp><Current dt:dt="r8">0</Current><DateUtc dt:dt="string">2015-07-29T21:03:36Z</DateUtc></FrequencyChange></FrequencyChanges></Clock>\n	Hungry_Donkey_bar_English_2-115-1	60.018	-128	1.0.0.18	1	1072216389	Standard	2.0.10.353	2.0.10.353	07-29-2015	7/29/2015 9:03:36 PM	17:03:36	2.0.10.248	15	Bar37-63.bmp	33	1	?	0r_4g.bmp	0r_4g.bmp	0r_2g.bmp	0r_2g.bmp	0r_4g.bmp				TrialProc	TrialList	0	cvbn	-999999	16	157285	0	c	1006	158291	54	-112	-58	-2	-60	2	2	10	2	15	0	0	0	0	4	4	2	2	0	4
Hungry_Donkey_bar_English_2	115	1	<?xml version="1.0"?>\n<Clock xmlns:dt="urn:schemas-microsoft-com:datatypes"><Description dt:dt="string">E-Prime Primary Realtime Clock</Description><StartTime><Timestamp dt:dt="int">0</Timestamp><DateUtc dt:dt="string">2015-07-29T21:03:36Z</DateUtc></StartTime><FrequencyChanges><FrequencyChange><Frequency dt:dt="r8">3507695</Frequency><Timestamp dt:dt="r8">2139965252997</Timestamp><Current dt:dt="r8">0</Current><DateUtc dt:dt="string">2015-07-29T21:03:36Z</DateUtc></FrequencyChange></FrequencyChanges></Clock>\n	Hungry_Donkey_bar_English_2-115-1	60.018	-128	1.0.0.18	1	1072216389	Standard	2.0.10.353	2.0.10.353	07-29-2015	7/29/2015 9:03:36 PM	17:03:36	2.0.10.248	16	Bar37-63.bmp	33	4	?	12r_4g.bmp	0r_4g.bmp	3r_2g.bmp	0r_2g.bmp				0r_2g.bmp	TrialProc	TrialList	0	cvbn	-999999	16	160317	0	n	598	160915	56	-112	-56	-2	-60	2	4	5	2	16	-12	0	-3	0	4	4	2	2	0	2
Hungry_Donkey_bar_English_2	115	1	<?xml version="1.0"?>\n<Clock xmlns:dt="urn:schemas-microsoft-com:datatypes"><Description dt:dt="string">E-Prime Primary Realtime Clock</Description><StartTime><Timestamp dt:dt="int">0</Timestamp><DateUtc dt:dt="string">2015-07-29T21:03:36Z</DateUtc></StartTime><FrequencyChanges><FrequencyChange><Frequency dt:dt="r8">3507695</Frequency><Timestamp dt:dt="r8">2139965252997</Timestamp><Current dt:dt="r8">0</Current><DateUtc dt:dt="string">2015-07-29T21:03:36Z</DateUtc></FrequencyChange></FrequencyChanges></Clock>\n	Hungry_Donkey_bar_English_2-115-1	60.018	-128	1.0.0.18	1	1072216389	Standard	2.0.10.353	2.0.10.353	07-29-2015	7/29/2015 9:03:36 PM	17:03:36	2.0.10.248	17	Bar37-63.bmp	34	3	?	10r_4g.bmp	0r_4g.bmp	2r_2g.bmp	0r_2g.bmp			2r_2g.bmp		TrialProc	TrialList	0	cvbn	-999999	16	162950	0	b	317	163267	58	-114	-56	-2	-60	2	4	4	2	17	-10	0	-2	0	4	4	2	2	-2	2
Hungry_Donkey_bar_English_2	115	1	<?xml version="1.0"?>\n<Clock xmlns:dt="urn:schemas-microsoft-com:datatypes"><Description dt:dt="string">E-Prime Primary Realtime Clock</Description><StartTime><Timestamp dt:dt="int">0</Timestamp><DateUtc dt:dt="string">2015-07-29T21:03:36Z</DateUtc></StartTime><FrequencyChanges><FrequencyChange><Frequency dt:dt="r8">3507695</Frequency><Timestamp dt:dt="r8">2139965252997</Timestamp><Current dt:dt="r8">0</Current><DateUtc dt:dt="string">2015-07-29T21:03:36Z</DateUtc></FrequencyChange></FrequencyChanges></Clock>\n	Hungry_Donkey_bar_English_2-115-1	60.018	-128	1.0.0.18	1	1072216389	Standard	2.0.10.353	2.0.10.353	07-29-2015	7/29/2015 9:03:36 PM	17:03:36	2.0.10.248	18	Bar37-63.bmp	35	2	?	10r_4g.bmp	0r_4g.bmp	2r_2g.bmp	0r_2g.bmp		0r_4g.bmp			TrialProc	TrialList	0	cvbn	-999999	16	165299	0	v	351	165650	62	-114	-52	-2	-56	2	4	3	2	18	-10	0	-2	0	4	4	2	2	0	4
Hungry_Donkey_bar_English_2	115	1	<?xml version="1.0"?>\n<Clock xmlns:dt="urn:schemas-microsoft-com:datatypes"><Description dt:dt="string">E-Prime Primary Realtime Clock</Description><StartTime><Timestamp dt:dt="int">0</Timestamp><DateUtc dt:dt="string">2015-07-29T21:03:36Z</DateUtc></StartTime><FrequencyChanges><FrequencyChange><Frequency dt:dt="r8">3507695</Frequency><Timestamp dt:dt="r8">2139965252997</Timestamp><Current dt:dt="r8">0</Current><DateUtc dt:dt="string">2015-07-29T21:03:36Z</DateUtc></FrequencyChange></FrequencyChanges></Clock>\n	Hungry_Donkey_bar_English_2-115-1	60.018	-128	1.0.0.18	1	1072216389	Standard	2.0.10.353	2.0.10.353	07-29-2015	7/29/2015 9:03:36 PM	17:03:36	2.0.10.248	19	Bar37-63.bmp	37	1	?	0r_4g.bmp	0r_4g.bmp	0r_2g.bmp	0r_2g.bmp	0r_4g.bmp				TrialProc	TrialList	0	cvbn	-999999	16	167682	0	c	848	168530	66	-114	-48	2	-56	2	4	9	2	19	0	0	0	0	4	4	2	2	0	4
Hungry_Donkey_bar_English_2	115	1	<?xml version="1.0"?>\n<Clock xmlns:dt="urn:schemas-microsoft-com:datatypes"><Description dt:dt="string">E-Prime Primary Realtime Clock</Description><StartTime><Timestamp dt:dt="int">0</Timestamp><DateUtc dt:dt="string">2015-07-29T21:03:36Z</DateUtc></StartTime><FrequencyChanges><FrequencyChange><Frequency dt:dt="r8">3507695</Frequency><Timestamp dt:dt="r8">2139965252997</Timestamp><Current dt:dt="r8">0</Current><DateUtc dt:dt="string">2015-07-29T21:03:36Z</DateUtc></FrequencyChange></FrequencyChanges></Clock>\n	Hungry_Donkey_bar_English_2-115-1	60.018	-128	1.0.0.18	1	1072216389	Standard	2.0.10.353	2.0.10.353	07-29-2015	7/29/2015 9:03:36 PM	17:03:36	2.0.10.248	20	Bar37-63.bmp	37	4	?	0r_4g.bmp	0r_4g.bmp	0r_2g.bmp	0r_2g.bmp				0r_2g.bmp	TrialProc	TrialList	0	cvbn	-999999	16	170564	0	n	1150	171714	68	-114	-46	2	-56	2	6	7	2	20	0	0	0	0	4	4	2	2	0	2
Hungry_Donkey_bar_English_2	115	1	<?xml version="1.0"?>\n<Clock xmlns:dt="urn:schemas-microsoft-com:datatypes"><Description dt:dt="string">E-Prime Primary Realtime Clock</Description><StartTime><Timestamp dt:dt="int">0</Timestamp><DateUtc dt:dt="string">2015-07-29T21:03:36Z</DateUtc></StartTime><FrequencyChanges><FrequencyChange><Frequency dt:dt="r8">3507695</Frequency><Timestamp dt:dt="r8">2139965252997</Timestamp><Current dt:dt="r8">0</Current><DateUtc dt:dt="string">2015-07-29T21:03:36Z</DateUtc></FrequencyChange></FrequencyChanges></Clock>\n	Hungry_Donkey_bar_English_2-115-1	60.018	-128	1.0.0.18	1	1072216389	Standard	2.0.10.353	2.0.10.353	07-29-2015	7/29/2015 9:03:36 PM	17:03:36	2.0.10.248	21	Bar37-63.bmp	38	4	?	0r_4g.bmp	0r_4g.bmp	0r_2g.bmp	0r_2g.bmp				0r_2g.bmp	TrialProc	TrialList	0	cvbn	-999999	16	173747	0	n	511	174258	70	-114	-44	2	-56	2	8	7	3	21	0	0	0	0	4	4	2	2	0	2
Hungry_Donkey_bar_English_2	115	1	<?xml version="1.0"?>\n<Clock xmlns:dt="urn:schemas-microsoft-com:datatypes"><Description dt:dt="string">E-Prime Primary Realtime Clock</Description><StartTime><Timestamp dt:dt="int">0</Timestamp><DateUtc dt:dt="string">2015-07-29T21:03:36Z</DateUtc></StartTime><FrequencyChanges><FrequencyChange><Frequency dt:dt="r8">3507695</Frequency><Timestamp dt:dt="r8">2139965252997</Timestamp><Current dt:dt="r8">0</Current><DateUtc dt:dt="string">2015-07-29T21:03:36Z</DateUtc></FrequencyChange></FrequencyChanges></Clock>\n	Hungry_Donkey_bar_English_2-115-1	60.018	-128	1.0.0.18	1	1072216389	Standard	2.0.10.353	2.0.10.353	07-29-2015	7/29/2015 9:03:36 PM	17:03:36	2.0.10.248	22	Bar37-63.bmp	39	2	?	0r_4g.bmp	0r_4g.bmp	0r_2g.bmp	0r_2g.bmp		0r_4g.bmp			TrialProc	TrialList	0	cvbn	-999999	16	176296	0	v	298	176594	74	-114	-40	2	-52	2	8	10	3	22	0	0	0	0	4	4	2	2	0	4
Hungry_Donkey_bar_English_2	115	1	<?xml version="1.0"?>\n<Clock xmlns:dt="urn:schemas-microsoft-com:datatypes"><Description dt:dt="string">E-Prime Primary Realtime Clock</Description><StartTime><Timestamp dt:dt="int">0</Timestamp><DateUtc dt:dt="string">2015-07-29T21:03:36Z</DateUtc></StartTime><FrequencyChanges><FrequencyChange><Frequency dt:dt="r8">3507695</Frequency><Timestamp dt:dt="r8">2139965252997</Timestamp><Current dt:dt="r8">0</Current><DateUtc dt:dt="string">2015-07-29T21:03:36Z</DateUtc></FrequencyChange></FrequencyChanges></Clock>\n	Hungry_Donkey_bar_English_2-115-1	60.018	-128	1.0.0.18	1	1072216389	Standard	2.0.10.353	2.0.10.353	07-29-2015	7/29/2015 9:03:36 PM	17:03:36	2.0.10.248	23	Bar37-63.bmp	41	2	?	10r_4g.bmp	0r_4g.bmp	2r_2g.bmp	0r_2g.bmp		0r_4g.bmp			TrialProc	TrialList	0	cvbn	-999999	16	178629	0	v	221	178850	78	-114	-36	2	-48	2	8	4	3	23	-10	0	-2	0	4	4	2	2	0	4
Hungry_Donkey_bar_English_2	115	1	<?xml version="1.0"?>\n<Clock xmlns:dt="urn:schemas-microsoft-com:datatypes"><Description dt:dt="string">E-Prime Primary Realtime Clock</Description><StartTime><Timestamp dt:dt="int">0</Timestamp><DateUtc dt:dt="string">2015-07-29T21:03:36Z</DateUtc></StartTime><FrequencyChanges><FrequencyChange><Frequency dt:dt="r8">3507695</Frequency><Timestamp dt:dt="r8">2139965252997</Timestamp><Current dt:dt="r8">0</Current><DateUtc dt:dt="string">2015-07-29T21:03:36Z</DateUtc></FrequencyChange></FrequencyChanges></Clock>\n	Hungry_Donkey_bar_English_2-115-1	60.018	-128	1.0.0.18	1	1072216389	Standard	2.0.10.353	2.0.10.353	07-29-2015	7/29/2015 9:03:36 PM	17:03:36	2.0.10.248	24	Bar37-63.bmp	41	3	?	10r_4g.bmp	0r_4g.bmp	2r_2g.bmp	0r_2g.bmp			2r_2g.bmp		TrialProc	TrialList	0	cvbn	-999999	16	180878	0	b	228	181106	80	-116	-36	2	-48	2	8	2	3	24	-10	0	-2	0	4	4	2	2	-2	2
Hungry_Donkey_bar_English_2	115	1	<?xml version="1.0"?>\n<Clock xmlns:dt="urn:schemas-microsoft-com:datatypes"><Description dt:dt="string">E-Prime Primary Realtime Clock</Description><StartTime><Timestamp dt:dt="int">0</Timestamp><DateUtc dt:dt="string">2015-07-29T21:03:36Z</DateUtc></StartTime><FrequencyChanges><FrequencyChange><Frequency dt:dt="r8">3507695</Frequency><Timestamp dt:dt="r8">2139965252997</Timestamp><Current dt:dt="r8">0</Current><DateUtc dt:dt="string">2015-07-29T21:03:36Z</DateUtc></FrequencyChange></FrequencyChanges></Clock>\n	Hungry_Donkey_bar_English_2-115-1	60.018	-128	1.0.0.18	1	1072216389	Standard	2.0.10.353	2.0.10.353	07-29-2015	7/29/2015 9:03:36 PM	17:03:36	2.0.10.248	25	Bar37-63.bmp	42	2	?	0r_4g.bmp	0r_4g.bmp	0r_2g.bmp	0r_2g.bmp		0r_4g.bmp			TrialProc	TrialList	0	cvbn	-999999	16	183144	0	v	137	183281	84	-116	-32	2	-44	2	8	6	3	25	0	0	0	0	4	4	2	2	0	4
Hungry_Donkey_bar_English_2	115	1	<?xml version="1.0"?>\n<Clock xmlns:dt="urn:schemas-microsoft-com:datatypes"><Description dt:dt="string">E-Prime Primary Realtime Clock</Description><StartTime><Timestamp dt:dt="int">0</Timestamp><DateUtc dt:dt="string">2015-07-29T21:03:36Z</DateUtc></StartTime><FrequencyChanges><FrequencyChange><Frequency dt:dt="r8">3507695</Frequency><Timestamp dt:dt="r8">2139965252997</Timestamp><Current dt:dt="r8">0</Current><DateUtc dt:dt="string">2015-07-29T21:03:36Z</DateUtc></FrequencyChange></FrequencyChanges></Clock>\n	Hungry_Donkey_bar_English_2-115-1	60.018	-128	1.0.0.18	1	1072216389	Standard	2.0.10.353	2.0.10.353	07-29-2015	7/29/2015 9:03:36 PM	17:03:36	2.0.10.248	26	Bar37-63.bmp	43	2	?	0r_4g.bmp	0r_4g.bmp	0r_2g.bmp	0r_2g.bmp		0r_4g.bmp			TrialProc	TrialList	0	cvbn	-999999	16	185310	0	v	227	185537	88	-116	-28	2	-40	2	8	9	3	26	0	0	0	0	4	4	2	2	0	4
Hungry_Donkey_bar_English_2	115	1	<?xml version="1.0"?>\n<Clock xmlns:dt="urn:schemas-microsoft-com:datatypes"><Description dt:dt="string">E-Prime Primary Realtime Clock</Description><StartTime><Timestamp dt:dt="int">0</Timestamp><DateUtc dt:dt="string">2015-07-29T21:03:36Z</DateUtc></StartTime><FrequencyChanges><FrequencyChange><Frequency dt:dt="r8">3507695</Frequency><Timestamp dt:dt="r8">2139965252997</Timestamp><Current dt:dt="r8">0</Current><DateUtc dt:dt="string">2015-07-29T21:03:36Z</DateUtc></FrequencyChange></FrequencyChanges></Clock>\n	Hungry_Donkey_bar_English_2-115-1	60.018	-128	1.0.0.18	1	1072216389	Standard	2.0.10.353	2.0.10.353	07-29-2015	7/29/2015 9:03:36 PM	17:03:36	2.0.10.248	27	Bar50-50.bmp	44	2	?	12r_4g.bmp	0r_4g.bmp	3r_2g.bmp	0r_2g.bmp		0r_4g.bmp			TrialProc	TrialList	0	cvbn	-999999	16	187576	0	v	265	187841	92	-116	-24	2	-36	2	8	5	3	27	-12	0	-3	0	4	4	2	2	0	4
Hungry_Donkey_bar_English_2	115	1	<?xml version="1.0"?>\n<Clock xmlns:dt="urn:schemas-microsoft-com:datatypes"><Description dt:dt="string">E-Prime Primary Realtime Clock</Description><StartTime><Timestamp dt:dt="int">0</Timestamp><DateUtc dt:dt="string">2015-07-29T21:03:36Z</DateUtc></StartTime><FrequencyChanges><FrequencyChange><Frequency dt:dt="r8">3507695</Frequency><Timestamp dt:dt="r8">2139965252997</Timestamp><Current dt:dt="r8">0</Current><DateUtc dt:dt="string">2015-07-29T21:03:36Z</DateUtc></FrequencyChange></FrequencyChanges></Clock>\n	Hungry_Donkey_bar_English_2-115-1	60.018	-128	1.0.0.18	1	1072216389	Standard	2.0.10.353	2.0.10.353	07-29-2015	7/29/2015 9:03:36 PM	17:03:36	2.0.10.248	28	Bar50-50.bmp	45	2	?	10r_4g.bmp	0r_4g.bmp	2r_2g.bmp	0r_2g.bmp		0r_4g.bmp			TrialProc	TrialList	0	cvbn	-999999	16	189875	0	v	414	190289	96	-116	-20	2	-32	2	8	3	3	28	-10	0	-2	0	4	4	2	2	0	4
Hungry_Donkey_bar_English_2	115	1	<?xml version="1.0"?>\n<Clock xmlns:dt="urn:schemas-microsoft-com:datatypes"><Description dt:dt="string">E-Prime Primary Realtime Clock</Description><StartTime><Timestamp dt:dt="int">0</Timestamp><DateUtc dt:dt="string">2015-07-29T21:03:36Z</DateUtc></StartTime><FrequencyChanges><FrequencyChange><Frequency dt:dt="r8">3507695</Frequency><Timestamp dt:dt="r8">2139965252997</Timestamp><Current dt:dt="r8">0</Current><DateUtc dt:dt="string">2015-07-29T21:03:36Z</DateUtc></FrequencyChange></FrequencyChanges></Clock>\n	Hungry_Donkey_bar_English_2-115-1	60.018	-128	1.0.0.18	1	1072216389	Standard	2.0.10.353	2.0.10.353	07-29-2015	7/29/2015 9:03:36 PM	17:03:36	2.0.10.248	29	Bar50-50.bmp	45	1	?	8r_4g.bmp	50r_4g.bmp	1r_2g.bmp	10r_2g.bmp	8r_4g.bmp				TrialProc	TrialList	0	cvbn	-999999	16	192325	0	c	1260	193585	100	-124	-24	-2	-32	2	8	1	3	29	-8	-50	-1	-10	4	4	2	2	-8	4
Hungry_Donkey_bar_English_2	115	1	<?xml version="1.0"?>\n<Clock xmlns:dt="urn:schemas-microsoft-com:datatypes"><Description dt:dt="string">E-Prime Primary Realtime Clock</Description><StartTime><Timestamp dt:dt="int">0</Timestamp><DateUtc dt:dt="string">2015-07-29T21:03:36Z</DateUtc></StartTime><FrequencyChanges><FrequencyChange><Frequency dt:dt="r8">3507695</Frequency><Timestamp dt:dt="r8">2139965252997</Timestamp><Current dt:dt="r8">0</Current><DateUtc dt:dt="string">2015-07-29T21:03:36Z</DateUtc></FrequencyChange></FrequencyChanges></Clock>\n	Hungry_Donkey_bar_English_2-115-1	60.018	-128	1.0.0.18	1	1072216389	Standard	2.0.10.353	2.0.10.353	07-29-2015	7/29/2015 9:03:36 PM	17:03:36	2.0.10.248	30	Bar50-50.bmp	46	2	?	0r_4g.bmp	0r_4g.bmp	0r_2g.bmp	0r_2g.bmp		0r_4g.bmp			TrialProc	TrialList	0	cvbn	-999999	16	195624	0	v	1065	196689	104	-124	-20	-2	-28	2	8	8	3	30	0	0	0	0	4	4	2	2	0	4
Hungry_Donkey_bar_English_2	115	1	<?xml version="1.0"?>\n<Clock xmlns:dt="urn:schemas-microsoft-com:datatypes"><Description dt:dt="string">E-Prime Primary Realtime Clock</Description><StartTime><Timestamp dt:dt="int">0</Timestamp><DateUtc dt:dt="string">2015-07-29T21:03:36Z</DateUtc></StartTime><FrequencyChanges><FrequencyChange><Frequency dt:dt="r8">3507695</Frequency><Timestamp dt:dt="r8">2139965252997</Timestamp><Current dt:dt="r8">0</Current><DateUtc dt:dt="string">2015-07-29T21:03:36Z</DateUtc></FrequencyChange></FrequencyChanges></Clock>\n	Hungry_Donkey_bar_English_2-115-1	60.018	-128	1.0.0.18	1	1072216389	Standard	2.0.10.353	2.0.10.353	07-29-2015	7/29/2015 9:03:36 PM	17:03:36	2.0.10.248	31	Bar50-50.bmp	47	2	?	12r_4g.bmp	0r_4g.bmp	3r_2g.bmp	0r_2g.bmp		0r_4g.bmp			TrialProc	TrialList	0	cvbn	-999999	16	198723	0	v	382	199105	108	-124	-16	-2	-24	2	8	5	4	31	-12	0	-3	0	4	4	2	2	0	4
Hungry_Donkey_bar_English_2	115	1	<?xml version="1.0"?>\n<Clock xmlns:dt="urn:schemas-microsoft-com:datatypes"><Description dt:dt="string">E-Prime Primary Realtime Clock</Description><StartTime><Timestamp dt:dt="int">0</Timestamp><DateUtc dt:dt="string">2015-07-29T21:03:36Z</DateUtc></StartTime><FrequencyChanges><FrequencyChange><Frequency dt:dt="r8">3507695</Frequency><Timestamp dt:dt="r8">2139965252997</Timestamp><Current dt:dt="r8">0</Current><DateUtc dt:dt="string">2015-07-29T21:03:36Z</DateUtc></FrequencyChange></FrequencyChanges></Clock>\n	Hungry_Donkey_bar_English_2-115-1	60.018	-128	1.0.0.18	1	1072216389	Standard	2.0.10.353	2.0.10.353	07-29-2015	7/29/2015 9:03:36 PM	17:03:36	2.0.10.248	32	Bar50-50.bmp	47	2	?	0r_4g.bmp	0r_4g.bmp	0r_2g.bmp	0r_2g.bmp		0r_4g.bmp			TrialProc	TrialList	0	cvbn	-999999	16	201139	0	v	365	201504	112	-124	-12	-2	-20	2	8	7	4	32	0	0	0	0	4	4	2	2	0	4
Hungry_Donkey_bar_English_2	115	1	<?xml version="1.0"?>\n<Clock xmlns:dt="urn:schemas-microsoft-com:datatypes"><Description dt:dt="string">E-Prime Primary Realtime Clock</Description><StartTime><Timestamp dt:dt="int">0</Timestamp><DateUtc dt:dt="string">2015-07-29T21:03:36Z</DateUtc></StartTime><FrequencyChanges><FrequencyChange><Frequency dt:dt="r8">3507695</Frequency><Timestamp dt:dt="r8">2139965252997</Timestamp><Current dt:dt="r8">0</Current><DateUtc dt:dt="string">2015-07-29T21:03:36Z</DateUtc></FrequencyChange></FrequencyChanges></Clock>\n	Hungry_Donkey_bar_English_2-115-1	60.018	-128	1.0.0.18	1	1072216389	Standard	2.0.10.353	2.0.10.353	07-29-2015	7/29/2015 9:03:36 PM	17:03:36	2.0.10.248	33	Bar50-50.bmp	48	2	?	10r_4g.bmp	0r_4g.bmp	2r_2g.bmp	0r_2g.bmp		0r_4g.bmp			TrialProc	TrialList	0	cvbn	-999999	16	203538	0	v	286	203824	116	-124	-8	-2	-16	2	8	2	4	33	-10	0	-2	0	4	4	2	2	0	4
Hungry_Donkey_bar_English_2	115	1	<?xml version="1.0"?>\n<Clock xmlns:dt="urn:schemas-microsoft-com:datatypes"><Description dt:dt="string">E-Prime Primary Realtime Clock</Description><StartTime><Timestamp dt:dt="int">0</Timestamp><DateUtc dt:dt="string">2015-07-29T21:03:36Z</DateUtc></StartTime><FrequencyChanges><FrequencyChange><Frequency dt:dt="r8">3507695</Frequency><Timestamp dt:dt="r8">2139965252997</Timestamp><Current dt:dt="r8">0</Current><DateUtc dt:dt="string">2015-07-29T21:03:36Z</DateUtc></FrequencyChange></FrequencyChanges></Clock>\n	Hungry_Donkey_bar_English_2-115-1	60.018	-128	1.0.0.18	1	1072216389	Standard	2.0.10.353	2.0.10.353	07-29-2015	7/29/2015 9:03:36 PM	17:03:36	2.0.10.248	34	Bar37-63.bmp	41	2	?	8r_4g.bmp	50r_4g.bmp	1r_2g.bmp	10r_2g.bmp		50r_4g.bmp			TrialProc	TrialList	0	cvbn	-999999	16	205854	0	v	162	206016	120	-174	-54	-2	-62	2	8	1	4	34	-8	-50	-1	-10	4	4	2	2	-50	4
Hungry_Donkey_bar_English_2	115	1	<?xml version="1.0"?>\n<Clock xmlns:dt="urn:schemas-microsoft-com:datatypes"><Description dt:dt="string">E-Prime Primary Realtime Clock</Description><StartTime><Timestamp dt:dt="int">0</Timestamp><DateUtc dt:dt="string">2015-07-29T21:03:36Z</DateUtc></StartTime><FrequencyChanges><FrequencyChange><Frequency dt:dt="r8">3507695</Frequency><Timestamp dt:dt="r8">2139965252997</Timestamp><Current dt:dt="r8">0</Current><DateUtc dt:dt="string">2015-07-29T21:03:36Z</DateUtc></FrequencyChange></FrequencyChanges></Clock>\n	Hungry_Donkey_bar_English_2-115-1	60.018	-128	1.0.0.18	1	1072216389	Standard	2.0.10.353	2.0.10.353	07-29-2015	7/29/2015 9:03:36 PM	17:03:36	2.0.10.248	35	Bar37-63.bmp	42	2	?	0r_4g.bmp	0r_4g.bmp	0r_2g.bmp	0r_2g.bmp		0r_4g.bmp			TrialProc	TrialList	0	cvbn	-999999	16	208053	0	v	555	208608	124	-174	-50	-2	-58	2	8	6	4	35	0	0	0	0	4	4	2	2	0	4
Hungry_Donkey_bar_English_2	115	1	<?xml version="1.0"?>\n<Clock xmlns:dt="urn:schemas-microsoft-com:datatypes"><Description dt:dt="string">E-Prime Primary Realtime Clock</Description><StartTime><Timestamp dt:dt="int">0</Timestamp><DateUtc dt:dt="string">2015-07-29T21:03:36Z</DateUtc></StartTime><FrequencyChanges><FrequencyChange><Frequency dt:dt="r8">3507695</Frequency><Timestamp dt:dt="r8">2139965252997</Timestamp><Current dt:dt="r8">0</Current><DateUtc dt:dt="string">2015-07-29T21:03:36Z</DateUtc></FrequencyChange></FrequencyChanges></Clock>\n	Hungry_Donkey_bar_English_2-115-1	60.018	-128	1.0.0.18	1	1072216389	Standard	2.0.10.353	2.0.10.353	07-29-2015	7/29/2015 9:03:36 PM	17:03:36	2.0.10.248	36	Bar37-63.bmp	42	2	?	10r_4g.bmp	0r_4g.bmp	2r_2g.bmp	0r_2g.bmp		0r_4g.bmp			TrialProc	TrialList	0	cvbn	-999999	16	210636	0	v	612	211248	128	-174	-46	-2	-54	2	8	3	4	36	-10	0	-2	0	4	4	2	2	0	4
Hungry_Donkey_bar_English_2	115	1	<?xml version="1.0"?>\n<Clock xmlns:dt="urn:schemas-microsoft-com:datatypes"><Description dt:dt="string">E-Prime Primary Realtime Clock</Description><StartTime><Timestamp dt:dt="int">0</Timestamp><DateUtc dt:dt="string">2015-07-29T21:03:36Z</DateUtc></StartTime><FrequencyChanges><FrequencyChange><Frequency dt:dt="r8">3507695</Frequency><Timestamp dt:dt="r8">2139965252997</Timestamp><Current dt:dt="r8">0</Current><DateUtc dt:dt="string">2015-07-29T21:03:36Z</DateUtc></FrequencyChange></FrequencyChanges></Clock>\n	Hungry_Donkey_bar_English_2-115-1	60.018	-128	1.0.0.18	1	1072216389	Standard	2.0.10.353	2.0.10.353	07-29-2015	7/29/2015 9:03:36 PM	17:03:36	2.0.10.248	37	Bar37-63.bmp	43	2	?	0r_4g.bmp	0r_4g.bmp	0r_2g.bmp	0r_2g.bmp		0r_4g.bmp			TrialProc	TrialList	0	cvbn	-999999	16	213285	0	v	283	213568	132	-174	-42	-2	-50	2	8	9	4	37	0	0	0	0	4	4	2	2	0	4
Hungry_Donkey_bar_English_2	115	1	<?xml version="1.0"?>\n<Clock xmlns:dt="urn:schemas-microsoft-com:datatypes"><Description dt:dt="string">E-Prime Primary Realtime Clock</Description><StartTime><Timestamp dt:dt="int">0</Timestamp><DateUtc dt:dt="string">2015-07-29T21:03:36Z</DateUtc></StartTime><FrequencyChanges><FrequencyChange><Frequency dt:dt="r8">3507695</Frequency><Timestamp dt:dt="r8">2139965252997</Timestamp><Current dt:dt="r8">0</Current><DateUtc dt:dt="string">2015-07-29T21:03:36Z</DateUtc></FrequencyChange></FrequencyChanges></Clock>\n	Hungry_Donkey_bar_English_2-115-1	60.018	-128	1.0.0.18	1	1072216389	Standard	2.0.10.353	2.0.10.353	07-29-2015	7/29/2015 9:03:36 PM	17:03:36	2.0.10.248	38	Bar50-50.bmp	44	2	?	0r_4g.bmp	0r_4g.bmp	0r_2g.bmp	0r_2g.bmp		0r_4g.bmp			TrialProc	TrialList	0	cvbn	-999999	16	215601	0	v	239	215840	136	-174	-38	-2	-46	2	8	10	4	38	0	0	0	0	4	4	2	2	0	4
Hungry_Donkey_bar_English_2	115	1	<?xml version="1.0"?>\n<Clock xmlns:dt="urn:schemas-microsoft-com:datatypes"><Description dt:dt="string">E-Prime Primary Realtime Clock</Description><StartTime><Timestamp dt:dt="int">0</Timestamp><DateUtc dt:dt="string">2015-07-29T21:03:36Z</DateUtc></StartTime><FrequencyChanges><FrequencyChange><Frequency dt:dt="r8">3507695</Frequency><Timestamp dt:dt="r8">2139965252997</Timestamp><Current dt:dt="r8">0</Current><DateUtc dt:dt="string">2015-07-29T21:03:36Z</DateUtc></FrequencyChange></FrequencyChanges></Clock>\n	Hungry_Donkey_bar_English_2-115-1	60.018	-128	1.0.0.18	1	1072216389	Standard	2.0.10.353	2.0.10.353	07-29-2015	7/29/2015 9:03:36 PM	17:03:36	2.0.10.248	39	Bar50-50.bmp	45	2	?	10r_4g.bmp	0r_4g.bmp	2r_2g.bmp	0r_2g.bmp		0r_4g.bmp			TrialProc	TrialList	0	cvbn	-999999	16	217867	0	v	261	218128	140	-174	-34	-2	-42	2	8	4	4	39	-10	0	-2	0	4	4	2	2	0	4
Hungry_Donkey_bar_English_2	115	1	<?xml version="1.0"?>\n<Clock xmlns:dt="urn:schemas-microsoft-com:datatypes"><Description dt:dt="string">E-Prime Primary Realtime Clock</Description><StartTime><Timestamp dt:dt="int">0</Timestamp><DateUtc dt:dt="string">2015-07-29T21:03:36Z</DateUtc></StartTime><FrequencyChanges><FrequencyChange><Frequency dt:dt="r8">3507695</Frequency><Timestamp dt:dt="r8">2139965252997</Timestamp><Current dt:dt="r8">0</Current><DateUtc dt:dt="string">2015-07-29T21:03:36Z</DateUtc></FrequencyChange></FrequencyChanges></Clock>\n	Hungry_Donkey_bar_English_2-115-1	60.018	-128	1.0.0.18	1	1072216389	Standard	2.0.10.353	2.0.10.353	07-29-2015	7/29/2015 9:03:36 PM	17:03:36	2.0.10.248	40	Bar50-50.bmp	45	1	?	0r_4g.bmp	0r_4g.bmp	0r_2g.bmp	0r_2g.bmp	0r_4g.bmp				TrialProc	TrialList	0	cvbn	-999999	17	220167	0	c	1384	221551	144	-174	-30	2	-42	2	8	8	4	40	0	0	0	0	4	4	2	2	0	4
Hungry_Donkey_bar_English_2	115	1	<?xml version="1.0"?>\n<Clock xmlns:dt="urn:schemas-microsoft-com:datatypes"><Description dt:dt="string">E-Prime Primary Realtime Clock</Description><StartTime><Timestamp dt:dt="int">0</Timestamp><DateUtc dt:dt="string">2015-07-29T21:03:36Z</DateUtc></StartTime><FrequencyChanges><FrequencyChange><Frequency dt:dt="r8">3507695</Frequency><Timestamp dt:dt="r8">2139965252997</Timestamp><Current dt:dt="r8">0</Current><DateUtc dt:dt="string">2015-07-29T21:03:36Z</DateUtc></FrequencyChange></FrequencyChanges></Clock>\n	Hungry_Donkey_bar_English_2-115-1	60.018	-128	1.0.0.18	1	1072216389	Standard	2.0.10.353	2.0.10.353	07-29-2015	7/29/2015 9:03:36 PM	17:03:36	2.0.10.248	41	Bar50-50.bmp	46	2	?	0r_4g.bmp	0r_4g.bmp	0r_2g.bmp	0r_2g.bmp		0r_4g.bmp			TrialProc	TrialList	0	cvbn	-999999	16	223582	0	v	321	223903	148	-174	-26	2	-38	2	8	10	5	41	0	0	0	0	4	4	2	2	0	4
Hungry_Donkey_bar_English_2	115	1	<?xml version="1.0"?>\n<Clock xmlns:dt="urn:schemas-microsoft-com:datatypes"><Description dt:dt="string">E-Prime Primary Realtime Clock</Description><StartTime><Timestamp dt:dt="int">0</Timestamp><DateUtc dt:dt="string">2015-07-29T21:03:36Z</DateUtc></StartTime><FrequencyChanges><FrequencyChange><Frequency dt:dt="r8">3507695</Frequency><Timestamp dt:dt="r8">2139965252997</Timestamp><Current dt:dt="r8">0</Current><DateUtc dt:dt="string">2015-07-29T21:03:36Z</DateUtc></FrequencyChange></FrequencyChanges></Clock>\n	Hungry_Donkey_bar_English_2-115-1	60.018	-128	1.0.0.18	1	1072216389	Standard	2.0.10.353	2.0.10.353	07-29-2015	7/29/2015 9:03:36 PM	17:03:36	2.0.10.248	42	Bar50-50.bmp	46	4	?	0r_4g.bmp	0r_4g.bmp	0r_2g.bmp	0r_2g.bmp				0r_2g.bmp	TrialProc	TrialList	0	cvbn	-999999	16	225931	0	n	372	226303	150	-174	-24	2	-38	2	10	8	5	42	0	0	0	0	4	4	2	2	0	2
Hungry_Donkey_bar_English_2	115	1	<?xml version="1.0"?>\n<Clock xmlns:dt="urn:schemas-microsoft-com:datatypes"><Description dt:dt="string">E-Prime Primary Realtime Clock</Description><StartTime><Timestamp dt:dt="int">0</Timestamp><DateUtc dt:dt="string">2015-07-29T21:03:36Z</DateUtc></StartTime><FrequencyChanges><FrequencyChange><Frequency dt:dt="r8">3507695</Frequency><Timestamp dt:dt="r8">2139965252997</Timestamp><Current dt:dt="r8">0</Current><DateUtc dt:dt="string">2015-07-29T21:03:36Z</DateUtc></FrequencyChange></FrequencyChanges></Clock>\n	Hungry_Donkey_bar_English_2-115-1	60.018	-128	1.0.0.18	1	1072216389	Standard	2.0.10.353	2.0.10.353	07-29-2015	7/29/2015 9:03:36 PM	17:03:36	2.0.10.248	43	Bar50-50.bmp	46	3	?	8r_4g.bmp	50r_4g.bmp	1r_2g.bmp	10r_2g.bmp			1r_2g.bmp		TrialProc	TrialList	0	cvbn	-999999	16	228331	0	b	692	229023	152	-175	-23	2	-38	3	10	1	5	43	-8	-50	-1	-10	4	4	2	2	-1	2
Hungry_Donkey_bar_English_2	115	1	<?xml version="1.0"?>\n<Clock xmlns:dt="urn:schemas-microsoft-com:datatypes"><Description dt:dt="string">E-Prime Primary Realtime Clock</Description><StartTime><Timestamp dt:dt="int">0</Timestamp><DateUtc dt:dt="string">2015-07-29T21:03:36Z</DateUtc></StartTime><FrequencyChanges><FrequencyChange><Frequency dt:dt="r8">3507695</Frequency><Timestamp dt:dt="r8">2139965252997</Timestamp><Current dt:dt="r8">0</Current><DateUtc dt:dt="string">2015-07-29T21:03:36Z</DateUtc></FrequencyChange></FrequencyChanges></Clock>\n	Hungry_Donkey_bar_English_2-115-1	60.018	-128	1.0.0.18	1	1072216389	Standard	2.0.10.353	2.0.10.353	07-29-2015	7/29/2015 9:03:36 PM	17:03:36	2.0.10.248	44	Bar50-50.bmp	47	4	?	0r_4g.bmp	0r_4g.bmp	0r_2g.bmp	0r_2g.bmp				0r_2g.bmp	TrialProc	TrialList	0	cvbn	-999999	16	231063	0	n	696	231759	154	-175	-21	2	-38	3	12	9	5	44	0	0	0	0	4	4	2	2	0	2
Hungry_Donkey_bar_English_2	115	1	<?xml version="1.0"?>\n<Clock xmlns:dt="urn:schemas-microsoft-com:datatypes"><Description dt:dt="string">E-Prime Primary Realtime Clock</Description><StartTime><Timestamp dt:dt="int">0</Timestamp><DateUtc dt:dt="string">2015-07-29T21:03:36Z</DateUtc></StartTime><FrequencyChanges><FrequencyChange><Frequency dt:dt="r8">3507695</Frequency><Timestamp dt:dt="r8">2139965252997</Timestamp><Current dt:dt="r8">0</Current><DateUtc dt:dt="string">2015-07-29T21:03:36Z</DateUtc></FrequencyChange></FrequencyChanges></Clock>\n	Hungry_Donkey_bar_English_2-115-1	60.018	-128	1.0.0.18	1	1072216389	Standard	2.0.10.353	2.0.10.353	07-29-2015	7/29/2015 9:03:36 PM	17:03:36	2.0.10.248	45	Bar50-50.bmp	47	2	?	10r_4g.bmp	0r_4g.bmp	2r_2g.bmp	0r_2g.bmp		0r_4g.bmp			TrialProc	TrialList	0	cvbn	-999999	16	233796	0	v	299	234095	158	-175	-17	2	-34	3	12	2	5	45	-10	0	-2	0	4	4	2	2	0	4
Hungry_Donkey_bar_English_2	115	1	<?xml version="1.0"?>\n<Clock xmlns:dt="urn:schemas-microsoft-com:datatypes"><Description dt:dt="string">E-Prime Primary Realtime Clock</Description><StartTime><Timestamp dt:dt="int">0</Timestamp><DateUtc dt:dt="string">2015-07-29T21:03:36Z</DateUtc></StartTime><FrequencyChanges><FrequencyChange><Frequency dt:dt="r8">3507695</Frequency><Timestamp dt:dt="r8">2139965252997</Timestamp><Current dt:dt="r8">0</Current><DateUtc dt:dt="string">2015-07-29T21:03:36Z</DateUtc></FrequencyChange></FrequencyChanges></Clock>\n	Hungry_Donkey_bar_English_2-115-1	60.018	-128	1.0.0.18	1	1072216389	Standard	2.0.10.353	2.0.10.353	07-29-2015	7/29/2015 9:03:36 PM	17:03:36	2.0.10.248	46	Bar50-50.bmp	48	3	?	0r_4g.bmp	0r_4g.bmp	0r_2g.bmp	0r_2g.bmp			0r_2g.bmp		TrialProc	TrialList	0	cvbn	-999999	17	236129	0	b	446	236575	160	-175	-15	2	-34	5	12	7	5	46	0	0	0	0	4	4	2	2	0	2
Hungry_Donkey_bar_English_2	115	1	<?xml version="1.0"?>\n<Clock xmlns:dt="urn:schemas-microsoft-com:datatypes"><Description dt:dt="string">E-Prime Primary Realtime Clock</Description><StartTime><Timestamp dt:dt="int">0</Timestamp><DateUtc dt:dt="string">2015-07-29T21:03:36Z</DateUtc></StartTime><FrequencyChanges><FrequencyChange><Frequency dt:dt="r8">3507695</Frequency><Timestamp dt:dt="r8">2139965252997</Timestamp><Current dt:dt="r8">0</Current><DateUtc dt:dt="string">2015-07-29T21:03:36Z</DateUtc></FrequencyChange></FrequencyChanges></Clock>\n	Hungry_Donkey_bar_English_2-115-1	60.018	-128	1.0.0.18	1	1072216389	Standard	2.0.10.353	2.0.10.353	07-29-2015	7/29/2015 9:03:36 PM	17:03:36	2.0.10.248	47	Bar50-50.bmp	48	3	?	12r_4g.bmp	0r_4g.bmp	3r_2g.bmp	0r_2g.bmp			3r_2g.bmp		TrialProc	TrialList	0	cvbn	-999999	16	238611	0	b	299	238910	162	-178	-16	2	-34	4	12	5	5	47	-12	0	-3	0	4	4	2	2	-3	2
Hungry_Donkey_bar_English_2	115	1	<?xml version="1.0"?>\n<Clock xmlns:dt="urn:schemas-microsoft-com:datatypes"><Description dt:dt="string">E-Prime Primary Realtime Clock</Description><StartTime><Timestamp dt:dt="int">0</Timestamp><DateUtc dt:dt="string">2015-07-29T21:03:36Z</DateUtc></StartTime><FrequencyChanges><FrequencyChange><Frequency dt:dt="r8">3507695</Frequency><Timestamp dt:dt="r8">2139965252997</Timestamp><Current dt:dt="r8">0</Current><DateUtc dt:dt="string">2015-07-29T21:03:36Z</DateUtc></FrequencyChange></FrequencyChanges></Clock>\n	Hungry_Donkey_bar_English_2-115-1	60.018	-128	1.0.0.18	1	1072216389	Standard	2.0.10.353	2.0.10.353	07-29-2015	7/29/2015 9:03:36 PM	17:03:36	2.0.10.248	48	Bar50-50.bmp	48	2	?	10r_4g.bmp	0r_4g.bmp	2r_2g.bmp	0r_2g.bmp		0r_4g.bmp			TrialProc	TrialList	0	cvbn	-999999	16	240944	0	v	350	241294	166	-178	-12	2	-30	4	12	4	5	48	-10	0	-2	0	4	4	2	2	0	4
Hungry_Donkey_bar_English_2	115	1	<?xml version="1.0"?>\n<Clock xmlns:dt="urn:schemas-microsoft-com:datatypes"><Description dt:dt="string">E-Prime Primary Realtime Clock</Description><StartTime><Timestamp dt:dt="int">0</Timestamp><DateUtc dt:dt="string">2015-07-29T21:03:36Z</DateUtc></StartTime><FrequencyChanges><FrequencyChange><Frequency dt:dt="r8">3507695</Frequency><Timestamp dt:dt="r8">2139965252997</Timestamp><Current dt:dt="r8">0</Current><DateUtc dt:dt="string">2015-07-29T21:03:36Z</DateUtc></FrequencyChange></FrequencyChanges></Clock>\n	Hungry_Donkey_bar_English_2-115-1	60.018	-128	1.0.0.18	1	1072216389	Standard	2.0.10.353	2.0.10.353	07-29-2015	7/29/2015 9:03:36 PM	17:03:36	2.0.10.248	49	Bar50-50.bmp	49	1	?	0r_4g.bmp	0r_4g.bmp	0r_2g.bmp	0r_2g.bmp	0r_4g.bmp				TrialProc	TrialList	0	cvbn	-999999	16	243326	0	c	784	244110	170	-178	-8	6	-30	4	12	6	5	49	0	0	0	0	4	4	2	2	0	4
Hungry_Donkey_bar_English_2	115	1	<?xml version="1.0"?>\n<Clock xmlns:dt="urn:schemas-microsoft-com:datatypes"><Description dt:dt="string">E-Prime Primary Realtime Clock</Description><StartTime><Timestamp dt:dt="int">0</Timestamp><DateUtc dt:dt="string">2015-07-29T21:03:36Z</DateUtc></StartTime><FrequencyChanges><FrequencyChange><Frequency dt:dt="r8">3507695</Frequency><Timestamp dt:dt="r8">2139965252997</Timestamp><Current dt:dt="r8">0</Current><DateUtc dt:dt="string">2015-07-29T21:03:36Z</DateUtc></FrequencyChange></FrequencyChanges></Clock>\n	Hungry_Donkey_bar_English_2-115-1	60.018	-128	1.0.0.18	1	1072216389	Standard	2.0.10.353	2.0.10.353	07-29-2015	7/29/2015 9:03:36 PM	17:03:36	2.0.10.248	50	Bar50-50.bmp	49	2	?	10r_4g.bmp	0r_4g.bmp	2r_2g.bmp	0r_2g.bmp		0r_4g.bmp			TrialProc	TrialList	0	cvbn	-999999	16	246142	0	v	336	246478	174	-178	-4	6	-26	4	12	3	5	50	-10	0	-2	0	4	4	2	2	0	4
Hungry_Donkey_bar_English_2	115	1	<?xml version="1.0"?>\n<Clock xmlns:dt="urn:schemas-microsoft-com:datatypes"><Description dt:dt="string">E-Prime Primary Realtime Clock</Description><StartTime><Timestamp dt:dt="int">0</Timestamp><DateUtc dt:dt="string">2015-07-29T21:03:36Z</DateUtc></StartTime><FrequencyChanges><FrequencyChange><Frequency dt:dt="r8">3507695</Frequency><Timestamp dt:dt="r8">2139965252997</Timestamp><Current dt:dt="r8">0</Current><DateUtc dt:dt="string">2015-07-29T21:03:36Z</DateUtc></FrequencyChange></FrequencyChanges></Clock>\n	Hungry_Donkey_bar_English_2-115-1	60.018	-128	1.0.0.18	1	1072216389	Standard	2.0.10.353	2.0.10.353	07-29-2015	7/29/2015 9:03:36 PM	17:03:36	2.0.10.248	51	Bar50-50.bmp	48	4	?	8r_4g.bmp	50r_4g.bmp	1r_2g.bmp	10r_2g.bmp				10r_2g.bmp	TrialProc	TrialList	0	cvbn	-999999	16	248508	0	n	2658	251166	176	-188	-12	6	-26	4	4	1	6	51	-8	-50	-1	-10	4	4	2	2	-10	2
Hungry_Donkey_bar_English_2	115	1	<?xml version="1.0"?>\n<Clock xmlns:dt="urn:schemas-microsoft-com:datatypes"><Description dt:dt="string">E-Prime Primary Realtime Clock</Description><StartTime><Timestamp dt:dt="int">0</Timestamp><DateUtc dt:dt="string">2015-07-29T21:03:36Z</DateUtc></StartTime><FrequencyChanges><FrequencyChange><Frequency dt:dt="r8">3507695</Frequency><Timestamp dt:dt="r8">2139965252997</Timestamp><Current dt:dt="r8">0</Current><DateUtc dt:dt="string">2015-07-29T21:03:36Z</DateUtc></FrequencyChange></FrequencyChanges></Clock>\n	Hungry_Donkey_bar_English_2-115-1	60.018	-128	1.0.0.18	1	1072216389	Standard	2.0.10.353	2.0.10.353	07-29-2015	7/29/2015 9:03:36 PM	17:03:36	2.0.10.248	52	Bar50-50.bmp	49	3	?	0r_4g.bmp	0r_4g.bmp	0r_2g.bmp	0r_2g.bmp			0r_2g.bmp		TrialProc	TrialList	0	cvbn	-999999	16	253207	0	b	519	253726	178	-188	-10	6	-26	6	4	9	6	52	0	0	0	0	4	4	2	2	0	2
Hungry_Donkey_bar_English_2	115	1	<?xml version="1.0"?>\n<Clock xmlns:dt="urn:schemas-microsoft-com:datatypes"><Description dt:dt="string">E-Prime Primary Realtime Clock</Description><StartTime><Timestamp dt:dt="int">0</Timestamp><DateUtc dt:dt="string">2015-07-29T21:03:36Z</DateUtc></StartTime><FrequencyChanges><FrequencyChange><Frequency dt:dt="r8">3507695</Frequency><Timestamp dt:dt="r8">2139965252997</Timestamp><Current dt:dt="r8">0</Current><DateUtc dt:dt="string">2015-07-29T21:03:36Z</DateUtc></FrequencyChange></FrequencyChanges></Clock>\n	Hungry_Donkey_bar_English_2-115-1	60.018	-128	1.0.0.18	1	1072216389	Standard	2.0.10.353	2.0.10.353	07-29-2015	7/29/2015 9:03:36 PM	17:03:36	2.0.10.248	53	Bar50-50.bmp	49	4	?	10r_4g.bmp	0r_4g.bmp	2r_2g.bmp	0r_2g.bmp				0r_2g.bmp	TrialProc	TrialList	0	cvbn	-999999	16	255756	0	n	290	256046	180	-188	-8	6	-26	6	6	4	6	53	-10	0	-2	0	4	4	2	2	0	2
Hungry_Donkey_bar_English_2	115	1	<?xml version="1.0"?>\n<Clock xmlns:dt="urn:schemas-microsoft-com:datatypes"><Description dt:dt="string">E-Prime Primary Realtime Clock</Description><StartTime><Timestamp dt:dt="int">0</Timestamp><DateUtc dt:dt="string">2015-07-29T21:03:36Z</DateUtc></StartTime><FrequencyChanges><FrequencyChange><Frequency dt:dt="r8">3507695</Frequency><Timestamp dt:dt="r8">2139965252997</Timestamp><Current dt:dt="r8">0</Current><DateUtc dt:dt="string">2015-07-29T21:03:36Z</DateUtc></FrequencyChange></FrequencyChanges></Clock>\n	Hungry_Donkey_bar_English_2-115-1	60.018	-128	1.0.0.18	1	1072216389	Standard	2.0.10.353	2.0.10.353	07-29-2015	7/29/2015 9:03:36 PM	17:03:36	2.0.10.248	54	Bar50-50.bmp	49	2	?	10r_4g.bmp	0r_4g.bmp	2r_2g.bmp	0r_2g.bmp		0r_4g.bmp			TrialProc	TrialList	0	cvbn	-999999	16	258072	0	v	213	258285	184	-188	-4	6	-22	6	6	3	6	54	-10	0	-2	0	4	4	2	2	0	4
Hungry_Donkey_bar_English_2	115	1	<?xml version="1.0"?>\n<Clock xmlns:dt="urn:schemas-microsoft-com:datatypes"><Description dt:dt="string">E-Prime Primary Realtime Clock</Description><StartTime><Timestamp dt:dt="int">0</Timestamp><DateUtc dt:dt="string">2015-07-29T21:03:36Z</DateUtc></StartTime><FrequencyChanges><FrequencyChange><Frequency dt:dt="r8">3507695</Frequency><Timestamp dt:dt="r8">2139965252997</Timestamp><Current dt:dt="r8">0</Current><DateUtc dt:dt="string">2015-07-29T21:03:36Z</DateUtc></FrequencyChange></FrequencyChanges></Clock>\n	Hungry_Donkey_bar_English_2-115-1	60.018	-128	1.0.0.18	1	1072216389	Standard	2.0.10.353	2.0.10.353	07-29-2015	7/29/2015 9:03:36 PM	17:03:36	2.0.10.248	55	Bar50-50.bmp	50	2	?	0r_4g.bmp	0r_4g.bmp	0r_2g.bmp	0r_2g.bmp		0r_4g.bmp			TrialProc	TrialList	0	cvbn	-999999	16	260321	0	v	236	260557	188	-188	0	6	-18	6	6	10	6	55	0	0	0	0	4	4	2	2	0	4
Hungry_Donkey_bar_English_2	115	1	<?xml version="1.0"?>\n<Clock xmlns:dt="urn:schemas-microsoft-com:datatypes"><Description dt:dt="string">E-Prime Primary Realtime Clock</Description><StartTime><Timestamp dt:dt="int">0</Timestamp><DateUtc dt:dt="string">2015-07-29T21:03:36Z</DateUtc></StartTime><FrequencyChanges><FrequencyChange><Frequency dt:dt="r8">3507695</Frequency><Timestamp dt:dt="r8">2139965252997</Timestamp><Current dt:dt="r8">0</Current><DateUtc dt:dt="string">2015-07-29T21:03:36Z</DateUtc></FrequencyChange></FrequencyChanges></Clock>\n	Hungry_Donkey_bar_English_2-115-1	60.018	-128	1.0.0.18	1	1072216389	Standard	2.0.10.353	2.0.10.353	07-29-2015	7/29/2015 9:03:36 PM	17:03:36	2.0.10.248	56	Bar50-50.bmp	51	1	?	0r_4g.bmp	0r_4g.bmp	0r_2g.bmp	0r_2g.bmp	0r_4g.bmp				TrialProc	TrialList	0	cvbn	-999999	16	262587	0	c	354	262941	192	-188	4	10	-18	6	6	6	6	56	0	0	0	0	4	4	2	2	0	4
Hungry_Donkey_bar_English_2	115	1	<?xml version="1.0"?>\n<Clock xmlns:dt="urn:schemas-microsoft-com:datatypes"><Description dt:dt="string">E-Prime Primary Realtime Clock</Description><StartTime><Timestamp dt:dt="int">0</Timestamp><DateUtc dt:dt="string">2015-07-29T21:03:36Z</DateUtc></StartTime><FrequencyChanges><FrequencyChange><Frequency dt:dt="r8">3507695</Frequency><Timestamp dt:dt="r8">2139965252997</Timestamp><Current dt:dt="r8">0</Current><DateUtc dt:dt="string">2015-07-29T21:03:36Z</DateUtc></FrequencyChange></FrequencyChanges></Clock>\n	Hungry_Donkey_bar_English_2-115-1	60.018	-128	1.0.0.18	1	1072216389	Standard	2.0.10.353	2.0.10.353	07-29-2015	7/29/2015 9:03:36 PM	17:03:36	2.0.10.248	57	Bar50-50.bmp	51	2	?	0r_4g.bmp	0r_4g.bmp	0r_2g.bmp	0r_2g.bmp		0r_4g.bmp			TrialProc	TrialList	0	cvbn	-999999	16	264970	0	v	323	265293	196	-188	8	10	-14	6	6	7	6	57	0	0	0	0	4	4	2	2	0	4
Hungry_Donkey_bar_English_2	115	1	<?xml version="1.0"?>\n<Clock xmlns:dt="urn:schemas-microsoft-com:datatypes"><Description dt:dt="string">E-Prime Primary Realtime Clock</Description><StartTime><Timestamp dt:dt="int">0</Timestamp><DateUtc dt:dt="string">2015-07-29T21:03:36Z</DateUtc></StartTime><FrequencyChanges><FrequencyChange><Frequency dt:dt="r8">3507695</Frequency><Timestamp dt:dt="r8">2139965252997</Timestamp><Current dt:dt="r8">0</Current><DateUtc dt:dt="string">2015-07-29T21:03:36Z</DateUtc></FrequencyChange></FrequencyChanges></Clock>\n	Hungry_Donkey_bar_English_2-115-1	60.018	-128	1.0.0.18	1	1072216389	Standard	2.0.10.353	2.0.10.353	07-29-2015	7/29/2015 9:03:36 PM	17:03:36	2.0.10.248	58	Bar50-50.bmp	51	4	?	0r_4g.bmp	0r_4g.bmp	0r_2g.bmp	0r_2g.bmp				0r_2g.bmp	TrialProc	TrialList	0	cvbn	-999999	16	267319	0	n	2406	269725	198	-188	10	10	-14	6	8	8	6	58	0	0	0	0	4	4	2	2	0	2
Hungry_Donkey_bar_English_2	115	1	<?xml version="1.0"?>\n<Clock xmlns:dt="urn:schemas-microsoft-com:datatypes"><Description dt:dt="string">E-Prime Primary Realtime Clock</Description><StartTime><Timestamp dt:dt="int">0</Timestamp><DateUtc dt:dt="string">2015-07-29T21:03:36Z</DateUtc></StartTime><FrequencyChanges><FrequencyChange><Frequency dt:dt="r8">3507695</Frequency><Timestamp dt:dt="r8">2139965252997</Timestamp><Current dt:dt="r8">0</Current><DateUtc dt:dt="string">2015-07-29T21:03:36Z</DateUtc></FrequencyChange></FrequencyChanges></Clock>\n	Hungry_Donkey_bar_English_2-115-1	60.018	-128	1.0.0.18	1	1072216389	Standard	2.0.10.353	2.0.10.353	07-29-2015	7/29/2015 9:03:36 PM	17:03:36	2.0.10.248	59	Bar50-50.bmp	51	3	?	10r_4g.bmp	0r_4g.bmp	2r_2g.bmp	0r_2g.bmp			2r_2g.bmp		TrialProc	TrialList	0	cvbn	-999999	16	271751	0	b	262	272013	200	-190	10	10	-14	6	8	2	6	59	-10	0	-2	0	4	4	2	2	-2	2
Hungry_Donkey_bar_English_2	115	1	<?xml version="1.0"?>\n<Clock xmlns:dt="urn:schemas-microsoft-com:datatypes"><Description dt:dt="string">E-Prime Primary Realtime Clock</Description><StartTime><Timestamp dt:dt="int">0</Timestamp><DateUtc dt:dt="string">2015-07-29T21:03:36Z</DateUtc></StartTime><FrequencyChanges><FrequencyChange><Frequency dt:dt="r8">3507695</Frequency><Timestamp dt:dt="r8">2139965252997</Timestamp><Current dt:dt="r8">0</Current><DateUtc dt:dt="string">2015-07-29T21:03:36Z</DateUtc></FrequencyChange></FrequencyChanges></Clock>\n	Hungry_Donkey_bar_English_2-115-1	60.018	-128	1.0.0.18	1	1072216389	Standard	2.0.10.353	2.0.10.353	07-29-2015	7/29/2015 9:03:36 PM	17:03:36	2.0.10.248	60	Bar50-50.bmp	52	2	?	12r_4g.bmp	0r_4g.bmp	3r_2g.bmp	0r_2g.bmp		0r_4g.bmp			TrialProc	TrialList	0	cvbn	-999999	16	274051	0	v	282	274333	204	-190	14	10	-10	6	8	5	6	60	-12	0	-3	0	4	4	2	2	0	4
Hungry_Donkey_bar_English_2	115	1	<?xml version="1.0"?>\n<Clock xmlns:dt="urn:schemas-microsoft-com:datatypes"><Description dt:dt="string">E-Prime Primary Realtime Clock</Description><StartTime><Timestamp dt:dt="int">0</Timestamp><DateUtc dt:dt="string">2015-07-29T21:03:36Z</DateUtc></StartTime><FrequencyChanges><FrequencyChange><Frequency dt:dt="r8">3507695</Frequency><Timestamp dt:dt="r8">2139965252997</Timestamp><Current dt:dt="r8">0</Current><DateUtc dt:dt="string">2015-07-29T21:03:36Z</DateUtc></FrequencyChange></FrequencyChanges></Clock>\n	Hungry_Donkey_bar_English_2-115-1	60.018	-128	1.0.0.18	1	1072216389	Standard	2.0.10.353	2.0.10.353	07-29-2015	7/29/2015 9:03:36 PM	17:03:36	2.0.10.248	61	Bar50-50.bmp	52	1	?	0r_4g.bmp	0r_4g.bmp	0r_2g.bmp	0r_2g.bmp	0r_4g.bmp				TrialProc	TrialList	0	cvbn	-999999	16	276367	0	c	205	276572	208	-190	18	14	-10	6	8	7	7	61	0	0	0	0	4	4	2	2	0	4
Hungry_Donkey_bar_English_2	115	1	<?xml version="1.0"?>\n<Clock xmlns:dt="urn:schemas-microsoft-com:datatypes"><Description dt:dt="string">E-Prime Primary Realtime Clock</Description><StartTime><Timestamp dt:dt="int">0</Timestamp><DateUtc dt:dt="string">2015-07-29T21:03:36Z</DateUtc></StartTime><FrequencyChanges><FrequencyChange><Frequency dt:dt="r8">3507695</Frequency><Timestamp dt:dt="r8">2139965252997</Timestamp><Current dt:dt="r8">0</Current><DateUtc dt:dt="string">2015-07-29T21:03:36Z</DateUtc></FrequencyChange></FrequencyChanges></Clock>\n	Hungry_Donkey_bar_English_2-115-1	60.018	-128	1.0.0.18	1	1072216389	Standard	2.0.10.353	2.0.10.353	07-29-2015	7/29/2015 9:03:36 PM	17:03:36	2.0.10.248	62	Bar50-50.bmp	53	2	?	0r_4g.bmp	0r_4g.bmp	0r_2g.bmp	0r_2g.bmp		0r_4g.bmp			TrialProc	TrialList	0	cvbn	-999999	16	278599	0	v	277	278876	212	-190	22	14	-6	6	8	8	7	62	0	0	0	0	4	4	2	2	0	4
Hungry_Donkey_bar_English_2	115	1	<?xml version="1.0"?>\n<Clock xmlns:dt="urn:schemas-microsoft-com:datatypes"><Description dt:dt="string">E-Prime Primary Realtime Clock</Description><StartTime><Timestamp dt:dt="int">0</Timestamp><DateUtc dt:dt="string">2015-07-29T21:03:36Z</DateUtc></StartTime><FrequencyChanges><FrequencyChange><Frequency dt:dt="r8">3507695</Frequency><Timestamp dt:dt="r8">2139965252997</Timestamp><Current dt:dt="r8">0</Current><DateUtc dt:dt="string">2015-07-29T21:03:36Z</DateUtc></FrequencyChange></FrequencyChanges></Clock>\n	Hungry_Donkey_bar_English_2-115-1	60.018	-128	1.0.0.18	1	1072216389	Standard	2.0.10.353	2.0.10.353	07-29-2015	7/29/2015 9:03:36 PM	17:03:36	2.0.10.248	63	Bar50-50.bmp	53	1	?	0r_4g.bmp	0r_4g.bmp	0r_2g.bmp	0r_2g.bmp	0r_4g.bmp				TrialProc	TrialList	0	cvbn	-999999	16	280915	0	c	89	281004	216	-190	26	18	-6	6	8	9	7	63	0	0	0	0	4	4	2	2	0	4
Hungry_Donkey_bar_English_2	115	1	<?xml version="1.0"?>\n<Clock xmlns:dt="urn:schemas-microsoft-com:datatypes"><Description dt:dt="string">E-Prime Primary Realtime Clock</Description><StartTime><Timestamp dt:dt="int">0</Timestamp><DateUtc dt:dt="string">2015-07-29T21:03:36Z</DateUtc></StartTime><FrequencyChanges><FrequencyChange><Frequency dt:dt="r8">3507695</Frequency><Timestamp dt:dt="r8">2139965252997</Timestamp><Current dt:dt="r8">0</Current><DateUtc dt:dt="string">2015-07-29T21:03:36Z</DateUtc></FrequencyChange></FrequencyChanges></Clock>\n	Hungry_Donkey_bar_English_2-115-1	60.018	-128	1.0.0.18	1	1072216389	Standard	2.0.10.353	2.0.10.353	07-29-2015	7/29/2015 9:03:36 PM	17:03:36	2.0.10.248	64	Bar50-50.bmp	54	2	?	12r_4g.bmp	0r_4g.bmp	3r_2g.bmp	0r_2g.bmp		0r_4g.bmp			TrialProc	TrialList	0	cvbn	-999999	17	283032	0	v	612	283644	220	-190	30	18	-2	6	8	5	7	64	-12	0	-3	0	4	4	2	2	0	4
Hungry_Donkey_bar_English_2	115	1	<?xml version="1.0"?>\n<Clock xmlns:dt="urn:schemas-microsoft-com:datatypes"><Description dt:dt="string">E-Prime Primary Realtime Clock</Description><StartTime><Timestamp dt:dt="int">0</Timestamp><DateUtc dt:dt="string">2015-07-29T21:03:36Z</DateUtc></StartTime><FrequencyChanges><FrequencyChange><Frequency dt:dt="r8">3507695</Frequency><Timestamp dt:dt="r8">2139965252997</Timestamp><Current dt:dt="r8">0</Current><DateUtc dt:dt="string">2015-07-29T21:03:36Z</DateUtc></FrequencyChange></FrequencyChanges></Clock>\n	Hungry_Donkey_bar_English_2-115-1	60.018	-128	1.0.0.18	1	1072216389	Standard	2.0.10.353	2.0.10.353	07-29-2015	7/29/2015 9:03:36 PM	17:03:36	2.0.10.248	65	Bar50-50.bmp	53	1	?	10r_4g.bmp	0r_4g.bmp	2r_2g.bmp	0r_2g.bmp	10r_4g.bmp				TrialProc	TrialList	0	cvbn	-999999	16	285681	0	c	651	286332	224	-200	24	12	-2	6	8	3	7	65	-10	0	-2	0	4	4	2	2	-10	4
Hungry_Donkey_bar_English_2	115	1	<?xml version="1.0"?>\n<Clock xmlns:dt="urn:schemas-microsoft-com:datatypes"><Description dt:dt="string">E-Prime Primary Realtime Clock</Description><StartTime><Timestamp dt:dt="int">0</Timestamp><DateUtc dt:dt="string">2015-07-29T21:03:36Z</DateUtc></StartTime><FrequencyChanges><FrequencyChange><Frequency dt:dt="r8">3507695</Frequency><Timestamp dt:dt="r8">2139965252997</Timestamp><Current dt:dt="r8">0</Current><DateUtc dt:dt="string">2015-07-29T21:03:36Z</DateUtc></FrequencyChange></FrequencyChanges></Clock>\n	Hungry_Donkey_bar_English_2-115-1	60.018	-128	1.0.0.18	1	1072216389	Standard	2.0.10.353	2.0.10.353	07-29-2015	7/29/2015 9:03:36 PM	17:03:36	2.0.10.248	66	Bar50-50.bmp	53	2	?	10r_4g.bmp	0r_4g.bmp	2r_2g.bmp	0r_2g.bmp		0r_4g.bmp			TrialProc	TrialList	0	cvbn	-999999	16	288363	0	v	753	289116	228	-200	28	12	2	6	8	4	7	66	-10	0	-2	0	4	4	2	2	0	4
Hungry_Donkey_bar_English_2	115	1	<?xml version="1.0"?>\n<Clock xmlns:dt="urn:schemas-microsoft-com:datatypes"><Description dt:dt="string">E-Prime Primary Realtime Clock</Description><StartTime><Timestamp dt:dt="int">0</Timestamp><DateUtc dt:dt="string">2015-07-29T21:03:36Z</DateUtc></StartTime><FrequencyChanges><FrequencyChange><Frequency dt:dt="r8">3507695</Frequency><Timestamp dt:dt="r8">2139965252997</Timestamp><Current dt:dt="r8">0</Current><DateUtc dt:dt="string">2015-07-29T21:03:36Z</DateUtc></FrequencyChange></FrequencyChanges></Clock>\n	Hungry_Donkey_bar_English_2-115-1	60.018	-128	1.0.0.18	1	1072216389	Standard	2.0.10.353	2.0.10.353	07-29-2015	7/29/2015 9:03:36 PM	17:03:36	2.0.10.248	67	Bar50-50.bmp	53	3	?	8r_4g.bmp	50r_4g.bmp	1r_2g.bmp	10r_2g.bmp			1r_2g.bmp		TrialProc	TrialList	0	cvbn	-999999	16	291146	0	b	322	291468	230	-201	29	12	2	7	8	1	7	67	-8	-50	-1	-10	4	4	2	2	-1	2
Hungry_Donkey_bar_English_2	115	1	<?xml version="1.0"?>\n<Clock xmlns:dt="urn:schemas-microsoft-com:datatypes"><Description dt:dt="string">E-Prime Primary Realtime Clock</Description><StartTime><Timestamp dt:dt="int">0</Timestamp><DateUtc dt:dt="string">2015-07-29T21:03:36Z</DateUtc></StartTime><FrequencyChanges><FrequencyChange><Frequency dt:dt="r8">3507695</Frequency><Timestamp dt:dt="r8">2139965252997</Timestamp><Current dt:dt="r8">0</Current><DateUtc dt:dt="string">2015-07-29T21:03:36Z</DateUtc></FrequencyChange></FrequencyChanges></Clock>\n	Hungry_Donkey_bar_English_2-115-1	60.018	-128	1.0.0.18	1	1072216389	Standard	2.0.10.353	2.0.10.353	07-29-2015	7/29/2015 9:03:36 PM	17:03:36	2.0.10.248	68	Bar50-50.bmp	54	4	?	0r_4g.bmp	0r_4g.bmp	0r_2g.bmp	0r_2g.bmp				0r_2g.bmp	TrialProc	TrialList	0	cvbn	-999999	16	293495	0	n	309	293804	232	-201	31	12	2	7	10	6	7	68	0	0	0	0	4	4	2	2	0	2
Hungry_Donkey_bar_English_2	115	1	<?xml version="1.0"?>\n<Clock xmlns:dt="urn:schemas-microsoft-com:datatypes"><Description dt:dt="string">E-Prime Primary Realtime Clock</Description><StartTime><Timestamp dt:dt="int">0</Timestamp><DateUtc dt:dt="string">2015-07-29T21:03:36Z</DateUtc></StartTime><FrequencyChanges><FrequencyChange><Frequency dt:dt="r8">3507695</Frequency><Timestamp dt:dt="r8">2139965252997</Timestamp><Current dt:dt="r8">0</Current><DateUtc dt:dt="string">2015-07-29T21:03:36Z</DateUtc></FrequencyChange></FrequencyChanges></Clock>\n	Hungry_Donkey_bar_English_2-115-1	60.018	-128	1.0.0.18	1	1072216389	Standard	2.0.10.353	2.0.10.353	07-29-2015	7/29/2015 9:03:36 PM	17:03:36	2.0.10.248	69	Bar50-50.bmp	54	2	?	10r_4g.bmp	0r_4g.bmp	2r_2g.bmp	0r_2g.bmp		0r_4g.bmp			TrialProc	TrialList	0	cvbn	-999999	16	295828	0	v	263	296091	236	-201	35	12	6	7	10	2	7	69	-10	0	-2	0	4	4	2	2	0	4
Hungry_Donkey_bar_English_2	115	1	<?xml version="1.0"?>\n<Clock xmlns:dt="urn:schemas-microsoft-com:datatypes"><Description dt:dt="string">E-Prime Primary Realtime Clock</Description><StartTime><Timestamp dt:dt="int">0</Timestamp><DateUtc dt:dt="string">2015-07-29T21:03:36Z</DateUtc></StartTime><FrequencyChanges><FrequencyChange><Frequency dt:dt="r8">3507695</Frequency><Timestamp dt:dt="r8">2139965252997</Timestamp><Current dt:dt="r8">0</Current><DateUtc dt:dt="string">2015-07-29T21:03:36Z</DateUtc></FrequencyChange></FrequencyChanges></Clock>\n	Hungry_Donkey_bar_English_2-115-1	60.018	-128	1.0.0.18	1	1072216389	Standard	2.0.10.353	2.0.10.353	07-29-2015	7/29/2015 9:03:36 PM	17:03:36	2.0.10.248	70	Bar50-50.bmp	54	1	?	0r_4g.bmp	0r_4g.bmp	0r_2g.bmp	0r_2g.bmp	0r_4g.bmp				TrialProc	TrialList	0	cvbn	-999999	16	298127	0	c	188	298315	240	-201	39	16	6	7	10	10	7	70	0	0	0	0	4	4	2	2	0	4
Hungry_Donkey_bar_English_2	115	1	<?xml version="1.0"?>\n<Clock xmlns:dt="urn:schemas-microsoft-com:datatypes"><Description dt:dt="string">E-Prime Primary Realtime Clock</Description><StartTime><Timestamp dt:dt="int">0</Timestamp><DateUtc dt:dt="string">2015-07-29T21:03:36Z</DateUtc></StartTime><FrequencyChanges><FrequencyChange><Frequency dt:dt="r8">3507695</Frequency><Timestamp dt:dt="r8">2139965252997</Timestamp><Current dt:dt="r8">0</Current><DateUtc dt:dt="string">2015-07-29T21:03:36Z</DateUtc></FrequencyChange></FrequencyChanges></Clock>\n	Hungry_Donkey_bar_English_2-115-1	60.018	-128	1.0.0.18	1	1072216389	Standard	2.0.10.353	2.0.10.353	07-29-2015	7/29/2015 9:03:36 PM	17:03:36	2.0.10.248	71	Bar50-50.bmp	55	3	?	0r_4g.bmp	0r_4g.bmp	0r_2g.bmp	0r_2g.bmp			0r_2g.bmp		TrialProc	TrialList	0	cvbn	-999999	16	300343	0	b	1508	301851	242	-201	41	16	6	9	10	8	8	71	0	0	0	0	4	4	2	2	0	2
Hungry_Donkey_bar_English_2	115	1	<?xml version="1.0"?>\n<Clock xmlns:dt="urn:schemas-microsoft-com:datatypes"><Description dt:dt="string">E-Prime Primary Realtime Clock</Description><StartTime><Timestamp dt:dt="int">0</Timestamp><DateUtc dt:dt="string">2015-07-29T21:03:36Z</DateUtc></StartTime><FrequencyChanges><FrequencyChange><Frequency dt:dt="r8">3507695</Frequency><Timestamp dt:dt="r8">2139965252997</Timestamp><Current dt:dt="r8">0</Current><DateUtc dt:dt="string">2015-07-29T21:03:36Z</DateUtc></FrequencyChange></FrequencyChanges></Clock>\n	Hungry_Donkey_bar_English_2-115-1	60.018	-128	1.0.0.18	1	1072216389	Standard	2.0.10.353	2.0.10.353	07-29-2015	7/29/2015 9:03:36 PM	17:03:36	2.0.10.248	72	Bar50-50.bmp	55	2	?	10r_4g.bmp	0r_4g.bmp	2r_2g.bmp	0r_2g.bmp		0r_4g.bmp			TrialProc	TrialList	0	cvbn	-999999	16	303875	0	v	1160	305035	246	-201	45	16	10	9	10	4	8	72	-10	0	-2	0	4	4	2	2	0	4
Hungry_Donkey_bar_English_2	115	1	<?xml version="1.0"?>\n<Clock xmlns:dt="urn:schemas-microsoft-com:datatypes"><Description dt:dt="string">E-Prime Primary Realtime Clock</Description><StartTime><Timestamp dt:dt="int">0</Timestamp><DateUtc dt:dt="string">2015-07-29T21:03:36Z</DateUtc></StartTime><FrequencyChanges><FrequencyChange><Frequency dt:dt="r8">3507695</Frequency><Timestamp dt:dt="r8">2139965252997</Timestamp><Current dt:dt="r8">0</Current><DateUtc dt:dt="string">2015-07-29T21:03:36Z</DateUtc></FrequencyChange></FrequencyChanges></Clock>\n	Hungry_Donkey_bar_English_2-115-1	60.018	-128	1.0.0.18	1	1072216389	Standard	2.0.10.353	2.0.10.353	07-29-2015	7/29/2015 9:03:36 PM	17:03:36	2.0.10.248	73	Bar50-50.bmp	55	1	?	0r_4g.bmp	0r_4g.bmp	0r_2g.bmp	0r_2g.bmp	0r_4g.bmp				TrialProc	TrialList	0	cvbn	-999999	16	307074	0	c	713	307787	250	-201	49	20	10	9	10	10	8	73	0	0	0	0	4	4	2	2	0	4
Hungry_Donkey_bar_English_2	115	1	<?xml version="1.0"?>\n<Clock xmlns:dt="urn:schemas-microsoft-com:datatypes"><Description dt:dt="string">E-Prime Primary Realtime Clock</Description><StartTime><Timestamp dt:dt="int">0</Timestamp><DateUtc dt:dt="string">2015-07-29T21:03:36Z</DateUtc></StartTime><FrequencyChanges><FrequencyChange><Frequency dt:dt="r8">3507695</Frequency><Timestamp dt:dt="r8">2139965252997</Timestamp><Current dt:dt="r8">0</Current><DateUtc dt:dt="string">2015-07-29T21:03:36Z</DateUtc></FrequencyChange></FrequencyChanges></Clock>\n	Hungry_Donkey_bar_English_2-115-1	60.018	-128	1.0.0.18	1	1072216389	Standard	2.0.10.353	2.0.10.353	07-29-2015	7/29/2015 9:03:36 PM	17:03:36	2.0.10.248	74	Bar50-50.bmp	54	4	?	8r_4g.bmp	50r_4g.bmp	1r_2g.bmp	10r_2g.bmp				10r_2g.bmp	TrialProc	TrialList	0	cvbn	-999999	16	309824	0	n	395	310219	252	-211	41	20	10	9	2	1	8	74	-8	-50	-1	-10	4	4	2	2	-10	2
Hungry_Donkey_bar_English_2	115	1	<?xml version="1.0"?>\n<Clock xmlns:dt="urn:schemas-microsoft-com:datatypes"><Description dt:dt="string">E-Prime Primary Realtime Clock</Description><StartTime><Timestamp dt:dt="int">0</Timestamp><DateUtc dt:dt="string">2015-07-29T21:03:36Z</DateUtc></StartTime><FrequencyChanges><FrequencyChange><Frequency dt:dt="r8">3507695</Frequency><Timestamp dt:dt="r8">2139965252997</Timestamp><Current dt:dt="r8">0</Current><DateUtc dt:dt="string">2015-07-29T21:03:36Z</DateUtc></FrequencyChange></FrequencyChanges></Clock>\n	Hungry_Donkey_bar_English_2-115-1	60.018	-128	1.0.0.18	1	1072216389	Standard	2.0.10.353	2.0.10.353	07-29-2015	7/29/2015 9:03:36 PM	17:03:36	2.0.10.248	75	Bar50-50.bmp	55	3	?	0r_4g.bmp	0r_4g.bmp	0r_2g.bmp	0r_2g.bmp			0r_2g.bmp		TrialProc	TrialList	0	cvbn	-999999	16	312256	0	b	618	312874	254	-211	43	20	10	11	2	7	8	75	0	0	0	0	4	4	2	2	0	2
Hungry_Donkey_bar_English_2	115	1	<?xml version="1.0"?>\n<Clock xmlns:dt="urn:schemas-microsoft-com:datatypes"><Description dt:dt="string">E-Prime Primary Realtime Clock</Description><StartTime><Timestamp dt:dt="int">0</Timestamp><DateUtc dt:dt="string">2015-07-29T21:03:36Z</DateUtc></StartTime><FrequencyChanges><FrequencyChange><Frequency dt:dt="r8">3507695</Frequency><Timestamp dt:dt="r8">2139965252997</Timestamp><Current dt:dt="r8">0</Current><DateUtc dt:dt="string">2015-07-29T21:03:36Z</DateUtc></FrequencyChange></FrequencyChanges></Clock>\n	Hungry_Donkey_bar_English_2-115-1	60.018	-128	1.0.0.18	1	1072216389	Standard	2.0.10.353	2.0.10.353	07-29-2015	7/29/2015 9:03:36 PM	17:03:36	2.0.10.248	76	Bar50-50.bmp	55	2	?	0r_4g.bmp	0r_4g.bmp	0r_2g.bmp	0r_2g.bmp		0r_4g.bmp			TrialProc	TrialList	0	cvbn	-999999	17	314906	0	v	640	315546	258	-211	47	20	14	11	2	9	8	76	0	0	0	0	4	4	2	2	0	4
Hungry_Donkey_bar_English_2	115	1	<?xml version="1.0"?>\n<Clock xmlns:dt="urn:schemas-microsoft-com:datatypes"><Description dt:dt="string">E-Prime Primary Realtime Clock</Description><StartTime><Timestamp dt:dt="int">0</Timestamp><DateUtc dt:dt="string">2015-07-29T21:03:36Z</DateUtc></StartTime><FrequencyChanges><FrequencyChange><Frequency dt:dt="r8">3507695</Frequency><Timestamp dt:dt="r8">2139965252997</Timestamp><Current dt:dt="r8">0</Current><DateUtc dt:dt="string">2015-07-29T21:03:36Z</DateUtc></FrequencyChange></FrequencyChanges></Clock>\n	Hungry_Donkey_bar_English_2-115-1	60.018	-128	1.0.0.18	1	1072216389	Standard	2.0.10.353	2.0.10.353	07-29-2015	7/29/2015 9:03:36 PM	17:03:36	2.0.10.248	77	Bar50-50.bmp	54	1	?	10r_4g.bmp	0r_4g.bmp	2r_2g.bmp	0r_2g.bmp	10r_4g.bmp				TrialProc	TrialList	0	cvbn	-999999	16	317571	0	c	359	317930	262	-221	41	14	14	11	2	3	8	77	-10	0	-2	0	4	4	2	2	-10	4
Hungry_Donkey_bar_English_2	115	1	<?xml version="1.0"?>\n<Clock xmlns:dt="urn:schemas-microsoft-com:datatypes"><Description dt:dt="string">E-Prime Primary Realtime Clock</Description><StartTime><Timestamp dt:dt="int">0</Timestamp><DateUtc dt:dt="string">2015-07-29T21:03:36Z</DateUtc></StartTime><FrequencyChanges><FrequencyChange><Frequency dt:dt="r8">3507695</Frequency><Timestamp dt:dt="r8">2139965252997</Timestamp><Current dt:dt="r8">0</Current><DateUtc dt:dt="string">2015-07-29T21:03:36Z</DateUtc></FrequencyChange></FrequencyChanges></Clock>\n	Hungry_Donkey_bar_English_2-115-1	60.018	-128	1.0.0.18	1	1072216389	Standard	2.0.10.353	2.0.10.353	07-29-2015	7/29/2015 9:03:36 PM	17:03:36	2.0.10.248	78	Bar50-50.bmp	55	2	?	10r_4g.bmp	0r_4g.bmp	2r_2g.bmp	0r_2g.bmp		0r_4g.bmp			TrialProc	TrialList	0	cvbn	-999999	16	319954	0	v	248	320202	266	-221	45	14	18	11	2	2	8	78	-10	0	-2	0	4	4	2	2	0	4
Hungry_Donkey_bar_English_2	115	1	<?xml version="1.0"?>\n<Clock xmlns:dt="urn:schemas-microsoft-com:datatypes"><Description dt:dt="string">E-Prime Primary Realtime Clock</Description><StartTime><Timestamp dt:dt="int">0</Timestamp><DateUtc dt:dt="string">2015-07-29T21:03:36Z</DateUtc></StartTime><FrequencyChanges><FrequencyChange><Frequency dt:dt="r8">3507695</Frequency><Timestamp dt:dt="r8">2139965252997</Timestamp><Current dt:dt="r8">0</Current><DateUtc dt:dt="string">2015-07-29T21:03:36Z</DateUtc></FrequencyChange></FrequencyChanges></Clock>\n	Hungry_Donkey_bar_English_2-115-1	60.018	-128	1.0.0.18	1	1072216389	Standard	2.0.10.353	2.0.10.353	07-29-2015	7/29/2015 9:03:36 PM	17:03:36	2.0.10.248	79	Bar50-50.bmp	55	4	?	12r_4g.bmp	0r_4g.bmp	3r_2g.bmp	0r_2g.bmp				0r_2g.bmp	TrialProc	TrialList	0	cvbn	-999999	16	322237	0	n	493	322730	268	-221	47	14	18	11	4	5	8	79	-12	0	-3	0	4	4	2	2	0	2
Hungry_Donkey_bar_English_2	115	1	<?xml version="1.0"?>\n<Clock xmlns:dt="urn:schemas-microsoft-com:datatypes"><Description dt:dt="string">E-Prime Primary Realtime Clock</Description><StartTime><Timestamp dt:dt="int">0</Timestamp><DateUtc dt:dt="string">2015-07-29T21:03:36Z</DateUtc></StartTime><FrequencyChanges><FrequencyChange><Frequency dt:dt="r8">3507695</Frequency><Timestamp dt:dt="r8">2139965252997</Timestamp><Current dt:dt="r8">0</Current><DateUtc dt:dt="string">2015-07-29T21:03:36Z</DateUtc></FrequencyChange></FrequencyChanges></Clock>\n	Hungry_Donkey_bar_English_2-115-1	60.018	-128	1.0.0.18	1	1072216389	Standard	2.0.10.353	2.0.10.353	07-29-2015	7/29/2015 9:03:36 PM	17:03:36	2.0.10.248	80	Bar50-50.bmp	55	3	?	0r_4g.bmp	0r_4g.bmp	0r_2g.bmp	0r_2g.bmp			0r_2g.bmp		TrialProc	TrialList	0	cvbn	-999999	16	324769	0	b	297	325066	270	-221	49	14	18	13	4	6	8	80	0	0	0	0	4	4	2	2	0	2
Hungry_Donkey_bar_English_2	115	1	<?xml version="1.0"?>\n<Clock xmlns:dt="urn:schemas-microsoft-com:datatypes"><Description dt:dt="string">E-Prime Primary Realtime Clock</Description><StartTime><Timestamp dt:dt="int">0</Timestamp><DateUtc dt:dt="string">2015-07-29T21:03:36Z</DateUtc></StartTime><FrequencyChanges><FrequencyChange><Frequency dt:dt="r8">3507695</Frequency><Timestamp dt:dt="r8">2139965252997</Timestamp><Current dt:dt="r8">0</Current><DateUtc dt:dt="string">2015-07-29T21:03:36Z</DateUtc></FrequencyChange></FrequencyChanges></Clock>\n	Hungry_Donkey_bar_English_2-115-1	60.018	-128	1.0.0.18	1	1072216389	Standard	2.0.10.353	2.0.10.353	07-29-2015	7/29/2015 9:03:36 PM	17:03:36	2.0.10.248	81	Bar50-50.bmp	55	2	?	0r_4g.bmp	0r_4g.bmp	0r_2g.bmp	0r_2g.bmp		0r_4g.bmp			TrialProc	TrialList	0	cvbn	-999999	16	327102	0	v	284	327386	274	-221	53	14	22	13	4	10	9	81	0	0	0	0	4	4	2	2	0	4
Hungry_Donkey_bar_English_2	115	1	<?xml version="1.0"?>\n<Clock xmlns:dt="urn:schemas-microsoft-com:datatypes"><Description dt:dt="string">E-Prime Primary Realtime Clock</Description><StartTime><Timestamp dt:dt="int">0</Timestamp><DateUtc dt:dt="string">2015-07-29T21:03:36Z</DateUtc></StartTime><FrequencyChanges><FrequencyChange><Frequency dt:dt="r8">3507695</Frequency><Timestamp dt:dt="r8">2139965252997</Timestamp><Current dt:dt="r8">0</Current><DateUtc dt:dt="string">2015-07-29T21:03:36Z</DateUtc></FrequencyChange></FrequencyChanges></Clock>\n	Hungry_Donkey_bar_English_2-115-1	60.018	-128	1.0.0.18	1	1072216389	Standard	2.0.10.353	2.0.10.353	07-29-2015	7/29/2015 9:03:36 PM	17:03:36	2.0.10.248	82	Bar50-50.bmp	56	2	?	0r_4g.bmp	0r_4g.bmp	0r_2g.bmp	0r_2g.bmp		0r_4g.bmp			TrialProc	TrialList	0	cvbn	-999999	16	329418	0	v	144	329562	278	-221	57	14	26	13	4	7	9	82	0	0	0	0	4	4	2	2	0	4
Hungry_Donkey_bar_English_2	115	1	<?xml version="1.0"?>\n<Clock xmlns:dt="urn:schemas-microsoft-com:datatypes"><Description dt:dt="string">E-Prime Primary Realtime Clock</Description><StartTime><Timestamp dt:dt="int">0</Timestamp><DateUtc dt:dt="string">2015-07-29T21:03:36Z</DateUtc></StartTime><FrequencyChanges><FrequencyChange><Frequency dt:dt="r8">3507695</Frequency><Timestamp dt:dt="r8">2139965252997</Timestamp><Current dt:dt="r8">0</Current><DateUtc dt:dt="string">2015-07-29T21:03:36Z</DateUtc></FrequencyChange></FrequencyChanges></Clock>\n	Hungry_Donkey_bar_English_2-115-1	60.018	-128	1.0.0.18	1	1072216389	Standard	2.0.10.353	2.0.10.353	07-29-2015	7/29/2015 9:03:36 PM	17:03:36	2.0.10.248	83	Bar50-50.bmp	56	1	?	0r_4g.bmp	0r_4g.bmp	0r_2g.bmp	0r_2g.bmp	0r_4g.bmp				TrialProc	TrialList	0	cvbn	-999999	15	331584	0	c	265	331849	282	-221	61	18	26	13	4	9	9	83	0	0	0	0	4	4	2	2	0	4
Hungry_Donkey_bar_English_2	115	1	<?xml version="1.0"?>\n<Clock xmlns:dt="urn:schemas-microsoft-com:datatypes"><Description dt:dt="string">E-Prime Primary Realtime Clock</Description><StartTime><Timestamp dt:dt="int">0</Timestamp><DateUtc dt:dt="string">2015-07-29T21:03:36Z</DateUtc></StartTime><FrequencyChanges><FrequencyChange><Frequency dt:dt="r8">3507695</Frequency><Timestamp dt:dt="r8">2139965252997</Timestamp><Current dt:dt="r8">0</Current><DateUtc dt:dt="string">2015-07-29T21:03:36Z</DateUtc></FrequencyChange></FrequencyChanges></Clock>\n	Hungry_Donkey_bar_English_2-115-1	60.018	-128	1.0.0.18	1	1072216389	Standard	2.0.10.353	2.0.10.353	07-29-2015	7/29/2015 9:03:36 PM	17:03:36	2.0.10.248	84	Bar50-50.bmp	56	2	?	0r_4g.bmp	0r_4g.bmp	0r_2g.bmp	0r_2g.bmp		0r_4g.bmp			TrialProc	TrialList	0	cvbn	-999999	16	333883	0	v	286	334169	286	-221	65	18	30	13	4	6	9	84	0	0	0	0	4	4	2	2	0	4
Hungry_Donkey_bar_English_2	115	1	<?xml version="1.0"?>\n<Clock xmlns:dt="urn:schemas-microsoft-com:datatypes"><Description dt:dt="string">E-Prime Primary Realtime Clock</Description><StartTime><Timestamp dt:dt="int">0</Timestamp><DateUtc dt:dt="string">2015-07-29T21:03:36Z</DateUtc></StartTime><FrequencyChanges><FrequencyChange><Frequency dt:dt="r8">3507695</Frequency><Timestamp dt:dt="r8">2139965252997</Timestamp><Current dt:dt="r8">0</Current><DateUtc dt:dt="string">2015-07-29T21:03:36Z</DateUtc></FrequencyChange></FrequencyChanges></Clock>\n	Hungry_Donkey_bar_English_2-115-1	60.018	-128	1.0.0.18	1	1072216389	Standard	2.0.10.353	2.0.10.353	07-29-2015	7/29/2015 9:03:36 PM	17:03:36	2.0.10.248	85	Bar50-50.bmp	56	1	?	10r_4g.bmp	0r_4g.bmp	2r_2g.bmp	0r_2g.bmp	10r_4g.bmp				TrialProc	TrialList	0	cvbn	-999999	16	336199	0	c	290	336489	290	-231	59	12	30	13	4	2	9	85	-10	0	-2	0	4	4	2	2	-10	4
Hungry_Donkey_bar_English_2	115	1	<?xml version="1.0"?>\n<Clock xmlns:dt="urn:schemas-microsoft-com:datatypes"><Description dt:dt="string">E-Prime Primary Realtime Clock</Description><StartTime><Timestamp dt:dt="int">0</Timestamp><DateUtc dt:dt="string">2015-07-29T21:03:36Z</DateUtc></StartTime><FrequencyChanges><FrequencyChange><Frequency dt:dt="r8">3507695</Frequency><Timestamp dt:dt="r8">2139965252997</Timestamp><Current dt:dt="r8">0</Current><DateUtc dt:dt="string">2015-07-29T21:03:36Z</DateUtc></FrequencyChange></FrequencyChanges></Clock>\n	Hungry_Donkey_bar_English_2-115-1	60.018	-128	1.0.0.18	1	1072216389	Standard	2.0.10.353	2.0.10.353	07-29-2015	7/29/2015 9:03:36 PM	17:03:36	2.0.10.248	86	Bar50-50.bmp	56	2	?	0r_4g.bmp	0r_4g.bmp	0r_2g.bmp	0r_2g.bmp		0r_4g.bmp			TrialProc	TrialList	0	cvbn	-999999	16	338515	0	v	230	338745	294	-231	63	12	34	13	4	8	9	86	0	0	0	0	4	4	2	2	0	4
Hungry_Donkey_bar_English_2	115	1	<?xml version="1.0"?>\n<Clock xmlns:dt="urn:schemas-microsoft-com:datatypes"><Description dt:dt="string">E-Prime Primary Realtime Clock</Description><StartTime><Timestamp dt:dt="int">0</Timestamp><DateUtc dt:dt="string">2015-07-29T21:03:36Z</DateUtc></StartTime><FrequencyChanges><FrequencyChange><Frequency dt:dt="r8">3507695</Frequency><Timestamp dt:dt="r8">2139965252997</Timestamp><Current dt:dt="r8">0</Current><DateUtc dt:dt="string">2015-07-29T21:03:36Z</DateUtc></FrequencyChange></FrequencyChanges></Clock>\n	Hungry_Donkey_bar_English_2-115-1	60.018	-128	1.0.0.18	1	1072216389	Standard	2.0.10.353	2.0.10.353	07-29-2015	7/29/2015 9:03:36 PM	17:03:36	2.0.10.248	87	Bar50-50.bmp	56	3	?	10r_4g.bmp	0r_4g.bmp	2r_2g.bmp	0r_2g.bmp			2r_2g.bmp		TrialProc	TrialList	0	cvbn	-999999	16	340781	0	b	284	341065	296	-233	63	12	34	13	4	4	9	87	-10	0	-2	0	4	4	2	2	-2	2
Hungry_Donkey_bar_English_2	115	1	<?xml version="1.0"?>\n<Clock xmlns:dt="urn:schemas-microsoft-com:datatypes"><Description dt:dt="string">E-Prime Primary Realtime Clock</Description><StartTime><Timestamp dt:dt="int">0</Timestamp><DateUtc dt:dt="string">2015-07-29T21:03:36Z</DateUtc></StartTime><FrequencyChanges><FrequencyChange><Frequency dt:dt="r8">3507695</Frequency><Timestamp dt:dt="r8">2139965252997</Timestamp><Current dt:dt="r8">0</Current><DateUtc dt:dt="string">2015-07-29T21:03:36Z</DateUtc></FrequencyChange></FrequencyChanges></Clock>\n	Hungry_Donkey_bar_English_2-115-1	60.018	-128	1.0.0.18	1	1072216389	Standard	2.0.10.353	2.0.10.353	07-29-2015	7/29/2015 9:03:36 PM	17:03:36	2.0.10.248	88	Bar50-50.bmp	56	4	?	10r_4g.bmp	0r_4g.bmp	2r_2g.bmp	0r_2g.bmp				0r_2g.bmp	TrialProc	TrialList	0	cvbn	-999999	16	343097	0	n	288	343385	298	-233	65	12	34	13	6	3	9	88	-10	0	-2	0	4	4	2	2	0	2
Hungry_Donkey_bar_English_2	115	1	<?xml version="1.0"?>\n<Clock xmlns:dt="urn:schemas-microsoft-com:datatypes"><Description dt:dt="string">E-Prime Primary Realtime Clock</Description><StartTime><Timestamp dt:dt="int">0</Timestamp><DateUtc dt:dt="string">2015-07-29T21:03:36Z</DateUtc></StartTime><FrequencyChanges><FrequencyChange><Frequency dt:dt="r8">3507695</Frequency><Timestamp dt:dt="r8">2139965252997</Timestamp><Current dt:dt="r8">0</Current><DateUtc dt:dt="string">2015-07-29T21:03:36Z</DateUtc></FrequencyChange></FrequencyChanges></Clock>\n	Hungry_Donkey_bar_English_2-115-1	60.018	-128	1.0.0.18	1	1072216389	Standard	2.0.10.353	2.0.10.353	07-29-2015	7/29/2015 9:03:36 PM	17:03:36	2.0.10.248	89	Bar50-50.bmp	52	2	?	8r_4g.bmp	50r_4g.bmp	1r_2g.bmp	10r_2g.bmp		50r_4g.bmp			TrialProc	TrialList	0	cvbn	-999999	16	345413	0	v	196	345609	302	-283	19	12	-12	13	6	1	9	89	-8	-50	-1	-10	4	4	2	2	-50	4
Hungry_Donkey_bar_English_2	115	1	<?xml version="1.0"?>\n<Clock xmlns:dt="urn:schemas-microsoft-com:datatypes"><Description dt:dt="string">E-Prime Primary Realtime Clock</Description><StartTime><Timestamp dt:dt="int">0</Timestamp><DateUtc dt:dt="string">2015-07-29T21:03:36Z</DateUtc></StartTime><FrequencyChanges><FrequencyChange><Frequency dt:dt="r8">3507695</Frequency><Timestamp dt:dt="r8">2139965252997</Timestamp><Current dt:dt="r8">0</Current><DateUtc dt:dt="string">2015-07-29T21:03:36Z</DateUtc></FrequencyChange></FrequencyChanges></Clock>\n	Hungry_Donkey_bar_English_2-115-1	60.018	-128	1.0.0.18	1	1072216389	Standard	2.0.10.353	2.0.10.353	07-29-2015	7/29/2015 9:03:36 PM	17:03:36	2.0.10.248	90	Bar50-50.bmp	52	3	?	12r_4g.bmp	0r_4g.bmp	3r_2g.bmp	0r_2g.bmp			3r_2g.bmp		TrialProc	TrialList	0	cvbn	-999999	16	347646	0	b	507	348153	304	-286	18	12	-12	12	6	5	9	90	-12	0	-3	0	4	4	2	2	-3	2
Hungry_Donkey_bar_English_2	115	1	<?xml version="1.0"?>\n<Clock xmlns:dt="urn:schemas-microsoft-com:datatypes"><Description dt:dt="string">E-Prime Primary Realtime Clock</Description><StartTime><Timestamp dt:dt="int">0</Timestamp><DateUtc dt:dt="string">2015-07-29T21:03:36Z</DateUtc></StartTime><FrequencyChanges><FrequencyChange><Frequency dt:dt="r8">3507695</Frequency><Timestamp dt:dt="r8">2139965252997</Timestamp><Current dt:dt="r8">0</Current><DateUtc dt:dt="string">2015-07-29T21:03:36Z</DateUtc></FrequencyChange></FrequencyChanges></Clock>\n	Hungry_Donkey_bar_English_2-115-1	60.018	-128	1.0.0.18	1	1072216389	Standard	2.0.10.353	2.0.10.353	07-29-2015	7/29/2015 9:03:36 PM	17:03:36	2.0.10.248	91	Bar50-50.bmp	51	1	?	12r_4g.bmp	0r_4g.bmp	3r_2g.bmp	0r_2g.bmp	12r_4g.bmp				TrialProc	TrialList	0	cvbn	-999999	16	350179	0	c	69	350248	308	-298	10	4	-12	12	6	5	10	91	-12	0	-3	0	4	4	2	2	-12	4
Hungry_Donkey_bar_English_2	115	1	<?xml version="1.0"?>\n<Clock xmlns:dt="urn:schemas-microsoft-com:datatypes"><Description dt:dt="string">E-Prime Primary Realtime Clock</Description><StartTime><Timestamp dt:dt="int">0</Timestamp><DateUtc dt:dt="string">2015-07-29T21:03:36Z</DateUtc></StartTime><FrequencyChanges><FrequencyChange><Frequency dt:dt="r8">3507695</Frequency><Timestamp dt:dt="r8">2139965252997</Timestamp><Current dt:dt="r8">0</Current><DateUtc dt:dt="string">2015-07-29T21:03:36Z</DateUtc></FrequencyChange></FrequencyChanges></Clock>\n	Hungry_Donkey_bar_English_2-115-1	60.018	-128	1.0.0.18	1	1072216389	Standard	2.0.10.353	2.0.10.353	07-29-2015	7/29/2015 9:03:36 PM	17:03:36	2.0.10.248	92	Bar50-50.bmp	51	2	?	10r_4g.bmp	0r_4g.bmp	2r_2g.bmp	0r_2g.bmp		0r_4g.bmp			TrialProc	TrialList	0	cvbn	-999999	16	352278	0	v	194	352472	312	-298	14	4	-8	12	6	2	10	92	-10	0	-2	0	4	4	2	2	0	4
Hungry_Donkey_bar_English_2	115	1	<?xml version="1.0"?>\n<Clock xmlns:dt="urn:schemas-microsoft-com:datatypes"><Description dt:dt="string">E-Prime Primary Realtime Clock</Description><StartTime><Timestamp dt:dt="int">0</Timestamp><DateUtc dt:dt="string">2015-07-29T21:03:36Z</DateUtc></StartTime><FrequencyChanges><FrequencyChange><Frequency dt:dt="r8">3507695</Frequency><Timestamp dt:dt="r8">2139965252997</Timestamp><Current dt:dt="r8">0</Current><DateUtc dt:dt="string">2015-07-29T21:03:36Z</DateUtc></FrequencyChange></FrequencyChanges></Clock>\n	Hungry_Donkey_bar_English_2-115-1	60.018	-128	1.0.0.18	1	1072216389	Standard	2.0.10.353	2.0.10.353	07-29-2015	7/29/2015 9:03:36 PM	17:03:36	2.0.10.248	93	Bar50-50.bmp	51	3	?	8r_4g.bmp	50r_4g.bmp	1r_2g.bmp	10r_2g.bmp			1r_2g.bmp		TrialProc	TrialList	0	cvbn	-999999	16	354511	0	b	1017	355528	314	-299	15	4	-8	13	6	1	10	93	-8	-50	-1	-10	4	4	2	2	-1	2
Hungry_Donkey_bar_English_2	115	1	<?xml version="1.0"?>\n<Clock xmlns:dt="urn:schemas-microsoft-com:datatypes"><Description dt:dt="string">E-Prime Primary Realtime Clock</Description><StartTime><Timestamp dt:dt="int">0</Timestamp><DateUtc dt:dt="string">2015-07-29T21:03:36Z</DateUtc></StartTime><FrequencyChanges><FrequencyChange><Frequency dt:dt="r8">3507695</Frequency><Timestamp dt:dt="r8">2139965252997</Timestamp><Current dt:dt="r8">0</Current><DateUtc dt:dt="string">2015-07-29T21:03:36Z</DateUtc></FrequencyChange></FrequencyChanges></Clock>\n	Hungry_Donkey_bar_English_2-115-1	60.018	-128	1.0.0.18	1	1072216389	Standard	2.0.10.353	2.0.10.353	07-29-2015	7/29/2015 9:03:36 PM	17:03:36	2.0.10.248	94	Bar50-50.bmp	51	4	?	0r_4g.bmp	0r_4g.bmp	0r_2g.bmp	0r_2g.bmp				0r_2g.bmp	TrialProc	TrialList	0	cvbn	-999999	16	357560	0	n	1520	359080	316	-299	17	4	-8	13	8	6	10	94	0	0	0	0	4	4	2	2	0	2
Hungry_Donkey_bar_English_2	115	1	<?xml version="1.0"?>\n<Clock xmlns:dt="urn:schemas-microsoft-com:datatypes"><Description dt:dt="string">E-Prime Primary Realtime Clock</Description><StartTime><Timestamp dt:dt="int">0</Timestamp><DateUtc dt:dt="string">2015-07-29T21:03:36Z</DateUtc></StartTime><FrequencyChanges><FrequencyChange><Frequency dt:dt="r8">3507695</Frequency><Timestamp dt:dt="r8">2139965252997</Timestamp><Current dt:dt="r8">0</Current><DateUtc dt:dt="string">2015-07-29T21:03:36Z</DateUtc></FrequencyChange></FrequencyChanges></Clock>\n	Hungry_Donkey_bar_English_2-115-1	60.018	-128	1.0.0.18	1	1072216389	Standard	2.0.10.353	2.0.10.353	07-29-2015	7/29/2015 9:03:36 PM	17:03:36	2.0.10.248	95	Bar50-50.bmp	52	2	?	0r_4g.bmp	0r_4g.bmp	0r_2g.bmp	0r_2g.bmp		0r_4g.bmp			TrialProc	TrialList	0	cvbn	-999999	16	361109	0	v	291	361400	320	-299	21	4	-4	13	8	7	10	95	0	0	0	0	4	4	2	2	0	4
Hungry_Donkey_bar_English_2	115	1	<?xml version="1.0"?>\n<Clock xmlns:dt="urn:schemas-microsoft-com:datatypes"><Description dt:dt="string">E-Prime Primary Realtime Clock</Description><StartTime><Timestamp dt:dt="int">0</Timestamp><DateUtc dt:dt="string">2015-07-29T21:03:36Z</DateUtc></StartTime><FrequencyChanges><FrequencyChange><Frequency dt:dt="r8">3507695</Frequency><Timestamp dt:dt="r8">2139965252997</Timestamp><Current dt:dt="r8">0</Current><DateUtc dt:dt="string">2015-07-29T21:03:36Z</DateUtc></FrequencyChange></FrequencyChanges></Clock>\n	Hungry_Donkey_bar_English_2-115-1	60.018	-128	1.0.0.18	1	1072216389	Standard	2.0.10.353	2.0.10.353	07-29-2015	7/29/2015 9:03:36 PM	17:03:36	2.0.10.248	96	Bar50-50.bmp	51	1	?	10r_4g.bmp	0r_4g.bmp	2r_2g.bmp	0r_2g.bmp	10r_4g.bmp				TrialProc	TrialList	0	cvbn	-999999	16	363425	0	c	359	363784	324	-309	15	-2	-4	13	8	4	10	96	-10	0	-2	0	4	4	2	2	-10	4
Hungry_Donkey_bar_English_2	115	1	<?xml version="1.0"?>\n<Clock xmlns:dt="urn:schemas-microsoft-com:datatypes"><Description dt:dt="string">E-Prime Primary Realtime Clock</Description><StartTime><Timestamp dt:dt="int">0</Timestamp><DateUtc dt:dt="string">2015-07-29T21:03:36Z</DateUtc></StartTime><FrequencyChanges><FrequencyChange><Frequency dt:dt="r8">3507695</Frequency><Timestamp dt:dt="r8">2139965252997</Timestamp><Current dt:dt="r8">0</Current><DateUtc dt:dt="string">2015-07-29T21:03:36Z</DateUtc></FrequencyChange></FrequencyChanges></Clock>\n	Hungry_Donkey_bar_English_2-115-1	60.018	-128	1.0.0.18	1	1072216389	Standard	2.0.10.353	2.0.10.353	07-29-2015	7/29/2015 9:03:36 PM	17:03:36	2.0.10.248	97	Bar50-50.bmp	51	3	?	0r_4g.bmp	0r_4g.bmp	0r_2g.bmp	0r_2g.bmp			0r_2g.bmp		TrialProc	TrialList	0	cvbn	-999999	16	365807	0	b	953	366760	326	-309	17	-2	-4	15	8	9	10	97	0	0	0	0	4	4	2	2	0	2
Hungry_Donkey_bar_English_2	115	1	<?xml version="1.0"?>\n<Clock xmlns:dt="urn:schemas-microsoft-com:datatypes"><Description dt:dt="string">E-Prime Primary Realtime Clock</Description><StartTime><Timestamp dt:dt="int">0</Timestamp><DateUtc dt:dt="string">2015-07-29T21:03:36Z</DateUtc></StartTime><FrequencyChanges><FrequencyChange><Frequency dt:dt="r8">3507695</Frequency><Timestamp dt:dt="r8">2139965252997</Timestamp><Current dt:dt="r8">0</Current><DateUtc dt:dt="string">2015-07-29T21:03:36Z</DateUtc></FrequencyChange></FrequencyChanges></Clock>\n	Hungry_Donkey_bar_English_2-115-1	60.018	-128	1.0.0.18	1	1072216389	Standard	2.0.10.353	2.0.10.353	07-29-2015	7/29/2015 9:03:36 PM	17:03:36	2.0.10.248	98	Bar50-50.bmp	52	2	?	0r_4g.bmp	0r_4g.bmp	0r_2g.bmp	0r_2g.bmp		0r_4g.bmp			TrialProc	TrialList	0	cvbn	-999999	16	368790	0	v	145	368935	330	-309	21	-2	0	15	8	8	10	98	0	0	0	0	4	4	2	2	0	4
Hungry_Donkey_bar_English_2	115	1	<?xml version="1.0"?>\n<Clock xmlns:dt="urn:schemas-microsoft-com:datatypes"><Description dt:dt="string">E-Prime Primary Realtime Clock</Description><StartTime><Timestamp dt:dt="int">0</Timestamp><DateUtc dt:dt="string">2015-07-29T21:03:36Z</DateUtc></StartTime><FrequencyChanges><FrequencyChange><Frequency dt:dt="r8">3507695</Frequency><Timestamp dt:dt="r8">2139965252997</Timestamp><Current dt:dt="r8">0</Current><DateUtc dt:dt="string">2015-07-29T21:03:36Z</DateUtc></FrequencyChange></FrequencyChanges></Clock>\n	Hungry_Donkey_bar_English_2-115-1	60.018	-128	1.0.0.18	1	1072216389	Standard	2.0.10.353	2.0.10.353	07-29-2015	7/29/2015 9:03:36 PM	17:03:36	2.0.10.248	99	Bar50-50.bmp	52	2	?	0r_4g.bmp	0r_4g.bmp	0r_2g.bmp	0r_2g.bmp		0r_4g.bmp			TrialProc	TrialList	0	cvbn	-999999	17	370973	0	v	474	371447	334	-309	25	-2	4	15	8	10	10	99	0	0	0	0	4	4	2	2	0	4
Hungry_Donkey_bar_English_2	115	1	<?xml version="1.0"?>\n<Clock xmlns:dt="urn:schemas-microsoft-com:datatypes"><Description dt:dt="string">E-Prime Primary Realtime Clock</Description><StartTime><Timestamp dt:dt="int">0</Timestamp><DateUtc dt:dt="string">2015-07-29T21:03:36Z</DateUtc></StartTime><FrequencyChanges><FrequencyChange><Frequency dt:dt="r8">3507695</Frequency><Timestamp dt:dt="r8">2139965252997</Timestamp><Current dt:dt="r8">0</Current><DateUtc dt:dt="string">2015-07-29T21:03:36Z</DateUtc></FrequencyChange></FrequencyChanges></Clock>\n	Hungry_Donkey_bar_English_2-115-1	60.018	-128	1.0.0.18	1	1072216389	Standard	2.0.10.353	2.0.10.353	07-29-2015	7/29/2015 9:03:36 PM	17:03:36	2.0.10.248	100	Bar50-50.bmp	52	2	?	10r_4g.bmp	0r_4g.bmp	2r_2g.bmp	0r_2g.bmp		0r_4g.bmp			TrialProc	TrialList	0	cvbn	-999999	16	373472	0	v	295	373767	338	-309	29	-2	8	15	8	3	10	100	-10	0	-2	0	4	4	2	2	0	4
Hungry_Donkey_bar_English_2	115	1	<?xml version="1.0"?>\n<Clock xmlns:dt="urn:schemas-microsoft-com:datatypes"><Description dt:dt="string">E-Prime Primary Realtime Clock</Description><StartTime><Timestamp dt:dt="int">0</Timestamp><DateUtc dt:dt="string">2015-07-29T21:03:36Z</DateUtc></StartTime><FrequencyChanges><FrequencyChange><Frequency dt:dt="r8">3507695</Frequency><Timestamp dt:dt="r8">2139965252997</Timestamp><Current dt:dt="r8">0</Current><DateUtc dt:dt="string">2015-07-29T21:03:36Z</DateUtc></FrequencyChange></FrequencyChanges></Clock>\n	Hungry_Donkey_bar_English_2-115-1	60.018	-128	1.0.0.18	1	1072216389	Standard	2.0.10.353	2.0.10.353	07-29-2015	7/29/2015 9:03:36 PM	17:03:36	2.0.10.248	101	Bar50-50.bmp	53	2	?	0r_4g.bmp	0r_4g.bmp	0r_2g.bmp	0r_2g.bmp		0r_4g.bmp			TrialProc	TrialList	0	cvbn	-999999	16	375804	0	v	411	376215	342	-309	33	-2	12	15	8	8	11	101	0	0	0	0	4	4	2	2	0	4
Hungry_Donkey_bar_English_2	115	1	<?xml version="1.0"?>\n<Clock xmlns:dt="urn:schemas-microsoft-com:datatypes"><Description dt:dt="string">E-Prime Primary Realtime Clock</Description><StartTime><Timestamp dt:dt="int">0</Timestamp><DateUtc dt:dt="string">2015-07-29T21:03:36Z</DateUtc></StartTime><FrequencyChanges><FrequencyChange><Frequency dt:dt="r8">3507695</Frequency><Timestamp dt:dt="r8">2139965252997</Timestamp><Current dt:dt="r8">0</Current><DateUtc dt:dt="string">2015-07-29T21:03:36Z</DateUtc></FrequencyChange></FrequencyChanges></Clock>\n	Hungry_Donkey_bar_English_2-115-1	60.018	-128	1.0.0.18	1	1072216389	Standard	2.0.10.353	2.0.10.353	07-29-2015	7/29/2015 9:03:36 PM	17:03:36	2.0.10.248	102	Bar50-50.bmp	53	2	?	0r_4g.bmp	0r_4g.bmp	0r_2g.bmp	0r_2g.bmp		0r_4g.bmp			TrialProc	TrialList	0	cvbn	-999999	16	378254	0	v	329	378583	346	-309	37	-2	16	15	8	6	11	102	0	0	0	0	4	4	2	2	0	4
Hungry_Donkey_bar_English_2	115	1	<?xml version="1.0"?>\n<Clock xmlns:dt="urn:schemas-microsoft-com:datatypes"><Description dt:dt="string">E-Prime Primary Realtime Clock</Description><StartTime><Timestamp dt:dt="int">0</Timestamp><DateUtc dt:dt="string">2015-07-29T21:03:36Z</DateUtc></StartTime><FrequencyChanges><FrequencyChange><Frequency dt:dt="r8">3507695</Frequency><Timestamp dt:dt="r8">2139965252997</Timestamp><Current dt:dt="r8">0</Current><DateUtc dt:dt="string">2015-07-29T21:03:36Z</DateUtc></FrequencyChange></FrequencyChanges></Clock>\n	Hungry_Donkey_bar_English_2-115-1	60.018	-128	1.0.0.18	1	1072216389	Standard	2.0.10.353	2.0.10.353	07-29-2015	7/29/2015 9:03:36 PM	17:03:36	2.0.10.248	103	Bar50-50.bmp	53	2	?	0r_4g.bmp	0r_4g.bmp	0r_2g.bmp	0r_2g.bmp		0r_4g.bmp			TrialProc	TrialList	0	cvbn	-999999	16	380620	0	v	219	380839	350	-309	41	-2	20	15	8	9	11	103	0	0	0	0	4	4	2	2	0	4
Hungry_Donkey_bar_English_2	115	1	<?xml version="1.0"?>\n<Clock xmlns:dt="urn:schemas-microsoft-com:datatypes"><Description dt:dt="string">E-Prime Primary Realtime Clock</Description><StartTime><Timestamp dt:dt="int">0</Timestamp><DateUtc dt:dt="string">2015-07-29T21:03:36Z</DateUtc></StartTime><FrequencyChanges><FrequencyChange><Frequency dt:dt="r8">3507695</Frequency><Timestamp dt:dt="r8">2139965252997</Timestamp><Current dt:dt="r8">0</Current><DateUtc dt:dt="string">2015-07-29T21:03:36Z</DateUtc></FrequencyChange></FrequencyChanges></Clock>\n	Hungry_Donkey_bar_English_2-115-1	60.018	-128	1.0.0.18	1	1072216389	Standard	2.0.10.353	2.0.10.353	07-29-2015	7/29/2015 9:03:36 PM	17:03:36	2.0.10.248	104	Bar50-50.bmp	53	1	?	0r_4g.bmp	0r_4g.bmp	0r_2g.bmp	0r_2g.bmp	0r_4g.bmp				TrialProc	TrialList	0	cvbn	-999999	16	382869	0	c	1778	384647	354	-309	45	2	20	15	8	7	11	104	0	0	0	0	4	4	2	2	0	4
Hungry_Donkey_bar_English_2	115	1	<?xml version="1.0"?>\n<Clock xmlns:dt="urn:schemas-microsoft-com:datatypes"><Description dt:dt="string">E-Prime Primary Realtime Clock</Description><StartTime><Timestamp dt:dt="int">0</Timestamp><DateUtc dt:dt="string">2015-07-29T21:03:36Z</DateUtc></StartTime><FrequencyChanges><FrequencyChange><Frequency dt:dt="r8">3507695</Frequency><Timestamp dt:dt="r8">2139965252997</Timestamp><Current dt:dt="r8">0</Current><DateUtc dt:dt="string">2015-07-29T21:03:36Z</DateUtc></FrequencyChange></FrequencyChanges></Clock>\n	Hungry_Donkey_bar_English_2-115-1	60.018	-128	1.0.0.18	1	1072216389	Standard	2.0.10.353	2.0.10.353	07-29-2015	7/29/2015 9:03:36 PM	17:03:36	2.0.10.248	105	Bar50-50.bmp	53	3	?	10r_4g.bmp	0r_4g.bmp	2r_2g.bmp	0r_2g.bmp			2r_2g.bmp		TrialProc	TrialList	0	cvbn	-999999	16	386685	0	b	1033	387718	356	-311	45	2	20	15	8	4	11	105	-10	0	-2	0	4	4	2	2	-2	2
Hungry_Donkey_bar_English_2	115	1	<?xml version="1.0"?>\n<Clock xmlns:dt="urn:schemas-microsoft-com:datatypes"><Description dt:dt="string">E-Prime Primary Realtime Clock</Description><StartTime><Timestamp dt:dt="int">0</Timestamp><DateUtc dt:dt="string">2015-07-29T21:03:36Z</DateUtc></StartTime><FrequencyChanges><FrequencyChange><Frequency dt:dt="r8">3507695</Frequency><Timestamp dt:dt="r8">2139965252997</Timestamp><Current dt:dt="r8">0</Current><DateUtc dt:dt="string">2015-07-29T21:03:36Z</DateUtc></FrequencyChange></FrequencyChanges></Clock>\n	Hungry_Donkey_bar_English_2-115-1	60.018	-128	1.0.0.18	1	1072216389	Standard	2.0.10.353	2.0.10.353	07-29-2015	7/29/2015 9:03:36 PM	17:03:36	2.0.10.248	106	Bar50-50.bmp	54	4	?	0r_4g.bmp	0r_4g.bmp	0r_2g.bmp	0r_2g.bmp				0r_2g.bmp	TrialProc	TrialList	0	cvbn	-999999	16	389750	0	n	416	390166	358	-311	47	2	20	15	10	10	11	106	0	0	0	0	4	4	2	2	0	2
Hungry_Donkey_bar_English_2	115	1	<?xml version="1.0"?>\n<Clock xmlns:dt="urn:schemas-microsoft-com:datatypes"><Description dt:dt="string">E-Prime Primary Realtime Clock</Description><StartTime><Timestamp dt:dt="int">0</Timestamp><DateUtc dt:dt="string">2015-07-29T21:03:36Z</DateUtc></StartTime><FrequencyChanges><FrequencyChange><Frequency dt:dt="r8">3507695</Frequency><Timestamp dt:dt="r8">2139965252997</Timestamp><Current dt:dt="r8">0</Current><DateUtc dt:dt="string">2015-07-29T21:03:36Z</DateUtc></FrequencyChange></FrequencyChanges></Clock>\n	Hungry_Donkey_bar_English_2-115-1	60.018	-128	1.0.0.18	1	1072216389	Standard	2.0.10.353	2.0.10.353	07-29-2015	7/29/2015 9:03:36 PM	17:03:36	2.0.10.248	107	Bar50-50.bmp	54	2	?	12r_4g.bmp	0r_4g.bmp	3r_2g.bmp	0r_2g.bmp		0r_4g.bmp			TrialProc	TrialList	0	cvbn	-999999	16	392200	0	v	286	392486	362	-311	51	2	24	15	10	5	11	107	-12	0	-3	0	4	4	2	2	0	4
Hungry_Donkey_bar_English_2	115	1	<?xml version="1.0"?>\n<Clock xmlns:dt="urn:schemas-microsoft-com:datatypes"><Description dt:dt="string">E-Prime Primary Realtime Clock</Description><StartTime><Timestamp dt:dt="int">0</Timestamp><DateUtc dt:dt="string">2015-07-29T21:03:36Z</DateUtc></StartTime><FrequencyChanges><FrequencyChange><Frequency dt:dt="r8">3507695</Frequency><Timestamp dt:dt="r8">2139965252997</Timestamp><Current dt:dt="r8">0</Current><DateUtc dt:dt="string">2015-07-29T21:03:36Z</DateUtc></FrequencyChange></FrequencyChanges></Clock>\n	Hungry_Donkey_bar_English_2-115-1	60.018	-128	1.0.0.18	1	1072216389	Standard	2.0.10.353	2.0.10.353	07-29-2015	7/29/2015 9:03:36 PM	17:03:36	2.0.10.248	108	Bar50-50.bmp	54	2	?	10r_4g.bmp	0r_4g.bmp	2r_2g.bmp	0r_2g.bmp		0r_4g.bmp			TrialProc	TrialList	0	cvbn	-999999	16	394516	0	v	242	394758	366	-311	55	2	28	15	10	3	11	108	-10	0	-2	0	4	4	2	2	0	4
Hungry_Donkey_bar_English_2	115	1	<?xml version="1.0"?>\n<Clock xmlns:dt="urn:schemas-microsoft-com:datatypes"><Description dt:dt="string">E-Prime Primary Realtime Clock</Description><StartTime><Timestamp dt:dt="int">0</Timestamp><DateUtc dt:dt="string">2015-07-29T21:03:36Z</DateUtc></StartTime><FrequencyChanges><FrequencyChange><Frequency dt:dt="r8">3507695</Frequency><Timestamp dt:dt="r8">2139965252997</Timestamp><Current dt:dt="r8">0</Current><DateUtc dt:dt="string">2015-07-29T21:03:36Z</DateUtc></FrequencyChange></FrequencyChanges></Clock>\n	Hungry_Donkey_bar_English_2-115-1	60.018	-128	1.0.0.18	1	1072216389	Standard	2.0.10.353	2.0.10.353	07-29-2015	7/29/2015 9:03:36 PM	17:03:36	2.0.10.248	109	Bar50-50.bmp	51	2	?	8r_4g.bmp	50r_4g.bmp	1r_2g.bmp	10r_2g.bmp		50r_4g.bmp			TrialProc	TrialList	0	cvbn	-999999	16	396798	0	v	728	397526	370	-361	9	2	-18	15	10	1	11	109	-8	-50	-1	-10	4	4	2	2	-50	4
Hungry_Donkey_bar_English_2	115	1	<?xml version="1.0"?>\n<Clock xmlns:dt="urn:schemas-microsoft-com:datatypes"><Description dt:dt="string">E-Prime Primary Realtime Clock</Description><StartTime><Timestamp dt:dt="int">0</Timestamp><DateUtc dt:dt="string">2015-07-29T21:03:36Z</DateUtc></StartTime><FrequencyChanges><FrequencyChange><Frequency dt:dt="r8">3507695</Frequency><Timestamp dt:dt="r8">2139965252997</Timestamp><Current dt:dt="r8">0</Current><DateUtc dt:dt="string">2015-07-29T21:03:36Z</DateUtc></FrequencyChange></FrequencyChanges></Clock>\n	Hungry_Donkey_bar_English_2-115-1	60.018	-128	1.0.0.18	1	1072216389	Standard	2.0.10.353	2.0.10.353	07-29-2015	7/29/2015 9:03:36 PM	17:03:36	2.0.10.248	110	Bar50-50.bmp	51	3	?	10r_4g.bmp	0r_4g.bmp	2r_2g.bmp	0r_2g.bmp			2r_2g.bmp		TrialProc	TrialList	0	cvbn	-999999	16	399564	0	b	554	400118	372	-363	9	2	-18	15	10	2	11	110	-10	0	-2	0	4	4	2	2	-2	2
Hungry_Donkey_bar_English_2	115	1	<?xml version="1.0"?>\n<Clock xmlns:dt="urn:schemas-microsoft-com:datatypes"><Description dt:dt="string">E-Prime Primary Realtime Clock</Description><StartTime><Timestamp dt:dt="int">0</Timestamp><DateUtc dt:dt="string">2015-07-29T21:03:36Z</DateUtc></StartTime><FrequencyChanges><FrequencyChange><Frequency dt:dt="r8">3507695</Frequency><Timestamp dt:dt="r8">2139965252997</Timestamp><Current dt:dt="r8">0</Current><DateUtc dt:dt="string">2015-07-29T21:03:36Z</DateUtc></FrequencyChange></FrequencyChanges></Clock>\n	Hungry_Donkey_bar_English_2-115-1	60.018	-128	1.0.0.18	1	1072216389	Standard	2.0.10.353	2.0.10.353	07-29-2015	7/29/2015 9:03:36 PM	17:03:36	2.0.10.248	111	Bar50-50.bmp	51	1	?	0r_4g.bmp	0r_4g.bmp	0r_2g.bmp	0r_2g.bmp	0r_4g.bmp				TrialProc	TrialList	0	cvbn	-999999	16	402147	0	c	531	402678	376	-363	13	6	-18	15	10	8	12	111	0	0	0	0	4	4	2	2	0	4
