ExperimentName	Subject	Session	Clock.Information	DataFile.Basename	Display.RefreshRate	Eindtotaal[Session]	ExperimentVersion	Group	RandomSeed	RuntimeCapabilities	RuntimeVersion	RuntimeVersionExpected	SessionDate	SessionStartDateTimeUtc	SessionTime	StudioVersion	Block	BarImage	BarTotalWinst	DoorChoice	Eindtotaal[Block]	FBDoor1	FBDoor2	FBDoor3	FBDoor4	Image1	Image2	Image3	Image4	Procedure	Running	spel.ACC	spel.CRESP	spel.DurationError	spel.OnsetDelay	spel.OnsetTime	spel.OnsetToOnsetTime	spel.RESP	spel.RT	spel.RTTime	TotalGain	TotalLose	Totalsum	TotalsumD1	TotalsumD2	TotalsumD3	TotalsumD4	TrialList	TrialList.Cycle	TrialList.Sample	varV1	varV2	varV3	varV4	varW1	varW2	varW3	varW4	Verliesbedrag	Winstbedrag
Hungry_Donkey_bar_English_2	157	1	<?xml version="1.0"?>\n<Clock xmlns:dt="urn:schemas-microsoft-com:datatypes"><Description dt:dt="string">E-Prime Primary Realtime Clock</Description><StartTime><Timestamp dt:dt="int">0</Timestamp><DateUtc dt:dt="string">2016-06-13T16:26:52Z</DateUtc></StartTime><FrequencyChanges><FrequencyChange><Frequency dt:dt="r8">3507675</Frequency><Timestamp dt:dt="r8">1123675299830</Timestamp><Current dt:dt="r8">0</Current><DateUtc dt:dt="string">2016-06-13T16:26:52Z</DateUtc></FrequencyChange></FrequencyChanges></Clock>\n	Hungry_Donkey_bar_English_2-157-1	60.017	-150	1.0.0.18	1	-1605421812	Standard	2.0.10.353	2.0.10.353	06-13-2016	6/13/2016 4:26:53 PM	12:26:53	2.0.10.248	1	Bar25-75.bmp	29	1	?	10r_4g.bmp	0r_4g.bmp	2r_2g.bmp	0r_2g.bmp	10r_4g.bmp				TrialProc	TrialList	0	cvbn	-999999	35	65426	0	c	1117	66543	4	-10	-6	-6	0	0	0	3	1	1	-10	0	-2	0	4	4	2	2	-10	4
Hungry_Donkey_bar_English_2	157	1	<?xml version="1.0"?>\n<Clock xmlns:dt="urn:schemas-microsoft-com:datatypes"><Description dt:dt="string">E-Prime Primary Realtime Clock</Description><StartTime><Timestamp dt:dt="int">0</Timestamp><DateUtc dt:dt="string">2016-06-13T16:26:52Z</DateUtc></StartTime><FrequencyChanges><FrequencyChange><Frequency dt:dt="r8">3507675</Frequency><Timestamp dt:dt="r8">1123675299830</Timestamp><Current dt:dt="r8">0</Current><DateUtc dt:dt="string">2016-06-13T16:26:52Z</DateUtc></FrequencyChange></FrequencyChanges></Clock>\n	Hungry_Donkey_bar_English_2-157-1	60.017	-150	1.0.0.18	1	-1605421812	Standard	2.0.10.353	2.0.10.353	06-13-2016	6/13/2016 4:26:53 PM	12:26:53	2.0.10.248	2	Bar50-50.bmp	44	2	?	10r_4g.bmp	0r_4g.bmp	2r_2g.bmp	0r_2g.bmp		0r_4g.bmp			TrialProc	TrialList	0	cvbn	-999999	16	68575	0	v	160	68735	8	-10	-2	-6	4	0	0	4	1	2	-10	0	-2	0	4	4	2	2	0	4
Hungry_Donkey_bar_English_2	157	1	<?xml version="1.0"?>\n<Clock xmlns:dt="urn:schemas-microsoft-com:datatypes"><Description dt:dt="string">E-Prime Primary Realtime Clock</Description><StartTime><Timestamp dt:dt="int">0</Timestamp><DateUtc dt:dt="string">2016-06-13T16:26:52Z</DateUtc></StartTime><FrequencyChanges><FrequencyChange><Frequency dt:dt="r8">3507675</Frequency><Timestamp dt:dt="r8">1123675299830</Timestamp><Current dt:dt="r8">0</Current><DateUtc dt:dt="string">2016-06-13T16:26:52Z</DateUtc></FrequencyChange></FrequencyChanges></Clock>\n	Hungry_Donkey_bar_English_2-157-1	60.017	-150	1.0.0.18	1	-1605421812	Standard	2.0.10.353	2.0.10.353	06-13-2016	6/13/2016 4:26:53 PM	12:26:53	2.0.10.248	3	Bar50-50.bmp	50	3	?	0r_4g.bmp	0r_4g.bmp	0r_2g.bmp	0r_2g.bmp			0r_2g.bmp		TrialProc	TrialList	0	cvbn	-999999	16	70775	0	b	376	71151	10	-10	0	-6	4	2	0	6	1	3	0	0	0	0	4	4	2	2	0	2
Hungry_Donkey_bar_English_2	157	1	<?xml version="1.0"?>\n<Clock xmlns:dt="urn:schemas-microsoft-com:datatypes"><Description dt:dt="string">E-Prime Primary Realtime Clock</Description><StartTime><Timestamp dt:dt="int">0</Timestamp><DateUtc dt:dt="string">2016-06-13T16:26:52Z</DateUtc></StartTime><FrequencyChanges><FrequencyChange><Frequency dt:dt="r8">3507675</Frequency><Timestamp dt:dt="r8">1123675299830</Timestamp><Current dt:dt="r8">0</Current><DateUtc dt:dt="string">2016-06-13T16:26:52Z</DateUtc></FrequencyChange></FrequencyChanges></Clock>\n	Hungry_Donkey_bar_English_2-157-1	60.017	-150	1.0.0.18	1	-1605421812	Standard	2.0.10.353	2.0.10.353	06-13-2016	6/13/2016 4:26:53 PM	12:26:53	2.0.10.248	4	Bar50-50.bmp	55	4	?	10r_4g.bmp	0r_4g.bmp	2r_2g.bmp	0r_2g.bmp				0r_2g.bmp	TrialProc	TrialList	0	cvbn	-999999	16	73191	0	n	376	73567	12	-10	2	-6	4	2	2	2	1	4	-10	0	-2	0	4	4	2	2	0	2
Hungry_Donkey_bar_English_2	157	1	<?xml version="1.0"?>\n<Clock xmlns:dt="urn:schemas-microsoft-com:datatypes"><Description dt:dt="string">E-Prime Primary Realtime Clock</Description><StartTime><Timestamp dt:dt="int">0</Timestamp><DateUtc dt:dt="string">2016-06-13T16:26:52Z</DateUtc></StartTime><FrequencyChanges><FrequencyChange><Frequency dt:dt="r8">3507675</Frequency><Timestamp dt:dt="r8">1123675299830</Timestamp><Current dt:dt="r8">0</Current><DateUtc dt:dt="string">2016-06-13T16:26:52Z</DateUtc></FrequencyChange></FrequencyChanges></Clock>\n	Hungry_Donkey_bar_English_2-157-1	60.017	-150	1.0.0.18	1	-1605421812	Standard	2.0.10.353	2.0.10.353	06-13-2016	6/13/2016 4:26:53 PM	12:26:53	2.0.10.248	5	Bar63-37.bmp	62	2	?	0r_4g.bmp	0r_4g.bmp	0r_2g.bmp	0r_2g.bmp		0r_4g.bmp			TrialProc	TrialList	0	cvbn	-999999	16	75607	0	v	296	75903	16	-10	6	-6	8	2	2	7	1	5	0	0	0	0	4	4	2	2	0	4
Hungry_Donkey_bar_English_2	157	1	<?xml version="1.0"?>\n<Clock xmlns:dt="urn:schemas-microsoft-com:datatypes"><Description dt:dt="string">E-Prime Primary Realtime Clock</Description><StartTime><Timestamp dt:dt="int">0</Timestamp><DateUtc dt:dt="string">2016-06-13T16:26:52Z</DateUtc></StartTime><FrequencyChanges><FrequencyChange><Frequency dt:dt="r8">3507675</Frequency><Timestamp dt:dt="r8">1123675299830</Timestamp><Current dt:dt="r8">0</Current><DateUtc dt:dt="string">2016-06-13T16:26:52Z</DateUtc></FrequencyChange></FrequencyChanges></Clock>\n	Hungry_Donkey_bar_English_2-157-1	60.017	-150	1.0.0.18	1	-1605421812	Standard	2.0.10.353	2.0.10.353	06-13-2016	6/13/2016 4:26:53 PM	12:26:53	2.0.10.248	6	Bar63-37.bmp	67	2	?	12r_4g.bmp	0r_4g.bmp	3r_2g.bmp	0r_2g.bmp		0r_4g.bmp			TrialProc	TrialList	0	cvbn	-999999	16	77939	0	v	300	78239	20	-10	10	-6	12	2	2	5	1	6	-12	0	-3	0	4	4	2	2	0	4
Hungry_Donkey_bar_English_2	157	1	<?xml version="1.0"?>\n<Clock xmlns:dt="urn:schemas-microsoft-com:datatypes"><Description dt:dt="string">E-Prime Primary Realtime Clock</Description><StartTime><Timestamp dt:dt="int">0</Timestamp><DateUtc dt:dt="string">2016-06-13T16:26:52Z</DateUtc></StartTime><FrequencyChanges><FrequencyChange><Frequency dt:dt="r8">3507675</Frequency><Timestamp dt:dt="r8">1123675299830</Timestamp><Current dt:dt="r8">0</Current><DateUtc dt:dt="string">2016-06-13T16:26:52Z</DateUtc></FrequencyChange></FrequencyChanges></Clock>\n	Hungry_Donkey_bar_English_2-157-1	60.017	-150	1.0.0.18	1	-1605421812	Standard	2.0.10.353	2.0.10.353	06-13-2016	6/13/2016 4:26:53 PM	12:26:53	2.0.10.248	7	Bar75-25.bmp	71	2	?	0r_4g.bmp	0r_4g.bmp	0r_2g.bmp	0r_2g.bmp		0r_4g.bmp			TrialProc	TrialList	0	cvbn	-999999	16	80272	0	v	95	80367	24	-10	14	-6	16	2	2	9	1	7	0	0	0	0	4	4	2	2	0	4
Hungry_Donkey_bar_English_2	157	1	<?xml version="1.0"?>\n<Clock xmlns:dt="urn:schemas-microsoft-com:datatypes"><Description dt:dt="string">E-Prime Primary Realtime Clock</Description><StartTime><Timestamp dt:dt="int">0</Timestamp><DateUtc dt:dt="string">2016-06-13T16:26:52Z</DateUtc></StartTime><FrequencyChanges><FrequencyChange><Frequency dt:dt="r8">3507675</Frequency><Timestamp dt:dt="r8">1123675299830</Timestamp><Current dt:dt="r8">0</Current><DateUtc dt:dt="string">2016-06-13T16:26:52Z</DateUtc></FrequencyChange></FrequencyChanges></Clock>\n	Hungry_Donkey_bar_English_2-157-1	60.017	-150	1.0.0.18	1	-1605421812	Standard	2.0.10.353	2.0.10.353	06-13-2016	6/13/2016 4:26:53 PM	12:26:53	2.0.10.248	8	Bar75-25.bmp	74	2	?	0r_4g.bmp	0r_4g.bmp	0r_2g.bmp	0r_2g.bmp		0r_4g.bmp			TrialProc	TrialList	0	cvbn	-999999	16	82405	0	v	250	82655	28	-10	18	-6	20	2	2	10	1	8	0	0	0	0	4	4	2	2	0	4
Hungry_Donkey_bar_English_2	157	1	<?xml version="1.0"?>\n<Clock xmlns:dt="urn:schemas-microsoft-com:datatypes"><Description dt:dt="string">E-Prime Primary Realtime Clock</Description><StartTime><Timestamp dt:dt="int">0</Timestamp><DateUtc dt:dt="string">2016-06-13T16:26:52Z</DateUtc></StartTime><FrequencyChanges><FrequencyChange><Frequency dt:dt="r8">3507675</Frequency><Timestamp dt:dt="r8">1123675299830</Timestamp><Current dt:dt="r8">0</Current><DateUtc dt:dt="string">2016-06-13T16:26:52Z</DateUtc></FrequencyChange></FrequencyChanges></Clock>\n	Hungry_Donkey_bar_English_2-157-1	60.017	-150	1.0.0.18	1	-1605421812	Standard	2.0.10.353	2.0.10.353	06-13-2016	6/13/2016 4:26:53 PM	12:26:53	2.0.10.248	9	Bar75-25.bmp	76	2	?	0r_4g.bmp	0r_4g.bmp	0r_2g.bmp	0r_2g.bmp		0r_4g.bmp			TrialProc	TrialList	0	cvbn	-999999	17	84688	0	v	478	85166	32	-10	22	-6	24	2	2	8	1	9	0	0	0	0	4	4	2	2	0	4
Hungry_Donkey_bar_English_2	157	1	<?xml version="1.0"?>\n<Clock xmlns:dt="urn:schemas-microsoft-com:datatypes"><Description dt:dt="string">E-Prime Primary Realtime Clock</Description><StartTime><Timestamp dt:dt="int">0</Timestamp><DateUtc dt:dt="string">2016-06-13T16:26:52Z</DateUtc></StartTime><FrequencyChanges><FrequencyChange><Frequency dt:dt="r8">3507675</Frequency><Timestamp dt:dt="r8">1123675299830</Timestamp><Current dt:dt="r8">0</Current><DateUtc dt:dt="string">2016-06-13T16:26:52Z</DateUtc></FrequencyChange></FrequencyChanges></Clock>\n	Hungry_Donkey_bar_English_2-157-1	60.017	-150	1.0.0.18	1	-1605421812	Standard	2.0.10.353	2.0.10.353	06-13-2016	6/13/2016 4:26:53 PM	12:26:53	2.0.10.248	10	Bar37-63.bmp	38	2	?	8r_4g.bmp	50r_4g.bmp	1r_2g.bmp	10r_2g.bmp		50r_4g.bmp			TrialProc	TrialList	0	cvbn	-999999	16	87203	0	v	283	87486	36	-60	-24	-6	-22	2	2	1	1	10	-8	-50	-1	-10	4	4	2	2	-50	4
Hungry_Donkey_bar_English_2	157	1	<?xml version="1.0"?>\n<Clock xmlns:dt="urn:schemas-microsoft-com:datatypes"><Description dt:dt="string">E-Prime Primary Realtime Clock</Description><StartTime><Timestamp dt:dt="int">0</Timestamp><DateUtc dt:dt="string">2016-06-13T16:26:52Z</DateUtc></StartTime><FrequencyChanges><FrequencyChange><Frequency dt:dt="r8">3507675</Frequency><Timestamp dt:dt="r8">1123675299830</Timestamp><Current dt:dt="r8">0</Current><DateUtc dt:dt="string">2016-06-13T16:26:52Z</DateUtc></FrequencyChange></FrequencyChanges></Clock>\n	Hungry_Donkey_bar_English_2-157-1	60.017	-150	1.0.0.18	1	-1605421812	Standard	2.0.10.353	2.0.10.353	06-13-2016	6/13/2016 4:26:53 PM	12:26:53	2.0.10.248	11	Bar37-63.bmp	38	3	?	10r_4g.bmp	0r_4g.bmp	2r_2g.bmp	0r_2g.bmp			2r_2g.bmp		TrialProc	TrialList	0	cvbn	-999999	16	89519	0	b	639	90158	38	-62	-24	-6	-22	2	2	2	2	11	-10	0	-2	0	4	4	2	2	-2	2
Hungry_Donkey_bar_English_2	157	1	<?xml version="1.0"?>\n<Clock xmlns:dt="urn:schemas-microsoft-com:datatypes"><Description dt:dt="string">E-Prime Primary Realtime Clock</Description><StartTime><Timestamp dt:dt="int">0</Timestamp><DateUtc dt:dt="string">2016-06-13T16:26:52Z</DateUtc></StartTime><FrequencyChanges><FrequencyChange><Frequency dt:dt="r8">3507675</Frequency><Timestamp dt:dt="r8">1123675299830</Timestamp><Current dt:dt="r8">0</Current><DateUtc dt:dt="string">2016-06-13T16:26:52Z</DateUtc></FrequencyChange></FrequencyChanges></Clock>\n	Hungry_Donkey_bar_English_2-157-1	60.017	-150	1.0.0.18	1	-1605421812	Standard	2.0.10.353	2.0.10.353	06-13-2016	6/13/2016 4:26:53 PM	12:26:53	2.0.10.248	12	Bar37-63.bmp	39	4	?	0r_4g.bmp	0r_4g.bmp	0r_2g.bmp	0r_2g.bmp				0r_2g.bmp	TrialProc	TrialList	0	cvbn	-999999	16	92202	0	n	276	92478	40	-62	-22	-6	-22	2	4	7	2	12	0	0	0	0	4	4	2	2	0	2
Hungry_Donkey_bar_English_2	157	1	<?xml version="1.0"?>\n<Clock xmlns:dt="urn:schemas-microsoft-com:datatypes"><Description dt:dt="string">E-Prime Primary Realtime Clock</Description><StartTime><Timestamp dt:dt="int">0</Timestamp><DateUtc dt:dt="string">2016-06-13T16:26:52Z</DateUtc></StartTime><FrequencyChanges><FrequencyChange><Frequency dt:dt="r8">3507675</Frequency><Timestamp dt:dt="r8">1123675299830</Timestamp><Current dt:dt="r8">0</Current><DateUtc dt:dt="string">2016-06-13T16:26:52Z</DateUtc></FrequencyChange></FrequencyChanges></Clock>\n	Hungry_Donkey_bar_English_2-157-1	60.017	-150	1.0.0.18	1	-1605421812	Standard	2.0.10.353	2.0.10.353	06-13-2016	6/13/2016 4:26:53 PM	12:26:53	2.0.10.248	13	Bar37-63.bmp	40	4	?	0r_4g.bmp	0r_4g.bmp	0r_2g.bmp	0r_2g.bmp				0r_2g.bmp	TrialProc	TrialList	0	cvbn	-999999	16	94501	0	n	345	94846	42	-62	-20	-6	-22	2	6	6	2	13	0	0	0	0	4	4	2	2	0	2
Hungry_Donkey_bar_English_2	157	1	<?xml version="1.0"?>\n<Clock xmlns:dt="urn:schemas-microsoft-com:datatypes"><Description dt:dt="string">E-Prime Primary Realtime Clock</Description><StartTime><Timestamp dt:dt="int">0</Timestamp><DateUtc dt:dt="string">2016-06-13T16:26:52Z</DateUtc></StartTime><FrequencyChanges><FrequencyChange><Frequency dt:dt="r8">3507675</Frequency><Timestamp dt:dt="r8">1123675299830</Timestamp><Current dt:dt="r8">0</Current><DateUtc dt:dt="string">2016-06-13T16:26:52Z</DateUtc></FrequencyChange></FrequencyChanges></Clock>\n	Hungry_Donkey_bar_English_2-157-1	60.017	-150	1.0.0.18	1	-1605421812	Standard	2.0.10.353	2.0.10.353	06-13-2016	6/13/2016 4:26:53 PM	12:26:53	2.0.10.248	14	Bar37-63.bmp	38	1	?	12r_4g.bmp	0r_4g.bmp	3r_2g.bmp	0r_2g.bmp	12r_4g.bmp				TrialProc	TrialList	0	cvbn	-999999	16	96884	0	c	970	97854	46	-74	-28	-14	-22	2	6	5	2	14	-12	0	-3	0	4	4	2	2	-12	4
Hungry_Donkey_bar_English_2	157	1	<?xml version="1.0"?>\n<Clock xmlns:dt="urn:schemas-microsoft-com:datatypes"><Description dt:dt="string">E-Prime Primary Realtime Clock</Description><StartTime><Timestamp dt:dt="int">0</Timestamp><DateUtc dt:dt="string">2016-06-13T16:26:52Z</DateUtc></StartTime><FrequencyChanges><FrequencyChange><Frequency dt:dt="r8">3507675</Frequency><Timestamp dt:dt="r8">1123675299830</Timestamp><Current dt:dt="r8">0</Current><DateUtc dt:dt="string">2016-06-13T16:26:52Z</DateUtc></FrequencyChange></FrequencyChanges></Clock>\n	Hungry_Donkey_bar_English_2-157-1	60.017	-150	1.0.0.18	1	-1605421812	Standard	2.0.10.353	2.0.10.353	06-13-2016	6/13/2016 4:26:53 PM	12:26:53	2.0.10.248	15	Bar25-75.bmp	29	2	?	8r_4g.bmp	50r_4g.bmp	1r_2g.bmp	10r_2g.bmp		50r_4g.bmp			TrialProc	TrialList	0	cvbn	-999999	16	99883	0	v	307	100190	50	-124	-74	-14	-68	2	6	1	2	15	-8	-50	-1	-10	4	4	2	2	-50	4
Hungry_Donkey_bar_English_2	157	1	<?xml version="1.0"?>\n<Clock xmlns:dt="urn:schemas-microsoft-com:datatypes"><Description dt:dt="string">E-Prime Primary Realtime Clock</Description><StartTime><Timestamp dt:dt="int">0</Timestamp><DateUtc dt:dt="string">2016-06-13T16:26:52Z</DateUtc></StartTime><FrequencyChanges><FrequencyChange><Frequency dt:dt="r8">3507675</Frequency><Timestamp dt:dt="r8">1123675299830</Timestamp><Current dt:dt="r8">0</Current><DateUtc dt:dt="string">2016-06-13T16:26:52Z</DateUtc></FrequencyChange></FrequencyChanges></Clock>\n	Hungry_Donkey_bar_English_2-157-1	60.017	-150	1.0.0.18	1	-1605421812	Standard	2.0.10.353	2.0.10.353	06-13-2016	6/13/2016 4:26:53 PM	12:26:53	2.0.10.248	16	Bar25-75.bmp	30	4	?	0r_4g.bmp	0r_4g.bmp	0r_2g.bmp	0r_2g.bmp				0r_2g.bmp	TrialProc	TrialList	0	cvbn	-999999	16	102216	0	n	310	102526	52	-124	-72	-14	-68	2	8	8	2	16	0	0	0	0	4	4	2	2	0	2
Hungry_Donkey_bar_English_2	157	1	<?xml version="1.0"?>\n<Clock xmlns:dt="urn:schemas-microsoft-com:datatypes"><Description dt:dt="string">E-Prime Primary Realtime Clock</Description><StartTime><Timestamp dt:dt="int">0</Timestamp><DateUtc dt:dt="string">2016-06-13T16:26:52Z</DateUtc></StartTime><FrequencyChanges><FrequencyChange><Frequency dt:dt="r8">3507675</Frequency><Timestamp dt:dt="r8">1123675299830</Timestamp><Current dt:dt="r8">0</Current><DateUtc dt:dt="string">2016-06-13T16:26:52Z</DateUtc></FrequencyChange></FrequencyChanges></Clock>\n	Hungry_Donkey_bar_English_2-157-1	60.017	-150	1.0.0.18	1	-1605421812	Standard	2.0.10.353	2.0.10.353	06-13-2016	6/13/2016 4:26:53 PM	12:26:53	2.0.10.248	17	Bar25-75.bmp	30	4	?	10r_4g.bmp	0r_4g.bmp	2r_2g.bmp	0r_2g.bmp				0r_2g.bmp	TrialProc	TrialList	0	cvbn	-999999	16	104565	0	n	25	104590	54	-124	-70	-14	-68	2	10	4	2	17	-10	0	-2	0	4	4	2	2	0	2
Hungry_Donkey_bar_English_2	157	1	<?xml version="1.0"?>\n<Clock xmlns:dt="urn:schemas-microsoft-com:datatypes"><Description dt:dt="string">E-Prime Primary Realtime Clock</Description><StartTime><Timestamp dt:dt="int">0</Timestamp><DateUtc dt:dt="string">2016-06-13T16:26:52Z</DateUtc></StartTime><FrequencyChanges><FrequencyChange><Frequency dt:dt="r8">3507675</Frequency><Timestamp dt:dt="r8">1123675299830</Timestamp><Current dt:dt="r8">0</Current><DateUtc dt:dt="string">2016-06-13T16:26:52Z</DateUtc></FrequencyChange></FrequencyChanges></Clock>\n	Hungry_Donkey_bar_English_2-157-1	60.017	-150	1.0.0.18	1	-1605421812	Standard	2.0.10.353	2.0.10.353	06-13-2016	6/13/2016 4:26:53 PM	12:26:53	2.0.10.248	18	Bar25-75.bmp	31	4	?	10r_4g.bmp	0r_4g.bmp	2r_2g.bmp	0r_2g.bmp				0r_2g.bmp	TrialProc	TrialList	0	cvbn	-999999	17	106615	0	n	294	106909	56	-124	-68	-14	-68	2	12	3	2	18	-10	0	-2	0	4	4	2	2	0	2
Hungry_Donkey_bar_English_2	157	1	<?xml version="1.0"?>\n<Clock xmlns:dt="urn:schemas-microsoft-com:datatypes"><Description dt:dt="string">E-Prime Primary Realtime Clock</Description><StartTime><Timestamp dt:dt="int">0</Timestamp><DateUtc dt:dt="string">2016-06-13T16:26:52Z</DateUtc></StartTime><FrequencyChanges><FrequencyChange><Frequency dt:dt="r8">3507675</Frequency><Timestamp dt:dt="r8">1123675299830</Timestamp><Current dt:dt="r8">0</Current><DateUtc dt:dt="string">2016-06-13T16:26:52Z</DateUtc></FrequencyChange></FrequencyChanges></Clock>\n	Hungry_Donkey_bar_English_2-157-1	60.017	-150	1.0.0.18	1	-1605421812	Standard	2.0.10.353	2.0.10.353	06-13-2016	6/13/2016 4:26:53 PM	12:26:53	2.0.10.248	19	Bar37-63.bmp	32	4	?	0r_4g.bmp	0r_4g.bmp	0r_2g.bmp	0r_2g.bmp				0r_2g.bmp	TrialProc	TrialList	0	cvbn	-999999	16	108947	0	n	266	109213	58	-124	-66	-14	-68	2	14	10	2	19	0	0	0	0	4	4	2	2	0	2
Hungry_Donkey_bar_English_2	157	1	<?xml version="1.0"?>\n<Clock xmlns:dt="urn:schemas-microsoft-com:datatypes"><Description dt:dt="string">E-Prime Primary Realtime Clock</Description><StartTime><Timestamp dt:dt="int">0</Timestamp><DateUtc dt:dt="string">2016-06-13T16:26:52Z</DateUtc></StartTime><FrequencyChanges><FrequencyChange><Frequency dt:dt="r8">3507675</Frequency><Timestamp dt:dt="r8">1123675299830</Timestamp><Current dt:dt="r8">0</Current><DateUtc dt:dt="string">2016-06-13T16:26:52Z</DateUtc></FrequencyChange></FrequencyChanges></Clock>\n	Hungry_Donkey_bar_English_2-157-1	60.017	-150	1.0.0.18	1	-1605421812	Standard	2.0.10.353	2.0.10.353	06-13-2016	6/13/2016 4:26:53 PM	12:26:53	2.0.10.248	20	Bar37-63.bmp	33	4	?	0r_4g.bmp	0r_4g.bmp	0r_2g.bmp	0r_2g.bmp				0r_2g.bmp	TrialProc	TrialList	0	cvbn	-999999	17	111247	0	n	318	111565	60	-124	-64	-14	-68	2	16	9	2	20	0	0	0	0	4	4	2	2	0	2
Hungry_Donkey_bar_English_2	157	1	<?xml version="1.0"?>\n<Clock xmlns:dt="urn:schemas-microsoft-com:datatypes"><Description dt:dt="string">E-Prime Primary Realtime Clock</Description><StartTime><Timestamp dt:dt="int">0</Timestamp><DateUtc dt:dt="string">2016-06-13T16:26:52Z</DateUtc></StartTime><FrequencyChanges><FrequencyChange><Frequency dt:dt="r8">3507675</Frequency><Timestamp dt:dt="r8">1123675299830</Timestamp><Current dt:dt="r8">0</Current><DateUtc dt:dt="string">2016-06-13T16:26:52Z</DateUtc></FrequencyChange></FrequencyChanges></Clock>\n	Hungry_Donkey_bar_English_2-157-1	60.017	-150	1.0.0.18	1	-1605421812	Standard	2.0.10.353	2.0.10.353	06-13-2016	6/13/2016 4:26:53 PM	12:26:53	2.0.10.248	21	Bar37-63.bmp	33	4	?	10r_4g.bmp	0r_4g.bmp	2r_2g.bmp	0r_2g.bmp				0r_2g.bmp	TrialProc	TrialList	0	cvbn	-999999	16	113596	0	n	17	113613	62	-124	-62	-14	-68	2	18	3	3	21	-10	0	-2	0	4	4	2	2	0	2
Hungry_Donkey_bar_English_2	157	1	<?xml version="1.0"?>\n<Clock xmlns:dt="urn:schemas-microsoft-com:datatypes"><Description dt:dt="string">E-Prime Primary Realtime Clock</Description><StartTime><Timestamp dt:dt="int">0</Timestamp><DateUtc dt:dt="string">2016-06-13T16:26:52Z</DateUtc></StartTime><FrequencyChanges><FrequencyChange><Frequency dt:dt="r8">3507675</Frequency><Timestamp dt:dt="r8">1123675299830</Timestamp><Current dt:dt="r8">0</Current><DateUtc dt:dt="string">2016-06-13T16:26:52Z</DateUtc></FrequencyChange></FrequencyChanges></Clock>\n	Hungry_Donkey_bar_English_2-157-1	60.017	-150	1.0.0.18	1	-1605421812	Standard	2.0.10.353	2.0.10.353	06-13-2016	6/13/2016 4:26:53 PM	12:26:53	2.0.10.248	22	Bar37-63.bmp	34	4	?	0r_4g.bmp	0r_4g.bmp	0r_2g.bmp	0r_2g.bmp				0r_2g.bmp	TrialProc	TrialList	0	cvbn	-999999	16	115645	0	n	192	115837	64	-124	-60	-14	-68	2	20	7	3	22	0	0	0	0	4	4	2	2	0	2
Hungry_Donkey_bar_English_2	157	1	<?xml version="1.0"?>\n<Clock xmlns:dt="urn:schemas-microsoft-com:datatypes"><Description dt:dt="string">E-Prime Primary Realtime Clock</Description><StartTime><Timestamp dt:dt="int">0</Timestamp><DateUtc dt:dt="string">2016-06-13T16:26:52Z</DateUtc></StartTime><FrequencyChanges><FrequencyChange><Frequency dt:dt="r8">3507675</Frequency><Timestamp dt:dt="r8">1123675299830</Timestamp><Current dt:dt="r8">0</Current><DateUtc dt:dt="string">2016-06-13T16:26:52Z</DateUtc></FrequencyChange></FrequencyChanges></Clock>\n	Hungry_Donkey_bar_English_2-157-1	60.017	-150	1.0.0.18	1	-1605421812	Standard	2.0.10.353	2.0.10.353	06-13-2016	6/13/2016 4:26:53 PM	12:26:53	2.0.10.248	23	Bar37-63.bmp	35	4	?	10r_4g.bmp	0r_4g.bmp	2r_2g.bmp	0r_2g.bmp				0r_2g.bmp	TrialProc	TrialList	0	cvbn	-999999	16	117861	0	n	328	118189	66	-124	-58	-14	-68	2	22	2	3	23	-10	0	-2	0	4	4	2	2	0	2
Hungry_Donkey_bar_English_2	157	1	<?xml version="1.0"?>\n<Clock xmlns:dt="urn:schemas-microsoft-com:datatypes"><Description dt:dt="string">E-Prime Primary Realtime Clock</Description><StartTime><Timestamp dt:dt="int">0</Timestamp><DateUtc dt:dt="string">2016-06-13T16:26:52Z</DateUtc></StartTime><FrequencyChanges><FrequencyChange><Frequency dt:dt="r8">3507675</Frequency><Timestamp dt:dt="r8">1123675299830</Timestamp><Current dt:dt="r8">0</Current><DateUtc dt:dt="string">2016-06-13T16:26:52Z</DateUtc></FrequencyChange></FrequencyChanges></Clock>\n	Hungry_Donkey_bar_English_2-157-1	60.017	-150	1.0.0.18	1	-1605421812	Standard	2.0.10.353	2.0.10.353	06-13-2016	6/13/2016 4:26:53 PM	12:26:53	2.0.10.248	24	Bar37-63.bmp	35	4	?	10r_4g.bmp	0r_4g.bmp	2r_2g.bmp	0r_2g.bmp				0r_2g.bmp	TrialProc	TrialList	0	cvbn	-999999	16	120227	0	n	522	120749	68	-124	-56	-14	-68	2	24	4	3	24	-10	0	-2	0	4	4	2	2	0	2
Hungry_Donkey_bar_English_2	157	1	<?xml version="1.0"?>\n<Clock xmlns:dt="urn:schemas-microsoft-com:datatypes"><Description dt:dt="string">E-Prime Primary Realtime Clock</Description><StartTime><Timestamp dt:dt="int">0</Timestamp><DateUtc dt:dt="string">2016-06-13T16:26:52Z</DateUtc></StartTime><FrequencyChanges><FrequencyChange><Frequency dt:dt="r8">3507675</Frequency><Timestamp dt:dt="r8">1123675299830</Timestamp><Current dt:dt="r8">0</Current><DateUtc dt:dt="string">2016-06-13T16:26:52Z</DateUtc></FrequencyChange></FrequencyChanges></Clock>\n	Hungry_Donkey_bar_English_2-157-1	60.017	-150	1.0.0.18	1	-1605421812	Standard	2.0.10.353	2.0.10.353	06-13-2016	6/13/2016 4:26:53 PM	12:26:53	2.0.10.248	25	Bar37-63.bmp	36	3	?	8r_4g.bmp	50r_4g.bmp	1r_2g.bmp	10r_2g.bmp			1r_2g.bmp		TrialProc	TrialList	0	cvbn	-999999	16	122777	0	b	404	123181	70	-125	-55	-14	-68	3	24	1	3	25	-8	-50	-1	-10	4	4	2	2	-1	2
Hungry_Donkey_bar_English_2	157	1	<?xml version="1.0"?>\n<Clock xmlns:dt="urn:schemas-microsoft-com:datatypes"><Description dt:dt="string">E-Prime Primary Realtime Clock</Description><StartTime><Timestamp dt:dt="int">0</Timestamp><DateUtc dt:dt="string">2016-06-13T16:26:52Z</DateUtc></StartTime><FrequencyChanges><FrequencyChange><Frequency dt:dt="r8">3507675</Frequency><Timestamp dt:dt="r8">1123675299830</Timestamp><Current dt:dt="r8">0</Current><DateUtc dt:dt="string">2016-06-13T16:26:52Z</DateUtc></FrequencyChange></FrequencyChanges></Clock>\n	Hungry_Donkey_bar_English_2-157-1	60.017	-150	1.0.0.18	1	-1605421812	Standard	2.0.10.353	2.0.10.353	06-13-2016	6/13/2016 4:26:53 PM	12:26:53	2.0.10.248	26	Bar37-63.bmp	37	2	?	12r_4g.bmp	0r_4g.bmp	3r_2g.bmp	0r_2g.bmp		0r_4g.bmp			TrialProc	TrialList	0	cvbn	-999999	16	125209	0	v	356	125565	74	-125	-51	-14	-64	3	24	5	3	26	-12	0	-3	0	4	4	2	2	0	4
Hungry_Donkey_bar_English_2	157	1	<?xml version="1.0"?>\n<Clock xmlns:dt="urn:schemas-microsoft-com:datatypes"><Description dt:dt="string">E-Prime Primary Realtime Clock</Description><StartTime><Timestamp dt:dt="int">0</Timestamp><DateUtc dt:dt="string">2016-06-13T16:26:52Z</DateUtc></StartTime><FrequencyChanges><FrequencyChange><Frequency dt:dt="r8">3507675</Frequency><Timestamp dt:dt="r8">1123675299830</Timestamp><Current dt:dt="r8">0</Current><DateUtc dt:dt="string">2016-06-13T16:26:52Z</DateUtc></FrequencyChange></FrequencyChanges></Clock>\n	Hungry_Donkey_bar_English_2-157-1	60.017	-150	1.0.0.18	1	-1605421812	Standard	2.0.10.353	2.0.10.353	06-13-2016	6/13/2016 4:26:53 PM	12:26:53	2.0.10.248	27	Bar37-63.bmp	38	2	?	0r_4g.bmp	0r_4g.bmp	0r_2g.bmp	0r_2g.bmp		0r_4g.bmp			TrialProc	TrialList	0	cvbn	-999999	16	127592	0	v	308	127900	78	-125	-47	-14	-60	3	24	8	3	27	0	0	0	0	4	4	2	2	0	4
Hungry_Donkey_bar_English_2	157	1	<?xml version="1.0"?>\n<Clock xmlns:dt="urn:schemas-microsoft-com:datatypes"><Description dt:dt="string">E-Prime Primary Realtime Clock</Description><StartTime><Timestamp dt:dt="int">0</Timestamp><DateUtc dt:dt="string">2016-06-13T16:26:52Z</DateUtc></StartTime><FrequencyChanges><FrequencyChange><Frequency dt:dt="r8">3507675</Frequency><Timestamp dt:dt="r8">1123675299830</Timestamp><Current dt:dt="r8">0</Current><DateUtc dt:dt="string">2016-06-13T16:26:52Z</DateUtc></FrequencyChange></FrequencyChanges></Clock>\n	Hungry_Donkey_bar_English_2-157-1	60.017	-150	1.0.0.18	1	-1605421812	Standard	2.0.10.353	2.0.10.353	06-13-2016	6/13/2016 4:26:53 PM	12:26:53	2.0.10.248	28	Bar37-63.bmp	40	2	?	0r_4g.bmp	0r_4g.bmp	0r_2g.bmp	0r_2g.bmp		0r_4g.bmp			TrialProc	TrialList	0	cvbn	-999999	16	129925	0	v	263	130188	82	-125	-43	-14	-56	3	24	9	3	28	0	0	0	0	4	4	2	2	0	4
Hungry_Donkey_bar_English_2	157	1	<?xml version="1.0"?>\n<Clock xmlns:dt="urn:schemas-microsoft-com:datatypes"><Description dt:dt="string">E-Prime Primary Realtime Clock</Description><StartTime><Timestamp dt:dt="int">0</Timestamp><DateUtc dt:dt="string">2016-06-13T16:26:52Z</DateUtc></StartTime><FrequencyChanges><FrequencyChange><Frequency dt:dt="r8">3507675</Frequency><Timestamp dt:dt="r8">1123675299830</Timestamp><Current dt:dt="r8">0</Current><DateUtc dt:dt="string">2016-06-13T16:26:52Z</DateUtc></FrequencyChange></FrequencyChanges></Clock>\n	Hungry_Donkey_bar_English_2-157-1	60.017	-150	1.0.0.18	1	-1605421812	Standard	2.0.10.353	2.0.10.353	06-13-2016	6/13/2016 4:26:53 PM	12:26:53	2.0.10.248	29	Bar37-63.bmp	41	2	?	0r_4g.bmp	0r_4g.bmp	0r_2g.bmp	0r_2g.bmp		0r_4g.bmp			TrialProc	TrialList	0	cvbn	-999999	16	132224	0	v	140	132364	86	-125	-39	-14	-52	3	24	10	3	29	0	0	0	0	4	4	2	2	0	4
Hungry_Donkey_bar_English_2	157	1	<?xml version="1.0"?>\n<Clock xmlns:dt="urn:schemas-microsoft-com:datatypes"><Description dt:dt="string">E-Prime Primary Realtime Clock</Description><StartTime><Timestamp dt:dt="int">0</Timestamp><DateUtc dt:dt="string">2016-06-13T16:26:52Z</DateUtc></StartTime><FrequencyChanges><FrequencyChange><Frequency dt:dt="r8">3507675</Frequency><Timestamp dt:dt="r8">1123675299830</Timestamp><Current dt:dt="r8">0</Current><DateUtc dt:dt="string">2016-06-13T16:26:52Z</DateUtc></FrequencyChange></FrequencyChanges></Clock>\n	Hungry_Donkey_bar_English_2-157-1	60.017	-150	1.0.0.18	1	-1605421812	Standard	2.0.10.353	2.0.10.353	06-13-2016	6/13/2016 4:26:53 PM	12:26:53	2.0.10.248	30	Bar37-63.bmp	42	2	?	0r_4g.bmp	0r_4g.bmp	0r_2g.bmp	0r_2g.bmp		0r_4g.bmp			TrialProc	TrialList	0	cvbn	-999999	16	134390	0	v	54	134444	90	-125	-35	-14	-48	3	24	6	3	30	0	0	0	0	4	4	2	2	0	4
Hungry_Donkey_bar_English_2	157	1	<?xml version="1.0"?>\n<Clock xmlns:dt="urn:schemas-microsoft-com:datatypes"><Description dt:dt="string">E-Prime Primary Realtime Clock</Description><StartTime><Timestamp dt:dt="int">0</Timestamp><DateUtc dt:dt="string">2016-06-13T16:26:52Z</DateUtc></StartTime><FrequencyChanges><FrequencyChange><Frequency dt:dt="r8">3507675</Frequency><Timestamp dt:dt="r8">1123675299830</Timestamp><Current dt:dt="r8">0</Current><DateUtc dt:dt="string">2016-06-13T16:26:52Z</DateUtc></FrequencyChange></FrequencyChanges></Clock>\n	Hungry_Donkey_bar_English_2-157-1	60.017	-150	1.0.0.18	1	-1605421812	Standard	2.0.10.353	2.0.10.353	06-13-2016	6/13/2016 4:26:53 PM	12:26:53	2.0.10.248	31	Bar37-63.bmp	43	2	?	0r_4g.bmp	0r_4g.bmp	0r_2g.bmp	0r_2g.bmp		0r_4g.bmp			TrialProc	TrialList	0	cvbn	-999999	16	136473	0	v	259	136732	94	-125	-31	-14	-44	3	24	7	4	31	0	0	0	0	4	4	2	2	0	4
Hungry_Donkey_bar_English_2	157	1	<?xml version="1.0"?>\n<Clock xmlns:dt="urn:schemas-microsoft-com:datatypes"><Description dt:dt="string">E-Prime Primary Realtime Clock</Description><StartTime><Timestamp dt:dt="int">0</Timestamp><DateUtc dt:dt="string">2016-06-13T16:26:52Z</DateUtc></StartTime><FrequencyChanges><FrequencyChange><Frequency dt:dt="r8">3507675</Frequency><Timestamp dt:dt="r8">1123675299830</Timestamp><Current dt:dt="r8">0</Current><DateUtc dt:dt="string">2016-06-13T16:26:52Z</DateUtc></FrequencyChange></FrequencyChanges></Clock>\n	Hungry_Donkey_bar_English_2-157-1	60.017	-150	1.0.0.18	1	-1605421812	Standard	2.0.10.353	2.0.10.353	06-13-2016	6/13/2016 4:26:53 PM	12:26:53	2.0.10.248	32	Bar50-50.bmp	44	2	?	0r_4g.bmp	0r_4g.bmp	0r_2g.bmp	0r_2g.bmp		0r_4g.bmp			TrialProc	TrialList	0	cvbn	-999999	15	138755	0	v	297	139052	98	-125	-27	-14	-40	3	24	6	4	32	0	0	0	0	4	4	2	2	0	4
Hungry_Donkey_bar_English_2	157	1	<?xml version="1.0"?>\n<Clock xmlns:dt="urn:schemas-microsoft-com:datatypes"><Description dt:dt="string">E-Prime Primary Realtime Clock</Description><StartTime><Timestamp dt:dt="int">0</Timestamp><DateUtc dt:dt="string">2016-06-13T16:26:52Z</DateUtc></StartTime><FrequencyChanges><FrequencyChange><Frequency dt:dt="r8">3507675</Frequency><Timestamp dt:dt="r8">1123675299830</Timestamp><Current dt:dt="r8">0</Current><DateUtc dt:dt="string">2016-06-13T16:26:52Z</DateUtc></FrequencyChange></FrequencyChanges></Clock>\n	Hungry_Donkey_bar_English_2-157-1	60.017	-150	1.0.0.18	1	-1605421812	Standard	2.0.10.353	2.0.10.353	06-13-2016	6/13/2016 4:26:53 PM	12:26:53	2.0.10.248	33	Bar50-50.bmp	45	2	?	0r_4g.bmp	0r_4g.bmp	0r_2g.bmp	0r_2g.bmp		0r_4g.bmp			TrialProc	TrialList	0	cvbn	-999999	16	141088	0	v	300	141388	102	-125	-23	-14	-36	3	24	8	4	33	0	0	0	0	4	4	2	2	0	4
Hungry_Donkey_bar_English_2	157	1	<?xml version="1.0"?>\n<Clock xmlns:dt="urn:schemas-microsoft-com:datatypes"><Description dt:dt="string">E-Prime Primary Realtime Clock</Description><StartTime><Timestamp dt:dt="int">0</Timestamp><DateUtc dt:dt="string">2016-06-13T16:26:52Z</DateUtc></StartTime><FrequencyChanges><FrequencyChange><Frequency dt:dt="r8">3507675</Frequency><Timestamp dt:dt="r8">1123675299830</Timestamp><Current dt:dt="r8">0</Current><DateUtc dt:dt="string">2016-06-13T16:26:52Z</DateUtc></FrequencyChange></FrequencyChanges></Clock>\n	Hungry_Donkey_bar_English_2-157-1	60.017	-150	1.0.0.18	1	-1605421812	Standard	2.0.10.353	2.0.10.353	06-13-2016	6/13/2016 4:26:53 PM	12:26:53	2.0.10.248	34	Bar37-63.bmp	38	2	?	8r_4g.bmp	50r_4g.bmp	1r_2g.bmp	10r_2g.bmp		50r_4g.bmp			TrialProc	TrialList	0	cvbn	-999999	16	143421	0	v	335	143756	106	-175	-69	-14	-82	3	24	1	4	34	-8	-50	-1	-10	4	4	2	2	-50	4
Hungry_Donkey_bar_English_2	157	1	<?xml version="1.0"?>\n<Clock xmlns:dt="urn:schemas-microsoft-com:datatypes"><Description dt:dt="string">E-Prime Primary Realtime Clock</Description><StartTime><Timestamp dt:dt="int">0</Timestamp><DateUtc dt:dt="string">2016-06-13T16:26:52Z</DateUtc></StartTime><FrequencyChanges><FrequencyChange><Frequency dt:dt="r8">3507675</Frequency><Timestamp dt:dt="r8">1123675299830</Timestamp><Current dt:dt="r8">0</Current><DateUtc dt:dt="string">2016-06-13T16:26:52Z</DateUtc></FrequencyChange></FrequencyChanges></Clock>\n	Hungry_Donkey_bar_English_2-157-1	60.017	-150	1.0.0.18	1	-1605421812	Standard	2.0.10.353	2.0.10.353	06-13-2016	6/13/2016 4:26:53 PM	12:26:53	2.0.10.248	35	Bar37-63.bmp	38	4	?	0r_4g.bmp	0r_4g.bmp	0r_2g.bmp	0r_2g.bmp				0r_2g.bmp	TrialProc	TrialList	0	cvbn	-999999	16	145787	0	n	465	146252	108	-175	-67	-14	-82	3	26	10	4	35	0	0	0	0	4	4	2	2	0	2
Hungry_Donkey_bar_English_2	157	1	<?xml version="1.0"?>\n<Clock xmlns:dt="urn:schemas-microsoft-com:datatypes"><Description dt:dt="string">E-Prime Primary Realtime Clock</Description><StartTime><Timestamp dt:dt="int">0</Timestamp><DateUtc dt:dt="string">2016-06-13T16:26:52Z</DateUtc></StartTime><FrequencyChanges><FrequencyChange><Frequency dt:dt="r8">3507675</Frequency><Timestamp dt:dt="r8">1123675299830</Timestamp><Current dt:dt="r8">0</Current><DateUtc dt:dt="string">2016-06-13T16:26:52Z</DateUtc></FrequencyChange></FrequencyChanges></Clock>\n	Hungry_Donkey_bar_English_2-157-1	60.017	-150	1.0.0.18	1	-1605421812	Standard	2.0.10.353	2.0.10.353	06-13-2016	6/13/2016 4:26:53 PM	12:26:53	2.0.10.248	36	Bar37-63.bmp	38	3	?	10r_4g.bmp	0r_4g.bmp	2r_2g.bmp	0r_2g.bmp			2r_2g.bmp		TrialProc	TrialList	0	cvbn	-999999	16	148286	0	b	317	148603	110	-177	-67	-14	-82	3	26	3	4	36	-10	0	-2	0	4	4	2	2	-2	2
Hungry_Donkey_bar_English_2	157	1	<?xml version="1.0"?>\n<Clock xmlns:dt="urn:schemas-microsoft-com:datatypes"><Description dt:dt="string">E-Prime Primary Realtime Clock</Description><StartTime><Timestamp dt:dt="int">0</Timestamp><DateUtc dt:dt="string">2016-06-13T16:26:52Z</DateUtc></StartTime><FrequencyChanges><FrequencyChange><Frequency dt:dt="r8">3507675</Frequency><Timestamp dt:dt="r8">1123675299830</Timestamp><Current dt:dt="r8">0</Current><DateUtc dt:dt="string">2016-06-13T16:26:52Z</DateUtc></FrequencyChange></FrequencyChanges></Clock>\n	Hungry_Donkey_bar_English_2-157-1	60.017	-150	1.0.0.18	1	-1605421812	Standard	2.0.10.353	2.0.10.353	06-13-2016	6/13/2016 4:26:53 PM	12:26:53	2.0.10.248	37	Bar37-63.bmp	38	1	?	10r_4g.bmp	0r_4g.bmp	2r_2g.bmp	0r_2g.bmp	10r_4g.bmp				TrialProc	TrialList	0	cvbn	-999999	16	150635	0	c	336	150971	114	-187	-73	-20	-82	3	26	4	4	37	-10	0	-2	0	4	4	2	2	-10	4
Hungry_Donkey_bar_English_2	157	1	<?xml version="1.0"?>\n<Clock xmlns:dt="urn:schemas-microsoft-com:datatypes"><Description dt:dt="string">E-Prime Primary Realtime Clock</Description><StartTime><Timestamp dt:dt="int">0</Timestamp><DateUtc dt:dt="string">2016-06-13T16:26:52Z</DateUtc></StartTime><FrequencyChanges><FrequencyChange><Frequency dt:dt="r8">3507675</Frequency><Timestamp dt:dt="r8">1123675299830</Timestamp><Current dt:dt="r8">0</Current><DateUtc dt:dt="string">2016-06-13T16:26:52Z</DateUtc></FrequencyChange></FrequencyChanges></Clock>\n	Hungry_Donkey_bar_English_2-157-1	60.017	-150	1.0.0.18	1	-1605421812	Standard	2.0.10.353	2.0.10.353	06-13-2016	6/13/2016 4:26:53 PM	12:26:53	2.0.10.248	38	Bar37-63.bmp	38	4	?	12r_4g.bmp	0r_4g.bmp	3r_2g.bmp	0r_2g.bmp				0r_2g.bmp	TrialProc	TrialList	0	cvbn	-999999	16	153001	0	n	34	153035	116	-187	-71	-20	-82	3	28	5	4	38	-12	0	-3	0	4	4	2	2	0	2
Hungry_Donkey_bar_English_2	157	1	<?xml version="1.0"?>\n<Clock xmlns:dt="urn:schemas-microsoft-com:datatypes"><Description dt:dt="string">E-Prime Primary Realtime Clock</Description><StartTime><Timestamp dt:dt="int">0</Timestamp><DateUtc dt:dt="string">2016-06-13T16:26:52Z</DateUtc></StartTime><FrequencyChanges><FrequencyChange><Frequency dt:dt="r8">3507675</Frequency><Timestamp dt:dt="r8">1123675299830</Timestamp><Current dt:dt="r8">0</Current><DateUtc dt:dt="string">2016-06-13T16:26:52Z</DateUtc></FrequencyChange></FrequencyChanges></Clock>\n	Hungry_Donkey_bar_English_2-157-1	60.017	-150	1.0.0.18	1	-1605421812	Standard	2.0.10.353	2.0.10.353	06-13-2016	6/13/2016 4:26:53 PM	12:26:53	2.0.10.248	39	Bar37-63.bmp	39	4	?	10r_4g.bmp	0r_4g.bmp	2r_2g.bmp	0r_2g.bmp				0r_2g.bmp	TrialProc	TrialList	0	cvbn	-999999	16	155067	0	n	256	155323	118	-187	-69	-20	-82	3	30	2	4	39	-10	0	-2	0	4	4	2	2	0	2
Hungry_Donkey_bar_English_2	157	1	<?xml version="1.0"?>\n<Clock xmlns:dt="urn:schemas-microsoft-com:datatypes"><Description dt:dt="string">E-Prime Primary Realtime Clock</Description><StartTime><Timestamp dt:dt="int">0</Timestamp><DateUtc dt:dt="string">2016-06-13T16:26:52Z</DateUtc></StartTime><FrequencyChanges><FrequencyChange><Frequency dt:dt="r8">3507675</Frequency><Timestamp dt:dt="r8">1123675299830</Timestamp><Current dt:dt="r8">0</Current><DateUtc dt:dt="string">2016-06-13T16:26:52Z</DateUtc></FrequencyChange></FrequencyChanges></Clock>\n	Hungry_Donkey_bar_English_2-157-1	60.017	-150	1.0.0.18	1	-1605421812	Standard	2.0.10.353	2.0.10.353	06-13-2016	6/13/2016 4:26:53 PM	12:26:53	2.0.10.248	40	Bar37-63.bmp	39	4	?	0r_4g.bmp	0r_4g.bmp	0r_2g.bmp	0r_2g.bmp				0r_2g.bmp	TrialProc	TrialList	0	cvbn	-999999	16	157350	0	n	277	157627	120	-187	-67	-20	-82	3	32	9	4	40	0	0	0	0	4	4	2	2	0	2
Hungry_Donkey_bar_English_2	157	1	<?xml version="1.0"?>\n<Clock xmlns:dt="urn:schemas-microsoft-com:datatypes"><Description dt:dt="string">E-Prime Primary Realtime Clock</Description><StartTime><Timestamp dt:dt="int">0</Timestamp><DateUtc dt:dt="string">2016-06-13T16:26:52Z</DateUtc></StartTime><FrequencyChanges><FrequencyChange><Frequency dt:dt="r8">3507675</Frequency><Timestamp dt:dt="r8">1123675299830</Timestamp><Current dt:dt="r8">0</Current><DateUtc dt:dt="string">2016-06-13T16:26:52Z</DateUtc></FrequencyChange></FrequencyChanges></Clock>\n	Hungry_Donkey_bar_English_2-157-1	60.017	-150	1.0.0.18	1	-1605421812	Standard	2.0.10.353	2.0.10.353	06-13-2016	6/13/2016 4:26:53 PM	12:26:53	2.0.10.248	41	Bar37-63.bmp	39	4	?	10r_4g.bmp	0r_4g.bmp	2r_2g.bmp	0r_2g.bmp				0r_2g.bmp	TrialProc	TrialList	0	cvbn	-999999	16	159666	0	n	361	160027	122	-187	-65	-20	-82	3	34	4	5	41	-10	0	-2	0	4	4	2	2	0	2
Hungry_Donkey_bar_English_2	157	1	<?xml version="1.0"?>\n<Clock xmlns:dt="urn:schemas-microsoft-com:datatypes"><Description dt:dt="string">E-Prime Primary Realtime Clock</Description><StartTime><Timestamp dt:dt="int">0</Timestamp><DateUtc dt:dt="string">2016-06-13T16:26:52Z</DateUtc></StartTime><FrequencyChanges><FrequencyChange><Frequency dt:dt="r8">3507675</Frequency><Timestamp dt:dt="r8">1123675299830</Timestamp><Current dt:dt="r8">0</Current><DateUtc dt:dt="string">2016-06-13T16:26:52Z</DateUtc></FrequencyChange></FrequencyChanges></Clock>\n	Hungry_Donkey_bar_English_2-157-1	60.017	-150	1.0.0.18	1	-1605421812	Standard	2.0.10.353	2.0.10.353	06-13-2016	6/13/2016 4:26:53 PM	12:26:53	2.0.10.248	42	Bar37-63.bmp	40	4	?	0r_4g.bmp	0r_4g.bmp	0r_2g.bmp	0r_2g.bmp				0r_2g.bmp	TrialProc	TrialList	0	cvbn	-999999	16	162065	0	n	666	162731	124	-187	-63	-20	-82	3	36	10	5	42	0	0	0	0	4	4	2	2	0	2
Hungry_Donkey_bar_English_2	157	1	<?xml version="1.0"?>\n<Clock xmlns:dt="urn:schemas-microsoft-com:datatypes"><Description dt:dt="string">E-Prime Primary Realtime Clock</Description><StartTime><Timestamp dt:dt="int">0</Timestamp><DateUtc dt:dt="string">2016-06-13T16:26:52Z</DateUtc></StartTime><FrequencyChanges><FrequencyChange><Frequency dt:dt="r8">3507675</Frequency><Timestamp dt:dt="r8">1123675299830</Timestamp><Current dt:dt="r8">0</Current><DateUtc dt:dt="string">2016-06-13T16:26:52Z</DateUtc></FrequencyChange></FrequencyChanges></Clock>\n	Hungry_Donkey_bar_English_2-157-1	60.017	-150	1.0.0.18	1	-1605421812	Standard	2.0.10.353	2.0.10.353	06-13-2016	6/13/2016 4:26:53 PM	12:26:53	2.0.10.248	43	Bar37-63.bmp	40	4	?	0r_4g.bmp	0r_4g.bmp	0r_2g.bmp	0r_2g.bmp				0r_2g.bmp	TrialProc	TrialList	0	cvbn	-999999	16	164765	0	n	78	164843	126	-187	-61	-20	-82	3	38	9	5	43	0	0	0	0	4	4	2	2	0	2
Hungry_Donkey_bar_English_2	157	1	<?xml version="1.0"?>\n<Clock xmlns:dt="urn:schemas-microsoft-com:datatypes"><Description dt:dt="string">E-Prime Primary Realtime Clock</Description><StartTime><Timestamp dt:dt="int">0</Timestamp><DateUtc dt:dt="string">2016-06-13T16:26:52Z</DateUtc></StartTime><FrequencyChanges><FrequencyChange><Frequency dt:dt="r8">3507675</Frequency><Timestamp dt:dt="r8">1123675299830</Timestamp><Current dt:dt="r8">0</Current><DateUtc dt:dt="string">2016-06-13T16:26:52Z</DateUtc></FrequencyChange></FrequencyChanges></Clock>\n	Hungry_Donkey_bar_English_2-157-1	60.017	-150	1.0.0.18	1	-1605421812	Standard	2.0.10.353	2.0.10.353	06-13-2016	6/13/2016 4:26:53 PM	12:26:53	2.0.10.248	44	Bar37-63.bmp	41	4	?	0r_4g.bmp	0r_4g.bmp	0r_2g.bmp	0r_2g.bmp				0r_2g.bmp	TrialProc	TrialList	0	cvbn	-999999	16	166881	0	n	313	167194	128	-187	-59	-20	-82	3	40	6	5	44	0	0	0	0	4	4	2	2	0	2
Hungry_Donkey_bar_English_2	157	1	<?xml version="1.0"?>\n<Clock xmlns:dt="urn:schemas-microsoft-com:datatypes"><Description dt:dt="string">E-Prime Primary Realtime Clock</Description><StartTime><Timestamp dt:dt="int">0</Timestamp><DateUtc dt:dt="string">2016-06-13T16:26:52Z</DateUtc></StartTime><FrequencyChanges><FrequencyChange><Frequency dt:dt="r8">3507675</Frequency><Timestamp dt:dt="r8">1123675299830</Timestamp><Current dt:dt="r8">0</Current><DateUtc dt:dt="string">2016-06-13T16:26:52Z</DateUtc></FrequencyChange></FrequencyChanges></Clock>\n	Hungry_Donkey_bar_English_2-157-1	60.017	-150	1.0.0.18	1	-1605421812	Standard	2.0.10.353	2.0.10.353	06-13-2016	6/13/2016 4:26:53 PM	12:26:53	2.0.10.248	45	Bar37-63.bmp	41	2	?	10r_4g.bmp	0r_4g.bmp	2r_2g.bmp	0r_2g.bmp		0r_4g.bmp			TrialProc	TrialList	0	cvbn	-999999	16	169230	0	v	572	169802	132	-187	-55	-20	-78	3	40	2	5	45	-10	0	-2	0	4	4	2	2	0	4
Hungry_Donkey_bar_English_2	157	1	<?xml version="1.0"?>\n<Clock xmlns:dt="urn:schemas-microsoft-com:datatypes"><Description dt:dt="string">E-Prime Primary Realtime Clock</Description><StartTime><Timestamp dt:dt="int">0</Timestamp><DateUtc dt:dt="string">2016-06-13T16:26:52Z</DateUtc></StartTime><FrequencyChanges><FrequencyChange><Frequency dt:dt="r8">3507675</Frequency><Timestamp dt:dt="r8">1123675299830</Timestamp><Current dt:dt="r8">0</Current><DateUtc dt:dt="string">2016-06-13T16:26:52Z</DateUtc></FrequencyChange></FrequencyChanges></Clock>\n	Hungry_Donkey_bar_English_2-157-1	60.017	-150	1.0.0.18	1	-1605421812	Standard	2.0.10.353	2.0.10.353	06-13-2016	6/13/2016 4:26:53 PM	12:26:53	2.0.10.248	46	Bar37-63.bmp	42	2	?	12r_4g.bmp	0r_4g.bmp	3r_2g.bmp	0r_2g.bmp		0r_4g.bmp			TrialProc	TrialList	0	cvbn	-999999	16	171829	0	v	293	172122	136	-187	-51	-20	-74	3	40	5	5	46	-12	0	-3	0	4	4	2	2	0	4
Hungry_Donkey_bar_English_2	157	1	<?xml version="1.0"?>\n<Clock xmlns:dt="urn:schemas-microsoft-com:datatypes"><Description dt:dt="string">E-Prime Primary Realtime Clock</Description><StartTime><Timestamp dt:dt="int">0</Timestamp><DateUtc dt:dt="string">2016-06-13T16:26:52Z</DateUtc></StartTime><FrequencyChanges><FrequencyChange><Frequency dt:dt="r8">3507675</Frequency><Timestamp dt:dt="r8">1123675299830</Timestamp><Current dt:dt="r8">0</Current><DateUtc dt:dt="string">2016-06-13T16:26:52Z</DateUtc></FrequencyChange></FrequencyChanges></Clock>\n	Hungry_Donkey_bar_English_2-157-1	60.017	-150	1.0.0.18	1	-1605421812	Standard	2.0.10.353	2.0.10.353	06-13-2016	6/13/2016 4:26:53 PM	12:26:53	2.0.10.248	47	Bar37-63.bmp	43	2	?	0r_4g.bmp	0r_4g.bmp	0r_2g.bmp	0r_2g.bmp		0r_4g.bmp			TrialProc	TrialList	0	cvbn	-999999	16	174145	0	v	297	174442	140	-187	-47	-20	-70	3	40	8	5	47	0	0	0	0	4	4	2	2	0	4
Hungry_Donkey_bar_English_2	157	1	<?xml version="1.0"?>\n<Clock xmlns:dt="urn:schemas-microsoft-com:datatypes"><Description dt:dt="string">E-Prime Primary Realtime Clock</Description><StartTime><Timestamp dt:dt="int">0</Timestamp><DateUtc dt:dt="string">2016-06-13T16:26:52Z</DateUtc></StartTime><FrequencyChanges><FrequencyChange><Frequency dt:dt="r8">3507675</Frequency><Timestamp dt:dt="r8">1123675299830</Timestamp><Current dt:dt="r8">0</Current><DateUtc dt:dt="string">2016-06-13T16:26:52Z</DateUtc></FrequencyChange></FrequencyChanges></Clock>\n	Hungry_Donkey_bar_English_2-157-1	60.017	-150	1.0.0.18	1	-1605421812	Standard	2.0.10.353	2.0.10.353	06-13-2016	6/13/2016 4:26:53 PM	12:26:53	2.0.10.248	48	Bar50-50.bmp	44	2	?	10r_4g.bmp	0r_4g.bmp	2r_2g.bmp	0r_2g.bmp		0r_4g.bmp			TrialProc	TrialList	0	cvbn	-999999	16	176478	0	v	284	176762	144	-187	-43	-20	-66	3	40	3	5	48	-10	0	-2	0	4	4	2	2	0	4
Hungry_Donkey_bar_English_2	157	1	<?xml version="1.0"?>\n<Clock xmlns:dt="urn:schemas-microsoft-com:datatypes"><Description dt:dt="string">E-Prime Primary Realtime Clock</Description><StartTime><Timestamp dt:dt="int">0</Timestamp><DateUtc dt:dt="string">2016-06-13T16:26:52Z</DateUtc></StartTime><FrequencyChanges><FrequencyChange><Frequency dt:dt="r8">3507675</Frequency><Timestamp dt:dt="r8">1123675299830</Timestamp><Current dt:dt="r8">0</Current><DateUtc dt:dt="string">2016-06-13T16:26:52Z</DateUtc></FrequencyChange></FrequencyChanges></Clock>\n	Hungry_Donkey_bar_English_2-157-1	60.017	-150	1.0.0.18	1	-1605421812	Standard	2.0.10.353	2.0.10.353	06-13-2016	6/13/2016 4:26:53 PM	12:26:53	2.0.10.248	49	Bar50-50.bmp	44	2	?	0r_4g.bmp	0r_4g.bmp	0r_2g.bmp	0r_2g.bmp		0r_4g.bmp			TrialProc	TrialList	0	cvbn	-999999	16	178794	0	v	320	179114	148	-187	-39	-20	-62	3	40	7	5	49	0	0	0	0	4	4	2	2	0	4
Hungry_Donkey_bar_English_2	157	1	<?xml version="1.0"?>\n<Clock xmlns:dt="urn:schemas-microsoft-com:datatypes"><Description dt:dt="string">E-Prime Primary Realtime Clock</Description><StartTime><Timestamp dt:dt="int">0</Timestamp><DateUtc dt:dt="string">2016-06-13T16:26:52Z</DateUtc></StartTime><FrequencyChanges><FrequencyChange><Frequency dt:dt="r8">3507675</Frequency><Timestamp dt:dt="r8">1123675299830</Timestamp><Current dt:dt="r8">0</Current><DateUtc dt:dt="string">2016-06-13T16:26:52Z</DateUtc></FrequencyChange></FrequencyChanges></Clock>\n	Hungry_Donkey_bar_English_2-157-1	60.017	-150	1.0.0.18	1	-1605421812	Standard	2.0.10.353	2.0.10.353	06-13-2016	6/13/2016 4:26:53 PM	12:26:53	2.0.10.248	50	Bar37-63.bmp	39	2	?	8r_4g.bmp	50r_4g.bmp	1r_2g.bmp	10r_2g.bmp		50r_4g.bmp			TrialProc	TrialList	0	cvbn	-999999	16	181143	0	v	291	181434	152	-237	-85	-20	-108	3	40	1	5	50	-8	-50	-1	-10	4	4	2	2	-50	4
Hungry_Donkey_bar_English_2	157	1	<?xml version="1.0"?>\n<Clock xmlns:dt="urn:schemas-microsoft-com:datatypes"><Description dt:dt="string">E-Prime Primary Realtime Clock</Description><StartTime><Timestamp dt:dt="int">0</Timestamp><DateUtc dt:dt="string">2016-06-13T16:26:52Z</DateUtc></StartTime><FrequencyChanges><FrequencyChange><Frequency dt:dt="r8">3507675</Frequency><Timestamp dt:dt="r8">1123675299830</Timestamp><Current dt:dt="r8">0</Current><DateUtc dt:dt="string">2016-06-13T16:26:52Z</DateUtc></FrequencyChange></FrequencyChanges></Clock>\n	Hungry_Donkey_bar_English_2-157-1	60.017	-150	1.0.0.18	1	-1605421812	Standard	2.0.10.353	2.0.10.353	06-13-2016	6/13/2016 4:26:53 PM	12:26:53	2.0.10.248	51	Bar37-63.bmp	38	4	?	8r_4g.bmp	50r_4g.bmp	1r_2g.bmp	10r_2g.bmp				10r_2g.bmp	TrialProc	TrialList	0	cvbn	-999999	16	183459	0	n	391	183850	154	-247	-93	-20	-108	3	32	1	6	51	-8	-50	-1	-10	4	4	2	2	-10	2
Hungry_Donkey_bar_English_2	157	1	<?xml version="1.0"?>\n<Clock xmlns:dt="urn:schemas-microsoft-com:datatypes"><Description dt:dt="string">E-Prime Primary Realtime Clock</Description><StartTime><Timestamp dt:dt="int">0</Timestamp><DateUtc dt:dt="string">2016-06-13T16:26:52Z</DateUtc></StartTime><FrequencyChanges><FrequencyChange><Frequency dt:dt="r8">3507675</Frequency><Timestamp dt:dt="r8">1123675299830</Timestamp><Current dt:dt="r8">0</Current><DateUtc dt:dt="string">2016-06-13T16:26:52Z</DateUtc></FrequencyChange></FrequencyChanges></Clock>\n	Hungry_Donkey_bar_English_2-157-1	60.017	-150	1.0.0.18	1	-1605421812	Standard	2.0.10.353	2.0.10.353	06-13-2016	6/13/2016 4:26:53 PM	12:26:53	2.0.10.248	52	Bar37-63.bmp	39	3	?	0r_4g.bmp	0r_4g.bmp	0r_2g.bmp	0r_2g.bmp			0r_2g.bmp		TrialProc	TrialList	0	cvbn	-999999	16	185875	0	b	295	186170	156	-247	-91	-20	-108	5	32	8	6	52	0	0	0	0	4	4	2	2	0	2
Hungry_Donkey_bar_English_2	157	1	<?xml version="1.0"?>\n<Clock xmlns:dt="urn:schemas-microsoft-com:datatypes"><Description dt:dt="string">E-Prime Primary Realtime Clock</Description><StartTime><Timestamp dt:dt="int">0</Timestamp><DateUtc dt:dt="string">2016-06-13T16:26:52Z</DateUtc></StartTime><FrequencyChanges><FrequencyChange><Frequency dt:dt="r8">3507675</Frequency><Timestamp dt:dt="r8">1123675299830</Timestamp><Current dt:dt="r8">0</Current><DateUtc dt:dt="string">2016-06-13T16:26:52Z</DateUtc></FrequencyChange></FrequencyChanges></Clock>\n	Hungry_Donkey_bar_English_2-157-1	60.017	-150	1.0.0.18	1	-1605421812	Standard	2.0.10.353	2.0.10.353	06-13-2016	6/13/2016 4:26:53 PM	12:26:53	2.0.10.248	53	Bar37-63.bmp	39	1	?	0r_4g.bmp	0r_4g.bmp	0r_2g.bmp	0r_2g.bmp	0r_4g.bmp				TrialProc	TrialList	0	cvbn	-999999	16	188208	0	c	281	188489	160	-247	-87	-16	-108	5	32	9	6	53	0	0	0	0	4	4	2	2	0	4
Hungry_Donkey_bar_English_2	157	1	<?xml version="1.0"?>\n<Clock xmlns:dt="urn:schemas-microsoft-com:datatypes"><Description dt:dt="string">E-Prime Primary Realtime Clock</Description><StartTime><Timestamp dt:dt="int">0</Timestamp><DateUtc dt:dt="string">2016-06-13T16:26:52Z</DateUtc></StartTime><FrequencyChanges><FrequencyChange><Frequency dt:dt="r8">3507675</Frequency><Timestamp dt:dt="r8">1123675299830</Timestamp><Current dt:dt="r8">0</Current><DateUtc dt:dt="string">2016-06-13T16:26:52Z</DateUtc></FrequencyChange></FrequencyChanges></Clock>\n	Hungry_Donkey_bar_English_2-157-1	60.017	-150	1.0.0.18	1	-1605421812	Standard	2.0.10.353	2.0.10.353	06-13-2016	6/13/2016 4:26:53 PM	12:26:53	2.0.10.248	54	Bar37-63.bmp	39	1	?	10r_4g.bmp	0r_4g.bmp	2r_2g.bmp	0r_2g.bmp	10r_4g.bmp				TrialProc	TrialList	0	cvbn	-999999	16	190524	0	c	301	190825	164	-257	-93	-22	-108	5	32	3	6	54	-10	0	-2	0	4	4	2	2	-10	4
Hungry_Donkey_bar_English_2	157	1	<?xml version="1.0"?>\n<Clock xmlns:dt="urn:schemas-microsoft-com:datatypes"><Description dt:dt="string">E-Prime Primary Realtime Clock</Description><StartTime><Timestamp dt:dt="int">0</Timestamp><DateUtc dt:dt="string">2016-06-13T16:26:52Z</DateUtc></StartTime><FrequencyChanges><FrequencyChange><Frequency dt:dt="r8">3507675</Frequency><Timestamp dt:dt="r8">1123675299830</Timestamp><Current dt:dt="r8">0</Current><DateUtc dt:dt="string">2016-06-13T16:26:52Z</DateUtc></FrequencyChange></FrequencyChanges></Clock>\n	Hungry_Donkey_bar_English_2-157-1	60.017	-150	1.0.0.18	1	-1605421812	Standard	2.0.10.353	2.0.10.353	06-13-2016	6/13/2016 4:26:53 PM	12:26:53	2.0.10.248	55	Bar37-63.bmp	39	4	?	0r_4g.bmp	0r_4g.bmp	0r_2g.bmp	0r_2g.bmp				0r_2g.bmp	TrialProc	TrialList	0	cvbn	-999999	17	192857	0	n	368	193225	166	-257	-91	-22	-108	5	34	6	6	55	0	0	0	0	4	4	2	2	0	2
Hungry_Donkey_bar_English_2	157	1	<?xml version="1.0"?>\n<Clock xmlns:dt="urn:schemas-microsoft-com:datatypes"><Description dt:dt="string">E-Prime Primary Realtime Clock</Description><StartTime><Timestamp dt:dt="int">0</Timestamp><DateUtc dt:dt="string">2016-06-13T16:26:52Z</DateUtc></StartTime><FrequencyChanges><FrequencyChange><Frequency dt:dt="r8">3507675</Frequency><Timestamp dt:dt="r8">1123675299830</Timestamp><Current dt:dt="r8">0</Current><DateUtc dt:dt="string">2016-06-13T16:26:52Z</DateUtc></FrequencyChange></FrequencyChanges></Clock>\n	Hungry_Donkey_bar_English_2-157-1	60.017	-150	1.0.0.18	1	-1605421812	Standard	2.0.10.353	2.0.10.353	06-13-2016	6/13/2016 4:26:53 PM	12:26:53	2.0.10.248	56	Bar37-63.bmp	40	4	?	0r_4g.bmp	0r_4g.bmp	0r_2g.bmp	0r_2g.bmp				0r_2g.bmp	TrialProc	TrialList	0	cvbn	-999999	16	195256	0	n	257	195513	168	-257	-89	-22	-108	5	36	7	6	56	0	0	0	0	4	4	2	2	0	2
Hungry_Donkey_bar_English_2	157	1	<?xml version="1.0"?>\n<Clock xmlns:dt="urn:schemas-microsoft-com:datatypes"><Description dt:dt="string">E-Prime Primary Realtime Clock</Description><StartTime><Timestamp dt:dt="int">0</Timestamp><DateUtc dt:dt="string">2016-06-13T16:26:52Z</DateUtc></StartTime><FrequencyChanges><FrequencyChange><Frequency dt:dt="r8">3507675</Frequency><Timestamp dt:dt="r8">1123675299830</Timestamp><Current dt:dt="r8">0</Current><DateUtc dt:dt="string">2016-06-13T16:26:52Z</DateUtc></FrequencyChange></FrequencyChanges></Clock>\n	Hungry_Donkey_bar_English_2-157-1	60.017	-150	1.0.0.18	1	-1605421812	Standard	2.0.10.353	2.0.10.353	06-13-2016	6/13/2016 4:26:53 PM	12:26:53	2.0.10.248	57	Bar37-63.bmp	40	4	?	10r_4g.bmp	0r_4g.bmp	2r_2g.bmp	0r_2g.bmp				0r_2g.bmp	TrialProc	TrialList	0	cvbn	-999999	17	197539	0	n	326	197865	170	-257	-87	-22	-108	5	38	4	6	57	-10	0	-2	0	4	4	2	2	0	2
Hungry_Donkey_bar_English_2	157	1	<?xml version="1.0"?>\n<Clock xmlns:dt="urn:schemas-microsoft-com:datatypes"><Description dt:dt="string">E-Prime Primary Realtime Clock</Description><StartTime><Timestamp dt:dt="int">0</Timestamp><DateUtc dt:dt="string">2016-06-13T16:26:52Z</DateUtc></StartTime><FrequencyChanges><FrequencyChange><Frequency dt:dt="r8">3507675</Frequency><Timestamp dt:dt="r8">1123675299830</Timestamp><Current dt:dt="r8">0</Current><DateUtc dt:dt="string">2016-06-13T16:26:52Z</DateUtc></FrequencyChange></FrequencyChanges></Clock>\n	Hungry_Donkey_bar_English_2-157-1	60.017	-150	1.0.0.18	1	-1605421812	Standard	2.0.10.353	2.0.10.353	06-13-2016	6/13/2016 4:26:53 PM	12:26:53	2.0.10.248	58	Bar37-63.bmp	40	4	?	12r_4g.bmp	0r_4g.bmp	3r_2g.bmp	0r_2g.bmp				0r_2g.bmp	TrialProc	TrialList	0	cvbn	-999999	17	199905	0	n	264	200169	172	-257	-85	-22	-108	5	40	5	6	58	-12	0	-3	0	4	4	2	2	0	2
Hungry_Donkey_bar_English_2	157	1	<?xml version="1.0"?>\n<Clock xmlns:dt="urn:schemas-microsoft-com:datatypes"><Description dt:dt="string">E-Prime Primary Realtime Clock</Description><StartTime><Timestamp dt:dt="int">0</Timestamp><DateUtc dt:dt="string">2016-06-13T16:26:52Z</DateUtc></StartTime><FrequencyChanges><FrequencyChange><Frequency dt:dt="r8">3507675</Frequency><Timestamp dt:dt="r8">1123675299830</Timestamp><Current dt:dt="r8">0</Current><DateUtc dt:dt="string">2016-06-13T16:26:52Z</DateUtc></FrequencyChange></FrequencyChanges></Clock>\n	Hungry_Donkey_bar_English_2-157-1	60.017	-150	1.0.0.18	1	-1605421812	Standard	2.0.10.353	2.0.10.353	06-13-2016	6/13/2016 4:26:53 PM	12:26:53	2.0.10.248	59	Bar37-63.bmp	40	4	?	0r_4g.bmp	0r_4g.bmp	0r_2g.bmp	0r_2g.bmp				0r_2g.bmp	TrialProc	TrialList	0	cvbn	-999999	16	202204	0	n	285	202489	174	-257	-83	-22	-108	5	42	10	6	59	0	0	0	0	4	4	2	2	0	2
Hungry_Donkey_bar_English_2	157	1	<?xml version="1.0"?>\n<Clock xmlns:dt="urn:schemas-microsoft-com:datatypes"><Description dt:dt="string">E-Prime Primary Realtime Clock</Description><StartTime><Timestamp dt:dt="int">0</Timestamp><DateUtc dt:dt="string">2016-06-13T16:26:52Z</DateUtc></StartTime><FrequencyChanges><FrequencyChange><Frequency dt:dt="r8">3507675</Frequency><Timestamp dt:dt="r8">1123675299830</Timestamp><Current dt:dt="r8">0</Current><DateUtc dt:dt="string">2016-06-13T16:26:52Z</DateUtc></FrequencyChange></FrequencyChanges></Clock>\n	Hungry_Donkey_bar_English_2-157-1	60.017	-150	1.0.0.18	1	-1605421812	Standard	2.0.10.353	2.0.10.353	06-13-2016	6/13/2016 4:26:53 PM	12:26:53	2.0.10.248	60	Bar37-63.bmp	41	4	?	10r_4g.bmp	0r_4g.bmp	2r_2g.bmp	0r_2g.bmp				0r_2g.bmp	TrialProc	TrialList	0	cvbn	-999999	16	204520	0	n	321	204841	176	-257	-81	-22	-108	5	44	2	6	60	-10	0	-2	0	4	4	2	2	0	2
Hungry_Donkey_bar_English_2	157	1	<?xml version="1.0"?>\n<Clock xmlns:dt="urn:schemas-microsoft-com:datatypes"><Description dt:dt="string">E-Prime Primary Realtime Clock</Description><StartTime><Timestamp dt:dt="int">0</Timestamp><DateUtc dt:dt="string">2016-06-13T16:26:52Z</DateUtc></StartTime><FrequencyChanges><FrequencyChange><Frequency dt:dt="r8">3507675</Frequency><Timestamp dt:dt="r8">1123675299830</Timestamp><Current dt:dt="r8">0</Current><DateUtc dt:dt="string">2016-06-13T16:26:52Z</DateUtc></FrequencyChange></FrequencyChanges></Clock>\n	Hungry_Donkey_bar_English_2-157-1	60.017	-150	1.0.0.18	1	-1605421812	Standard	2.0.10.353	2.0.10.353	06-13-2016	6/13/2016 4:26:53 PM	12:26:53	2.0.10.248	61	Bar37-63.bmp	41	4	?	0r_4g.bmp	0r_4g.bmp	0r_2g.bmp	0r_2g.bmp				0r_2g.bmp	TrialProc	TrialList	0	cvbn	-999999	16	206869	0	n	340	207209	178	-257	-79	-22	-108	5	46	10	7	61	0	0	0	0	4	4	2	2	0	2
Hungry_Donkey_bar_English_2	157	1	<?xml version="1.0"?>\n<Clock xmlns:dt="urn:schemas-microsoft-com:datatypes"><Description dt:dt="string">E-Prime Primary Realtime Clock</Description><StartTime><Timestamp dt:dt="int">0</Timestamp><DateUtc dt:dt="string">2016-06-13T16:26:52Z</DateUtc></StartTime><FrequencyChanges><FrequencyChange><Frequency dt:dt="r8">3507675</Frequency><Timestamp dt:dt="r8">1123675299830</Timestamp><Current dt:dt="r8">0</Current><DateUtc dt:dt="string">2016-06-13T16:26:52Z</DateUtc></FrequencyChange></FrequencyChanges></Clock>\n	Hungry_Donkey_bar_English_2-157-1	60.017	-150	1.0.0.18	1	-1605421812	Standard	2.0.10.353	2.0.10.353	06-13-2016	6/13/2016 4:26:53 PM	12:26:53	2.0.10.248	62	Bar37-63.bmp	41	4	?	0r_4g.bmp	0r_4g.bmp	0r_2g.bmp	0r_2g.bmp				0r_2g.bmp	TrialProc	TrialList	0	cvbn	-999999	16	209235	0	n	325	209560	180	-257	-77	-22	-108	5	48	8	7	62	0	0	0	0	4	4	2	2	0	2
Hungry_Donkey_bar_English_2	157	1	<?xml version="1.0"?>\n<Clock xmlns:dt="urn:schemas-microsoft-com:datatypes"><Description dt:dt="string">E-Prime Primary Realtime Clock</Description><StartTime><Timestamp dt:dt="int">0</Timestamp><DateUtc dt:dt="string">2016-06-13T16:26:52Z</DateUtc></StartTime><FrequencyChanges><FrequencyChange><Frequency dt:dt="r8">3507675</Frequency><Timestamp dt:dt="r8">1123675299830</Timestamp><Current dt:dt="r8">0</Current><DateUtc dt:dt="string">2016-06-13T16:26:52Z</DateUtc></FrequencyChange></FrequencyChanges></Clock>\n	Hungry_Donkey_bar_English_2-157-1	60.017	-150	1.0.0.18	1	-1605421812	Standard	2.0.10.353	2.0.10.353	06-13-2016	6/13/2016 4:26:53 PM	12:26:53	2.0.10.248	63	Bar37-63.bmp	41	4	?	8r_4g.bmp	50r_4g.bmp	1r_2g.bmp	10r_2g.bmp				10r_2g.bmp	TrialProc	TrialList	0	cvbn	-999999	17	211585	0	n	311	211896	182	-267	-85	-22	-108	5	40	1	7	63	-8	-50	-1	-10	4	4	2	2	-10	2
Hungry_Donkey_bar_English_2	157	1	<?xml version="1.0"?>\n<Clock xmlns:dt="urn:schemas-microsoft-com:datatypes"><Description dt:dt="string">E-Prime Primary Realtime Clock</Description><StartTime><Timestamp dt:dt="int">0</Timestamp><DateUtc dt:dt="string">2016-06-13T16:26:52Z</DateUtc></StartTime><FrequencyChanges><FrequencyChange><Frequency dt:dt="r8">3507675</Frequency><Timestamp dt:dt="r8">1123675299830</Timestamp><Current dt:dt="r8">0</Current><DateUtc dt:dt="string">2016-06-13T16:26:52Z</DateUtc></FrequencyChange></FrequencyChanges></Clock>\n	Hungry_Donkey_bar_English_2-157-1	60.017	-150	1.0.0.18	1	-1605421812	Standard	2.0.10.353	2.0.10.353	06-13-2016	6/13/2016 4:26:53 PM	12:26:53	2.0.10.248	64	Bar37-63.bmp	40	1	?	10r_4g.bmp	0r_4g.bmp	2r_2g.bmp	0r_2g.bmp	10r_4g.bmp				TrialProc	TrialList	0	cvbn	-999999	16	213934	0	c	330	214264	186	-277	-91	-28	-108	5	40	2	7	64	-10	0	-2	0	4	4	2	2	-10	4
Hungry_Donkey_bar_English_2	157	1	<?xml version="1.0"?>\n<Clock xmlns:dt="urn:schemas-microsoft-com:datatypes"><Description dt:dt="string">E-Prime Primary Realtime Clock</Description><StartTime><Timestamp dt:dt="int">0</Timestamp><DateUtc dt:dt="string">2016-06-13T16:26:52Z</DateUtc></StartTime><FrequencyChanges><FrequencyChange><Frequency dt:dt="r8">3507675</Frequency><Timestamp dt:dt="r8">1123675299830</Timestamp><Current dt:dt="r8">0</Current><DateUtc dt:dt="string">2016-06-13T16:26:52Z</DateUtc></FrequencyChange></FrequencyChanges></Clock>\n	Hungry_Donkey_bar_English_2-157-1	60.017	-150	1.0.0.18	1	-1605421812	Standard	2.0.10.353	2.0.10.353	06-13-2016	6/13/2016 4:26:53 PM	12:26:53	2.0.10.248	65	Bar37-63.bmp	41	2	?	0r_4g.bmp	0r_4g.bmp	0r_2g.bmp	0r_2g.bmp		0r_4g.bmp			TrialProc	TrialList	0	cvbn	-999999	16	216300	0	v	332	216632	190	-277	-87	-28	-104	5	40	6	7	65	0	0	0	0	4	4	2	2	0	4
Hungry_Donkey_bar_English_2	157	1	<?xml version="1.0"?>\n<Clock xmlns:dt="urn:schemas-microsoft-com:datatypes"><Description dt:dt="string">E-Prime Primary Realtime Clock</Description><StartTime><Timestamp dt:dt="int">0</Timestamp><DateUtc dt:dt="string">2016-06-13T16:26:52Z</DateUtc></StartTime><FrequencyChanges><FrequencyChange><Frequency dt:dt="r8">3507675</Frequency><Timestamp dt:dt="r8">1123675299830</Timestamp><Current dt:dt="r8">0</Current><DateUtc dt:dt="string">2016-06-13T16:26:52Z</DateUtc></FrequencyChange></FrequencyChanges></Clock>\n	Hungry_Donkey_bar_English_2-157-1	60.017	-150	1.0.0.18	1	-1605421812	Standard	2.0.10.353	2.0.10.353	06-13-2016	6/13/2016 4:26:53 PM	12:26:53	2.0.10.248	66	Bar37-63.bmp	41	2	?	10r_4g.bmp	0r_4g.bmp	2r_2g.bmp	0r_2g.bmp		0r_4g.bmp			TrialProc	TrialList	0	cvbn	-999999	16	218666	0	v	334	219000	194	-277	-83	-28	-100	5	40	3	7	66	-10	0	-2	0	4	4	2	2	0	4
Hungry_Donkey_bar_English_2	157	1	<?xml version="1.0"?>\n<Clock xmlns:dt="urn:schemas-microsoft-com:datatypes"><Description dt:dt="string">E-Prime Primary Realtime Clock</Description><StartTime><Timestamp dt:dt="int">0</Timestamp><DateUtc dt:dt="string">2016-06-13T16:26:52Z</DateUtc></StartTime><FrequencyChanges><FrequencyChange><Frequency dt:dt="r8">3507675</Frequency><Timestamp dt:dt="r8">1123675299830</Timestamp><Current dt:dt="r8">0</Current><DateUtc dt:dt="string">2016-06-13T16:26:52Z</DateUtc></FrequencyChange></FrequencyChanges></Clock>\n	Hungry_Donkey_bar_English_2-157-1	60.017	-150	1.0.0.18	1	-1605421812	Standard	2.0.10.353	2.0.10.353	06-13-2016	6/13/2016 4:26:53 PM	12:26:53	2.0.10.248	67	Bar37-63.bmp	42	2	?	12r_4g.bmp	0r_4g.bmp	3r_2g.bmp	0r_2g.bmp		0r_4g.bmp			TrialProc	TrialList	0	cvbn	-999999	16	221032	0	v	320	221352	198	-277	-79	-28	-96	5	40	5	7	67	-12	0	-3	0	4	4	2	2	0	4
Hungry_Donkey_bar_English_2	157	1	<?xml version="1.0"?>\n<Clock xmlns:dt="urn:schemas-microsoft-com:datatypes"><Description dt:dt="string">E-Prime Primary Realtime Clock</Description><StartTime><Timestamp dt:dt="int">0</Timestamp><DateUtc dt:dt="string">2016-06-13T16:26:52Z</DateUtc></StartTime><FrequencyChanges><FrequencyChange><Frequency dt:dt="r8">3507675</Frequency><Timestamp dt:dt="r8">1123675299830</Timestamp><Current dt:dt="r8">0</Current><DateUtc dt:dt="string">2016-06-13T16:26:52Z</DateUtc></FrequencyChange></FrequencyChanges></Clock>\n	Hungry_Donkey_bar_English_2-157-1	60.017	-150	1.0.0.18	1	-1605421812	Standard	2.0.10.353	2.0.10.353	06-13-2016	6/13/2016 4:26:53 PM	12:26:53	2.0.10.248	68	Bar37-63.bmp	42	2	?	0r_4g.bmp	0r_4g.bmp	0r_2g.bmp	0r_2g.bmp		0r_4g.bmp			TrialProc	TrialList	0	cvbn	-999999	16	223381	0	v	355	223736	202	-277	-75	-28	-92	5	40	7	7	68	0	0	0	0	4	4	2	2	0	4
Hungry_Donkey_bar_English_2	157	1	<?xml version="1.0"?>\n<Clock xmlns:dt="urn:schemas-microsoft-com:datatypes"><Description dt:dt="string">E-Prime Primary Realtime Clock</Description><StartTime><Timestamp dt:dt="int">0</Timestamp><DateUtc dt:dt="string">2016-06-13T16:26:52Z</DateUtc></StartTime><FrequencyChanges><FrequencyChange><Frequency dt:dt="r8">3507675</Frequency><Timestamp dt:dt="r8">1123675299830</Timestamp><Current dt:dt="r8">0</Current><DateUtc dt:dt="string">2016-06-13T16:26:52Z</DateUtc></FrequencyChange></FrequencyChanges></Clock>\n	Hungry_Donkey_bar_English_2-157-1	60.017	-150	1.0.0.18	1	-1605421812	Standard	2.0.10.353	2.0.10.353	06-13-2016	6/13/2016 4:26:53 PM	12:26:53	2.0.10.248	69	Bar37-63.bmp	43	2	?	0r_4g.bmp	0r_4g.bmp	0r_2g.bmp	0r_2g.bmp		0r_4g.bmp			TrialProc	TrialList	0	cvbn	-999999	16	225764	0	v	308	226072	206	-277	-71	-28	-88	5	40	9	7	69	0	0	0	0	4	4	2	2	0	4
Hungry_Donkey_bar_English_2	157	1	<?xml version="1.0"?>\n<Clock xmlns:dt="urn:schemas-microsoft-com:datatypes"><Description dt:dt="string">E-Prime Primary Realtime Clock</Description><StartTime><Timestamp dt:dt="int">0</Timestamp><DateUtc dt:dt="string">2016-06-13T16:26:52Z</DateUtc></StartTime><FrequencyChanges><FrequencyChange><Frequency dt:dt="r8">3507675</Frequency><Timestamp dt:dt="r8">1123675299830</Timestamp><Current dt:dt="r8">0</Current><DateUtc dt:dt="string">2016-06-13T16:26:52Z</DateUtc></FrequencyChange></FrequencyChanges></Clock>\n	Hungry_Donkey_bar_English_2-157-1	60.017	-150	1.0.0.18	1	-1605421812	Standard	2.0.10.353	2.0.10.353	06-13-2016	6/13/2016 4:26:53 PM	12:26:53	2.0.10.248	70	Bar37-63.bmp	43	2	?	10r_4g.bmp	0r_4g.bmp	2r_2g.bmp	0r_2g.bmp		0r_4g.bmp			TrialProc	TrialList	0	cvbn	-999999	17	228097	0	v	343	228440	210	-277	-67	-28	-84	5	40	4	7	70	-10	0	-2	0	4	4	2	2	0	4
Hungry_Donkey_bar_English_2	157	1	<?xml version="1.0"?>\n<Clock xmlns:dt="urn:schemas-microsoft-com:datatypes"><Description dt:dt="string">E-Prime Primary Realtime Clock</Description><StartTime><Timestamp dt:dt="int">0</Timestamp><DateUtc dt:dt="string">2016-06-13T16:26:52Z</DateUtc></StartTime><FrequencyChanges><FrequencyChange><Frequency dt:dt="r8">3507675</Frequency><Timestamp dt:dt="r8">1123675299830</Timestamp><Current dt:dt="r8">0</Current><DateUtc dt:dt="string">2016-06-13T16:26:52Z</DateUtc></FrequencyChange></FrequencyChanges></Clock>\n	Hungry_Donkey_bar_English_2-157-1	60.017	-150	1.0.0.18	1	-1605421812	Standard	2.0.10.353	2.0.10.353	06-13-2016	6/13/2016 4:26:53 PM	12:26:53	2.0.10.248	71	Bar50-50.bmp	44	2	?	0r_4g.bmp	0r_4g.bmp	0r_2g.bmp	0r_2g.bmp		0r_4g.bmp			TrialProc	TrialList	0	cvbn	-999999	16	230479	0	v	392	230871	214	-277	-63	-28	-80	5	40	8	8	71	0	0	0	0	4	4	2	2	0	4
Hungry_Donkey_bar_English_2	157	1	<?xml version="1.0"?>\n<Clock xmlns:dt="urn:schemas-microsoft-com:datatypes"><Description dt:dt="string">E-Prime Primary Realtime Clock</Description><StartTime><Timestamp dt:dt="int">0</Timestamp><DateUtc dt:dt="string">2016-06-13T16:26:52Z</DateUtc></StartTime><FrequencyChanges><FrequencyChange><Frequency dt:dt="r8">3507675</Frequency><Timestamp dt:dt="r8">1123675299830</Timestamp><Current dt:dt="r8">0</Current><DateUtc dt:dt="string">2016-06-13T16:26:52Z</DateUtc></FrequencyChange></FrequencyChanges></Clock>\n	Hungry_Donkey_bar_English_2-157-1	60.017	-150	1.0.0.18	1	-1605421812	Standard	2.0.10.353	2.0.10.353	06-13-2016	6/13/2016 4:26:53 PM	12:26:53	2.0.10.248	72	Bar50-50.bmp	44	2	?	0r_4g.bmp	0r_4g.bmp	0r_2g.bmp	0r_2g.bmp		0r_4g.bmp			TrialProc	TrialList	0	cvbn	-999999	16	232912	0	v	455	233367	218	-277	-59	-28	-76	5	40	6	8	72	0	0	0	0	4	4	2	2	0	4
Hungry_Donkey_bar_English_2	157	1	<?xml version="1.0"?>\n<Clock xmlns:dt="urn:schemas-microsoft-com:datatypes"><Description dt:dt="string">E-Prime Primary Realtime Clock</Description><StartTime><Timestamp dt:dt="int">0</Timestamp><DateUtc dt:dt="string">2016-06-13T16:26:52Z</DateUtc></StartTime><FrequencyChanges><FrequencyChange><Frequency dt:dt="r8">3507675</Frequency><Timestamp dt:dt="r8">1123675299830</Timestamp><Current dt:dt="r8">0</Current><DateUtc dt:dt="string">2016-06-13T16:26:52Z</DateUtc></FrequencyChange></FrequencyChanges></Clock>\n	Hungry_Donkey_bar_English_2-157-1	60.017	-150	1.0.0.18	1	-1605421812	Standard	2.0.10.353	2.0.10.353	06-13-2016	6/13/2016 4:26:53 PM	12:26:53	2.0.10.248	73	Bar50-50.bmp	44	2	?	12r_4g.bmp	0r_4g.bmp	3r_2g.bmp	0r_2g.bmp		0r_4g.bmp			TrialProc	TrialList	0	cvbn	-999999	16	235394	0	v	421	235815	222	-277	-55	-28	-72	5	40	5	8	73	-12	0	-3	0	4	4	2	2	0	4
Hungry_Donkey_bar_English_2	157	1	<?xml version="1.0"?>\n<Clock xmlns:dt="urn:schemas-microsoft-com:datatypes"><Description dt:dt="string">E-Prime Primary Realtime Clock</Description><StartTime><Timestamp dt:dt="int">0</Timestamp><DateUtc dt:dt="string">2016-06-13T16:26:52Z</DateUtc></StartTime><FrequencyChanges><FrequencyChange><Frequency dt:dt="r8">3507675</Frequency><Timestamp dt:dt="r8">1123675299830</Timestamp><Current dt:dt="r8">0</Current><DateUtc dt:dt="string">2016-06-13T16:26:52Z</DateUtc></FrequencyChange></FrequencyChanges></Clock>\n	Hungry_Donkey_bar_English_2-157-1	60.017	-150	1.0.0.18	1	-1605421812	Standard	2.0.10.353	2.0.10.353	06-13-2016	6/13/2016 4:26:53 PM	12:26:53	2.0.10.248	74	Bar50-50.bmp	45	2	?	0r_4g.bmp	0r_4g.bmp	0r_2g.bmp	0r_2g.bmp		0r_4g.bmp			TrialProc	TrialList	0	cvbn	-999999	16	237844	0	v	499	238343	226	-277	-51	-28	-68	5	40	9	8	74	0	0	0	0	4	4	2	2	0	4
Hungry_Donkey_bar_English_2	157	1	<?xml version="1.0"?>\n<Clock xmlns:dt="urn:schemas-microsoft-com:datatypes"><Description dt:dt="string">E-Prime Primary Realtime Clock</Description><StartTime><Timestamp dt:dt="int">0</Timestamp><DateUtc dt:dt="string">2016-06-13T16:26:52Z</DateUtc></StartTime><FrequencyChanges><FrequencyChange><Frequency dt:dt="r8">3507675</Frequency><Timestamp dt:dt="r8">1123675299830</Timestamp><Current dt:dt="r8">0</Current><DateUtc dt:dt="string">2016-06-13T16:26:52Z</DateUtc></FrequencyChange></FrequencyChanges></Clock>\n	Hungry_Donkey_bar_English_2-157-1	60.017	-150	1.0.0.18	1	-1605421812	Standard	2.0.10.353	2.0.10.353	06-13-2016	6/13/2016 4:26:53 PM	12:26:53	2.0.10.248	75	Bar50-50.bmp	45	2	?	10r_4g.bmp	0r_4g.bmp	2r_2g.bmp	0r_2g.bmp		0r_4g.bmp			TrialProc	TrialList	0	cvbn	-999999	16	240376	0	v	367	240743	230	-277	-47	-28	-64	5	40	4	8	75	-10	0	-2	0	4	4	2	2	0	4
Hungry_Donkey_bar_English_2	157	1	<?xml version="1.0"?>\n<Clock xmlns:dt="urn:schemas-microsoft-com:datatypes"><Description dt:dt="string">E-Prime Primary Realtime Clock</Description><StartTime><Timestamp dt:dt="int">0</Timestamp><DateUtc dt:dt="string">2016-06-13T16:26:52Z</DateUtc></StartTime><FrequencyChanges><FrequencyChange><Frequency dt:dt="r8">3507675</Frequency><Timestamp dt:dt="r8">1123675299830</Timestamp><Current dt:dt="r8">0</Current><DateUtc dt:dt="string">2016-06-13T16:26:52Z</DateUtc></FrequencyChange></FrequencyChanges></Clock>\n	Hungry_Donkey_bar_English_2-157-1	60.017	-150	1.0.0.18	1	-1605421812	Standard	2.0.10.353	2.0.10.353	06-13-2016	6/13/2016 4:26:53 PM	12:26:53	2.0.10.248	76	Bar50-50.bmp	46	2	?	10r_4g.bmp	0r_4g.bmp	2r_2g.bmp	0r_2g.bmp		0r_4g.bmp			TrialProc	TrialList	0	cvbn	-999999	16	242776	0	v	399	243175	234	-277	-43	-28	-60	5	40	2	8	76	-10	0	-2	0	4	4	2	2	0	4
Hungry_Donkey_bar_English_2	157	1	<?xml version="1.0"?>\n<Clock xmlns:dt="urn:schemas-microsoft-com:datatypes"><Description dt:dt="string">E-Prime Primary Realtime Clock</Description><StartTime><Timestamp dt:dt="int">0</Timestamp><DateUtc dt:dt="string">2016-06-13T16:26:52Z</DateUtc></StartTime><FrequencyChanges><FrequencyChange><Frequency dt:dt="r8">3507675</Frequency><Timestamp dt:dt="r8">1123675299830</Timestamp><Current dt:dt="r8">0</Current><DateUtc dt:dt="string">2016-06-13T16:26:52Z</DateUtc></FrequencyChange></FrequencyChanges></Clock>\n	Hungry_Donkey_bar_English_2-157-1	60.017	-150	1.0.0.18	1	-1605421812	Standard	2.0.10.353	2.0.10.353	06-13-2016	6/13/2016 4:26:53 PM	12:26:53	2.0.10.248	77	Bar50-50.bmp	46	2	?	10r_4g.bmp	0r_4g.bmp	2r_2g.bmp	0r_2g.bmp		0r_4g.bmp			TrialProc	TrialList	0	cvbn	-999999	16	245208	0	v	351	245559	238	-277	-39	-28	-56	5	40	3	8	77	-10	0	-2	0	4	4	2	2	0	4
Hungry_Donkey_bar_English_2	157	1	<?xml version="1.0"?>\n<Clock xmlns:dt="urn:schemas-microsoft-com:datatypes"><Description dt:dt="string">E-Prime Primary Realtime Clock</Description><StartTime><Timestamp dt:dt="int">0</Timestamp><DateUtc dt:dt="string">2016-06-13T16:26:52Z</DateUtc></StartTime><FrequencyChanges><FrequencyChange><Frequency dt:dt="r8">3507675</Frequency><Timestamp dt:dt="r8">1123675299830</Timestamp><Current dt:dt="r8">0</Current><DateUtc dt:dt="string">2016-06-13T16:26:52Z</DateUtc></FrequencyChange></FrequencyChanges></Clock>\n	Hungry_Donkey_bar_English_2-157-1	60.017	-150	1.0.0.18	1	-1605421812	Standard	2.0.10.353	2.0.10.353	06-13-2016	6/13/2016 4:26:53 PM	12:26:53	2.0.10.248	78	Bar50-50.bmp	47	2	?	0r_4g.bmp	0r_4g.bmp	0r_2g.bmp	0r_2g.bmp		0r_4g.bmp			TrialProc	TrialList	0	cvbn	-999999	16	247591	0	v	336	247927	242	-277	-35	-28	-52	5	40	7	8	78	0	0	0	0	4	4	2	2	0	4
Hungry_Donkey_bar_English_2	157	1	<?xml version="1.0"?>\n<Clock xmlns:dt="urn:schemas-microsoft-com:datatypes"><Description dt:dt="string">E-Prime Primary Realtime Clock</Description><StartTime><Timestamp dt:dt="int">0</Timestamp><DateUtc dt:dt="string">2016-06-13T16:26:52Z</DateUtc></StartTime><FrequencyChanges><FrequencyChange><Frequency dt:dt="r8">3507675</Frequency><Timestamp dt:dt="r8">1123675299830</Timestamp><Current dt:dt="r8">0</Current><DateUtc dt:dt="string">2016-06-13T16:26:52Z</DateUtc></FrequencyChange></FrequencyChanges></Clock>\n	Hungry_Donkey_bar_English_2-157-1	60.017	-150	1.0.0.18	1	-1605421812	Standard	2.0.10.353	2.0.10.353	06-13-2016	6/13/2016 4:26:53 PM	12:26:53	2.0.10.248	79	Bar50-50.bmp	47	4	?	0r_4g.bmp	0r_4g.bmp	0r_2g.bmp	0r_2g.bmp				0r_2g.bmp	TrialProc	TrialList	0	cvbn	-999999	16	249957	0	n	417	250374	244	-277	-33	-28	-52	5	42	10	8	79	0	0	0	0	4	4	2	2	0	2
Hungry_Donkey_bar_English_2	157	1	<?xml version="1.0"?>\n<Clock xmlns:dt="urn:schemas-microsoft-com:datatypes"><Description dt:dt="string">E-Prime Primary Realtime Clock</Description><StartTime><Timestamp dt:dt="int">0</Timestamp><DateUtc dt:dt="string">2016-06-13T16:26:52Z</DateUtc></StartTime><FrequencyChanges><FrequencyChange><Frequency dt:dt="r8">3507675</Frequency><Timestamp dt:dt="r8">1123675299830</Timestamp><Current dt:dt="r8">0</Current><DateUtc dt:dt="string">2016-06-13T16:26:52Z</DateUtc></FrequencyChange></FrequencyChanges></Clock>\n	Hungry_Donkey_bar_English_2-157-1	60.017	-150	1.0.0.18	1	-1605421812	Standard	2.0.10.353	2.0.10.353	06-13-2016	6/13/2016 4:26:53 PM	12:26:53	2.0.10.248	80	Bar50-50.bmp	46	4	?	8r_4g.bmp	50r_4g.bmp	1r_2g.bmp	10r_2g.bmp				10r_2g.bmp	TrialProc	TrialList	0	cvbn	-999999	16	252406	0	n	352	252758	246	-287	-41	-28	-52	5	34	1	8	80	-8	-50	-1	-10	4	4	2	2	-10	2
Hungry_Donkey_bar_English_2	157	1	<?xml version="1.0"?>\n<Clock xmlns:dt="urn:schemas-microsoft-com:datatypes"><Description dt:dt="string">E-Prime Primary Realtime Clock</Description><StartTime><Timestamp dt:dt="int">0</Timestamp><DateUtc dt:dt="string">2016-06-13T16:26:52Z</DateUtc></StartTime><FrequencyChanges><FrequencyChange><Frequency dt:dt="r8">3507675</Frequency><Timestamp dt:dt="r8">1123675299830</Timestamp><Current dt:dt="r8">0</Current><DateUtc dt:dt="string">2016-06-13T16:26:52Z</DateUtc></FrequencyChange></FrequencyChanges></Clock>\n	Hungry_Donkey_bar_English_2-157-1	60.017	-150	1.0.0.18	1	-1605421812	Standard	2.0.10.353	2.0.10.353	06-13-2016	6/13/2016 4:26:53 PM	12:26:53	2.0.10.248	81	Bar37-63.bmp	43	2	?	8r_4g.bmp	50r_4g.bmp	1r_2g.bmp	10r_2g.bmp		50r_4g.bmp			TrialProc	TrialList	0	cvbn	-999999	16	254789	0	v	609	255398	250	-337	-87	-28	-98	5	34	1	9	81	-8	-50	-1	-10	4	4	2	2	-50	4
Hungry_Donkey_bar_English_2	157	1	<?xml version="1.0"?>\n<Clock xmlns:dt="urn:schemas-microsoft-com:datatypes"><Description dt:dt="string">E-Prime Primary Realtime Clock</Description><StartTime><Timestamp dt:dt="int">0</Timestamp><DateUtc dt:dt="string">2016-06-13T16:26:52Z</DateUtc></StartTime><FrequencyChanges><FrequencyChange><Frequency dt:dt="r8">3507675</Frequency><Timestamp dt:dt="r8">1123675299830</Timestamp><Current dt:dt="r8">0</Current><DateUtc dt:dt="string">2016-06-13T16:26:52Z</DateUtc></FrequencyChange></FrequencyChanges></Clock>\n	Hungry_Donkey_bar_English_2-157-1	60.017	-150	1.0.0.18	1	-1605421812	Standard	2.0.10.353	2.0.10.353	06-13-2016	6/13/2016 4:26:53 PM	12:26:53	2.0.10.248	82	Bar37-63.bmp	43	3	?	10r_4g.bmp	0r_4g.bmp	2r_2g.bmp	0r_2g.bmp			2r_2g.bmp		TrialProc	TrialList	0	cvbn	-999999	16	257438	0	b	424	257862	252	-339	-87	-28	-98	5	34	4	9	82	-10	0	-2	0	4	4	2	2	-2	2
Hungry_Donkey_bar_English_2	157	1	<?xml version="1.0"?>\n<Clock xmlns:dt="urn:schemas-microsoft-com:datatypes"><Description dt:dt="string">E-Prime Primary Realtime Clock</Description><StartTime><Timestamp dt:dt="int">0</Timestamp><DateUtc dt:dt="string">2016-06-13T16:26:52Z</DateUtc></StartTime><FrequencyChanges><FrequencyChange><Frequency dt:dt="r8">3507675</Frequency><Timestamp dt:dt="r8">1123675299830</Timestamp><Current dt:dt="r8">0</Current><DateUtc dt:dt="string">2016-06-13T16:26:52Z</DateUtc></FrequencyChange></FrequencyChanges></Clock>\n	Hungry_Donkey_bar_English_2-157-1	60.017	-150	1.0.0.18	1	-1605421812	Standard	2.0.10.353	2.0.10.353	06-13-2016	6/13/2016 4:26:53 PM	12:26:53	2.0.10.248	83	Bar37-63.bmp	43	1	?	0r_4g.bmp	0r_4g.bmp	0r_2g.bmp	0r_2g.bmp	0r_4g.bmp				TrialProc	TrialList	0	cvbn	-999999	16	259887	0	c	375	260262	256	-339	-83	-24	-98	5	34	8	9	83	0	0	0	0	4	4	2	2	0	4
Hungry_Donkey_bar_English_2	157	1	<?xml version="1.0"?>\n<Clock xmlns:dt="urn:schemas-microsoft-com:datatypes"><Description dt:dt="string">E-Prime Primary Realtime Clock</Description><StartTime><Timestamp dt:dt="int">0</Timestamp><DateUtc dt:dt="string">2016-06-13T16:26:52Z</DateUtc></StartTime><FrequencyChanges><FrequencyChange><Frequency dt:dt="r8">3507675</Frequency><Timestamp dt:dt="r8">1123675299830</Timestamp><Current dt:dt="r8">0</Current><DateUtc dt:dt="string">2016-06-13T16:26:52Z</DateUtc></FrequencyChange></FrequencyChanges></Clock>\n	Hungry_Donkey_bar_English_2-157-1	60.017	-150	1.0.0.18	1	-1605421812	Standard	2.0.10.353	2.0.10.353	06-13-2016	6/13/2016 4:26:53 PM	12:26:53	2.0.10.248	84	Bar37-63.bmp	43	1	?	12r_4g.bmp	0r_4g.bmp	3r_2g.bmp	0r_2g.bmp	12r_4g.bmp				TrialProc	TrialList	0	cvbn	-999999	16	262287	0	c	407	262694	260	-351	-91	-32	-98	5	34	5	9	84	-12	0	-3	0	4	4	2	2	-12	4
Hungry_Donkey_bar_English_2	157	1	<?xml version="1.0"?>\n<Clock xmlns:dt="urn:schemas-microsoft-com:datatypes"><Description dt:dt="string">E-Prime Primary Realtime Clock</Description><StartTime><Timestamp dt:dt="int">0</Timestamp><DateUtc dt:dt="string">2016-06-13T16:26:52Z</DateUtc></StartTime><FrequencyChanges><FrequencyChange><Frequency dt:dt="r8">3507675</Frequency><Timestamp dt:dt="r8">1123675299830</Timestamp><Current dt:dt="r8">0</Current><DateUtc dt:dt="string">2016-06-13T16:26:52Z</DateUtc></FrequencyChange></FrequencyChanges></Clock>\n	Hungry_Donkey_bar_English_2-157-1	60.017	-150	1.0.0.18	1	-1605421812	Standard	2.0.10.353	2.0.10.353	06-13-2016	6/13/2016 4:26:53 PM	12:26:53	2.0.10.248	85	Bar37-63.bmp	43	2	?	10r_4g.bmp	0r_4g.bmp	2r_2g.bmp	0r_2g.bmp		0r_4g.bmp			TrialProc	TrialList	0	cvbn	-999999	16	264719	0	v	439	265158	264	-351	-87	-32	-94	5	34	3	9	85	-10	0	-2	0	4	4	2	2	0	4
Hungry_Donkey_bar_English_2	157	1	<?xml version="1.0"?>\n<Clock xmlns:dt="urn:schemas-microsoft-com:datatypes"><Description dt:dt="string">E-Prime Primary Realtime Clock</Description><StartTime><Timestamp dt:dt="int">0</Timestamp><DateUtc dt:dt="string">2016-06-13T16:26:52Z</DateUtc></StartTime><FrequencyChanges><FrequencyChange><Frequency dt:dt="r8">3507675</Frequency><Timestamp dt:dt="r8">1123675299830</Timestamp><Current dt:dt="r8">0</Current><DateUtc dt:dt="string">2016-06-13T16:26:52Z</DateUtc></FrequencyChange></FrequencyChanges></Clock>\n	Hungry_Donkey_bar_English_2-157-1	60.017	-150	1.0.0.18	1	-1605421812	Standard	2.0.10.353	2.0.10.353	06-13-2016	6/13/2016 4:26:53 PM	12:26:53	2.0.10.248	86	Bar37-63.bmp	43	4	?	0r_4g.bmp	0r_4g.bmp	0r_2g.bmp	0r_2g.bmp				0r_2g.bmp	TrialProc	TrialList	0	cvbn	-999999	16	267185	0	n	357	267542	266	-351	-85	-32	-94	5	36	9	9	86	0	0	0	0	4	4	2	2	0	2
Hungry_Donkey_bar_English_2	157	1	<?xml version="1.0"?>\n<Clock xmlns:dt="urn:schemas-microsoft-com:datatypes"><Description dt:dt="string">E-Prime Primary Realtime Clock</Description><StartTime><Timestamp dt:dt="int">0</Timestamp><DateUtc dt:dt="string">2016-06-13T16:26:52Z</DateUtc></StartTime><FrequencyChanges><FrequencyChange><Frequency dt:dt="r8">3507675</Frequency><Timestamp dt:dt="r8">1123675299830</Timestamp><Current dt:dt="r8">0</Current><DateUtc dt:dt="string">2016-06-13T16:26:52Z</DateUtc></FrequencyChange></FrequencyChanges></Clock>\n	Hungry_Donkey_bar_English_2-157-1	60.017	-150	1.0.0.18	1	-1605421812	Standard	2.0.10.353	2.0.10.353	06-13-2016	6/13/2016 4:26:53 PM	12:26:53	2.0.10.248	87	Bar37-63.bmp	43	2	?	0r_4g.bmp	0r_4g.bmp	0r_2g.bmp	0r_2g.bmp		0r_4g.bmp			TrialProc	TrialList	0	cvbn	-999999	16	269568	0	v	357	269925	270	-351	-81	-32	-90	5	36	6	9	87	0	0	0	0	4	4	2	2	0	4
Hungry_Donkey_bar_English_2	157	1	<?xml version="1.0"?>\n<Clock xmlns:dt="urn:schemas-microsoft-com:datatypes"><Description dt:dt="string">E-Prime Primary Realtime Clock</Description><StartTime><Timestamp dt:dt="int">0</Timestamp><DateUtc dt:dt="string">2016-06-13T16:26:52Z</DateUtc></StartTime><FrequencyChanges><FrequencyChange><Frequency dt:dt="r8">3507675</Frequency><Timestamp dt:dt="r8">1123675299830</Timestamp><Current dt:dt="r8">0</Current><DateUtc dt:dt="string">2016-06-13T16:26:52Z</DateUtc></FrequencyChange></FrequencyChanges></Clock>\n	Hungry_Donkey_bar_English_2-157-1	60.017	-150	1.0.0.18	1	-1605421812	Standard	2.0.10.353	2.0.10.353	06-13-2016	6/13/2016 4:26:53 PM	12:26:53	2.0.10.248	88	Bar50-50.bmp	44	4	?	10r_4g.bmp	0r_4g.bmp	2r_2g.bmp	0r_2g.bmp				0r_2g.bmp	TrialProc	TrialList	0	cvbn	-999999	16	271951	0	n	390	272341	272	-351	-79	-32	-90	5	38	2	9	88	-10	0	-2	0	4	4	2	2	0	2
Hungry_Donkey_bar_English_2	157	1	<?xml version="1.0"?>\n<Clock xmlns:dt="urn:schemas-microsoft-com:datatypes"><Description dt:dt="string">E-Prime Primary Realtime Clock</Description><StartTime><Timestamp dt:dt="int">0</Timestamp><DateUtc dt:dt="string">2016-06-13T16:26:52Z</DateUtc></StartTime><FrequencyChanges><FrequencyChange><Frequency dt:dt="r8">3507675</Frequency><Timestamp dt:dt="r8">1123675299830</Timestamp><Current dt:dt="r8">0</Current><DateUtc dt:dt="string">2016-06-13T16:26:52Z</DateUtc></FrequencyChange></FrequencyChanges></Clock>\n	Hungry_Donkey_bar_English_2-157-1	60.017	-150	1.0.0.18	1	-1605421812	Standard	2.0.10.353	2.0.10.353	06-13-2016	6/13/2016 4:26:53 PM	12:26:53	2.0.10.248	89	Bar50-50.bmp	44	2	?	0r_4g.bmp	0r_4g.bmp	0r_2g.bmp	0r_2g.bmp		0r_4g.bmp			TrialProc	TrialList	0	cvbn	-999999	16	274367	0	v	374	274741	276	-351	-75	-32	-86	5	38	7	9	89	0	0	0	0	4	4	2	2	0	4
Hungry_Donkey_bar_English_2	157	1	<?xml version="1.0"?>\n<Clock xmlns:dt="urn:schemas-microsoft-com:datatypes"><Description dt:dt="string">E-Prime Primary Realtime Clock</Description><StartTime><Timestamp dt:dt="int">0</Timestamp><DateUtc dt:dt="string">2016-06-13T16:26:52Z</DateUtc></StartTime><FrequencyChanges><FrequencyChange><Frequency dt:dt="r8">3507675</Frequency><Timestamp dt:dt="r8">1123675299830</Timestamp><Current dt:dt="r8">0</Current><DateUtc dt:dt="string">2016-06-13T16:26:52Z</DateUtc></FrequencyChange></FrequencyChanges></Clock>\n	Hungry_Donkey_bar_English_2-157-1	60.017	-150	1.0.0.18	1	-1605421812	Standard	2.0.10.353	2.0.10.353	06-13-2016	6/13/2016 4:26:53 PM	12:26:53	2.0.10.248	90	Bar50-50.bmp	44	4	?	0r_4g.bmp	0r_4g.bmp	0r_2g.bmp	0r_2g.bmp				0r_2g.bmp	TrialProc	TrialList	0	cvbn	-999999	16	276766	0	n	391	277157	278	-351	-73	-32	-86	5	40	10	9	90	0	0	0	0	4	4	2	2	0	2
Hungry_Donkey_bar_English_2	157	1	<?xml version="1.0"?>\n<Clock xmlns:dt="urn:schemas-microsoft-com:datatypes"><Description dt:dt="string">E-Prime Primary Realtime Clock</Description><StartTime><Timestamp dt:dt="int">0</Timestamp><DateUtc dt:dt="string">2016-06-13T16:26:52Z</DateUtc></StartTime><FrequencyChanges><FrequencyChange><Frequency dt:dt="r8">3507675</Frequency><Timestamp dt:dt="r8">1123675299830</Timestamp><Current dt:dt="r8">0</Current><DateUtc dt:dt="string">2016-06-13T16:26:52Z</DateUtc></FrequencyChange></FrequencyChanges></Clock>\n	Hungry_Donkey_bar_English_2-157-1	60.017	-150	1.0.0.18	1	-1605421812	Standard	2.0.10.353	2.0.10.353	06-13-2016	6/13/2016 4:26:53 PM	12:26:53	2.0.10.248	91	Bar50-50.bmp	45	2	?	0r_4g.bmp	0r_4g.bmp	0r_2g.bmp	0r_2g.bmp		0r_4g.bmp			TrialProc	TrialList	0	cvbn	-999999	16	279182	0	v	423	279605	282	-351	-69	-32	-82	5	40	6	10	91	0	0	0	0	4	4	2	2	0	4
Hungry_Donkey_bar_English_2	157	1	<?xml version="1.0"?>\n<Clock xmlns:dt="urn:schemas-microsoft-com:datatypes"><Description dt:dt="string">E-Prime Primary Realtime Clock</Description><StartTime><Timestamp dt:dt="int">0</Timestamp><DateUtc dt:dt="string">2016-06-13T16:26:52Z</DateUtc></StartTime><FrequencyChanges><FrequencyChange><Frequency dt:dt="r8">3507675</Frequency><Timestamp dt:dt="r8">1123675299830</Timestamp><Current dt:dt="r8">0</Current><DateUtc dt:dt="string">2016-06-13T16:26:52Z</DateUtc></FrequencyChange></FrequencyChanges></Clock>\n	Hungry_Donkey_bar_English_2-157-1	60.017	-150	1.0.0.18	1	-1605421812	Standard	2.0.10.353	2.0.10.353	06-13-2016	6/13/2016 4:26:53 PM	12:26:53	2.0.10.248	92	Bar50-50.bmp	45	2	?	10r_4g.bmp	0r_4g.bmp	2r_2g.bmp	0r_2g.bmp		0r_4g.bmp			TrialProc	TrialList	0	cvbn	-999999	16	281631	0	v	310	281941	286	-351	-65	-32	-78	5	40	3	10	92	-10	0	-2	0	4	4	2	2	0	4
Hungry_Donkey_bar_English_2	157	1	<?xml version="1.0"?>\n<Clock xmlns:dt="urn:schemas-microsoft-com:datatypes"><Description dt:dt="string">E-Prime Primary Realtime Clock</Description><StartTime><Timestamp dt:dt="int">0</Timestamp><DateUtc dt:dt="string">2016-06-13T16:26:52Z</DateUtc></StartTime><FrequencyChanges><FrequencyChange><Frequency dt:dt="r8">3507675</Frequency><Timestamp dt:dt="r8">1123675299830</Timestamp><Current dt:dt="r8">0</Current><DateUtc dt:dt="string">2016-06-13T16:26:52Z</DateUtc></FrequencyChange></FrequencyChanges></Clock>\n	Hungry_Donkey_bar_English_2-157-1	60.017	-150	1.0.0.18	1	-1605421812	Standard	2.0.10.353	2.0.10.353	06-13-2016	6/13/2016 4:26:53 PM	12:26:53	2.0.10.248	93	Bar50-50.bmp	45	2	?	10r_4g.bmp	0r_4g.bmp	2r_2g.bmp	0r_2g.bmp		0r_4g.bmp			TrialProc	TrialList	0	cvbn	-999999	17	283981	0	v	520	284501	290	-351	-61	-32	-74	5	40	2	10	93	-10	0	-2	0	4	4	2	2	0	4
Hungry_Donkey_bar_English_2	157	1	<?xml version="1.0"?>\n<Clock xmlns:dt="urn:schemas-microsoft-com:datatypes"><Description dt:dt="string">E-Prime Primary Realtime Clock</Description><StartTime><Timestamp dt:dt="int">0</Timestamp><DateUtc dt:dt="string">2016-06-13T16:26:52Z</DateUtc></StartTime><FrequencyChanges><FrequencyChange><Frequency dt:dt="r8">3507675</Frequency><Timestamp dt:dt="r8">1123675299830</Timestamp><Current dt:dt="r8">0</Current><DateUtc dt:dt="string">2016-06-13T16:26:52Z</DateUtc></FrequencyChange></FrequencyChanges></Clock>\n	Hungry_Donkey_bar_English_2-157-1	60.017	-150	1.0.0.18	1	-1605421812	Standard	2.0.10.353	2.0.10.353	06-13-2016	6/13/2016 4:26:53 PM	12:26:53	2.0.10.248	94	Bar50-50.bmp	45	4	?	8r_4g.bmp	50r_4g.bmp	1r_2g.bmp	10r_2g.bmp				10r_2g.bmp	TrialProc	TrialList	0	cvbn	-999999	16	286530	0	n	403	286933	292	-361	-69	-32	-74	5	32	1	10	94	-8	-50	-1	-10	4	4	2	2	-10	2
Hungry_Donkey_bar_English_2	157	1	<?xml version="1.0"?>\n<Clock xmlns:dt="urn:schemas-microsoft-com:datatypes"><Description dt:dt="string">E-Prime Primary Realtime Clock</Description><StartTime><Timestamp dt:dt="int">0</Timestamp><DateUtc dt:dt="string">2016-06-13T16:26:52Z</DateUtc></StartTime><FrequencyChanges><FrequencyChange><Frequency dt:dt="r8">3507675</Frequency><Timestamp dt:dt="r8">1123675299830</Timestamp><Current dt:dt="r8">0</Current><DateUtc dt:dt="string">2016-06-13T16:26:52Z</DateUtc></FrequencyChange></FrequencyChanges></Clock>\n	Hungry_Donkey_bar_English_2-157-1	60.017	-150	1.0.0.18	1	-1605421812	Standard	2.0.10.353	2.0.10.353	06-13-2016	6/13/2016 4:26:53 PM	12:26:53	2.0.10.248	95	Bar50-50.bmp	45	2	?	0r_4g.bmp	0r_4g.bmp	0r_2g.bmp	0r_2g.bmp		0r_4g.bmp			TrialProc	TrialList	0	cvbn	-999999	16	288962	0	v	851	289813	296	-361	-65	-32	-70	5	32	9	10	95	0	0	0	0	4	4	2	2	0	4
Hungry_Donkey_bar_English_2	157	1	<?xml version="1.0"?>\n<Clock xmlns:dt="urn:schemas-microsoft-com:datatypes"><Description dt:dt="string">E-Prime Primary Realtime Clock</Description><StartTime><Timestamp dt:dt="int">0</Timestamp><DateUtc dt:dt="string">2016-06-13T16:26:52Z</DateUtc></StartTime><FrequencyChanges><FrequencyChange><Frequency dt:dt="r8">3507675</Frequency><Timestamp dt:dt="r8">1123675299830</Timestamp><Current dt:dt="r8">0</Current><DateUtc dt:dt="string">2016-06-13T16:26:52Z</DateUtc></FrequencyChange></FrequencyChanges></Clock>\n	Hungry_Donkey_bar_English_2-157-1	60.017	-150	1.0.0.18	1	-1605421812	Standard	2.0.10.353	2.0.10.353	06-13-2016	6/13/2016 4:26:53 PM	12:26:53	2.0.10.248	96	Bar50-50.bmp	45	2	?	10r_4g.bmp	0r_4g.bmp	2r_2g.bmp	0r_2g.bmp		0r_4g.bmp			TrialProc	TrialList	0	cvbn	-999999	16	291845	0	v	399	292244	300	-361	-61	-32	-66	5	32	4	10	96	-10	0	-2	0	4	4	2	2	0	4
Hungry_Donkey_bar_English_2	157	1	<?xml version="1.0"?>\n<Clock xmlns:dt="urn:schemas-microsoft-com:datatypes"><Description dt:dt="string">E-Prime Primary Realtime Clock</Description><StartTime><Timestamp dt:dt="int">0</Timestamp><DateUtc dt:dt="string">2016-06-13T16:26:52Z</DateUtc></StartTime><FrequencyChanges><FrequencyChange><Frequency dt:dt="r8">3507675</Frequency><Timestamp dt:dt="r8">1123675299830</Timestamp><Current dt:dt="r8">0</Current><DateUtc dt:dt="string">2016-06-13T16:26:52Z</DateUtc></FrequencyChange></FrequencyChanges></Clock>\n	Hungry_Donkey_bar_English_2-157-1	60.017	-150	1.0.0.18	1	-1605421812	Standard	2.0.10.353	2.0.10.353	06-13-2016	6/13/2016 4:26:53 PM	12:26:53	2.0.10.248	97	Bar50-50.bmp	46	2	?	12r_4g.bmp	0r_4g.bmp	3r_2g.bmp	0r_2g.bmp		0r_4g.bmp			TrialProc	TrialList	0	cvbn	-999999	17	294278	0	v	334	294612	304	-361	-57	-32	-62	5	32	5	10	97	-12	0	-3	0	4	4	2	2	0	4
Hungry_Donkey_bar_English_2	157	1	<?xml version="1.0"?>\n<Clock xmlns:dt="urn:schemas-microsoft-com:datatypes"><Description dt:dt="string">E-Prime Primary Realtime Clock</Description><StartTime><Timestamp dt:dt="int">0</Timestamp><DateUtc dt:dt="string">2016-06-13T16:26:52Z</DateUtc></StartTime><FrequencyChanges><FrequencyChange><Frequency dt:dt="r8">3507675</Frequency><Timestamp dt:dt="r8">1123675299830</Timestamp><Current dt:dt="r8">0</Current><DateUtc dt:dt="string">2016-06-13T16:26:52Z</DateUtc></FrequencyChange></FrequencyChanges></Clock>\n	Hungry_Donkey_bar_English_2-157-1	60.017	-150	1.0.0.18	1	-1605421812	Standard	2.0.10.353	2.0.10.353	06-13-2016	6/13/2016 4:26:53 PM	12:26:53	2.0.10.248	98	Bar50-50.bmp	46	2	?	0r_4g.bmp	0r_4g.bmp	0r_2g.bmp	0r_2g.bmp		0r_4g.bmp			TrialProc	TrialList	0	cvbn	-999999	17	296644	0	v	64	296708	308	-361	-53	-32	-58	5	32	10	10	98	0	0	0	0	4	4	2	2	0	4
Hungry_Donkey_bar_English_2	157	1	<?xml version="1.0"?>\n<Clock xmlns:dt="urn:schemas-microsoft-com:datatypes"><Description dt:dt="string">E-Prime Primary Realtime Clock</Description><StartTime><Timestamp dt:dt="int">0</Timestamp><DateUtc dt:dt="string">2016-06-13T16:26:52Z</DateUtc></StartTime><FrequencyChanges><FrequencyChange><Frequency dt:dt="r8">3507675</Frequency><Timestamp dt:dt="r8">1123675299830</Timestamp><Current dt:dt="r8">0</Current><DateUtc dt:dt="string">2016-06-13T16:26:52Z</DateUtc></FrequencyChange></FrequencyChanges></Clock>\n	Hungry_Donkey_bar_English_2-157-1	60.017	-150	1.0.0.18	1	-1605421812	Standard	2.0.10.353	2.0.10.353	06-13-2016	6/13/2016 4:26:53 PM	12:26:53	2.0.10.248	99	Bar50-50.bmp	46	2	?	0r_4g.bmp	0r_4g.bmp	0r_2g.bmp	0r_2g.bmp		0r_4g.bmp			TrialProc	TrialList	0	cvbn	-999999	16	298743	0	v	445	299188	312	-361	-49	-32	-54	5	32	7	10	99	0	0	0	0	4	4	2	2	0	4
Hungry_Donkey_bar_English_2	157	1	<?xml version="1.0"?>\n<Clock xmlns:dt="urn:schemas-microsoft-com:datatypes"><Description dt:dt="string">E-Prime Primary Realtime Clock</Description><StartTime><Timestamp dt:dt="int">0</Timestamp><DateUtc dt:dt="string">2016-06-13T16:26:52Z</DateUtc></StartTime><FrequencyChanges><FrequencyChange><Frequency dt:dt="r8">3507675</Frequency><Timestamp dt:dt="r8">1123675299830</Timestamp><Current dt:dt="r8">0</Current><DateUtc dt:dt="string">2016-06-13T16:26:52Z</DateUtc></FrequencyChange></FrequencyChanges></Clock>\n	Hungry_Donkey_bar_English_2-157-1	60.017	-150	1.0.0.18	1	-1605421812	Standard	2.0.10.353	2.0.10.353	06-13-2016	6/13/2016 4:26:53 PM	12:26:53	2.0.10.248	100	Bar50-50.bmp	47	2	?	0r_4g.bmp	0r_4g.bmp	0r_2g.bmp	0r_2g.bmp		0r_4g.bmp			TrialProc	TrialList	0	cvbn	-999999	16	301226	0	v	378	301604	316	-361	-45	-32	-50	5	32	8	10	100	0	0	0	0	4	4	2	2	0	4
Hungry_Donkey_bar_English_2	157	1	<?xml version="1.0"?>\n<Clock xmlns:dt="urn:schemas-microsoft-com:datatypes"><Description dt:dt="string">E-Prime Primary Realtime Clock</Description><StartTime><Timestamp dt:dt="int">0</Timestamp><DateUtc dt:dt="string">2016-06-13T16:26:52Z</DateUtc></StartTime><FrequencyChanges><FrequencyChange><Frequency dt:dt="r8">3507675</Frequency><Timestamp dt:dt="r8">1123675299830</Timestamp><Current dt:dt="r8">0</Current><DateUtc dt:dt="string">2016-06-13T16:26:52Z</DateUtc></FrequencyChange></FrequencyChanges></Clock>\n	Hungry_Donkey_bar_English_2-157-1	60.017	-150	1.0.0.18	1	-1605421812	Standard	2.0.10.353	2.0.10.353	06-13-2016	6/13/2016 4:26:53 PM	12:26:53	2.0.10.248	101	Bar50-50.bmp	47	2	?	0r_4g.bmp	0r_4g.bmp	0r_2g.bmp	0r_2g.bmp		0r_4g.bmp			TrialProc	TrialList	0	cvbn	-999999	17	303642	0	v	394	304036	320	-361	-41	-32	-46	5	32	10	11	101	0	0	0	0	4	4	2	2	0	4
Hungry_Donkey_bar_English_2	157	1	<?xml version="1.0"?>\n<Clock xmlns:dt="urn:schemas-microsoft-com:datatypes"><Description dt:dt="string">E-Prime Primary Realtime Clock</Description><StartTime><Timestamp dt:dt="int">0</Timestamp><DateUtc dt:dt="string">2016-06-13T16:26:52Z</DateUtc></StartTime><FrequencyChanges><FrequencyChange><Frequency dt:dt="r8">3507675</Frequency><Timestamp dt:dt="r8">1123675299830</Timestamp><Current dt:dt="r8">0</Current><DateUtc dt:dt="string">2016-06-13T16:26:52Z</DateUtc></FrequencyChange></FrequencyChanges></Clock>\n	Hungry_Donkey_bar_English_2-157-1	60.017	-150	1.0.0.18	1	-1605421812	Standard	2.0.10.353	2.0.10.353	06-13-2016	6/13/2016 4:26:53 PM	12:26:53	2.0.10.248	102	Bar50-50.bmp	44	2	?	8r_4g.bmp	50r_4g.bmp	1r_2g.bmp	10r_2g.bmp		50r_4g.bmp			TrialProc	TrialList	0	cvbn	-999999	16	306074	0	v	410	306484	324	-411	-87	-32	-92	5	32	1	11	102	-8	-50	-1	-10	4	4	2	2	-50	4
Hungry_Donkey_bar_English_2	157	1	<?xml version="1.0"?>\n<Clock xmlns:dt="urn:schemas-microsoft-com:datatypes"><Description dt:dt="string">E-Prime Primary Realtime Clock</Description><StartTime><Timestamp dt:dt="int">0</Timestamp><DateUtc dt:dt="string">2016-06-13T16:26:52Z</DateUtc></StartTime><FrequencyChanges><FrequencyChange><Frequency dt:dt="r8">3507675</Frequency><Timestamp dt:dt="r8">1123675299830</Timestamp><Current dt:dt="r8">0</Current><DateUtc dt:dt="string">2016-06-13T16:26:52Z</DateUtc></FrequencyChange></FrequencyChanges></Clock>\n	Hungry_Donkey_bar_English_2-157-1	60.017	-150	1.0.0.18	1	-1605421812	Standard	2.0.10.353	2.0.10.353	06-13-2016	6/13/2016 4:26:53 PM	12:26:53	2.0.10.248	103	Bar50-50.bmp	44	4	?	12r_4g.bmp	0r_4g.bmp	3r_2g.bmp	0r_2g.bmp				0r_2g.bmp	TrialProc	TrialList	0	cvbn	-999999	17	308524	0	n	440	308964	326	-411	-85	-32	-92	5	34	5	11	103	-12	0	-3	0	4	4	2	2	0	2
Hungry_Donkey_bar_English_2	157	1	<?xml version="1.0"?>\n<Clock xmlns:dt="urn:schemas-microsoft-com:datatypes"><Description dt:dt="string">E-Prime Primary Realtime Clock</Description><StartTime><Timestamp dt:dt="int">0</Timestamp><DateUtc dt:dt="string">2016-06-13T16:26:52Z</DateUtc></StartTime><FrequencyChanges><FrequencyChange><Frequency dt:dt="r8">3507675</Frequency><Timestamp dt:dt="r8">1123675299830</Timestamp><Current dt:dt="r8">0</Current><DateUtc dt:dt="string">2016-06-13T16:26:52Z</DateUtc></FrequencyChange></FrequencyChanges></Clock>\n	Hungry_Donkey_bar_English_2-157-1	60.017	-150	1.0.0.18	1	-1605421812	Standard	2.0.10.353	2.0.10.353	06-13-2016	6/13/2016 4:26:53 PM	12:26:53	2.0.10.248	104	Bar50-50.bmp	45	1	?	0r_4g.bmp	0r_4g.bmp	0r_2g.bmp	0r_2g.bmp	0r_4g.bmp				TrialProc	TrialList	0	cvbn	-999999	16	310989	0	c	471	311460	330	-411	-81	-28	-92	5	34	6	11	104	0	0	0	0	4	4	2	2	0	4
Hungry_Donkey_bar_English_2	157	1	<?xml version="1.0"?>\n<Clock xmlns:dt="urn:schemas-microsoft-com:datatypes"><Description dt:dt="string">E-Prime Primary Realtime Clock</Description><StartTime><Timestamp dt:dt="int">0</Timestamp><DateUtc dt:dt="string">2016-06-13T16:26:52Z</DateUtc></StartTime><FrequencyChanges><FrequencyChange><Frequency dt:dt="r8">3507675</Frequency><Timestamp dt:dt="r8">1123675299830</Timestamp><Current dt:dt="r8">0</Current><DateUtc dt:dt="string">2016-06-13T16:26:52Z</DateUtc></FrequencyChange></FrequencyChanges></Clock>\n	Hungry_Donkey_bar_English_2-157-1	60.017	-150	1.0.0.18	1	-1605421812	Standard	2.0.10.353	2.0.10.353	06-13-2016	6/13/2016 4:26:53 PM	12:26:53	2.0.10.248	105	Bar50-50.bmp	45	4	?	0r_4g.bmp	0r_4g.bmp	0r_2g.bmp	0r_2g.bmp				0r_2g.bmp	TrialProc	TrialList	0	cvbn	-999999	16	313489	0	n	322	313811	332	-411	-79	-28	-92	5	36	7	11	105	0	0	0	0	4	4	2	2	0	2
Hungry_Donkey_bar_English_2	157	1	<?xml version="1.0"?>\n<Clock xmlns:dt="urn:schemas-microsoft-com:datatypes"><Description dt:dt="string">E-Prime Primary Realtime Clock</Description><StartTime><Timestamp dt:dt="int">0</Timestamp><DateUtc dt:dt="string">2016-06-13T16:26:52Z</DateUtc></StartTime><FrequencyChanges><FrequencyChange><Frequency dt:dt="r8">3507675</Frequency><Timestamp dt:dt="r8">1123675299830</Timestamp><Current dt:dt="r8">0</Current><DateUtc dt:dt="string">2016-06-13T16:26:52Z</DateUtc></FrequencyChange></FrequencyChanges></Clock>\n	Hungry_Donkey_bar_English_2-157-1	60.017	-150	1.0.0.18	1	-1605421812	Standard	2.0.10.353	2.0.10.353	06-13-2016	6/13/2016 4:26:53 PM	12:26:53	2.0.10.248	106	Bar50-50.bmp	45	1	?	0r_4g.bmp	0r_4g.bmp	0r_2g.bmp	0r_2g.bmp	0r_4g.bmp				TrialProc	TrialList	0	cvbn	-999999	16	315838	0	c	277	316115	336	-411	-75	-24	-92	5	36	8	11	106	0	0	0	0	4	4	2	2	0	4
Hungry_Donkey_bar_English_2	157	1	<?xml version="1.0"?>\n<Clock xmlns:dt="urn:schemas-microsoft-com:datatypes"><Description dt:dt="string">E-Prime Primary Realtime Clock</Description><StartTime><Timestamp dt:dt="int">0</Timestamp><DateUtc dt:dt="string">2016-06-13T16:26:52Z</DateUtc></StartTime><FrequencyChanges><FrequencyChange><Frequency dt:dt="r8">3507675</Frequency><Timestamp dt:dt="r8">1123675299830</Timestamp><Current dt:dt="r8">0</Current><DateUtc dt:dt="string">2016-06-13T16:26:52Z</DateUtc></FrequencyChange></FrequencyChanges></Clock>\n	Hungry_Donkey_bar_English_2-157-1	60.017	-150	1.0.0.18	1	-1605421812	Standard	2.0.10.353	2.0.10.353	06-13-2016	6/13/2016 4:26:53 PM	12:26:53	2.0.10.248	107	Bar50-50.bmp	45	4	?	10r_4g.bmp	0r_4g.bmp	2r_2g.bmp	0r_2g.bmp				0r_2g.bmp	TrialProc	TrialList	0	cvbn	-999999	16	318154	0	n	345	318499	338	-411	-73	-24	-92	5	38	3	11	107	-10	0	-2	0	4	4	2	2	0	2
Hungry_Donkey_bar_English_2	157	1	<?xml version="1.0"?>\n<Clock xmlns:dt="urn:schemas-microsoft-com:datatypes"><Description dt:dt="string">E-Prime Primary Realtime Clock</Description><StartTime><Timestamp dt:dt="int">0</Timestamp><DateUtc dt:dt="string">2016-06-13T16:26:52Z</DateUtc></StartTime><FrequencyChanges><FrequencyChange><Frequency dt:dt="r8">3507675</Frequency><Timestamp dt:dt="r8">1123675299830</Timestamp><Current dt:dt="r8">0</Current><DateUtc dt:dt="string">2016-06-13T16:26:52Z</DateUtc></FrequencyChange></FrequencyChanges></Clock>\n	Hungry_Donkey_bar_English_2-157-1	60.017	-150	1.0.0.18	1	-1605421812	Standard	2.0.10.353	2.0.10.353	06-13-2016	6/13/2016 4:26:53 PM	12:26:53	2.0.10.248	108	Bar50-50.bmp	45	1	?	10r_4g.bmp	0r_4g.bmp	2r_2g.bmp	0r_2g.bmp	10r_4g.bmp				TrialProc	TrialList	0	cvbn	-999999	16	320537	0	c	330	320867	342	-421	-79	-30	-92	5	38	4	11	108	-10	0	-2	0	4	4	2	2	-10	4
Hungry_Donkey_bar_English_2	157	1	<?xml version="1.0"?>\n<Clock xmlns:dt="urn:schemas-microsoft-com:datatypes"><Description dt:dt="string">E-Prime Primary Realtime Clock</Description><StartTime><Timestamp dt:dt="int">0</Timestamp><DateUtc dt:dt="string">2016-06-13T16:26:52Z</DateUtc></StartTime><FrequencyChanges><FrequencyChange><Frequency dt:dt="r8">3507675</Frequency><Timestamp dt:dt="r8">1123675299830</Timestamp><Current dt:dt="r8">0</Current><DateUtc dt:dt="string">2016-06-13T16:26:52Z</DateUtc></FrequencyChange></FrequencyChanges></Clock>\n	Hungry_Donkey_bar_English_2-157-1	60.017	-150	1.0.0.18	1	-1605421812	Standard	2.0.10.353	2.0.10.353	06-13-2016	6/13/2016 4:26:53 PM	12:26:53	2.0.10.248	109	Bar50-50.bmp	45	3	?	0r_4g.bmp	0r_4g.bmp	0r_2g.bmp	0r_2g.bmp			0r_2g.bmp		TrialProc	TrialList	0	cvbn	-999999	16	322903	0	b	380	323283	344	-421	-77	-30	-92	7	38	9	11	109	0	0	0	0	4	4	2	2	0	2
Hungry_Donkey_bar_English_2	157	1	<?xml version="1.0"?>\n<Clock xmlns:dt="urn:schemas-microsoft-com:datatypes"><Description dt:dt="string">E-Prime Primary Realtime Clock</Description><StartTime><Timestamp dt:dt="int">0</Timestamp><DateUtc dt:dt="string">2016-06-13T16:26:52Z</DateUtc></StartTime><FrequencyChanges><FrequencyChange><Frequency dt:dt="r8">3507675</Frequency><Timestamp dt:dt="r8">1123675299830</Timestamp><Current dt:dt="r8">0</Current><DateUtc dt:dt="string">2016-06-13T16:26:52Z</DateUtc></FrequencyChange></FrequencyChanges></Clock>\n	Hungry_Donkey_bar_English_2-157-1	60.017	-150	1.0.0.18	1	-1605421812	Standard	2.0.10.353	2.0.10.353	06-13-2016	6/13/2016 4:26:53 PM	12:26:53	2.0.10.248	110	Bar50-50.bmp	45	4	?	10r_4g.bmp	0r_4g.bmp	2r_2g.bmp	0r_2g.bmp				0r_2g.bmp	TrialProc	TrialList	0	cvbn	-999999	16	325319	0	n	348	325667	346	-421	-75	-30	-92	7	40	2	11	110	-10	0	-2	0	4	4	2	2	0	2
