ExperimentName	Subject	Session	Clock.Information	DataFile.Basename	Display.RefreshRate	Eindtotaal[Session]	ExperimentVersion	Group	RandomSeed	RuntimeCapabilities	RuntimeVersion	RuntimeVersionExpected	SessionDate	SessionStartDateTimeUtc	SessionTime	StudioVersion	Block	BarImage	BarTotalWinst	DoorChoice	Eindtotaal[Block]	FBDoor1	FBDoor2	FBDoor3	FBDoor4	Image1	Image2	Image3	Image4	Procedure	Running	spel.ACC	spel.CRESP	spel.DurationError	spel.OnsetDelay	spel.OnsetTime	spel.OnsetToOnsetTime	spel.RESP	spel.RT	spel.RTTime	TotalGain	TotalLose	Totalsum	TotalsumD1	TotalsumD2	TotalsumD3	TotalsumD4	TrialList	TrialList.Cycle	TrialList.Sample	varV1	varV2	varV3	varV4	varW1	varW2	varW3	varW4	Verliesbedrag	Winstbedrag
Hungry_Donkey_bar_English_2	168	1	<?xml version="1.0"?>\n<Clock xmlns:dt="urn:schemas-microsoft-com:datatypes"><Description dt:dt="string">E-Prime Primary Realtime Clock</Description><StartTime><Timestamp dt:dt="int">0</Timestamp><DateUtc dt:dt="string">2016-09-07T21:05:03Z</DateUtc></StartTime><FrequencyChanges><FrequencyChange><Frequency dt:dt="r8">3507675</Frequency><Timestamp dt:dt="r8">286892193994</Timestamp><Current dt:dt="r8">0</Current><DateUtc dt:dt="string">2016-09-07T21:05:03Z</DateUtc></FrequencyChange></FrequencyChanges></Clock>\n	Hungry_Donkey_bar_English_2-168-1	60.017	-25	1.0.0.18	1	-869949896	Standard	2.0.10.353	2.0.10.353	09-07-2016	9/7/2016 9:05:04 PM	17:05:04	2.0.10.248	1	Bar100-0.bmp	100	1	?	0r_4g.bmp	0r_4g.bmp	0r_2g.bmp	0r_2g.bmp	0r_4g.bmp				TrialProc	TrialList	0	cvbn	-999999	23	44634	0	c	3001	47635	4	0	4	4	0	0	0	7	1	1	0	0	0	0	4	4	2	2	0	4
Hungry_Donkey_bar_English_2	168	1	<?xml version="1.0"?>\n<Clock xmlns:dt="urn:schemas-microsoft-com:datatypes"><Description dt:dt="string">E-Prime Primary Realtime Clock</Description><StartTime><Timestamp dt:dt="int">0</Timestamp><DateUtc dt:dt="string">2016-09-07T21:05:03Z</DateUtc></StartTime><FrequencyChanges><FrequencyChange><Frequency dt:dt="r8">3507675</Frequency><Timestamp dt:dt="r8">286892193994</Timestamp><Current dt:dt="r8">0</Current><DateUtc dt:dt="string">2016-09-07T21:05:03Z</DateUtc></FrequencyChange></FrequencyChanges></Clock>\n	Hungry_Donkey_bar_English_2-168-1	60.017	-25	1.0.0.18	1	-869949896	Standard	2.0.10.353	2.0.10.353	09-07-2016	9/7/2016 9:05:04 PM	17:05:04	2.0.10.248	2	Bar100-0.bmp	100	2	?	0r_4g.bmp	0r_4g.bmp	0r_2g.bmp	0r_2g.bmp		0r_4g.bmp			TrialProc	TrialList	0	cvbn	-999999	16	49682	0	v	2497	52179	8	0	8	4	4	0	0	6	1	2	0	0	0	0	4	4	2	2	0	4
Hungry_Donkey_bar_English_2	168	1	<?xml version="1.0"?>\n<Clock xmlns:dt="urn:schemas-microsoft-com:datatypes"><Description dt:dt="string">E-Prime Primary Realtime Clock</Description><StartTime><Timestamp dt:dt="int">0</Timestamp><DateUtc dt:dt="string">2016-09-07T21:05:03Z</DateUtc></StartTime><FrequencyChanges><FrequencyChange><Frequency dt:dt="r8">3507675</Frequency><Timestamp dt:dt="r8">286892193994</Timestamp><Current dt:dt="r8">0</Current><DateUtc dt:dt="string">2016-09-07T21:05:03Z</DateUtc></FrequencyChange></FrequencyChanges></Clock>\n	Hungry_Donkey_bar_English_2-168-1	60.017	-25	1.0.0.18	1	-869949896	Standard	2.0.10.353	2.0.10.353	09-07-2016	9/7/2016 9:05:04 PM	17:05:04	2.0.10.248	3	Bar50-50.bmp	55	1	?	10r_4g.bmp	0r_4g.bmp	2r_2g.bmp	0r_2g.bmp	10r_4g.bmp				TrialProc	TrialList	0	cvbn	-999999	16	54214	0	c	1197	55411	12	-10	2	-2	4	0	0	3	1	3	-10	0	-2	0	4	4	2	2	-10	4
Hungry_Donkey_bar_English_2	168	1	<?xml version="1.0"?>\n<Clock xmlns:dt="urn:schemas-microsoft-com:datatypes"><Description dt:dt="string">E-Prime Primary Realtime Clock</Description><StartTime><Timestamp dt:dt="int">0</Timestamp><DateUtc dt:dt="string">2016-09-07T21:05:03Z</DateUtc></StartTime><FrequencyChanges><FrequencyChange><Frequency dt:dt="r8">3507675</Frequency><Timestamp dt:dt="r8">286892193994</Timestamp><Current dt:dt="r8">0</Current><DateUtc dt:dt="string">2016-09-07T21:05:03Z</DateUtc></FrequencyChange></FrequencyChanges></Clock>\n	Hungry_Donkey_bar_English_2-168-1	60.017	-25	1.0.0.18	1	-869949896	Standard	2.0.10.353	2.0.10.353	09-07-2016	9/7/2016 9:05:04 PM	17:05:04	2.0.10.248	4	Bar63-37.bmp	62	2	?	0r_4g.bmp	0r_4g.bmp	0r_2g.bmp	0r_2g.bmp		0r_4g.bmp			TrialProc	TrialList	0	cvbn	-999999	17	57447	0	v	812	58259	16	-10	6	-2	8	0	0	9	1	4	0	0	0	0	4	4	2	2	0	4
Hungry_Donkey_bar_English_2	168	1	<?xml version="1.0"?>\n<Clock xmlns:dt="urn:schemas-microsoft-com:datatypes"><Description dt:dt="string">E-Prime Primary Realtime Clock</Description><StartTime><Timestamp dt:dt="int">0</Timestamp><DateUtc dt:dt="string">2016-09-07T21:05:03Z</DateUtc></StartTime><FrequencyChanges><FrequencyChange><Frequency dt:dt="r8">3507675</Frequency><Timestamp dt:dt="r8">286892193994</Timestamp><Current dt:dt="r8">0</Current><DateUtc dt:dt="string">2016-09-07T21:05:03Z</DateUtc></FrequencyChange></FrequencyChanges></Clock>\n	Hungry_Donkey_bar_English_2-168-1	60.017	-25	1.0.0.18	1	-869949896	Standard	2.0.10.353	2.0.10.353	09-07-2016	9/7/2016 9:05:04 PM	17:05:04	2.0.10.248	5	Bar63-37.bmp	62	3	?	8r_4g.bmp	50r_4g.bmp	1r_2g.bmp	10r_2g.bmp			1r_2g.bmp		TrialProc	TrialList	0	cvbn	-999999	16	60296	0	b	971	61267	18	-11	7	-2	8	1	0	1	1	5	-8	-50	-1	-10	4	4	2	2	-1	2
Hungry_Donkey_bar_English_2	168	1	<?xml version="1.0"?>\n<Clock xmlns:dt="urn:schemas-microsoft-com:datatypes"><Description dt:dt="string">E-Prime Primary Realtime Clock</Description><StartTime><Timestamp dt:dt="int">0</Timestamp><DateUtc dt:dt="string">2016-09-07T21:05:03Z</DateUtc></StartTime><FrequencyChanges><FrequencyChange><Frequency dt:dt="r8">3507675</Frequency><Timestamp dt:dt="r8">286892193994</Timestamp><Current dt:dt="r8">0</Current><DateUtc dt:dt="string">2016-09-07T21:05:03Z</DateUtc></FrequencyChange></FrequencyChanges></Clock>\n	Hungry_Donkey_bar_English_2-168-1	60.017	-25	1.0.0.18	1	-869949896	Standard	2.0.10.353	2.0.10.353	09-07-2016	9/7/2016 9:05:04 PM	17:05:04	2.0.10.248	6	Bar50-50.bmp	49	1	?	12r_4g.bmp	0r_4g.bmp	3r_2g.bmp	0r_2g.bmp	12r_4g.bmp				TrialProc	TrialList	0	cvbn	-999999	17	63312	0	c	754	64066	22	-23	-1	-10	8	1	0	5	1	6	-12	0	-3	0	4	4	2	2	-12	4
Hungry_Donkey_bar_English_2	168	1	<?xml version="1.0"?>\n<Clock xmlns:dt="urn:schemas-microsoft-com:datatypes"><Description dt:dt="string">E-Prime Primary Realtime Clock</Description><StartTime><Timestamp dt:dt="int">0</Timestamp><DateUtc dt:dt="string">2016-09-07T21:05:03Z</DateUtc></StartTime><FrequencyChanges><FrequencyChange><Frequency dt:dt="r8">3507675</Frequency><Timestamp dt:dt="r8">286892193994</Timestamp><Current dt:dt="r8">0</Current><DateUtc dt:dt="string">2016-09-07T21:05:03Z</DateUtc></FrequencyChange></FrequencyChanges></Clock>\n	Hungry_Donkey_bar_English_2-168-1	60.017	-25	1.0.0.18	1	-869949896	Standard	2.0.10.353	2.0.10.353	09-07-2016	9/7/2016 9:05:04 PM	17:05:04	2.0.10.248	7	Bar50-50.bmp	53	2	?	10r_4g.bmp	0r_4g.bmp	2r_2g.bmp	0r_2g.bmp		0r_4g.bmp			TrialProc	TrialList	0	cvbn	-999999	16	66111	0	v	387	66498	26	-23	3	-10	12	1	0	2	1	7	-10	0	-2	0	4	4	2	2	0	4
Hungry_Donkey_bar_English_2	168	1	<?xml version="1.0"?>\n<Clock xmlns:dt="urn:schemas-microsoft-com:datatypes"><Description dt:dt="string">E-Prime Primary Realtime Clock</Description><StartTime><Timestamp dt:dt="int">0</Timestamp><DateUtc dt:dt="string">2016-09-07T21:05:03Z</DateUtc></StartTime><FrequencyChanges><FrequencyChange><Frequency dt:dt="r8">3507675</Frequency><Timestamp dt:dt="r8">286892193994</Timestamp><Current dt:dt="r8">0</Current><DateUtc dt:dt="string">2016-09-07T21:05:03Z</DateUtc></FrequencyChange></FrequencyChanges></Clock>\n	Hungry_Donkey_bar_English_2-168-1	60.017	-25	1.0.0.18	1	-869949896	Standard	2.0.10.353	2.0.10.353	09-07-2016	9/7/2016 9:05:04 PM	17:05:04	2.0.10.248	8	Bar63-37.bmp	57	2	?	0r_4g.bmp	0r_4g.bmp	0r_2g.bmp	0r_2g.bmp		0r_4g.bmp			TrialProc	TrialList	0	cvbn	-999999	16	68527	0	v	1347	69874	30	-23	7	-10	16	1	0	10	1	8	0	0	0	0	4	4	2	2	0	4
Hungry_Donkey_bar_English_2	168	1	<?xml version="1.0"?>\n<Clock xmlns:dt="urn:schemas-microsoft-com:datatypes"><Description dt:dt="string">E-Prime Primary Realtime Clock</Description><StartTime><Timestamp dt:dt="int">0</Timestamp><DateUtc dt:dt="string">2016-09-07T21:05:03Z</DateUtc></StartTime><FrequencyChanges><FrequencyChange><Frequency dt:dt="r8">3507675</Frequency><Timestamp dt:dt="r8">286892193994</Timestamp><Current dt:dt="r8">0</Current><DateUtc dt:dt="string">2016-09-07T21:05:03Z</DateUtc></FrequencyChange></FrequencyChanges></Clock>\n	Hungry_Donkey_bar_English_2-168-1	60.017	-25	1.0.0.18	1	-869949896	Standard	2.0.10.353	2.0.10.353	09-07-2016	9/7/2016 9:05:04 PM	17:05:04	2.0.10.248	9	Bar63-37.bmp	60	2	?	0r_4g.bmp	0r_4g.bmp	0r_2g.bmp	0r_2g.bmp		0r_4g.bmp			TrialProc	TrialList	0	cvbn	-999999	16	71909	0	v	1133	73042	34	-23	11	-10	20	1	0	8	1	9	0	0	0	0	4	4	2	2	0	4
Hungry_Donkey_bar_English_2	168	1	<?xml version="1.0"?>\n<Clock xmlns:dt="urn:schemas-microsoft-com:datatypes"><Description dt:dt="string">E-Prime Primary Realtime Clock</Description><StartTime><Timestamp dt:dt="int">0</Timestamp><DateUtc dt:dt="string">2016-09-07T21:05:03Z</DateUtc></StartTime><FrequencyChanges><FrequencyChange><Frequency dt:dt="r8">3507675</Frequency><Timestamp dt:dt="r8">286892193994</Timestamp><Current dt:dt="r8">0</Current><DateUtc dt:dt="string">2016-09-07T21:05:03Z</DateUtc></FrequencyChange></FrequencyChanges></Clock>\n	Hungry_Donkey_bar_English_2-168-1	60.017	-25	1.0.0.18	1	-869949896	Standard	2.0.10.353	2.0.10.353	09-07-2016	9/7/2016 9:05:04 PM	17:05:04	2.0.10.248	10	Bar63-37.bmp	62	2	?	10r_4g.bmp	0r_4g.bmp	2r_2g.bmp	0r_2g.bmp		0r_4g.bmp			TrialProc	TrialList	0	cvbn	-999999	16	75075	0	v	335	75410	38	-23	15	-10	24	1	0	4	1	10	-10	0	-2	0	4	4	2	2	0	4
Hungry_Donkey_bar_English_2	168	1	<?xml version="1.0"?>\n<Clock xmlns:dt="urn:schemas-microsoft-com:datatypes"><Description dt:dt="string">E-Prime Primary Realtime Clock</Description><StartTime><Timestamp dt:dt="int">0</Timestamp><DateUtc dt:dt="string">2016-09-07T21:05:03Z</DateUtc></StartTime><FrequencyChanges><FrequencyChange><Frequency dt:dt="r8">3507675</Frequency><Timestamp dt:dt="r8">286892193994</Timestamp><Current dt:dt="r8">0</Current><DateUtc dt:dt="string">2016-09-07T21:05:03Z</DateUtc></FrequencyChange></FrequencyChanges></Clock>\n	Hungry_Donkey_bar_English_2-168-1	60.017	-25	1.0.0.18	1	-869949896	Standard	2.0.10.353	2.0.10.353	09-07-2016	9/7/2016 9:05:04 PM	17:05:04	2.0.10.248	11	Bar63-37.bmp	65	2	?	0r_4g.bmp	0r_4g.bmp	0r_2g.bmp	0r_2g.bmp		0r_4g.bmp			TrialProc	TrialList	0	cvbn	-999999	16	77441	0	v	97	77538	42	-23	19	-10	28	1	0	6	2	11	0	0	0	0	4	4	2	2	0	4
Hungry_Donkey_bar_English_2	168	1	<?xml version="1.0"?>\n<Clock xmlns:dt="urn:schemas-microsoft-com:datatypes"><Description dt:dt="string">E-Prime Primary Realtime Clock</Description><StartTime><Timestamp dt:dt="int">0</Timestamp><DateUtc dt:dt="string">2016-09-07T21:05:03Z</DateUtc></StartTime><FrequencyChanges><FrequencyChange><Frequency dt:dt="r8">3507675</Frequency><Timestamp dt:dt="r8">286892193994</Timestamp><Current dt:dt="r8">0</Current><DateUtc dt:dt="string">2016-09-07T21:05:03Z</DateUtc></FrequencyChange></FrequencyChanges></Clock>\n	Hungry_Donkey_bar_English_2-168-1	60.017	-25	1.0.0.18	1	-869949896	Standard	2.0.10.353	2.0.10.353	09-07-2016	9/7/2016 9:05:04 PM	17:05:04	2.0.10.248	12	Bar63-37.bmp	67	2	?	0r_4g.bmp	0r_4g.bmp	0r_2g.bmp	0r_2g.bmp		0r_4g.bmp			TrialProc	TrialList	0	cvbn	-999999	16	79574	0	v	428	80002	46	-23	23	-10	32	1	0	9	2	12	0	0	0	0	4	4	2	2	0	4
Hungry_Donkey_bar_English_2	168	1	<?xml version="1.0"?>\n<Clock xmlns:dt="urn:schemas-microsoft-com:datatypes"><Description dt:dt="string">E-Prime Primary Realtime Clock</Description><StartTime><Timestamp dt:dt="int">0</Timestamp><DateUtc dt:dt="string">2016-09-07T21:05:03Z</DateUtc></StartTime><FrequencyChanges><FrequencyChange><Frequency dt:dt="r8">3507675</Frequency><Timestamp dt:dt="r8">286892193994</Timestamp><Current dt:dt="r8">0</Current><DateUtc dt:dt="string">2016-09-07T21:05:03Z</DateUtc></FrequencyChange></FrequencyChanges></Clock>\n	Hungry_Donkey_bar_English_2-168-1	60.017	-25	1.0.0.18	1	-869949896	Standard	2.0.10.353	2.0.10.353	09-07-2016	9/7/2016 9:05:04 PM	17:05:04	2.0.10.248	13	Bar63-37.bmp	68	2	?	10r_4g.bmp	0r_4g.bmp	2r_2g.bmp	0r_2g.bmp		0r_4g.bmp			TrialProc	TrialList	0	cvbn	-999999	17	82040	0	v	282	82322	50	-23	27	-10	36	1	0	4	2	13	-10	0	-2	0	4	4	2	2	0	4
Hungry_Donkey_bar_English_2	168	1	<?xml version="1.0"?>\n<Clock xmlns:dt="urn:schemas-microsoft-com:datatypes"><Description dt:dt="string">E-Prime Primary Realtime Clock</Description><StartTime><Timestamp dt:dt="int">0</Timestamp><DateUtc dt:dt="string">2016-09-07T21:05:03Z</DateUtc></StartTime><FrequencyChanges><FrequencyChange><Frequency dt:dt="r8">3507675</Frequency><Timestamp dt:dt="r8">286892193994</Timestamp><Current dt:dt="r8">0</Current><DateUtc dt:dt="string">2016-09-07T21:05:03Z</DateUtc></FrequencyChange></FrequencyChanges></Clock>\n	Hungry_Donkey_bar_English_2-168-1	60.017	-25	1.0.0.18	1	-869949896	Standard	2.0.10.353	2.0.10.353	09-07-2016	9/7/2016 9:05:04 PM	17:05:04	2.0.10.248	14	Bar75-25.bmp	70	2	?	0r_4g.bmp	0r_4g.bmp	0r_2g.bmp	0r_2g.bmp		0r_4g.bmp			TrialProc	TrialList	0	cvbn	-999999	17	84356	0	v	445	84801	54	-23	31	-10	40	1	0	10	2	14	0	0	0	0	4	4	2	2	0	4
Hungry_Donkey_bar_English_2	168	1	<?xml version="1.0"?>\n<Clock xmlns:dt="urn:schemas-microsoft-com:datatypes"><Description dt:dt="string">E-Prime Primary Realtime Clock</Description><StartTime><Timestamp dt:dt="int">0</Timestamp><DateUtc dt:dt="string">2016-09-07T21:05:03Z</DateUtc></StartTime><FrequencyChanges><FrequencyChange><Frequency dt:dt="r8">3507675</Frequency><Timestamp dt:dt="r8">286892193994</Timestamp><Current dt:dt="r8">0</Current><DateUtc dt:dt="string">2016-09-07T21:05:03Z</DateUtc></FrequencyChange></FrequencyChanges></Clock>\n	Hungry_Donkey_bar_English_2-168-1	60.017	-25	1.0.0.18	1	-869949896	Standard	2.0.10.353	2.0.10.353	09-07-2016	9/7/2016 9:05:04 PM	17:05:04	2.0.10.248	15	Bar75-25.bmp	72	2	?	10r_4g.bmp	0r_4g.bmp	2r_2g.bmp	0r_2g.bmp		0r_4g.bmp			TrialProc	TrialList	0	cvbn	-999999	16	86838	0	v	267	87105	58	-23	35	-10	44	1	0	2	2	15	-10	0	-2	0	4	4	2	2	0	4
Hungry_Donkey_bar_English_2	168	1	<?xml version="1.0"?>\n<Clock xmlns:dt="urn:schemas-microsoft-com:datatypes"><Description dt:dt="string">E-Prime Primary Realtime Clock</Description><StartTime><Timestamp dt:dt="int">0</Timestamp><DateUtc dt:dt="string">2016-09-07T21:05:03Z</DateUtc></StartTime><FrequencyChanges><FrequencyChange><Frequency dt:dt="r8">3507675</Frequency><Timestamp dt:dt="r8">286892193994</Timestamp><Current dt:dt="r8">0</Current><DateUtc dt:dt="string">2016-09-07T21:05:03Z</DateUtc></FrequencyChange></FrequencyChanges></Clock>\n	Hungry_Donkey_bar_English_2-168-1	60.017	-25	1.0.0.18	1	-869949896	Standard	2.0.10.353	2.0.10.353	09-07-2016	9/7/2016 9:05:04 PM	17:05:04	2.0.10.248	16	Bar75-25.bmp	73	2	?	0r_4g.bmp	0r_4g.bmp	0r_2g.bmp	0r_2g.bmp		0r_4g.bmp			TrialProc	TrialList	0	cvbn	-999999	17	89138	0	v	463	89601	62	-23	39	-10	48	1	0	8	2	16	0	0	0	0	4	4	2	2	0	4
Hungry_Donkey_bar_English_2	168	1	<?xml version="1.0"?>\n<Clock xmlns:dt="urn:schemas-microsoft-com:datatypes"><Description dt:dt="string">E-Prime Primary Realtime Clock</Description><StartTime><Timestamp dt:dt="int">0</Timestamp><DateUtc dt:dt="string">2016-09-07T21:05:03Z</DateUtc></StartTime><FrequencyChanges><FrequencyChange><Frequency dt:dt="r8">3507675</Frequency><Timestamp dt:dt="r8">286892193994</Timestamp><Current dt:dt="r8">0</Current><DateUtc dt:dt="string">2016-09-07T21:05:03Z</DateUtc></FrequencyChange></FrequencyChanges></Clock>\n	Hungry_Donkey_bar_English_2-168-1	60.017	-25	1.0.0.18	1	-869949896	Standard	2.0.10.353	2.0.10.353	09-07-2016	9/7/2016 9:05:04 PM	17:05:04	2.0.10.248	17	Bar75-25.bmp	74	2	?	12r_4g.bmp	0r_4g.bmp	3r_2g.bmp	0r_2g.bmp		0r_4g.bmp			TrialProc	TrialList	0	cvbn	-999999	16	91637	0	v	220	91857	66	-23	43	-10	52	1	0	5	2	17	-12	0	-3	0	4	4	2	2	0	4
Hungry_Donkey_bar_English_2	168	1	<?xml version="1.0"?>\n<Clock xmlns:dt="urn:schemas-microsoft-com:datatypes"><Description dt:dt="string">E-Prime Primary Realtime Clock</Description><StartTime><Timestamp dt:dt="int">0</Timestamp><DateUtc dt:dt="string">2016-09-07T21:05:03Z</DateUtc></StartTime><FrequencyChanges><FrequencyChange><Frequency dt:dt="r8">3507675</Frequency><Timestamp dt:dt="r8">286892193994</Timestamp><Current dt:dt="r8">0</Current><DateUtc dt:dt="string">2016-09-07T21:05:03Z</DateUtc></FrequencyChange></FrequencyChanges></Clock>\n	Hungry_Donkey_bar_English_2-168-1	60.017	-25	1.0.0.18	1	-869949896	Standard	2.0.10.353	2.0.10.353	09-07-2016	9/7/2016 9:05:04 PM	17:05:04	2.0.10.248	18	Bar50-50.bmp	49	2	?	8r_4g.bmp	50r_4g.bmp	1r_2g.bmp	10r_2g.bmp		50r_4g.bmp			TrialProc	TrialList	0	cvbn	-999999	16	93886	0	v	115	94001	70	-73	-3	-10	6	1	0	1	2	18	-8	-50	-1	-10	4	4	2	2	-50	4
Hungry_Donkey_bar_English_2	168	1	<?xml version="1.0"?>\n<Clock xmlns:dt="urn:schemas-microsoft-com:datatypes"><Description dt:dt="string">E-Prime Primary Realtime Clock</Description><StartTime><Timestamp dt:dt="int">0</Timestamp><DateUtc dt:dt="string">2016-09-07T21:05:03Z</DateUtc></StartTime><FrequencyChanges><FrequencyChange><Frequency dt:dt="r8">3507675</Frequency><Timestamp dt:dt="r8">286892193994</Timestamp><Current dt:dt="r8">0</Current><DateUtc dt:dt="string">2016-09-07T21:05:03Z</DateUtc></FrequencyChange></FrequencyChanges></Clock>\n	Hungry_Donkey_bar_English_2-168-1	60.017	-25	1.0.0.18	1	-869949896	Standard	2.0.10.353	2.0.10.353	09-07-2016	9/7/2016 9:05:04 PM	17:05:04	2.0.10.248	19	Bar50-50.bmp	50	2	?	10r_4g.bmp	0r_4g.bmp	2r_2g.bmp	0r_2g.bmp		0r_4g.bmp			TrialProc	TrialList	0	cvbn	-999999	17	96036	0	v	941	96977	74	-73	1	-10	10	1	0	3	2	19	-10	0	-2	0	4	4	2	2	0	4
Hungry_Donkey_bar_English_2	168	1	<?xml version="1.0"?>\n<Clock xmlns:dt="urn:schemas-microsoft-com:datatypes"><Description dt:dt="string">E-Prime Primary Realtime Clock</Description><StartTime><Timestamp dt:dt="int">0</Timestamp><DateUtc dt:dt="string">2016-09-07T21:05:03Z</DateUtc></StartTime><FrequencyChanges><FrequencyChange><Frequency dt:dt="r8">3507675</Frequency><Timestamp dt:dt="r8">286892193994</Timestamp><Current dt:dt="r8">0</Current><DateUtc dt:dt="string">2016-09-07T21:05:03Z</DateUtc></FrequencyChange></FrequencyChanges></Clock>\n	Hungry_Donkey_bar_English_2-168-1	60.017	-25	1.0.0.18	1	-869949896	Standard	2.0.10.353	2.0.10.353	09-07-2016	9/7/2016 9:05:04 PM	17:05:04	2.0.10.248	20	Bar50-50.bmp	52	2	?	0r_4g.bmp	0r_4g.bmp	0r_2g.bmp	0r_2g.bmp		0r_4g.bmp			TrialProc	TrialList	0	cvbn	-999999	16	99001	0	v	40	99041	78	-73	5	-10	14	1	0	7	2	20	0	0	0	0	4	4	2	2	0	4
Hungry_Donkey_bar_English_2	168	1	<?xml version="1.0"?>\n<Clock xmlns:dt="urn:schemas-microsoft-com:datatypes"><Description dt:dt="string">E-Prime Primary Realtime Clock</Description><StartTime><Timestamp dt:dt="int">0</Timestamp><DateUtc dt:dt="string">2016-09-07T21:05:03Z</DateUtc></StartTime><FrequencyChanges><FrequencyChange><Frequency dt:dt="r8">3507675</Frequency><Timestamp dt:dt="r8">286892193994</Timestamp><Current dt:dt="r8">0</Current><DateUtc dt:dt="string">2016-09-07T21:05:03Z</DateUtc></FrequencyChange></FrequencyChanges></Clock>\n	Hungry_Donkey_bar_English_2-168-1	60.017	-25	1.0.0.18	1	-869949896	Standard	2.0.10.353	2.0.10.353	09-07-2016	9/7/2016 9:05:04 PM	17:05:04	2.0.10.248	21	Bar50-50.bmp	53	2	?	0r_4g.bmp	0r_4g.bmp	0r_2g.bmp	0r_2g.bmp		0r_4g.bmp			TrialProc	TrialList	0	cvbn	-999999	16	101067	0	v	582	101649	82	-73	9	-10	18	1	0	10	3	21	0	0	0	0	4	4	2	2	0	4
Hungry_Donkey_bar_English_2	168	1	<?xml version="1.0"?>\n<Clock xmlns:dt="urn:schemas-microsoft-com:datatypes"><Description dt:dt="string">E-Prime Primary Realtime Clock</Description><StartTime><Timestamp dt:dt="int">0</Timestamp><DateUtc dt:dt="string">2016-09-07T21:05:03Z</DateUtc></StartTime><FrequencyChanges><FrequencyChange><Frequency dt:dt="r8">3507675</Frequency><Timestamp dt:dt="r8">286892193994</Timestamp><Current dt:dt="r8">0</Current><DateUtc dt:dt="string">2016-09-07T21:05:03Z</DateUtc></FrequencyChange></FrequencyChanges></Clock>\n	Hungry_Donkey_bar_English_2-168-1	60.017	-25	1.0.0.18	1	-869949896	Standard	2.0.10.353	2.0.10.353	09-07-2016	9/7/2016 9:05:04 PM	17:05:04	2.0.10.248	22	Bar50-50.bmp	54	2	?	12r_4g.bmp	0r_4g.bmp	3r_2g.bmp	0r_2g.bmp		0r_4g.bmp			TrialProc	TrialList	0	cvbn	-999999	16	103683	0	v	94	103777	86	-73	13	-10	22	1	0	5	3	22	-12	0	-3	0	4	4	2	2	0	4
Hungry_Donkey_bar_English_2	168	1	<?xml version="1.0"?>\n<Clock xmlns:dt="urn:schemas-microsoft-com:datatypes"><Description dt:dt="string">E-Prime Primary Realtime Clock</Description><StartTime><Timestamp dt:dt="int">0</Timestamp><DateUtc dt:dt="string">2016-09-07T21:05:03Z</DateUtc></StartTime><FrequencyChanges><FrequencyChange><Frequency dt:dt="r8">3507675</Frequency><Timestamp dt:dt="r8">286892193994</Timestamp><Current dt:dt="r8">0</Current><DateUtc dt:dt="string">2016-09-07T21:05:03Z</DateUtc></FrequencyChange></FrequencyChanges></Clock>\n	Hungry_Donkey_bar_English_2-168-1	60.017	-25	1.0.0.18	1	-869949896	Standard	2.0.10.353	2.0.10.353	09-07-2016	9/7/2016 9:05:04 PM	17:05:04	2.0.10.248	23	Bar50-50.bmp	55	2	?	0r_4g.bmp	0r_4g.bmp	0r_2g.bmp	0r_2g.bmp		0r_4g.bmp			TrialProc	TrialList	0	cvbn	-999999	16	105816	0	v	264	106080	90	-73	17	-10	26	1	0	9	3	23	0	0	0	0	4	4	2	2	0	4
Hungry_Donkey_bar_English_2	168	1	<?xml version="1.0"?>\n<Clock xmlns:dt="urn:schemas-microsoft-com:datatypes"><Description dt:dt="string">E-Prime Primary Realtime Clock</Description><StartTime><Timestamp dt:dt="int">0</Timestamp><DateUtc dt:dt="string">2016-09-07T21:05:03Z</DateUtc></StartTime><FrequencyChanges><FrequencyChange><Frequency dt:dt="r8">3507675</Frequency><Timestamp dt:dt="r8">286892193994</Timestamp><Current dt:dt="r8">0</Current><DateUtc dt:dt="string">2016-09-07T21:05:03Z</DateUtc></FrequencyChange></FrequencyChanges></Clock>\n	Hungry_Donkey_bar_English_2-168-1	60.017	-25	1.0.0.18	1	-869949896	Standard	2.0.10.353	2.0.10.353	09-07-2016	9/7/2016 9:05:04 PM	17:05:04	2.0.10.248	24	Bar50-50.bmp	56	2	?	10r_4g.bmp	0r_4g.bmp	2r_2g.bmp	0r_2g.bmp		0r_4g.bmp			TrialProc	TrialList	0	cvbn	-999999	16	108115	0	v	1149	109264	94	-73	21	-10	30	1	0	3	3	24	-10	0	-2	0	4	4	2	2	0	4
Hungry_Donkey_bar_English_2	168	1	<?xml version="1.0"?>\n<Clock xmlns:dt="urn:schemas-microsoft-com:datatypes"><Description dt:dt="string">E-Prime Primary Realtime Clock</Description><StartTime><Timestamp dt:dt="int">0</Timestamp><DateUtc dt:dt="string">2016-09-07T21:05:03Z</DateUtc></StartTime><FrequencyChanges><FrequencyChange><Frequency dt:dt="r8">3507675</Frequency><Timestamp dt:dt="r8">286892193994</Timestamp><Current dt:dt="r8">0</Current><DateUtc dt:dt="string">2016-09-07T21:05:03Z</DateUtc></FrequencyChange></FrequencyChanges></Clock>\n	Hungry_Donkey_bar_English_2-168-1	60.017	-25	1.0.0.18	1	-869949896	Standard	2.0.10.353	2.0.10.353	09-07-2016	9/7/2016 9:05:04 PM	17:05:04	2.0.10.248	25	Bar63-37.bmp	57	2	?	0r_4g.bmp	0r_4g.bmp	0r_2g.bmp	0r_2g.bmp		0r_4g.bmp			TrialProc	TrialList	0	cvbn	-999999	16	111298	0	v	942	112240	98	-73	25	-10	34	1	0	8	3	25	0	0	0	0	4	4	2	2	0	4
Hungry_Donkey_bar_English_2	168	1	<?xml version="1.0"?>\n<Clock xmlns:dt="urn:schemas-microsoft-com:datatypes"><Description dt:dt="string">E-Prime Primary Realtime Clock</Description><StartTime><Timestamp dt:dt="int">0</Timestamp><DateUtc dt:dt="string">2016-09-07T21:05:03Z</DateUtc></StartTime><FrequencyChanges><FrequencyChange><Frequency dt:dt="r8">3507675</Frequency><Timestamp dt:dt="r8">286892193994</Timestamp><Current dt:dt="r8">0</Current><DateUtc dt:dt="string">2016-09-07T21:05:03Z</DateUtc></FrequencyChange></FrequencyChanges></Clock>\n	Hungry_Donkey_bar_English_2-168-1	60.017	-25	1.0.0.18	1	-869949896	Standard	2.0.10.353	2.0.10.353	09-07-2016	9/7/2016 9:05:04 PM	17:05:04	2.0.10.248	26	Bar50-50.bmp	56	1	?	8r_4g.bmp	50r_4g.bmp	1r_2g.bmp	10r_2g.bmp	8r_4g.bmp				TrialProc	TrialList	0	cvbn	-999999	16	114264	0	c	1448	115712	102	-81	21	-14	34	1	0	1	3	26	-8	-50	-1	-10	4	4	2	2	-8	4
Hungry_Donkey_bar_English_2	168	1	<?xml version="1.0"?>\n<Clock xmlns:dt="urn:schemas-microsoft-com:datatypes"><Description dt:dt="string">E-Prime Primary Realtime Clock</Description><StartTime><Timestamp dt:dt="int">0</Timestamp><DateUtc dt:dt="string">2016-09-07T21:05:03Z</DateUtc></StartTime><FrequencyChanges><FrequencyChange><Frequency dt:dt="r8">3507675</Frequency><Timestamp dt:dt="r8">286892193994</Timestamp><Current dt:dt="r8">0</Current><DateUtc dt:dt="string">2016-09-07T21:05:03Z</DateUtc></FrequencyChange></FrequencyChanges></Clock>\n	Hungry_Donkey_bar_English_2-168-1	60.017	-25	1.0.0.18	1	-869949896	Standard	2.0.10.353	2.0.10.353	09-07-2016	9/7/2016 9:05:04 PM	17:05:04	2.0.10.248	27	Bar63-37.bmp	57	2	?	10r_4g.bmp	0r_4g.bmp	2r_2g.bmp	0r_2g.bmp		0r_4g.bmp			TrialProc	TrialList	0	cvbn	-999999	16	117746	0	v	334	118080	106	-81	25	-14	38	1	0	2	3	27	-10	0	-2	0	4	4	2	2	0	4
Hungry_Donkey_bar_English_2	168	1	<?xml version="1.0"?>\n<Clock xmlns:dt="urn:schemas-microsoft-com:datatypes"><Description dt:dt="string">E-Prime Primary Realtime Clock</Description><StartTime><Timestamp dt:dt="int">0</Timestamp><DateUtc dt:dt="string">2016-09-07T21:05:03Z</DateUtc></StartTime><FrequencyChanges><FrequencyChange><Frequency dt:dt="r8">3507675</Frequency><Timestamp dt:dt="r8">286892193994</Timestamp><Current dt:dt="r8">0</Current><DateUtc dt:dt="string">2016-09-07T21:05:03Z</DateUtc></FrequencyChange></FrequencyChanges></Clock>\n	Hungry_Donkey_bar_English_2-168-1	60.017	-25	1.0.0.18	1	-869949896	Standard	2.0.10.353	2.0.10.353	09-07-2016	9/7/2016 9:05:04 PM	17:05:04	2.0.10.248	28	Bar63-37.bmp	58	2	?	0r_4g.bmp	0r_4g.bmp	0r_2g.bmp	0r_2g.bmp		0r_4g.bmp			TrialProc	TrialList	0	cvbn	-999999	16	120112	0	v	416	120528	110	-81	29	-14	42	1	0	7	3	28	0	0	0	0	4	4	2	2	0	4
Hungry_Donkey_bar_English_2	168	1	<?xml version="1.0"?>\n<Clock xmlns:dt="urn:schemas-microsoft-com:datatypes"><Description dt:dt="string">E-Prime Primary Realtime Clock</Description><StartTime><Timestamp dt:dt="int">0</Timestamp><DateUtc dt:dt="string">2016-09-07T21:05:03Z</DateUtc></StartTime><FrequencyChanges><FrequencyChange><Frequency dt:dt="r8">3507675</Frequency><Timestamp dt:dt="r8">286892193994</Timestamp><Current dt:dt="r8">0</Current><DateUtc dt:dt="string">2016-09-07T21:05:03Z</DateUtc></FrequencyChange></FrequencyChanges></Clock>\n	Hungry_Donkey_bar_English_2-168-1	60.017	-25	1.0.0.18	1	-869949896	Standard	2.0.10.353	2.0.10.353	09-07-2016	9/7/2016 9:05:04 PM	17:05:04	2.0.10.248	29	Bar63-37.bmp	58	2	?	10r_4g.bmp	0r_4g.bmp	2r_2g.bmp	0r_2g.bmp		0r_4g.bmp			TrialProc	TrialList	0	cvbn	-999999	16	122561	0	v	575	123136	114	-81	33	-14	46	1	0	4	3	29	-10	0	-2	0	4	4	2	2	0	4
Hungry_Donkey_bar_English_2	168	1	<?xml version="1.0"?>\n<Clock xmlns:dt="urn:schemas-microsoft-com:datatypes"><Description dt:dt="string">E-Prime Primary Realtime Clock</Description><StartTime><Timestamp dt:dt="int">0</Timestamp><DateUtc dt:dt="string">2016-09-07T21:05:03Z</DateUtc></StartTime><FrequencyChanges><FrequencyChange><Frequency dt:dt="r8">3507675</Frequency><Timestamp dt:dt="r8">286892193994</Timestamp><Current dt:dt="r8">0</Current><DateUtc dt:dt="string">2016-09-07T21:05:03Z</DateUtc></FrequencyChange></FrequencyChanges></Clock>\n	Hungry_Donkey_bar_English_2-168-1	60.017	-25	1.0.0.18	1	-869949896	Standard	2.0.10.353	2.0.10.353	09-07-2016	9/7/2016 9:05:04 PM	17:05:04	2.0.10.248	30	Bar63-37.bmp	59	2	?	0r_4g.bmp	0r_4g.bmp	0r_2g.bmp	0r_2g.bmp		0r_4g.bmp			TrialProc	TrialList	0	cvbn	-999999	17	125161	0	v	358	125519	118	-81	37	-14	50	1	0	6	3	30	0	0	0	0	4	4	2	2	0	4
Hungry_Donkey_bar_English_2	168	1	<?xml version="1.0"?>\n<Clock xmlns:dt="urn:schemas-microsoft-com:datatypes"><Description dt:dt="string">E-Prime Primary Realtime Clock</Description><StartTime><Timestamp dt:dt="int">0</Timestamp><DateUtc dt:dt="string">2016-09-07T21:05:03Z</DateUtc></StartTime><FrequencyChanges><FrequencyChange><Frequency dt:dt="r8">3507675</Frequency><Timestamp dt:dt="r8">286892193994</Timestamp><Current dt:dt="r8">0</Current><DateUtc dt:dt="string">2016-09-07T21:05:03Z</DateUtc></FrequencyChange></FrequencyChanges></Clock>\n	Hungry_Donkey_bar_English_2-168-1	60.017	-25	1.0.0.18	1	-869949896	Standard	2.0.10.353	2.0.10.353	09-07-2016	9/7/2016 9:05:04 PM	17:05:04	2.0.10.248	31	Bar63-37.bmp	60	2	?	10r_4g.bmp	0r_4g.bmp	2r_2g.bmp	0r_2g.bmp		0r_4g.bmp			TrialProc	TrialList	0	cvbn	-999999	16	127543	0	v	584	128127	122	-81	41	-14	54	1	0	4	4	31	-10	0	-2	0	4	4	2	2	0	4
Hungry_Donkey_bar_English_2	168	1	<?xml version="1.0"?>\n<Clock xmlns:dt="urn:schemas-microsoft-com:datatypes"><Description dt:dt="string">E-Prime Primary Realtime Clock</Description><StartTime><Timestamp dt:dt="int">0</Timestamp><DateUtc dt:dt="string">2016-09-07T21:05:03Z</DateUtc></StartTime><FrequencyChanges><FrequencyChange><Frequency dt:dt="r8">3507675</Frequency><Timestamp dt:dt="r8">286892193994</Timestamp><Current dt:dt="r8">0</Current><DateUtc dt:dt="string">2016-09-07T21:05:03Z</DateUtc></FrequencyChange></FrequencyChanges></Clock>\n	Hungry_Donkey_bar_English_2-168-1	60.017	-25	1.0.0.18	1	-869949896	Standard	2.0.10.353	2.0.10.353	09-07-2016	9/7/2016 9:05:04 PM	17:05:04	2.0.10.248	32	Bar63-37.bmp	60	4	?	12r_4g.bmp	0r_4g.bmp	3r_2g.bmp	0r_2g.bmp				0r_2g.bmp	TrialProc	TrialList	0	cvbn	-999999	16	130159	0	n	880	131039	124	-81	43	-14	54	1	2	5	4	32	-12	0	-3	0	4	4	2	2	0	2
Hungry_Donkey_bar_English_2	168	1	<?xml version="1.0"?>\n<Clock xmlns:dt="urn:schemas-microsoft-com:datatypes"><Description dt:dt="string">E-Prime Primary Realtime Clock</Description><StartTime><Timestamp dt:dt="int">0</Timestamp><DateUtc dt:dt="string">2016-09-07T21:05:03Z</DateUtc></StartTime><FrequencyChanges><FrequencyChange><Frequency dt:dt="r8">3507675</Frequency><Timestamp dt:dt="r8">286892193994</Timestamp><Current dt:dt="r8">0</Current><DateUtc dt:dt="string">2016-09-07T21:05:03Z</DateUtc></FrequencyChange></FrequencyChanges></Clock>\n	Hungry_Donkey_bar_English_2-168-1	60.017	-25	1.0.0.18	1	-869949896	Standard	2.0.10.353	2.0.10.353	09-07-2016	9/7/2016 9:05:04 PM	17:05:04	2.0.10.248	33	Bar63-37.bmp	60	3	?	10r_4g.bmp	0r_4g.bmp	2r_2g.bmp	0r_2g.bmp			2r_2g.bmp		TrialProc	TrialList	0	cvbn	-999999	16	133075	0	b	396	133471	126	-83	43	-14	54	1	2	2	4	33	-10	0	-2	0	4	4	2	2	-2	2
Hungry_Donkey_bar_English_2	168	1	<?xml version="1.0"?>\n<Clock xmlns:dt="urn:schemas-microsoft-com:datatypes"><Description dt:dt="string">E-Prime Primary Realtime Clock</Description><StartTime><Timestamp dt:dt="int">0</Timestamp><DateUtc dt:dt="string">2016-09-07T21:05:03Z</DateUtc></StartTime><FrequencyChanges><FrequencyChange><Frequency dt:dt="r8">3507675</Frequency><Timestamp dt:dt="r8">286892193994</Timestamp><Current dt:dt="r8">0</Current><DateUtc dt:dt="string">2016-09-07T21:05:03Z</DateUtc></FrequencyChange></FrequencyChanges></Clock>\n	Hungry_Donkey_bar_English_2-168-1	60.017	-25	1.0.0.18	1	-869949896	Standard	2.0.10.353	2.0.10.353	09-07-2016	9/7/2016 9:05:04 PM	17:05:04	2.0.10.248	34	Bar63-37.bmp	61	4	?	0r_4g.bmp	0r_4g.bmp	0r_2g.bmp	0r_2g.bmp				0r_2g.bmp	TrialProc	TrialList	0	cvbn	-999999	16	135508	0	n	331	135839	128	-83	45	-14	54	1	4	9	4	34	0	0	0	0	4	4	2	2	0	2
Hungry_Donkey_bar_English_2	168	1	<?xml version="1.0"?>\n<Clock xmlns:dt="urn:schemas-microsoft-com:datatypes"><Description dt:dt="string">E-Prime Primary Realtime Clock</Description><StartTime><Timestamp dt:dt="int">0</Timestamp><DateUtc dt:dt="string">2016-09-07T21:05:03Z</DateUtc></StartTime><FrequencyChanges><FrequencyChange><Frequency dt:dt="r8">3507675</Frequency><Timestamp dt:dt="r8">286892193994</Timestamp><Current dt:dt="r8">0</Current><DateUtc dt:dt="string">2016-09-07T21:05:03Z</DateUtc></FrequencyChange></FrequencyChanges></Clock>\n	Hungry_Donkey_bar_English_2-168-1	60.017	-25	1.0.0.18	1	-869949896	Standard	2.0.10.353	2.0.10.353	09-07-2016	9/7/2016 9:05:04 PM	17:05:04	2.0.10.248	35	Bar63-37.bmp	61	4	?	10r_4g.bmp	0r_4g.bmp	2r_2g.bmp	0r_2g.bmp				0r_2g.bmp	TrialProc	TrialList	0	cvbn	-999999	16	137874	0	n	493	138367	130	-83	47	-14	54	1	6	3	4	35	-10	0	-2	0	4	4	2	2	0	2
Hungry_Donkey_bar_English_2	168	1	<?xml version="1.0"?>\n<Clock xmlns:dt="urn:schemas-microsoft-com:datatypes"><Description dt:dt="string">E-Prime Primary Realtime Clock</Description><StartTime><Timestamp dt:dt="int">0</Timestamp><DateUtc dt:dt="string">2016-09-07T21:05:03Z</DateUtc></StartTime><FrequencyChanges><FrequencyChange><Frequency dt:dt="r8">3507675</Frequency><Timestamp dt:dt="r8">286892193994</Timestamp><Current dt:dt="r8">0</Current><DateUtc dt:dt="string">2016-09-07T21:05:03Z</DateUtc></FrequencyChange></FrequencyChanges></Clock>\n	Hungry_Donkey_bar_English_2-168-1	60.017	-25	1.0.0.18	1	-869949896	Standard	2.0.10.353	2.0.10.353	09-07-2016	9/7/2016 9:05:04 PM	17:05:04	2.0.10.248	36	Bar50-50.bmp	50	2	?	8r_4g.bmp	50r_4g.bmp	1r_2g.bmp	10r_2g.bmp		50r_4g.bmp			TrialProc	TrialList	0	cvbn	-999999	16	140406	0	v	1353	141759	134	-133	1	-14	8	1	6	1	4	36	-8	-50	-1	-10	4	4	2	2	-50	4
Hungry_Donkey_bar_English_2	168	1	<?xml version="1.0"?>\n<Clock xmlns:dt="urn:schemas-microsoft-com:datatypes"><Description dt:dt="string">E-Prime Primary Realtime Clock</Description><StartTime><Timestamp dt:dt="int">0</Timestamp><DateUtc dt:dt="string">2016-09-07T21:05:03Z</DateUtc></StartTime><FrequencyChanges><FrequencyChange><Frequency dt:dt="r8">3507675</Frequency><Timestamp dt:dt="r8">286892193994</Timestamp><Current dt:dt="r8">0</Current><DateUtc dt:dt="string">2016-09-07T21:05:03Z</DateUtc></FrequencyChange></FrequencyChanges></Clock>\n	Hungry_Donkey_bar_English_2-168-1	60.017	-25	1.0.0.18	1	-869949896	Standard	2.0.10.353	2.0.10.353	09-07-2016	9/7/2016 9:05:04 PM	17:05:04	2.0.10.248	37	Bar50-50.bmp	51	3	?	0r_4g.bmp	0r_4g.bmp	0r_2g.bmp	0r_2g.bmp			0r_2g.bmp		TrialProc	TrialList	0	cvbn	-999999	17	143789	0	b	514	144303	136	-133	3	-14	8	3	6	10	4	37	0	0	0	0	4	4	2	2	0	2
Hungry_Donkey_bar_English_2	168	1	<?xml version="1.0"?>\n<Clock xmlns:dt="urn:schemas-microsoft-com:datatypes"><Description dt:dt="string">E-Prime Primary Realtime Clock</Description><StartTime><Timestamp dt:dt="int">0</Timestamp><DateUtc dt:dt="string">2016-09-07T21:05:03Z</DateUtc></StartTime><FrequencyChanges><FrequencyChange><Frequency dt:dt="r8">3507675</Frequency><Timestamp dt:dt="r8">286892193994</Timestamp><Current dt:dt="r8">0</Current><DateUtc dt:dt="string">2016-09-07T21:05:03Z</DateUtc></FrequencyChange></FrequencyChanges></Clock>\n	Hungry_Donkey_bar_English_2-168-1	60.017	-25	1.0.0.18	1	-869949896	Standard	2.0.10.353	2.0.10.353	09-07-2016	9/7/2016 9:05:04 PM	17:05:04	2.0.10.248	38	Bar50-50.bmp	51	3	?	0r_4g.bmp	0r_4g.bmp	0r_2g.bmp	0r_2g.bmp			0r_2g.bmp		TrialProc	TrialList	0	cvbn	-999999	16	146338	0	b	300	146638	138	-133	5	-14	8	5	6	6	4	38	0	0	0	0	4	4	2	2	0	2
Hungry_Donkey_bar_English_2	168	1	<?xml version="1.0"?>\n<Clock xmlns:dt="urn:schemas-microsoft-com:datatypes"><Description dt:dt="string">E-Prime Primary Realtime Clock</Description><StartTime><Timestamp dt:dt="int">0</Timestamp><DateUtc dt:dt="string">2016-09-07T21:05:03Z</DateUtc></StartTime><FrequencyChanges><FrequencyChange><Frequency dt:dt="r8">3507675</Frequency><Timestamp dt:dt="r8">286892193994</Timestamp><Current dt:dt="r8">0</Current><DateUtc dt:dt="string">2016-09-07T21:05:03Z</DateUtc></FrequencyChange></FrequencyChanges></Clock>\n	Hungry_Donkey_bar_English_2-168-1	60.017	-25	1.0.0.18	1	-869949896	Standard	2.0.10.353	2.0.10.353	09-07-2016	9/7/2016 9:05:04 PM	17:05:04	2.0.10.248	39	Bar50-50.bmp	52	2	?	0r_4g.bmp	0r_4g.bmp	0r_2g.bmp	0r_2g.bmp		0r_4g.bmp			TrialProc	TrialList	0	cvbn	-999999	17	148671	0	v	431	149102	142	-133	9	-14	12	5	6	8	4	39	0	0	0	0	4	4	2	2	0	4
Hungry_Donkey_bar_English_2	168	1	<?xml version="1.0"?>\n<Clock xmlns:dt="urn:schemas-microsoft-com:datatypes"><Description dt:dt="string">E-Prime Primary Realtime Clock</Description><StartTime><Timestamp dt:dt="int">0</Timestamp><DateUtc dt:dt="string">2016-09-07T21:05:03Z</DateUtc></StartTime><FrequencyChanges><FrequencyChange><Frequency dt:dt="r8">3507675</Frequency><Timestamp dt:dt="r8">286892193994</Timestamp><Current dt:dt="r8">0</Current><DateUtc dt:dt="string">2016-09-07T21:05:03Z</DateUtc></FrequencyChange></FrequencyChanges></Clock>\n	Hungry_Donkey_bar_English_2-168-1	60.017	-25	1.0.0.18	1	-869949896	Standard	2.0.10.353	2.0.10.353	09-07-2016	9/7/2016 9:05:04 PM	17:05:04	2.0.10.248	40	Bar50-50.bmp	52	2	?	0r_4g.bmp	0r_4g.bmp	0r_2g.bmp	0r_2g.bmp		0r_4g.bmp			TrialProc	TrialList	0	cvbn	-999999	16	151136	0	v	1054	152190	146	-133	13	-14	16	5	6	7	4	40	0	0	0	0	4	4	2	2	0	4
Hungry_Donkey_bar_English_2	168	1	<?xml version="1.0"?>\n<Clock xmlns:dt="urn:schemas-microsoft-com:datatypes"><Description dt:dt="string">E-Prime Primary Realtime Clock</Description><StartTime><Timestamp dt:dt="int">0</Timestamp><DateUtc dt:dt="string">2016-09-07T21:05:03Z</DateUtc></StartTime><FrequencyChanges><FrequencyChange><Frequency dt:dt="r8">3507675</Frequency><Timestamp dt:dt="r8">286892193994</Timestamp><Current dt:dt="r8">0</Current><DateUtc dt:dt="string">2016-09-07T21:05:03Z</DateUtc></FrequencyChange></FrequencyChanges></Clock>\n	Hungry_Donkey_bar_English_2-168-1	60.017	-25	1.0.0.18	1	-869949896	Standard	2.0.10.353	2.0.10.353	09-07-2016	9/7/2016 9:05:04 PM	17:05:04	2.0.10.248	41	Bar50-50.bmp	53	2	?	0r_4g.bmp	0r_4g.bmp	0r_2g.bmp	0r_2g.bmp		0r_4g.bmp			TrialProc	TrialList	0	cvbn	-999999	16	154219	0	v	499	154718	150	-133	17	-14	20	5	6	8	5	41	0	0	0	0	4	4	2	2	0	4
Hungry_Donkey_bar_English_2	168	1	<?xml version="1.0"?>\n<Clock xmlns:dt="urn:schemas-microsoft-com:datatypes"><Description dt:dt="string">E-Prime Primary Realtime Clock</Description><StartTime><Timestamp dt:dt="int">0</Timestamp><DateUtc dt:dt="string">2016-09-07T21:05:03Z</DateUtc></StartTime><FrequencyChanges><FrequencyChange><Frequency dt:dt="r8">3507675</Frequency><Timestamp dt:dt="r8">286892193994</Timestamp><Current dt:dt="r8">0</Current><DateUtc dt:dt="string">2016-09-07T21:05:03Z</DateUtc></FrequencyChange></FrequencyChanges></Clock>\n	Hungry_Donkey_bar_English_2-168-1	60.017	-25	1.0.0.18	1	-869949896	Standard	2.0.10.353	2.0.10.353	09-07-2016	9/7/2016 9:05:04 PM	17:05:04	2.0.10.248	42	Bar50-50.bmp	54	2	?	10r_4g.bmp	0r_4g.bmp	2r_2g.bmp	0r_2g.bmp		0r_4g.bmp			TrialProc	TrialList	0	cvbn	-999999	17	156752	0	v	286	157038	154	-133	21	-14	24	5	6	2	5	42	-10	0	-2	0	4	4	2	2	0	4
Hungry_Donkey_bar_English_2	168	1	<?xml version="1.0"?>\n<Clock xmlns:dt="urn:schemas-microsoft-com:datatypes"><Description dt:dt="string">E-Prime Primary Realtime Clock</Description><StartTime><Timestamp dt:dt="int">0</Timestamp><DateUtc dt:dt="string">2016-09-07T21:05:03Z</DateUtc></StartTime><FrequencyChanges><FrequencyChange><Frequency dt:dt="r8">3507675</Frequency><Timestamp dt:dt="r8">286892193994</Timestamp><Current dt:dt="r8">0</Current><DateUtc dt:dt="string">2016-09-07T21:05:03Z</DateUtc></FrequencyChange></FrequencyChanges></Clock>\n	Hungry_Donkey_bar_English_2-168-1	60.017	-25	1.0.0.18	1	-869949896	Standard	2.0.10.353	2.0.10.353	09-07-2016	9/7/2016 9:05:04 PM	17:05:04	2.0.10.248	43	Bar50-50.bmp	54	2	?	10r_4g.bmp	0r_4g.bmp	2r_2g.bmp	0r_2g.bmp		0r_4g.bmp			TrialProc	TrialList	0	cvbn	-999999	17	159068	0	v	290	159358	158	-133	25	-14	28	5	6	4	5	43	-10	0	-2	0	4	4	2	2	0	4
Hungry_Donkey_bar_English_2	168	1	<?xml version="1.0"?>\n<Clock xmlns:dt="urn:schemas-microsoft-com:datatypes"><Description dt:dt="string">E-Prime Primary Realtime Clock</Description><StartTime><Timestamp dt:dt="int">0</Timestamp><DateUtc dt:dt="string">2016-09-07T21:05:03Z</DateUtc></StartTime><FrequencyChanges><FrequencyChange><Frequency dt:dt="r8">3507675</Frequency><Timestamp dt:dt="r8">286892193994</Timestamp><Current dt:dt="r8">0</Current><DateUtc dt:dt="string">2016-09-07T21:05:03Z</DateUtc></FrequencyChange></FrequencyChanges></Clock>\n	Hungry_Donkey_bar_English_2-168-1	60.017	-25	1.0.0.18	1	-869949896	Standard	2.0.10.353	2.0.10.353	09-07-2016	9/7/2016 9:05:04 PM	17:05:04	2.0.10.248	44	Bar50-50.bmp	55	2	?	0r_4g.bmp	0r_4g.bmp	0r_2g.bmp	0r_2g.bmp		0r_4g.bmp			TrialProc	TrialList	0	cvbn	-999999	17	161384	0	v	326	161710	162	-133	29	-14	32	5	6	9	5	44	0	0	0	0	4	4	2	2	0	4
Hungry_Donkey_bar_English_2	168	1	<?xml version="1.0"?>\n<Clock xmlns:dt="urn:schemas-microsoft-com:datatypes"><Description dt:dt="string">E-Prime Primary Realtime Clock</Description><StartTime><Timestamp dt:dt="int">0</Timestamp><DateUtc dt:dt="string">2016-09-07T21:05:03Z</DateUtc></StartTime><FrequencyChanges><FrequencyChange><Frequency dt:dt="r8">3507675</Frequency><Timestamp dt:dt="r8">286892193994</Timestamp><Current dt:dt="r8">0</Current><DateUtc dt:dt="string">2016-09-07T21:05:03Z</DateUtc></FrequencyChange></FrequencyChanges></Clock>\n	Hungry_Donkey_bar_English_2-168-1	60.017	-25	1.0.0.18	1	-869949896	Standard	2.0.10.353	2.0.10.353	09-07-2016	9/7/2016 9:05:04 PM	17:05:04	2.0.10.248	45	Bar50-50.bmp	56	2	?	10r_4g.bmp	0r_4g.bmp	2r_2g.bmp	0r_2g.bmp		0r_4g.bmp			TrialProc	TrialList	0	cvbn	-999999	17	163750	0	v	312	164062	166	-133	33	-14	36	5	6	3	5	45	-10	0	-2	0	4	4	2	2	0	4
Hungry_Donkey_bar_English_2	168	1	<?xml version="1.0"?>\n<Clock xmlns:dt="urn:schemas-microsoft-com:datatypes"><Description dt:dt="string">E-Prime Primary Realtime Clock</Description><StartTime><Timestamp dt:dt="int">0</Timestamp><DateUtc dt:dt="string">2016-09-07T21:05:03Z</DateUtc></StartTime><FrequencyChanges><FrequencyChange><Frequency dt:dt="r8">3507675</Frequency><Timestamp dt:dt="r8">286892193994</Timestamp><Current dt:dt="r8">0</Current><DateUtc dt:dt="string">2016-09-07T21:05:03Z</DateUtc></FrequencyChange></FrequencyChanges></Clock>\n	Hungry_Donkey_bar_English_2-168-1	60.017	-25	1.0.0.18	1	-869949896	Standard	2.0.10.353	2.0.10.353	09-07-2016	9/7/2016 9:05:04 PM	17:05:04	2.0.10.248	46	Bar50-50.bmp	56	2	?	0r_4g.bmp	0r_4g.bmp	0r_2g.bmp	0r_2g.bmp		0r_4g.bmp			TrialProc	TrialList	0	cvbn	-999999	16	166099	0	v	874	166973	170	-133	37	-14	40	5	6	6	5	46	0	0	0	0	4	4	2	2	0	4
Hungry_Donkey_bar_English_2	168	1	<?xml version="1.0"?>\n<Clock xmlns:dt="urn:schemas-microsoft-com:datatypes"><Description dt:dt="string">E-Prime Primary Realtime Clock</Description><StartTime><Timestamp dt:dt="int">0</Timestamp><DateUtc dt:dt="string">2016-09-07T21:05:03Z</DateUtc></StartTime><FrequencyChanges><FrequencyChange><Frequency dt:dt="r8">3507675</Frequency><Timestamp dt:dt="r8">286892193994</Timestamp><Current dt:dt="r8">0</Current><DateUtc dt:dt="string">2016-09-07T21:05:03Z</DateUtc></FrequencyChange></FrequencyChanges></Clock>\n	Hungry_Donkey_bar_English_2-168-1	60.017	-25	1.0.0.18	1	-869949896	Standard	2.0.10.353	2.0.10.353	09-07-2016	9/7/2016 9:05:04 PM	17:05:04	2.0.10.248	47	Bar63-37.bmp	57	2	?	12r_4g.bmp	0r_4g.bmp	3r_2g.bmp	0r_2g.bmp		0r_4g.bmp			TrialProc	TrialList	0	cvbn	-999999	16	168998	0	v	2183	171181	174	-133	41	-14	44	5	6	5	5	47	-12	0	-3	0	4	4	2	2	0	4
Hungry_Donkey_bar_English_2	168	1	<?xml version="1.0"?>\n<Clock xmlns:dt="urn:schemas-microsoft-com:datatypes"><Description dt:dt="string">E-Prime Primary Realtime Clock</Description><StartTime><Timestamp dt:dt="int">0</Timestamp><DateUtc dt:dt="string">2016-09-07T21:05:03Z</DateUtc></StartTime><FrequencyChanges><FrequencyChange><Frequency dt:dt="r8">3507675</Frequency><Timestamp dt:dt="r8">286892193994</Timestamp><Current dt:dt="r8">0</Current><DateUtc dt:dt="string">2016-09-07T21:05:03Z</DateUtc></FrequencyChange></FrequencyChanges></Clock>\n	Hungry_Donkey_bar_English_2-168-1	60.017	-25	1.0.0.18	1	-869949896	Standard	2.0.10.353	2.0.10.353	09-07-2016	9/7/2016 9:05:04 PM	17:05:04	2.0.10.248	48	Bar63-37.bmp	57	2	?	0r_4g.bmp	0r_4g.bmp	0r_2g.bmp	0r_2g.bmp		0r_4g.bmp			TrialProc	TrialList	0	cvbn	-999999	16	173213	0	v	272	173485	178	-133	45	-14	48	5	6	10	5	48	0	0	0	0	4	4	2	2	0	4
Hungry_Donkey_bar_English_2	168	1	<?xml version="1.0"?>\n<Clock xmlns:dt="urn:schemas-microsoft-com:datatypes"><Description dt:dt="string">E-Prime Primary Realtime Clock</Description><StartTime><Timestamp dt:dt="int">0</Timestamp><DateUtc dt:dt="string">2016-09-07T21:05:03Z</DateUtc></StartTime><FrequencyChanges><FrequencyChange><Frequency dt:dt="r8">3507675</Frequency><Timestamp dt:dt="r8">286892193994</Timestamp><Current dt:dt="r8">0</Current><DateUtc dt:dt="string">2016-09-07T21:05:03Z</DateUtc></FrequencyChange></FrequencyChanges></Clock>\n	Hungry_Donkey_bar_English_2-168-1	60.017	-25	1.0.0.18	1	-869949896	Standard	2.0.10.353	2.0.10.353	09-07-2016	9/7/2016 9:05:04 PM	17:05:04	2.0.10.248	49	Bar63-37.bmp	58	2	?	0r_4g.bmp	0r_4g.bmp	0r_2g.bmp	0r_2g.bmp		0r_4g.bmp			TrialProc	TrialList	0	cvbn	-999999	16	175513	0	v	356	175869	182	-133	49	-14	52	5	6	7	5	49	0	0	0	0	4	4	2	2	0	4
Hungry_Donkey_bar_English_2	168	1	<?xml version="1.0"?>\n<Clock xmlns:dt="urn:schemas-microsoft-com:datatypes"><Description dt:dt="string">E-Prime Primary Realtime Clock</Description><StartTime><Timestamp dt:dt="int">0</Timestamp><DateUtc dt:dt="string">2016-09-07T21:05:03Z</DateUtc></StartTime><FrequencyChanges><FrequencyChange><Frequency dt:dt="r8">3507675</Frequency><Timestamp dt:dt="r8">286892193994</Timestamp><Current dt:dt="r8">0</Current><DateUtc dt:dt="string">2016-09-07T21:05:03Z</DateUtc></FrequencyChange></FrequencyChanges></Clock>\n	Hungry_Donkey_bar_English_2-168-1	60.017	-25	1.0.0.18	1	-869949896	Standard	2.0.10.353	2.0.10.353	09-07-2016	9/7/2016 9:05:04 PM	17:05:04	2.0.10.248	50	Bar50-50.bmp	50	2	?	8r_4g.bmp	50r_4g.bmp	1r_2g.bmp	10r_2g.bmp		50r_4g.bmp			TrialProc	TrialList	0	cvbn	-999999	16	177895	0	v	358	178253	186	-183	3	-14	6	5	6	1	5	50	-8	-50	-1	-10	4	4	2	2	-50	4
Hungry_Donkey_bar_English_2	168	1	<?xml version="1.0"?>\n<Clock xmlns:dt="urn:schemas-microsoft-com:datatypes"><Description dt:dt="string">E-Prime Primary Realtime Clock</Description><StartTime><Timestamp dt:dt="int">0</Timestamp><DateUtc dt:dt="string">2016-09-07T21:05:03Z</DateUtc></StartTime><FrequencyChanges><FrequencyChange><Frequency dt:dt="r8">3507675</Frequency><Timestamp dt:dt="r8">286892193994</Timestamp><Current dt:dt="r8">0</Current><DateUtc dt:dt="string">2016-09-07T21:05:03Z</DateUtc></FrequencyChange></FrequencyChanges></Clock>\n	Hungry_Donkey_bar_English_2-168-1	60.017	-25	1.0.0.18	1	-869949896	Standard	2.0.10.353	2.0.10.353	09-07-2016	9/7/2016 9:05:04 PM	17:05:04	2.0.10.248	51	Bar50-50.bmp	51	3	?	0r_4g.bmp	0r_4g.bmp	0r_2g.bmp	0r_2g.bmp			0r_2g.bmp		TrialProc	TrialList	0	cvbn	-999999	16	180278	0	b	1255	181533	188	-183	5	-14	6	7	6	9	6	51	0	0	0	0	4	4	2	2	0	2
Hungry_Donkey_bar_English_2	168	1	<?xml version="1.0"?>\n<Clock xmlns:dt="urn:schemas-microsoft-com:datatypes"><Description dt:dt="string">E-Prime Primary Realtime Clock</Description><StartTime><Timestamp dt:dt="int">0</Timestamp><DateUtc dt:dt="string">2016-09-07T21:05:03Z</DateUtc></StartTime><FrequencyChanges><FrequencyChange><Frequency dt:dt="r8">3507675</Frequency><Timestamp dt:dt="r8">286892193994</Timestamp><Current dt:dt="r8">0</Current><DateUtc dt:dt="string">2016-09-07T21:05:03Z</DateUtc></FrequencyChange></FrequencyChanges></Clock>\n	Hungry_Donkey_bar_English_2-168-1	60.017	-25	1.0.0.18	1	-869949896	Standard	2.0.10.353	2.0.10.353	09-07-2016	9/7/2016 9:05:04 PM	17:05:04	2.0.10.248	52	Bar50-50.bmp	51	3	?	0r_4g.bmp	0r_4g.bmp	0r_2g.bmp	0r_2g.bmp			0r_2g.bmp		TrialProc	TrialList	0	cvbn	-999999	17	183561	0	b	612	184173	190	-183	7	-14	6	9	6	7	6	52	0	0	0	0	4	4	2	2	0	2
Hungry_Donkey_bar_English_2	168	1	<?xml version="1.0"?>\n<Clock xmlns:dt="urn:schemas-microsoft-com:datatypes"><Description dt:dt="string">E-Prime Primary Realtime Clock</Description><StartTime><Timestamp dt:dt="int">0</Timestamp><DateUtc dt:dt="string">2016-09-07T21:05:03Z</DateUtc></StartTime><FrequencyChanges><FrequencyChange><Frequency dt:dt="r8">3507675</Frequency><Timestamp dt:dt="r8">286892193994</Timestamp><Current dt:dt="r8">0</Current><DateUtc dt:dt="string">2016-09-07T21:05:03Z</DateUtc></FrequencyChange></FrequencyChanges></Clock>\n	Hungry_Donkey_bar_English_2-168-1	60.017	-25	1.0.0.18	1	-869949896	Standard	2.0.10.353	2.0.10.353	09-07-2016	9/7/2016 9:05:04 PM	17:05:04	2.0.10.248	53	Bar50-50.bmp	51	3	?	10r_4g.bmp	0r_4g.bmp	2r_2g.bmp	0r_2g.bmp			2r_2g.bmp		TrialProc	TrialList	0	cvbn	-999999	16	186210	0	b	459	186669	192	-185	7	-14	6	9	6	4	6	53	-10	0	-2	0	4	4	2	2	-2	2
Hungry_Donkey_bar_English_2	168	1	<?xml version="1.0"?>\n<Clock xmlns:dt="urn:schemas-microsoft-com:datatypes"><Description dt:dt="string">E-Prime Primary Realtime Clock</Description><StartTime><Timestamp dt:dt="int">0</Timestamp><DateUtc dt:dt="string">2016-09-07T21:05:03Z</DateUtc></StartTime><FrequencyChanges><FrequencyChange><Frequency dt:dt="r8">3507675</Frequency><Timestamp dt:dt="r8">286892193994</Timestamp><Current dt:dt="r8">0</Current><DateUtc dt:dt="string">2016-09-07T21:05:03Z</DateUtc></FrequencyChange></FrequencyChanges></Clock>\n	Hungry_Donkey_bar_English_2-168-1	60.017	-25	1.0.0.18	1	-869949896	Standard	2.0.10.353	2.0.10.353	09-07-2016	9/7/2016 9:05:04 PM	17:05:04	2.0.10.248	54	Bar50-50.bmp	51	2	?	12r_4g.bmp	0r_4g.bmp	3r_2g.bmp	0r_2g.bmp		0r_4g.bmp			TrialProc	TrialList	0	cvbn	-999999	15	188692	0	v	376	189068	196	-185	11	-14	10	9	6	5	6	54	-12	0	-3	0	4	4	2	2	0	4
Hungry_Donkey_bar_English_2	168	1	<?xml version="1.0"?>\n<Clock xmlns:dt="urn:schemas-microsoft-com:datatypes"><Description dt:dt="string">E-Prime Primary Realtime Clock</Description><StartTime><Timestamp dt:dt="int">0</Timestamp><DateUtc dt:dt="string">2016-09-07T21:05:03Z</DateUtc></StartTime><FrequencyChanges><FrequencyChange><Frequency dt:dt="r8">3507675</Frequency><Timestamp dt:dt="r8">286892193994</Timestamp><Current dt:dt="r8">0</Current><DateUtc dt:dt="string">2016-09-07T21:05:03Z</DateUtc></FrequencyChange></FrequencyChanges></Clock>\n	Hungry_Donkey_bar_English_2-168-1	60.017	-25	1.0.0.18	1	-869949896	Standard	2.0.10.353	2.0.10.353	09-07-2016	9/7/2016 9:05:04 PM	17:05:04	2.0.10.248	55	Bar50-50.bmp	52	2	?	0r_4g.bmp	0r_4g.bmp	0r_2g.bmp	0r_2g.bmp		0r_4g.bmp			TrialProc	TrialList	0	cvbn	-999999	16	191092	0	v	344	191436	200	-185	15	-14	14	9	6	10	6	55	0	0	0	0	4	4	2	2	0	4
Hungry_Donkey_bar_English_2	168	1	<?xml version="1.0"?>\n<Clock xmlns:dt="urn:schemas-microsoft-com:datatypes"><Description dt:dt="string">E-Prime Primary Realtime Clock</Description><StartTime><Timestamp dt:dt="int">0</Timestamp><DateUtc dt:dt="string">2016-09-07T21:05:03Z</DateUtc></StartTime><FrequencyChanges><FrequencyChange><Frequency dt:dt="r8">3507675</Frequency><Timestamp dt:dt="r8">286892193994</Timestamp><Current dt:dt="r8">0</Current><DateUtc dt:dt="string">2016-09-07T21:05:03Z</DateUtc></FrequencyChange></FrequencyChanges></Clock>\n	Hungry_Donkey_bar_English_2-168-1	60.017	-25	1.0.0.18	1	-869949896	Standard	2.0.10.353	2.0.10.353	09-07-2016	9/7/2016 9:05:04 PM	17:05:04	2.0.10.248	56	Bar50-50.bmp	52	2	?	10r_4g.bmp	0r_4g.bmp	2r_2g.bmp	0r_2g.bmp		0r_4g.bmp			TrialProc	TrialList	0	cvbn	-999999	16	193474	0	v	266	193740	204	-185	19	-14	18	9	6	2	6	56	-10	0	-2	0	4	4	2	2	0	4
Hungry_Donkey_bar_English_2	168	1	<?xml version="1.0"?>\n<Clock xmlns:dt="urn:schemas-microsoft-com:datatypes"><Description dt:dt="string">E-Prime Primary Realtime Clock</Description><StartTime><Timestamp dt:dt="int">0</Timestamp><DateUtc dt:dt="string">2016-09-07T21:05:03Z</DateUtc></StartTime><FrequencyChanges><FrequencyChange><Frequency dt:dt="r8">3507675</Frequency><Timestamp dt:dt="r8">286892193994</Timestamp><Current dt:dt="r8">0</Current><DateUtc dt:dt="string">2016-09-07T21:05:03Z</DateUtc></FrequencyChange></FrequencyChanges></Clock>\n	Hungry_Donkey_bar_English_2-168-1	60.017	-25	1.0.0.18	1	-869949896	Standard	2.0.10.353	2.0.10.353	09-07-2016	9/7/2016 9:05:04 PM	17:05:04	2.0.10.248	57	Bar50-50.bmp	47	2	?	8r_4g.bmp	50r_4g.bmp	1r_2g.bmp	10r_2g.bmp		50r_4g.bmp			TrialProc	TrialList	0	cvbn	-999999	16	195774	0	v	94	195868	208	-235	-27	-14	-28	9	6	1	6	57	-8	-50	-1	-10	4	4	2	2	-50	4
Hungry_Donkey_bar_English_2	168	1	<?xml version="1.0"?>\n<Clock xmlns:dt="urn:schemas-microsoft-com:datatypes"><Description dt:dt="string">E-Prime Primary Realtime Clock</Description><StartTime><Timestamp dt:dt="int">0</Timestamp><DateUtc dt:dt="string">2016-09-07T21:05:03Z</DateUtc></StartTime><FrequencyChanges><FrequencyChange><Frequency dt:dt="r8">3507675</Frequency><Timestamp dt:dt="r8">286892193994</Timestamp><Current dt:dt="r8">0</Current><DateUtc dt:dt="string">2016-09-07T21:05:03Z</DateUtc></FrequencyChange></FrequencyChanges></Clock>\n	Hungry_Donkey_bar_English_2-168-1	60.017	-25	1.0.0.18	1	-869949896	Standard	2.0.10.353	2.0.10.353	09-07-2016	9/7/2016 9:05:04 PM	17:05:04	2.0.10.248	58	Bar50-50.bmp	47	2	?	10r_4g.bmp	0r_4g.bmp	2r_2g.bmp	0r_2g.bmp		0r_4g.bmp			TrialProc	TrialList	0	cvbn	-999999	16	197906	0	v	490	198396	212	-235	-23	-14	-24	9	6	3	6	58	-10	0	-2	0	4	4	2	2	0	4
Hungry_Donkey_bar_English_2	168	1	<?xml version="1.0"?>\n<Clock xmlns:dt="urn:schemas-microsoft-com:datatypes"><Description dt:dt="string">E-Prime Primary Realtime Clock</Description><StartTime><Timestamp dt:dt="int">0</Timestamp><DateUtc dt:dt="string">2016-09-07T21:05:03Z</DateUtc></StartTime><FrequencyChanges><FrequencyChange><Frequency dt:dt="r8">3507675</Frequency><Timestamp dt:dt="r8">286892193994</Timestamp><Current dt:dt="r8">0</Current><DateUtc dt:dt="string">2016-09-07T21:05:03Z</DateUtc></FrequencyChange></FrequencyChanges></Clock>\n	Hungry_Donkey_bar_English_2-168-1	60.017	-25	1.0.0.18	1	-869949896	Standard	2.0.10.353	2.0.10.353	09-07-2016	9/7/2016 9:05:04 PM	17:05:04	2.0.10.248	59	Bar50-50.bmp	48	2	?	0r_4g.bmp	0r_4g.bmp	0r_2g.bmp	0r_2g.bmp		0r_4g.bmp			TrialProc	TrialList	0	cvbn	-999999	16	200422	0	v	406	200828	216	-235	-19	-14	-20	9	6	6	6	59	0	0	0	0	4	4	2	2	0	4
Hungry_Donkey_bar_English_2	168	1	<?xml version="1.0"?>\n<Clock xmlns:dt="urn:schemas-microsoft-com:datatypes"><Description dt:dt="string">E-Prime Primary Realtime Clock</Description><StartTime><Timestamp dt:dt="int">0</Timestamp><DateUtc dt:dt="string">2016-09-07T21:05:03Z</DateUtc></StartTime><FrequencyChanges><FrequencyChange><Frequency dt:dt="r8">3507675</Frequency><Timestamp dt:dt="r8">286892193994</Timestamp><Current dt:dt="r8">0</Current><DateUtc dt:dt="string">2016-09-07T21:05:03Z</DateUtc></FrequencyChange></FrequencyChanges></Clock>\n	Hungry_Donkey_bar_English_2-168-1	60.017	-25	1.0.0.18	1	-869949896	Standard	2.0.10.353	2.0.10.353	09-07-2016	9/7/2016 9:05:04 PM	17:05:04	2.0.10.248	60	Bar50-50.bmp	48	2	?	0r_4g.bmp	0r_4g.bmp	0r_2g.bmp	0r_2g.bmp		0r_4g.bmp			TrialProc	TrialList	0	cvbn	-999999	16	202855	0	v	453	203308	220	-235	-15	-14	-16	9	6	8	6	60	0	0	0	0	4	4	2	2	0	4
Hungry_Donkey_bar_English_2	168	1	<?xml version="1.0"?>\n<Clock xmlns:dt="urn:schemas-microsoft-com:datatypes"><Description dt:dt="string">E-Prime Primary Realtime Clock</Description><StartTime><Timestamp dt:dt="int">0</Timestamp><DateUtc dt:dt="string">2016-09-07T21:05:03Z</DateUtc></StartTime><FrequencyChanges><FrequencyChange><Frequency dt:dt="r8">3507675</Frequency><Timestamp dt:dt="r8">286892193994</Timestamp><Current dt:dt="r8">0</Current><DateUtc dt:dt="string">2016-09-07T21:05:03Z</DateUtc></FrequencyChange></FrequencyChanges></Clock>\n	Hungry_Donkey_bar_English_2-168-1	60.017	-25	1.0.0.18	1	-869949896	Standard	2.0.10.353	2.0.10.353	09-07-2016	9/7/2016 9:05:04 PM	17:05:04	2.0.10.248	61	Bar50-50.bmp	49	2	?	10r_4g.bmp	0r_4g.bmp	2r_2g.bmp	0r_2g.bmp		0r_4g.bmp			TrialProc	TrialList	0	cvbn	-999999	16	205338	0	v	338	205676	224	-235	-11	-14	-12	9	6	4	7	61	-10	0	-2	0	4	4	2	2	0	4
Hungry_Donkey_bar_English_2	168	1	<?xml version="1.0"?>\n<Clock xmlns:dt="urn:schemas-microsoft-com:datatypes"><Description dt:dt="string">E-Prime Primary Realtime Clock</Description><StartTime><Timestamp dt:dt="int">0</Timestamp><DateUtc dt:dt="string">2016-09-07T21:05:03Z</DateUtc></StartTime><FrequencyChanges><FrequencyChange><Frequency dt:dt="r8">3507675</Frequency><Timestamp dt:dt="r8">286892193994</Timestamp><Current dt:dt="r8">0</Current><DateUtc dt:dt="string">2016-09-07T21:05:03Z</DateUtc></FrequencyChange></FrequencyChanges></Clock>\n	Hungry_Donkey_bar_English_2-168-1	60.017	-25	1.0.0.18	1	-869949896	Standard	2.0.10.353	2.0.10.353	09-07-2016	9/7/2016 9:05:04 PM	17:05:04	2.0.10.248	62	Bar50-50.bmp	49	2	?	0r_4g.bmp	0r_4g.bmp	0r_2g.bmp	0r_2g.bmp		0r_4g.bmp			TrialProc	TrialList	0	cvbn	-999999	16	207704	0	v	387	208091	228	-235	-7	-14	-8	9	6	10	7	62	0	0	0	0	4	4	2	2	0	4
Hungry_Donkey_bar_English_2	168	1	<?xml version="1.0"?>\n<Clock xmlns:dt="urn:schemas-microsoft-com:datatypes"><Description dt:dt="string">E-Prime Primary Realtime Clock</Description><StartTime><Timestamp dt:dt="int">0</Timestamp><DateUtc dt:dt="string">2016-09-07T21:05:03Z</DateUtc></StartTime><FrequencyChanges><FrequencyChange><Frequency dt:dt="r8">3507675</Frequency><Timestamp dt:dt="r8">286892193994</Timestamp><Current dt:dt="r8">0</Current><DateUtc dt:dt="string">2016-09-07T21:05:03Z</DateUtc></FrequencyChange></FrequencyChanges></Clock>\n	Hungry_Donkey_bar_English_2-168-1	60.017	-25	1.0.0.18	1	-869949896	Standard	2.0.10.353	2.0.10.353	09-07-2016	9/7/2016 9:05:04 PM	17:05:04	2.0.10.248	63	Bar50-50.bmp	50	2	?	10r_4g.bmp	0r_4g.bmp	2r_2g.bmp	0r_2g.bmp		0r_4g.bmp			TrialProc	TrialList	0	cvbn	-999999	16	210120	0	v	291	210411	232	-235	-3	-14	-4	9	6	3	7	63	-10	0	-2	0	4	4	2	2	0	4
Hungry_Donkey_bar_English_2	168	1	<?xml version="1.0"?>\n<Clock xmlns:dt="urn:schemas-microsoft-com:datatypes"><Description dt:dt="string">E-Prime Primary Realtime Clock</Description><StartTime><Timestamp dt:dt="int">0</Timestamp><DateUtc dt:dt="string">2016-09-07T21:05:03Z</DateUtc></StartTime><FrequencyChanges><FrequencyChange><Frequency dt:dt="r8">3507675</Frequency><Timestamp dt:dt="r8">286892193994</Timestamp><Current dt:dt="r8">0</Current><DateUtc dt:dt="string">2016-09-07T21:05:03Z</DateUtc></FrequencyChange></FrequencyChanges></Clock>\n	Hungry_Donkey_bar_English_2-168-1	60.017	-25	1.0.0.18	1	-869949896	Standard	2.0.10.353	2.0.10.353	09-07-2016	9/7/2016 9:05:04 PM	17:05:04	2.0.10.248	64	Bar50-50.bmp	50	2	?	0r_4g.bmp	0r_4g.bmp	0r_2g.bmp	0r_2g.bmp		0r_4g.bmp			TrialProc	TrialList	0	cvbn	-999999	16	212436	0	v	327	212763	236	-235	1	-14	0	9	6	7	7	64	0	0	0	0	4	4	2	2	0	4
Hungry_Donkey_bar_English_2	168	1	<?xml version="1.0"?>\n<Clock xmlns:dt="urn:schemas-microsoft-com:datatypes"><Description dt:dt="string">E-Prime Primary Realtime Clock</Description><StartTime><Timestamp dt:dt="int">0</Timestamp><DateUtc dt:dt="string">2016-09-07T21:05:03Z</DateUtc></StartTime><FrequencyChanges><FrequencyChange><Frequency dt:dt="r8">3507675</Frequency><Timestamp dt:dt="r8">286892193994</Timestamp><Current dt:dt="r8">0</Current><DateUtc dt:dt="string">2016-09-07T21:05:03Z</DateUtc></FrequencyChange></FrequencyChanges></Clock>\n	Hungry_Donkey_bar_English_2-168-1	60.017	-25	1.0.0.18	1	-869949896	Standard	2.0.10.353	2.0.10.353	09-07-2016	9/7/2016 9:05:04 PM	17:05:04	2.0.10.248	65	Bar50-50.bmp	51	2	?	0r_4g.bmp	0r_4g.bmp	0r_2g.bmp	0r_2g.bmp		0r_4g.bmp			TrialProc	TrialList	0	cvbn	-999999	16	214802	0	v	121	214923	240	-235	5	-14	4	9	6	8	7	65	0	0	0	0	4	4	2	2	0	4
Hungry_Donkey_bar_English_2	168	1	<?xml version="1.0"?>\n<Clock xmlns:dt="urn:schemas-microsoft-com:datatypes"><Description dt:dt="string">E-Prime Primary Realtime Clock</Description><StartTime><Timestamp dt:dt="int">0</Timestamp><DateUtc dt:dt="string">2016-09-07T21:05:03Z</DateUtc></StartTime><FrequencyChanges><FrequencyChange><Frequency dt:dt="r8">3507675</Frequency><Timestamp dt:dt="r8">286892193994</Timestamp><Current dt:dt="r8">0</Current><DateUtc dt:dt="string">2016-09-07T21:05:03Z</DateUtc></FrequencyChange></FrequencyChanges></Clock>\n	Hungry_Donkey_bar_English_2-168-1	60.017	-25	1.0.0.18	1	-869949896	Standard	2.0.10.353	2.0.10.353	09-07-2016	9/7/2016 9:05:04 PM	17:05:04	2.0.10.248	66	Bar50-50.bmp	51	2	?	0r_4g.bmp	0r_4g.bmp	0r_2g.bmp	0r_2g.bmp		0r_4g.bmp			TrialProc	TrialList	0	cvbn	-999999	16	216951	0	v	4	216955	244	-235	9	-14	8	9	6	9	7	66	0	0	0	0	4	4	2	2	0	4
Hungry_Donkey_bar_English_2	168	1	<?xml version="1.0"?>\n<Clock xmlns:dt="urn:schemas-microsoft-com:datatypes"><Description dt:dt="string">E-Prime Primary Realtime Clock</Description><StartTime><Timestamp dt:dt="int">0</Timestamp><DateUtc dt:dt="string">2016-09-07T21:05:03Z</DateUtc></StartTime><FrequencyChanges><FrequencyChange><Frequency dt:dt="r8">3507675</Frequency><Timestamp dt:dt="r8">286892193994</Timestamp><Current dt:dt="r8">0</Current><DateUtc dt:dt="string">2016-09-07T21:05:03Z</DateUtc></FrequencyChange></FrequencyChanges></Clock>\n	Hungry_Donkey_bar_English_2-168-1	60.017	-25	1.0.0.18	1	-869949896	Standard	2.0.10.353	2.0.10.353	09-07-2016	9/7/2016 9:05:04 PM	17:05:04	2.0.10.248	67	Bar50-50.bmp	51	2	?	0r_4g.bmp	0r_4g.bmp	0r_2g.bmp	0r_2g.bmp		0r_4g.bmp			TrialProc	TrialList	0	cvbn	-999999	16	218984	0	v	1491	220475	248	-235	13	-14	12	9	6	6	7	67	0	0	0	0	4	4	2	2	0	4
Hungry_Donkey_bar_English_2	168	1	<?xml version="1.0"?>\n<Clock xmlns:dt="urn:schemas-microsoft-com:datatypes"><Description dt:dt="string">E-Prime Primary Realtime Clock</Description><StartTime><Timestamp dt:dt="int">0</Timestamp><DateUtc dt:dt="string">2016-09-07T21:05:03Z</DateUtc></StartTime><FrequencyChanges><FrequencyChange><Frequency dt:dt="r8">3507675</Frequency><Timestamp dt:dt="r8">286892193994</Timestamp><Current dt:dt="r8">0</Current><DateUtc dt:dt="string">2016-09-07T21:05:03Z</DateUtc></FrequencyChange></FrequencyChanges></Clock>\n	Hungry_Donkey_bar_English_2-168-1	60.017	-25	1.0.0.18	1	-869949896	Standard	2.0.10.353	2.0.10.353	09-07-2016	9/7/2016 9:05:04 PM	17:05:04	2.0.10.248	68	Bar50-50.bmp	52	2	?	12r_4g.bmp	0r_4g.bmp	3r_2g.bmp	0r_2g.bmp		0r_4g.bmp			TrialProc	TrialList	0	cvbn	-999999	16	222499	0	v	3448	225947	252	-235	17	-14	16	9	6	5	7	68	-12	0	-3	0	4	4	2	2	0	4
Hungry_Donkey_bar_English_2	168	1	<?xml version="1.0"?>\n<Clock xmlns:dt="urn:schemas-microsoft-com:datatypes"><Description dt:dt="string">E-Prime Primary Realtime Clock</Description><StartTime><Timestamp dt:dt="int">0</Timestamp><DateUtc dt:dt="string">2016-09-07T21:05:03Z</DateUtc></StartTime><FrequencyChanges><FrequencyChange><Frequency dt:dt="r8">3507675</Frequency><Timestamp dt:dt="r8">286892193994</Timestamp><Current dt:dt="r8">0</Current><DateUtc dt:dt="string">2016-09-07T21:05:03Z</DateUtc></FrequencyChange></FrequencyChanges></Clock>\n	Hungry_Donkey_bar_English_2-168-1	60.017	-25	1.0.0.18	1	-869949896	Standard	2.0.10.353	2.0.10.353	09-07-2016	9/7/2016 9:05:04 PM	17:05:04	2.0.10.248	69	Bar50-50.bmp	52	2	?	10r_4g.bmp	0r_4g.bmp	2r_2g.bmp	0r_2g.bmp		0r_4g.bmp			TrialProc	TrialList	0	cvbn	-999999	16	227981	0	v	621	228602	256	-235	21	-14	20	9	6	2	7	69	-10	0	-2	0	4	4	2	2	0	4
Hungry_Donkey_bar_English_2	168	1	<?xml version="1.0"?>\n<Clock xmlns:dt="urn:schemas-microsoft-com:datatypes"><Description dt:dt="string">E-Prime Primary Realtime Clock</Description><StartTime><Timestamp dt:dt="int">0</Timestamp><DateUtc dt:dt="string">2016-09-07T21:05:03Z</DateUtc></StartTime><FrequencyChanges><FrequencyChange><Frequency dt:dt="r8">3507675</Frequency><Timestamp dt:dt="r8">286892193994</Timestamp><Current dt:dt="r8">0</Current><DateUtc dt:dt="string">2016-09-07T21:05:03Z</DateUtc></FrequencyChange></FrequencyChanges></Clock>\n	Hungry_Donkey_bar_English_2-168-1	60.017	-25	1.0.0.18	1	-869949896	Standard	2.0.10.353	2.0.10.353	09-07-2016	9/7/2016 9:05:04 PM	17:05:04	2.0.10.248	70	Bar50-50.bmp	48	2	?	8r_4g.bmp	50r_4g.bmp	1r_2g.bmp	10r_2g.bmp		50r_4g.bmp			TrialProc	TrialList	0	cvbn	-999999	16	230630	0	v	596	231226	260	-285	-25	-14	-26	9	6	1	7	70	-8	-50	-1	-10	4	4	2	2	-50	4
Hungry_Donkey_bar_English_2	168	1	<?xml version="1.0"?>\n<Clock xmlns:dt="urn:schemas-microsoft-com:datatypes"><Description dt:dt="string">E-Prime Primary Realtime Clock</Description><StartTime><Timestamp dt:dt="int">0</Timestamp><DateUtc dt:dt="string">2016-09-07T21:05:03Z</DateUtc></StartTime><FrequencyChanges><FrequencyChange><Frequency dt:dt="r8">3507675</Frequency><Timestamp dt:dt="r8">286892193994</Timestamp><Current dt:dt="r8">0</Current><DateUtc dt:dt="string">2016-09-07T21:05:03Z</DateUtc></FrequencyChange></FrequencyChanges></Clock>\n	Hungry_Donkey_bar_English_2-168-1	60.017	-25	1.0.0.18	1	-869949896	Standard	2.0.10.353	2.0.10.353	09-07-2016	9/7/2016 9:05:04 PM	17:05:04	2.0.10.248	71	Bar50-50.bmp	48	2	?	10r_4g.bmp	0r_4g.bmp	2r_2g.bmp	0r_2g.bmp		0r_4g.bmp			TrialProc	TrialList	0	cvbn	-999999	16	233263	0	v	283	233546	264	-285	-21	-14	-22	9	6	2	8	71	-10	0	-2	0	4	4	2	2	0	4
Hungry_Donkey_bar_English_2	168	1	<?xml version="1.0"?>\n<Clock xmlns:dt="urn:schemas-microsoft-com:datatypes"><Description dt:dt="string">E-Prime Primary Realtime Clock</Description><StartTime><Timestamp dt:dt="int">0</Timestamp><DateUtc dt:dt="string">2016-09-07T21:05:03Z</DateUtc></StartTime><FrequencyChanges><FrequencyChange><Frequency dt:dt="r8">3507675</Frequency><Timestamp dt:dt="r8">286892193994</Timestamp><Current dt:dt="r8">0</Current><DateUtc dt:dt="string">2016-09-07T21:05:03Z</DateUtc></FrequencyChange></FrequencyChanges></Clock>\n	Hungry_Donkey_bar_English_2-168-1	60.017	-25	1.0.0.18	1	-869949896	Standard	2.0.10.353	2.0.10.353	09-07-2016	9/7/2016 9:05:04 PM	17:05:04	2.0.10.248	72	Bar50-50.bmp	48	2	?	10r_4g.bmp	0r_4g.bmp	2r_2g.bmp	0r_2g.bmp		0r_4g.bmp			TrialProc	TrialList	0	cvbn	-999999	16	235579	0	v	431	236010	268	-285	-17	-14	-18	9	6	4	8	72	-10	0	-2	0	4	4	2	2	0	4
Hungry_Donkey_bar_English_2	168	1	<?xml version="1.0"?>\n<Clock xmlns:dt="urn:schemas-microsoft-com:datatypes"><Description dt:dt="string">E-Prime Primary Realtime Clock</Description><StartTime><Timestamp dt:dt="int">0</Timestamp><DateUtc dt:dt="string">2016-09-07T21:05:03Z</DateUtc></StartTime><FrequencyChanges><FrequencyChange><Frequency dt:dt="r8">3507675</Frequency><Timestamp dt:dt="r8">286892193994</Timestamp><Current dt:dt="r8">0</Current><DateUtc dt:dt="string">2016-09-07T21:05:03Z</DateUtc></FrequencyChange></FrequencyChanges></Clock>\n	Hungry_Donkey_bar_English_2-168-1	60.017	-25	1.0.0.18	1	-869949896	Standard	2.0.10.353	2.0.10.353	09-07-2016	9/7/2016 9:05:04 PM	17:05:04	2.0.10.248	73	Bar50-50.bmp	49	2	?	0r_4g.bmp	0r_4g.bmp	0r_2g.bmp	0r_2g.bmp		0r_4g.bmp			TrialProc	TrialList	0	cvbn	-999999	16	238045	0	v	237	238282	272	-285	-13	-14	-14	9	6	6	8	73	0	0	0	0	4	4	2	2	0	4
Hungry_Donkey_bar_English_2	168	1	<?xml version="1.0"?>\n<Clock xmlns:dt="urn:schemas-microsoft-com:datatypes"><Description dt:dt="string">E-Prime Primary Realtime Clock</Description><StartTime><Timestamp dt:dt="int">0</Timestamp><DateUtc dt:dt="string">2016-09-07T21:05:03Z</DateUtc></StartTime><FrequencyChanges><FrequencyChange><Frequency dt:dt="r8">3507675</Frequency><Timestamp dt:dt="r8">286892193994</Timestamp><Current dt:dt="r8">0</Current><DateUtc dt:dt="string">2016-09-07T21:05:03Z</DateUtc></FrequencyChange></FrequencyChanges></Clock>\n	Hungry_Donkey_bar_English_2-168-1	60.017	-25	1.0.0.18	1	-869949896	Standard	2.0.10.353	2.0.10.353	09-07-2016	9/7/2016 9:05:04 PM	17:05:04	2.0.10.248	74	Bar50-50.bmp	49	2	?	0r_4g.bmp	0r_4g.bmp	0r_2g.bmp	0r_2g.bmp		0r_4g.bmp			TrialProc	TrialList	0	cvbn	-999999	16	240311	0	v	643	240954	276	-285	-9	-14	-10	9	6	10	8	74	0	0	0	0	4	4	2	2	0	4
Hungry_Donkey_bar_English_2	168	1	<?xml version="1.0"?>\n<Clock xmlns:dt="urn:schemas-microsoft-com:datatypes"><Description dt:dt="string">E-Prime Primary Realtime Clock</Description><StartTime><Timestamp dt:dt="int">0</Timestamp><DateUtc dt:dt="string">2016-09-07T21:05:03Z</DateUtc></StartTime><FrequencyChanges><FrequencyChange><Frequency dt:dt="r8">3507675</Frequency><Timestamp dt:dt="r8">286892193994</Timestamp><Current dt:dt="r8">0</Current><DateUtc dt:dt="string">2016-09-07T21:05:03Z</DateUtc></FrequencyChange></FrequencyChanges></Clock>\n	Hungry_Donkey_bar_English_2-168-1	60.017	-25	1.0.0.18	1	-869949896	Standard	2.0.10.353	2.0.10.353	09-07-2016	9/7/2016 9:05:04 PM	17:05:04	2.0.10.248	75	Bar50-50.bmp	50	2	?	0r_4g.bmp	0r_4g.bmp	0r_2g.bmp	0r_2g.bmp		0r_4g.bmp			TrialProc	TrialList	0	cvbn	-999999	17	242994	0	v	488	243482	280	-285	-5	-14	-6	9	6	9	8	75	0	0	0	0	4	4	2	2	0	4
Hungry_Donkey_bar_English_2	168	1	<?xml version="1.0"?>\n<Clock xmlns:dt="urn:schemas-microsoft-com:datatypes"><Description dt:dt="string">E-Prime Primary Realtime Clock</Description><StartTime><Timestamp dt:dt="int">0</Timestamp><DateUtc dt:dt="string">2016-09-07T21:05:03Z</DateUtc></StartTime><FrequencyChanges><FrequencyChange><Frequency dt:dt="r8">3507675</Frequency><Timestamp dt:dt="r8">286892193994</Timestamp><Current dt:dt="r8">0</Current><DateUtc dt:dt="string">2016-09-07T21:05:03Z</DateUtc></FrequencyChange></FrequencyChanges></Clock>\n	Hungry_Donkey_bar_English_2-168-1	60.017	-25	1.0.0.18	1	-869949896	Standard	2.0.10.353	2.0.10.353	09-07-2016	9/7/2016 9:05:04 PM	17:05:04	2.0.10.248	76	Bar50-50.bmp	50	2	?	12r_4g.bmp	0r_4g.bmp	3r_2g.bmp	0r_2g.bmp		0r_4g.bmp			TrialProc	TrialList	0	cvbn	-999999	16	245509	0	v	581	246090	284	-285	-1	-14	-2	9	6	5	8	76	-12	0	-3	0	4	4	2	2	0	4
Hungry_Donkey_bar_English_2	168	1	<?xml version="1.0"?>\n<Clock xmlns:dt="urn:schemas-microsoft-com:datatypes"><Description dt:dt="string">E-Prime Primary Realtime Clock</Description><StartTime><Timestamp dt:dt="int">0</Timestamp><DateUtc dt:dt="string">2016-09-07T21:05:03Z</DateUtc></StartTime><FrequencyChanges><FrequencyChange><Frequency dt:dt="r8">3507675</Frequency><Timestamp dt:dt="r8">286892193994</Timestamp><Current dt:dt="r8">0</Current><DateUtc dt:dt="string">2016-09-07T21:05:03Z</DateUtc></FrequencyChange></FrequencyChanges></Clock>\n	Hungry_Donkey_bar_English_2-168-1	60.017	-25	1.0.0.18	1	-869949896	Standard	2.0.10.353	2.0.10.353	09-07-2016	9/7/2016 9:05:04 PM	17:05:04	2.0.10.248	77	Bar50-50.bmp	50	2	?	0r_4g.bmp	0r_4g.bmp	0r_2g.bmp	0r_2g.bmp		0r_4g.bmp			TrialProc	TrialList	0	cvbn	-999999	16	248125	0	v	253	248378	288	-285	3	-14	2	9	6	7	8	77	0	0	0	0	4	4	2	2	0	4
Hungry_Donkey_bar_English_2	168	1	<?xml version="1.0"?>\n<Clock xmlns:dt="urn:schemas-microsoft-com:datatypes"><Description dt:dt="string">E-Prime Primary Realtime Clock</Description><StartTime><Timestamp dt:dt="int">0</Timestamp><DateUtc dt:dt="string">2016-09-07T21:05:03Z</DateUtc></StartTime><FrequencyChanges><FrequencyChange><Frequency dt:dt="r8">3507675</Frequency><Timestamp dt:dt="r8">286892193994</Timestamp><Current dt:dt="r8">0</Current><DateUtc dt:dt="string">2016-09-07T21:05:03Z</DateUtc></FrequencyChange></FrequencyChanges></Clock>\n	Hungry_Donkey_bar_English_2-168-1	60.017	-25	1.0.0.18	1	-869949896	Standard	2.0.10.353	2.0.10.353	09-07-2016	9/7/2016 9:05:04 PM	17:05:04	2.0.10.248	78	Bar50-50.bmp	51	2	?	0r_4g.bmp	0r_4g.bmp	0r_2g.bmp	0r_2g.bmp		0r_4g.bmp			TrialProc	TrialList	0	cvbn	-999999	16	250408	0	v	529	250937	292	-285	7	-14	6	9	6	8	8	78	0	0	0	0	4	4	2	2	0	4
Hungry_Donkey_bar_English_2	168	1	<?xml version="1.0"?>\n<Clock xmlns:dt="urn:schemas-microsoft-com:datatypes"><Description dt:dt="string">E-Prime Primary Realtime Clock</Description><StartTime><Timestamp dt:dt="int">0</Timestamp><DateUtc dt:dt="string">2016-09-07T21:05:03Z</DateUtc></StartTime><FrequencyChanges><FrequencyChange><Frequency dt:dt="r8">3507675</Frequency><Timestamp dt:dt="r8">286892193994</Timestamp><Current dt:dt="r8">0</Current><DateUtc dt:dt="string">2016-09-07T21:05:03Z</DateUtc></FrequencyChange></FrequencyChanges></Clock>\n	Hungry_Donkey_bar_English_2-168-1	60.017	-25	1.0.0.18	1	-869949896	Standard	2.0.10.353	2.0.10.353	09-07-2016	9/7/2016 9:05:04 PM	17:05:04	2.0.10.248	79	Bar50-50.bmp	51	2	?	10r_4g.bmp	0r_4g.bmp	2r_2g.bmp	0r_2g.bmp		0r_4g.bmp			TrialProc	TrialList	0	cvbn	-999999	16	252974	0	v	539	253513	296	-285	11	-14	10	9	6	3	8	79	-10	0	-2	0	4	4	2	2	0	4
Hungry_Donkey_bar_English_2	168	1	<?xml version="1.0"?>\n<Clock xmlns:dt="urn:schemas-microsoft-com:datatypes"><Description dt:dt="string">E-Prime Primary Realtime Clock</Description><StartTime><Timestamp dt:dt="int">0</Timestamp><DateUtc dt:dt="string">2016-09-07T21:05:03Z</DateUtc></StartTime><FrequencyChanges><FrequencyChange><Frequency dt:dt="r8">3507675</Frequency><Timestamp dt:dt="r8">286892193994</Timestamp><Current dt:dt="r8">0</Current><DateUtc dt:dt="string">2016-09-07T21:05:03Z</DateUtc></FrequencyChange></FrequencyChanges></Clock>\n	Hungry_Donkey_bar_English_2-168-1	60.017	-25	1.0.0.18	1	-869949896	Standard	2.0.10.353	2.0.10.353	09-07-2016	9/7/2016 9:05:04 PM	17:05:04	2.0.10.248	80	Bar50-50.bmp	47	2	?	8r_4g.bmp	50r_4g.bmp	1r_2g.bmp	10r_2g.bmp		50r_4g.bmp			TrialProc	TrialList	0	cvbn	-999999	16	255540	0	v	261	255801	300	-335	-35	-14	-36	9	6	1	8	80	-8	-50	-1	-10	4	4	2	2	-50	4
Hungry_Donkey_bar_English_2	168	1	<?xml version="1.0"?>\n<Clock xmlns:dt="urn:schemas-microsoft-com:datatypes"><Description dt:dt="string">E-Prime Primary Realtime Clock</Description><StartTime><Timestamp dt:dt="int">0</Timestamp><DateUtc dt:dt="string">2016-09-07T21:05:03Z</DateUtc></StartTime><FrequencyChanges><FrequencyChange><Frequency dt:dt="r8">3507675</Frequency><Timestamp dt:dt="r8">286892193994</Timestamp><Current dt:dt="r8">0</Current><DateUtc dt:dt="string">2016-09-07T21:05:03Z</DateUtc></FrequencyChange></FrequencyChanges></Clock>\n	Hungry_Donkey_bar_English_2-168-1	60.017	-25	1.0.0.18	1	-869949896	Standard	2.0.10.353	2.0.10.353	09-07-2016	9/7/2016 9:05:04 PM	17:05:04	2.0.10.248	81	Bar50-50.bmp	48	2	?	10r_4g.bmp	0r_4g.bmp	2r_2g.bmp	0r_2g.bmp		0r_4g.bmp			TrialProc	TrialList	0	cvbn	-999999	16	257839	0	v	506	258345	304	-335	-31	-14	-32	9	6	3	9	81	-10	0	-2	0	4	4	2	2	0	4
Hungry_Donkey_bar_English_2	168	1	<?xml version="1.0"?>\n<Clock xmlns:dt="urn:schemas-microsoft-com:datatypes"><Description dt:dt="string">E-Prime Primary Realtime Clock</Description><StartTime><Timestamp dt:dt="int">0</Timestamp><DateUtc dt:dt="string">2016-09-07T21:05:03Z</DateUtc></StartTime><FrequencyChanges><FrequencyChange><Frequency dt:dt="r8">3507675</Frequency><Timestamp dt:dt="r8">286892193994</Timestamp><Current dt:dt="r8">0</Current><DateUtc dt:dt="string">2016-09-07T21:05:03Z</DateUtc></FrequencyChange></FrequencyChanges></Clock>\n	Hungry_Donkey_bar_English_2-168-1	60.017	-25	1.0.0.18	1	-869949896	Standard	2.0.10.353	2.0.10.353	09-07-2016	9/7/2016 9:05:04 PM	17:05:04	2.0.10.248	82	Bar50-50.bmp	48	2	?	10r_4g.bmp	0r_4g.bmp	2r_2g.bmp	0r_2g.bmp		0r_4g.bmp			TrialProc	TrialList	0	cvbn	-999999	16	260372	0	v	1029	261401	308	-335	-27	-14	-28	9	6	2	9	82	-10	0	-2	0	4	4	2	2	0	4
Hungry_Donkey_bar_English_2	168	1	<?xml version="1.0"?>\n<Clock xmlns:dt="urn:schemas-microsoft-com:datatypes"><Description dt:dt="string">E-Prime Primary Realtime Clock</Description><StartTime><Timestamp dt:dt="int">0</Timestamp><DateUtc dt:dt="string">2016-09-07T21:05:03Z</DateUtc></StartTime><FrequencyChanges><FrequencyChange><Frequency dt:dt="r8">3507675</Frequency><Timestamp dt:dt="r8">286892193994</Timestamp><Current dt:dt="r8">0</Current><DateUtc dt:dt="string">2016-09-07T21:05:03Z</DateUtc></FrequencyChange></FrequencyChanges></Clock>\n	Hungry_Donkey_bar_English_2-168-1	60.017	-25	1.0.0.18	1	-869949896	Standard	2.0.10.353	2.0.10.353	09-07-2016	9/7/2016 9:05:04 PM	17:05:04	2.0.10.248	83	Bar50-50.bmp	48	3	?	12r_4g.bmp	0r_4g.bmp	3r_2g.bmp	0r_2g.bmp			3r_2g.bmp		TrialProc	TrialList	0	cvbn	-999999	16	263438	0	b	2859	266297	310	-338	-28	-14	-28	8	6	5	9	83	-12	0	-3	0	4	4	2	2	-3	2
Hungry_Donkey_bar_English_2	168	1	<?xml version="1.0"?>\n<Clock xmlns:dt="urn:schemas-microsoft-com:datatypes"><Description dt:dt="string">E-Prime Primary Realtime Clock</Description><StartTime><Timestamp dt:dt="int">0</Timestamp><DateUtc dt:dt="string">2016-09-07T21:05:03Z</DateUtc></StartTime><FrequencyChanges><FrequencyChange><Frequency dt:dt="r8">3507675</Frequency><Timestamp dt:dt="r8">286892193994</Timestamp><Current dt:dt="r8">0</Current><DateUtc dt:dt="string">2016-09-07T21:05:03Z</DateUtc></FrequencyChange></FrequencyChanges></Clock>\n	Hungry_Donkey_bar_English_2-168-1	60.017	-25	1.0.0.18	1	-869949896	Standard	2.0.10.353	2.0.10.353	09-07-2016	9/7/2016 9:05:04 PM	17:05:04	2.0.10.248	84	Bar50-50.bmp	48	2	?	0r_4g.bmp	0r_4g.bmp	0r_2g.bmp	0r_2g.bmp		0r_4g.bmp			TrialProc	TrialList	0	cvbn	-999999	16	268336	0	v	1257	269593	314	-338	-24	-14	-24	8	6	9	9	84	0	0	0	0	4	4	2	2	0	4
Hungry_Donkey_bar_English_2	168	1	<?xml version="1.0"?>\n<Clock xmlns:dt="urn:schemas-microsoft-com:datatypes"><Description dt:dt="string">E-Prime Primary Realtime Clock</Description><StartTime><Timestamp dt:dt="int">0</Timestamp><DateUtc dt:dt="string">2016-09-07T21:05:03Z</DateUtc></StartTime><FrequencyChanges><FrequencyChange><Frequency dt:dt="r8">3507675</Frequency><Timestamp dt:dt="r8">286892193994</Timestamp><Current dt:dt="r8">0</Current><DateUtc dt:dt="string">2016-09-07T21:05:03Z</DateUtc></FrequencyChange></FrequencyChanges></Clock>\n	Hungry_Donkey_bar_English_2-168-1	60.017	-25	1.0.0.18	1	-869949896	Standard	2.0.10.353	2.0.10.353	09-07-2016	9/7/2016 9:05:04 PM	17:05:04	2.0.10.248	85	Bar50-50.bmp	45	2	?	8r_4g.bmp	50r_4g.bmp	1r_2g.bmp	10r_2g.bmp		50r_4g.bmp			TrialProc	TrialList	0	cvbn	-999999	16	271619	0	v	533	272152	318	-388	-70	-14	-70	8	6	1	9	85	-8	-50	-1	-10	4	4	2	2	-50	4
Hungry_Donkey_bar_English_2	168	1	<?xml version="1.0"?>\n<Clock xmlns:dt="urn:schemas-microsoft-com:datatypes"><Description dt:dt="string">E-Prime Primary Realtime Clock</Description><StartTime><Timestamp dt:dt="int">0</Timestamp><DateUtc dt:dt="string">2016-09-07T21:05:03Z</DateUtc></StartTime><FrequencyChanges><FrequencyChange><Frequency dt:dt="r8">3507675</Frequency><Timestamp dt:dt="r8">286892193994</Timestamp><Current dt:dt="r8">0</Current><DateUtc dt:dt="string">2016-09-07T21:05:03Z</DateUtc></FrequencyChange></FrequencyChanges></Clock>\n	Hungry_Donkey_bar_English_2-168-1	60.017	-25	1.0.0.18	1	-869949896	Standard	2.0.10.353	2.0.10.353	09-07-2016	9/7/2016 9:05:04 PM	17:05:04	2.0.10.248	86	Bar50-50.bmp	45	2	?	0r_4g.bmp	0r_4g.bmp	0r_2g.bmp	0r_2g.bmp		0r_4g.bmp			TrialProc	TrialList	0	cvbn	-999999	16	274185	0	v	367	274552	322	-388	-66	-14	-66	8	6	10	9	86	0	0	0	0	4	4	2	2	0	4
Hungry_Donkey_bar_English_2	168	1	<?xml version="1.0"?>\n<Clock xmlns:dt="urn:schemas-microsoft-com:datatypes"><Description dt:dt="string">E-Prime Primary Realtime Clock</Description><StartTime><Timestamp dt:dt="int">0</Timestamp><DateUtc dt:dt="string">2016-09-07T21:05:03Z</DateUtc></StartTime><FrequencyChanges><FrequencyChange><Frequency dt:dt="r8">3507675</Frequency><Timestamp dt:dt="r8">286892193994</Timestamp><Current dt:dt="r8">0</Current><DateUtc dt:dt="string">2016-09-07T21:05:03Z</DateUtc></FrequencyChange></FrequencyChanges></Clock>\n	Hungry_Donkey_bar_English_2-168-1	60.017	-25	1.0.0.18	1	-869949896	Standard	2.0.10.353	2.0.10.353	09-07-2016	9/7/2016 9:05:04 PM	17:05:04	2.0.10.248	87	Bar50-50.bmp	46	1	?	0r_4g.bmp	0r_4g.bmp	0r_2g.bmp	0r_2g.bmp	0r_4g.bmp				TrialProc	TrialList	0	cvbn	-999999	16	276584	0	c	592	277176	326	-388	-62	-10	-66	8	6	7	9	87	0	0	0	0	4	4	2	2	0	4
Hungry_Donkey_bar_English_2	168	1	<?xml version="1.0"?>\n<Clock xmlns:dt="urn:schemas-microsoft-com:datatypes"><Description dt:dt="string">E-Prime Primary Realtime Clock</Description><StartTime><Timestamp dt:dt="int">0</Timestamp><DateUtc dt:dt="string">2016-09-07T21:05:03Z</DateUtc></StartTime><FrequencyChanges><FrequencyChange><Frequency dt:dt="r8">3507675</Frequency><Timestamp dt:dt="r8">286892193994</Timestamp><Current dt:dt="r8">0</Current><DateUtc dt:dt="string">2016-09-07T21:05:03Z</DateUtc></FrequencyChange></FrequencyChanges></Clock>\n	Hungry_Donkey_bar_English_2-168-1	60.017	-25	1.0.0.18	1	-869949896	Standard	2.0.10.353	2.0.10.353	09-07-2016	9/7/2016 9:05:04 PM	17:05:04	2.0.10.248	88	Bar50-50.bmp	46	4	?	0r_4g.bmp	0r_4g.bmp	0r_2g.bmp	0r_2g.bmp				0r_2g.bmp	TrialProc	TrialList	0	cvbn	-999999	16	279200	0	n	2024	281224	328	-388	-60	-10	-66	8	8	6	9	88	0	0	0	0	4	4	2	2	0	2
Hungry_Donkey_bar_English_2	168	1	<?xml version="1.0"?>\n<Clock xmlns:dt="urn:schemas-microsoft-com:datatypes"><Description dt:dt="string">E-Prime Primary Realtime Clock</Description><StartTime><Timestamp dt:dt="int">0</Timestamp><DateUtc dt:dt="string">2016-09-07T21:05:03Z</DateUtc></StartTime><FrequencyChanges><FrequencyChange><Frequency dt:dt="r8">3507675</Frequency><Timestamp dt:dt="r8">286892193994</Timestamp><Current dt:dt="r8">0</Current><DateUtc dt:dt="string">2016-09-07T21:05:03Z</DateUtc></FrequencyChange></FrequencyChanges></Clock>\n	Hungry_Donkey_bar_English_2-168-1	60.017	-25	1.0.0.18	1	-869949896	Standard	2.0.10.353	2.0.10.353	09-07-2016	9/7/2016 9:05:04 PM	17:05:04	2.0.10.248	89	Bar50-50.bmp	46	3	?	10r_4g.bmp	0r_4g.bmp	2r_2g.bmp	0r_2g.bmp			2r_2g.bmp		TrialProc	TrialList	0	cvbn	-999999	16	283265	0	b	455	283720	330	-390	-60	-10	-66	8	8	4	9	89	-10	0	-2	0	4	4	2	2	-2	2
Hungry_Donkey_bar_English_2	168	1	<?xml version="1.0"?>\n<Clock xmlns:dt="urn:schemas-microsoft-com:datatypes"><Description dt:dt="string">E-Prime Primary Realtime Clock</Description><StartTime><Timestamp dt:dt="int">0</Timestamp><DateUtc dt:dt="string">2016-09-07T21:05:03Z</DateUtc></StartTime><FrequencyChanges><FrequencyChange><Frequency dt:dt="r8">3507675</Frequency><Timestamp dt:dt="r8">286892193994</Timestamp><Current dt:dt="r8">0</Current><DateUtc dt:dt="string">2016-09-07T21:05:03Z</DateUtc></FrequencyChange></FrequencyChanges></Clock>\n	Hungry_Donkey_bar_English_2-168-1	60.017	-25	1.0.0.18	1	-869949896	Standard	2.0.10.353	2.0.10.353	09-07-2016	9/7/2016 9:05:04 PM	17:05:04	2.0.10.248	90	Bar50-50.bmp	46	2	?	0r_4g.bmp	0r_4g.bmp	0r_2g.bmp	0r_2g.bmp		0r_4g.bmp			TrialProc	TrialList	0	cvbn	-999999	16	285748	0	v	388	286136	334	-390	-56	-10	-62	8	8	8	9	90	0	0	0	0	4	4	2	2	0	4
Hungry_Donkey_bar_English_2	168	1	<?xml version="1.0"?>\n<Clock xmlns:dt="urn:schemas-microsoft-com:datatypes"><Description dt:dt="string">E-Prime Primary Realtime Clock</Description><StartTime><Timestamp dt:dt="int">0</Timestamp><DateUtc dt:dt="string">2016-09-07T21:05:03Z</DateUtc></StartTime><FrequencyChanges><FrequencyChange><Frequency dt:dt="r8">3507675</Frequency><Timestamp dt:dt="r8">286892193994</Timestamp><Current dt:dt="r8">0</Current><DateUtc dt:dt="string">2016-09-07T21:05:03Z</DateUtc></FrequencyChange></FrequencyChanges></Clock>\n	Hungry_Donkey_bar_English_2-168-1	60.017	-25	1.0.0.18	1	-869949896	Standard	2.0.10.353	2.0.10.353	09-07-2016	9/7/2016 9:05:04 PM	17:05:04	2.0.10.248	91	Bar50-50.bmp	46	1	?	0r_4g.bmp	0r_4g.bmp	0r_2g.bmp	0r_2g.bmp	0r_4g.bmp				TrialProc	TrialList	0	cvbn	-999999	16	288164	0	c	324	288488	338	-390	-52	-6	-62	8	8	8	10	91	0	0	0	0	4	4	2	2	0	4
Hungry_Donkey_bar_English_2	168	1	<?xml version="1.0"?>\n<Clock xmlns:dt="urn:schemas-microsoft-com:datatypes"><Description dt:dt="string">E-Prime Primary Realtime Clock</Description><StartTime><Timestamp dt:dt="int">0</Timestamp><DateUtc dt:dt="string">2016-09-07T21:05:03Z</DateUtc></StartTime><FrequencyChanges><FrequencyChange><Frequency dt:dt="r8">3507675</Frequency><Timestamp dt:dt="r8">286892193994</Timestamp><Current dt:dt="r8">0</Current><DateUtc dt:dt="string">2016-09-07T21:05:03Z</DateUtc></FrequencyChange></FrequencyChanges></Clock>\n	Hungry_Donkey_bar_English_2-168-1	60.017	-25	1.0.0.18	1	-869949896	Standard	2.0.10.353	2.0.10.353	09-07-2016	9/7/2016 9:05:04 PM	17:05:04	2.0.10.248	92	Bar50-50.bmp	46	1	?	8r_4g.bmp	50r_4g.bmp	1r_2g.bmp	10r_2g.bmp	8r_4g.bmp				TrialProc	TrialList	0	cvbn	-999999	16	290513	0	c	38	290551	342	-398	-56	-10	-62	8	8	1	10	92	-8	-50	-1	-10	4	4	2	2	-8	4
Hungry_Donkey_bar_English_2	168	1	<?xml version="1.0"?>\n<Clock xmlns:dt="urn:schemas-microsoft-com:datatypes"><Description dt:dt="string">E-Prime Primary Realtime Clock</Description><StartTime><Timestamp dt:dt="int">0</Timestamp><DateUtc dt:dt="string">2016-09-07T21:05:03Z</DateUtc></StartTime><FrequencyChanges><FrequencyChange><Frequency dt:dt="r8">3507675</Frequency><Timestamp dt:dt="r8">286892193994</Timestamp><Current dt:dt="r8">0</Current><DateUtc dt:dt="string">2016-09-07T21:05:03Z</DateUtc></FrequencyChange></FrequencyChanges></Clock>\n	Hungry_Donkey_bar_English_2-168-1	60.017	-25	1.0.0.18	1	-869949896	Standard	2.0.10.353	2.0.10.353	09-07-2016	9/7/2016 9:05:04 PM	17:05:04	2.0.10.248	93	Bar50-50.bmp	47	1	?	0r_4g.bmp	0r_4g.bmp	0r_2g.bmp	0r_2g.bmp	0r_4g.bmp				TrialProc	TrialList	0	cvbn	-999999	16	292579	0	c	484	293063	346	-398	-52	-6	-62	8	8	6	10	93	0	0	0	0	4	4	2	2	0	4
Hungry_Donkey_bar_English_2	168	1	<?xml version="1.0"?>\n<Clock xmlns:dt="urn:schemas-microsoft-com:datatypes"><Description dt:dt="string">E-Prime Primary Realtime Clock</Description><StartTime><Timestamp dt:dt="int">0</Timestamp><DateUtc dt:dt="string">2016-09-07T21:05:03Z</DateUtc></StartTime><FrequencyChanges><FrequencyChange><Frequency dt:dt="r8">3507675</Frequency><Timestamp dt:dt="r8">286892193994</Timestamp><Current dt:dt="r8">0</Current><DateUtc dt:dt="string">2016-09-07T21:05:03Z</DateUtc></FrequencyChange></FrequencyChanges></Clock>\n	Hungry_Donkey_bar_English_2-168-1	60.017	-25	1.0.0.18	1	-869949896	Standard	2.0.10.353	2.0.10.353	09-07-2016	9/7/2016 9:05:04 PM	17:05:04	2.0.10.248	94	Bar50-50.bmp	47	1	?	0r_4g.bmp	0r_4g.bmp	0r_2g.bmp	0r_2g.bmp	0r_4g.bmp				TrialProc	TrialList	0	cvbn	-999999	16	295095	0	c	480	295575	350	-398	-48	-2	-62	8	8	9	10	94	0	0	0	0	4	4	2	2	0	4
Hungry_Donkey_bar_English_2	168	1	<?xml version="1.0"?>\n<Clock xmlns:dt="urn:schemas-microsoft-com:datatypes"><Description dt:dt="string">E-Prime Primary Realtime Clock</Description><StartTime><Timestamp dt:dt="int">0</Timestamp><DateUtc dt:dt="string">2016-09-07T21:05:03Z</DateUtc></StartTime><FrequencyChanges><FrequencyChange><Frequency dt:dt="r8">3507675</Frequency><Timestamp dt:dt="r8">286892193994</Timestamp><Current dt:dt="r8">0</Current><DateUtc dt:dt="string">2016-09-07T21:05:03Z</DateUtc></FrequencyChange></FrequencyChanges></Clock>\n	Hungry_Donkey_bar_English_2-168-1	60.017	-25	1.0.0.18	1	-869949896	Standard	2.0.10.353	2.0.10.353	09-07-2016	9/7/2016 9:05:04 PM	17:05:04	2.0.10.248	95	Bar50-50.bmp	47	1	?	0r_4g.bmp	0r_4g.bmp	0r_2g.bmp	0r_2g.bmp	0r_4g.bmp				TrialProc	TrialList	0	cvbn	-999999	16	297611	0	c	572	298183	354	-398	-44	2	-62	8	8	10	10	95	0	0	0	0	4	4	2	2	0	4
Hungry_Donkey_bar_English_2	168	1	<?xml version="1.0"?>\n<Clock xmlns:dt="urn:schemas-microsoft-com:datatypes"><Description dt:dt="string">E-Prime Primary Realtime Clock</Description><StartTime><Timestamp dt:dt="int">0</Timestamp><DateUtc dt:dt="string">2016-09-07T21:05:03Z</DateUtc></StartTime><FrequencyChanges><FrequencyChange><Frequency dt:dt="r8">3507675</Frequency><Timestamp dt:dt="r8">286892193994</Timestamp><Current dt:dt="r8">0</Current><DateUtc dt:dt="string">2016-09-07T21:05:03Z</DateUtc></FrequencyChange></FrequencyChanges></Clock>\n	Hungry_Donkey_bar_English_2-168-1	60.017	-25	1.0.0.18	1	-869949896	Standard	2.0.10.353	2.0.10.353	09-07-2016	9/7/2016 9:05:04 PM	17:05:04	2.0.10.248	96	Bar50-50.bmp	47	1	?	12r_4g.bmp	0r_4g.bmp	3r_2g.bmp	0r_2g.bmp	12r_4g.bmp				TrialProc	TrialList	0	cvbn	-999999	17	300211	0	c	484	300695	358	-410	-52	-6	-62	8	8	5	10	96	-12	0	-3	0	4	4	2	2	-12	4
Hungry_Donkey_bar_English_2	168	1	<?xml version="1.0"?>\n<Clock xmlns:dt="urn:schemas-microsoft-com:datatypes"><Description dt:dt="string">E-Prime Primary Realtime Clock</Description><StartTime><Timestamp dt:dt="int">0</Timestamp><DateUtc dt:dt="string">2016-09-07T21:05:03Z</DateUtc></StartTime><FrequencyChanges><FrequencyChange><Frequency dt:dt="r8">3507675</Frequency><Timestamp dt:dt="r8">286892193994</Timestamp><Current dt:dt="r8">0</Current><DateUtc dt:dt="string">2016-09-07T21:05:03Z</DateUtc></FrequencyChange></FrequencyChanges></Clock>\n	Hungry_Donkey_bar_English_2-168-1	60.017	-25	1.0.0.18	1	-869949896	Standard	2.0.10.353	2.0.10.353	09-07-2016	9/7/2016 9:05:04 PM	17:05:04	2.0.10.248	97	Bar50-50.bmp	47	1	?	0r_4g.bmp	0r_4g.bmp	0r_2g.bmp	0r_2g.bmp	0r_4g.bmp				TrialProc	TrialList	0	cvbn	-999999	16	302726	0	c	609	303335	362	-410	-48	-2	-62	8	8	7	10	97	0	0	0	0	4	4	2	2	0	4
Hungry_Donkey_bar_English_2	168	1	<?xml version="1.0"?>\n<Clock xmlns:dt="urn:schemas-microsoft-com:datatypes"><Description dt:dt="string">E-Prime Primary Realtime Clock</Description><StartTime><Timestamp dt:dt="int">0</Timestamp><DateUtc dt:dt="string">2016-09-07T21:05:03Z</DateUtc></StartTime><FrequencyChanges><FrequencyChange><Frequency dt:dt="r8">3507675</Frequency><Timestamp dt:dt="r8">286892193994</Timestamp><Current dt:dt="r8">0</Current><DateUtc dt:dt="string">2016-09-07T21:05:03Z</DateUtc></FrequencyChange></FrequencyChanges></Clock>\n	Hungry_Donkey_bar_English_2-168-1	60.017	-25	1.0.0.18	1	-869949896	Standard	2.0.10.353	2.0.10.353	09-07-2016	9/7/2016 9:05:04 PM	17:05:04	2.0.10.248	98	Bar50-50.bmp	47	2	?	10r_4g.bmp	0r_4g.bmp	2r_2g.bmp	0r_2g.bmp		0r_4g.bmp			TrialProc	TrialList	0	cvbn	-999999	16	305359	0	v	792	306151	366	-410	-44	-2	-58	8	8	2	10	98	-10	0	-2	0	4	4	2	2	0	4
Hungry_Donkey_bar_English_2	168	1	<?xml version="1.0"?>\n<Clock xmlns:dt="urn:schemas-microsoft-com:datatypes"><Description dt:dt="string">E-Prime Primary Realtime Clock</Description><StartTime><Timestamp dt:dt="int">0</Timestamp><DateUtc dt:dt="string">2016-09-07T21:05:03Z</DateUtc></StartTime><FrequencyChanges><FrequencyChange><Frequency dt:dt="r8">3507675</Frequency><Timestamp dt:dt="r8">286892193994</Timestamp><Current dt:dt="r8">0</Current><DateUtc dt:dt="string">2016-09-07T21:05:03Z</DateUtc></FrequencyChange></FrequencyChanges></Clock>\n	Hungry_Donkey_bar_English_2-168-1	60.017	-25	1.0.0.18	1	-869949896	Standard	2.0.10.353	2.0.10.353	09-07-2016	9/7/2016 9:05:04 PM	17:05:04	2.0.10.248	99	Bar50-50.bmp	47	2	?	10r_4g.bmp	0r_4g.bmp	2r_2g.bmp	0r_2g.bmp		0r_4g.bmp			TrialProc	TrialList	0	cvbn	-999999	16	308175	0	v	952	309127	370	-410	-40	-2	-54	8	8	3	10	99	-10	0	-2	0	4	4	2	2	0	4
Hungry_Donkey_bar_English_2	168	1	<?xml version="1.0"?>\n<Clock xmlns:dt="urn:schemas-microsoft-com:datatypes"><Description dt:dt="string">E-Prime Primary Realtime Clock</Description><StartTime><Timestamp dt:dt="int">0</Timestamp><DateUtc dt:dt="string">2016-09-07T21:05:03Z</DateUtc></StartTime><FrequencyChanges><FrequencyChange><Frequency dt:dt="r8">3507675</Frequency><Timestamp dt:dt="r8">286892193994</Timestamp><Current dt:dt="r8">0</Current><DateUtc dt:dt="string">2016-09-07T21:05:03Z</DateUtc></FrequencyChange></FrequencyChanges></Clock>\n	Hungry_Donkey_bar_English_2-168-1	60.017	-25	1.0.0.18	1	-869949896	Standard	2.0.10.353	2.0.10.353	09-07-2016	9/7/2016 9:05:04 PM	17:05:04	2.0.10.248	100	Bar50-50.bmp	48	2	?	10r_4g.bmp	0r_4g.bmp	2r_2g.bmp	0r_2g.bmp		0r_4g.bmp			TrialProc	TrialList	0	cvbn	-999999	16	311157	0	v	769	311926	374	-410	-36	-2	-50	8	8	4	10	100	-10	0	-2	0	4	4	2	2	0	4
Hungry_Donkey_bar_English_2	168	1	<?xml version="1.0"?>\n<Clock xmlns:dt="urn:schemas-microsoft-com:datatypes"><Description dt:dt="string">E-Prime Primary Realtime Clock</Description><StartTime><Timestamp dt:dt="int">0</Timestamp><DateUtc dt:dt="string">2016-09-07T21:05:03Z</DateUtc></StartTime><FrequencyChanges><FrequencyChange><Frequency dt:dt="r8">3507675</Frequency><Timestamp dt:dt="r8">286892193994</Timestamp><Current dt:dt="r8">0</Current><DateUtc dt:dt="string">2016-09-07T21:05:03Z</DateUtc></FrequencyChange></FrequencyChanges></Clock>\n	Hungry_Donkey_bar_English_2-168-1	60.017	-25	1.0.0.18	1	-869949896	Standard	2.0.10.353	2.0.10.353	09-07-2016	9/7/2016 9:05:04 PM	17:05:04	2.0.10.248	101	Bar50-50.bmp	48	2	?	0r_4g.bmp	0r_4g.bmp	0r_2g.bmp	0r_2g.bmp		0r_4g.bmp			TrialProc	TrialList	0	cvbn	-999999	17	313957	0	v	497	314454	378	-410	-32	-2	-46	8	8	9	11	101	0	0	0	0	4	4	2	2	0	4
Hungry_Donkey_bar_English_2	168	1	<?xml version="1.0"?>\n<Clock xmlns:dt="urn:schemas-microsoft-com:datatypes"><Description dt:dt="string">E-Prime Primary Realtime Clock</Description><StartTime><Timestamp dt:dt="int">0</Timestamp><DateUtc dt:dt="string">2016-09-07T21:05:03Z</DateUtc></StartTime><FrequencyChanges><FrequencyChange><Frequency dt:dt="r8">3507675</Frequency><Timestamp dt:dt="r8">286892193994</Timestamp><Current dt:dt="r8">0</Current><DateUtc dt:dt="string">2016-09-07T21:05:03Z</DateUtc></FrequencyChange></FrequencyChanges></Clock>\n	Hungry_Donkey_bar_English_2-168-1	60.017	-25	1.0.0.18	1	-869949896	Standard	2.0.10.353	2.0.10.353	09-07-2016	9/7/2016 9:05:04 PM	17:05:04	2.0.10.248	102	Bar50-50.bmp	48	2	?	0r_4g.bmp	0r_4g.bmp	0r_2g.bmp	0r_2g.bmp		0r_4g.bmp			TrialProc	TrialList	0	cvbn	-999999	16	316489	0	v	1645	318134	382	-410	-28	-2	-42	8	8	7	11	102	0	0	0	0	4	4	2	2	0	4
Hungry_Donkey_bar_English_2	168	1	<?xml version="1.0"?>\n<Clock xmlns:dt="urn:schemas-microsoft-com:datatypes"><Description dt:dt="string">E-Prime Primary Realtime Clock</Description><StartTime><Timestamp dt:dt="int">0</Timestamp><DateUtc dt:dt="string">2016-09-07T21:05:03Z</DateUtc></StartTime><FrequencyChanges><FrequencyChange><Frequency dt:dt="r8">3507675</Frequency><Timestamp dt:dt="r8">286892193994</Timestamp><Current dt:dt="r8">0</Current><DateUtc dt:dt="string">2016-09-07T21:05:03Z</DateUtc></FrequencyChange></FrequencyChanges></Clock>\n	Hungry_Donkey_bar_English_2-168-1	60.017	-25	1.0.0.18	1	-869949896	Standard	2.0.10.353	2.0.10.353	09-07-2016	9/7/2016 9:05:04 PM	17:05:04	2.0.10.248	103	Bar50-50.bmp	48	2	?	10r_4g.bmp	0r_4g.bmp	2r_2g.bmp	0r_2g.bmp		0r_4g.bmp			TrialProc	TrialList	0	cvbn	-999999	16	320171	0	v	155	320326	386	-410	-24	-2	-38	8	8	2	11	103	-10	0	-2	0	4	4	2	2	0	4
Hungry_Donkey_bar_English_2	168	1	<?xml version="1.0"?>\n<Clock xmlns:dt="urn:schemas-microsoft-com:datatypes"><Description dt:dt="string">E-Prime Primary Realtime Clock</Description><StartTime><Timestamp dt:dt="int">0</Timestamp><DateUtc dt:dt="string">2016-09-07T21:05:03Z</DateUtc></StartTime><FrequencyChanges><FrequencyChange><Frequency dt:dt="r8">3507675</Frequency><Timestamp dt:dt="r8">286892193994</Timestamp><Current dt:dt="r8">0</Current><DateUtc dt:dt="string">2016-09-07T21:05:03Z</DateUtc></FrequencyChange></FrequencyChanges></Clock>\n	Hungry_Donkey_bar_English_2-168-1	60.017	-25	1.0.0.18	1	-869949896	Standard	2.0.10.353	2.0.10.353	09-07-2016	9/7/2016 9:05:04 PM	17:05:04	2.0.10.248	104	Bar50-50.bmp	46	2	?	8r_4g.bmp	50r_4g.bmp	1r_2g.bmp	10r_2g.bmp		50r_4g.bmp			TrialProc	TrialList	0	cvbn	-999999	16	322354	0	v	404	322758	390	-460	-70	-2	-84	8	8	1	11	104	-8	-50	-1	-10	4	4	2	2	-50	4
Hungry_Donkey_bar_English_2	168	1	<?xml version="1.0"?>\n<Clock xmlns:dt="urn:schemas-microsoft-com:datatypes"><Description dt:dt="string">E-Prime Primary Realtime Clock</Description><StartTime><Timestamp dt:dt="int">0</Timestamp><DateUtc dt:dt="string">2016-09-07T21:05:03Z</DateUtc></StartTime><FrequencyChanges><FrequencyChange><Frequency dt:dt="r8">3507675</Frequency><Timestamp dt:dt="r8">286892193994</Timestamp><Current dt:dt="r8">0</Current><DateUtc dt:dt="string">2016-09-07T21:05:03Z</DateUtc></FrequencyChange></FrequencyChanges></Clock>\n	Hungry_Donkey_bar_English_2-168-1	60.017	-25	1.0.0.18	1	-869949896	Standard	2.0.10.353	2.0.10.353	09-07-2016	9/7/2016 9:05:04 PM	17:05:04	2.0.10.248	105	Bar50-50.bmp	46	2	?	10r_4g.bmp	0r_4g.bmp	2r_2g.bmp	0r_2g.bmp		0r_4g.bmp			TrialProc	TrialList	0	cvbn	-999999	16	324787	0	v	131	324918	394	-460	-66	-2	-80	8	8	4	11	105	-10	0	-2	0	4	4	2	2	0	4
Hungry_Donkey_bar_English_2	168	1	<?xml version="1.0"?>\n<Clock xmlns:dt="urn:schemas-microsoft-com:datatypes"><Description dt:dt="string">E-Prime Primary Realtime Clock</Description><StartTime><Timestamp dt:dt="int">0</Timestamp><DateUtc dt:dt="string">2016-09-07T21:05:03Z</DateUtc></StartTime><FrequencyChanges><FrequencyChange><Frequency dt:dt="r8">3507675</Frequency><Timestamp dt:dt="r8">286892193994</Timestamp><Current dt:dt="r8">0</Current><DateUtc dt:dt="string">2016-09-07T21:05:03Z</DateUtc></FrequencyChange></FrequencyChanges></Clock>\n	Hungry_Donkey_bar_English_2-168-1	60.017	-25	1.0.0.18	1	-869949896	Standard	2.0.10.353	2.0.10.353	09-07-2016	9/7/2016 9:05:04 PM	17:05:04	2.0.10.248	106	Bar50-50.bmp	46	2	?	0r_4g.bmp	0r_4g.bmp	0r_2g.bmp	0r_2g.bmp		0r_4g.bmp			TrialProc	TrialList	0	cvbn	-999999	16	326953	0	v	1069	328022	398	-460	-62	-2	-76	8	8	6	11	106	0	0	0	0	4	4	2	2	0	4
Hungry_Donkey_bar_English_2	168	1	<?xml version="1.0"?>\n<Clock xmlns:dt="urn:schemas-microsoft-com:datatypes"><Description dt:dt="string">E-Prime Primary Realtime Clock</Description><StartTime><Timestamp dt:dt="int">0</Timestamp><DateUtc dt:dt="string">2016-09-07T21:05:03Z</DateUtc></StartTime><FrequencyChanges><FrequencyChange><Frequency dt:dt="r8">3507675</Frequency><Timestamp dt:dt="r8">286892193994</Timestamp><Current dt:dt="r8">0</Current><DateUtc dt:dt="string">2016-09-07T21:05:03Z</DateUtc></FrequencyChange></FrequencyChanges></Clock>\n	Hungry_Donkey_bar_English_2-168-1	60.017	-25	1.0.0.18	1	-869949896	Standard	2.0.10.353	2.0.10.353	09-07-2016	9/7/2016 9:05:04 PM	17:05:04	2.0.10.248	107	Bar50-50.bmp	47	2	?	0r_4g.bmp	0r_4g.bmp	0r_2g.bmp	0r_2g.bmp		0r_4g.bmp			TrialProc	TrialList	0	cvbn	-999999	16	330052	0	v	434	330486	402	-460	-58	-2	-72	8	8	10	11	107	0	0	0	0	4	4	2	2	0	4
Hungry_Donkey_bar_English_2	168	1	<?xml version="1.0"?>\n<Clock xmlns:dt="urn:schemas-microsoft-com:datatypes"><Description dt:dt="string">E-Prime Primary Realtime Clock</Description><StartTime><Timestamp dt:dt="int">0</Timestamp><DateUtc dt:dt="string">2016-09-07T21:05:03Z</DateUtc></StartTime><FrequencyChanges><FrequencyChange><Frequency dt:dt="r8">3507675</Frequency><Timestamp dt:dt="r8">286892193994</Timestamp><Current dt:dt="r8">0</Current><DateUtc dt:dt="string">2016-09-07T21:05:03Z</DateUtc></FrequencyChange></FrequencyChanges></Clock>\n	Hungry_Donkey_bar_English_2-168-1	60.017	-25	1.0.0.18	1	-869949896	Standard	2.0.10.353	2.0.10.353	09-07-2016	9/7/2016 9:05:04 PM	17:05:04	2.0.10.248	108	Bar50-50.bmp	47	2	?	0r_4g.bmp	0r_4g.bmp	0r_2g.bmp	0r_2g.bmp		0r_4g.bmp			TrialProc	TrialList	0	cvbn	-999999	16	332518	0	v	591	333109	406	-460	-54	-2	-68	8	8	8	11	108	0	0	0	0	4	4	2	2	0	4
Hungry_Donkey_bar_English_2	168	1	<?xml version="1.0"?>\n<Clock xmlns:dt="urn:schemas-microsoft-com:datatypes"><Description dt:dt="string">E-Prime Primary Realtime Clock</Description><StartTime><Timestamp dt:dt="int">0</Timestamp><DateUtc dt:dt="string">2016-09-07T21:05:03Z</DateUtc></StartTime><FrequencyChanges><FrequencyChange><Frequency dt:dt="r8">3507675</Frequency><Timestamp dt:dt="r8">286892193994</Timestamp><Current dt:dt="r8">0</Current><DateUtc dt:dt="string">2016-09-07T21:05:03Z</DateUtc></FrequencyChange></FrequencyChanges></Clock>\n	Hungry_Donkey_bar_English_2-168-1	60.017	-25	1.0.0.18	1	-869949896	Standard	2.0.10.353	2.0.10.353	09-07-2016	9/7/2016 9:05:04 PM	17:05:04	2.0.10.248	109	Bar50-50.bmp	47	2	?	12r_4g.bmp	0r_4g.bmp	3r_2g.bmp	0r_2g.bmp		0r_4g.bmp			TrialProc	TrialList	0	cvbn	-999999	16	335134	0	v	471	335605	410	-460	-50	-2	-64	8	8	5	11	109	-12	0	-3	0	4	4	2	2	0	4
Hungry_Donkey_bar_English_2	168	1	<?xml version="1.0"?>\n<Clock xmlns:dt="urn:schemas-microsoft-com:datatypes"><Description dt:dt="string">E-Prime Primary Realtime Clock</Description><StartTime><Timestamp dt:dt="int">0</Timestamp><DateUtc dt:dt="string">2016-09-07T21:05:03Z</DateUtc></StartTime><FrequencyChanges><FrequencyChange><Frequency dt:dt="r8">3507675</Frequency><Timestamp dt:dt="r8">286892193994</Timestamp><Current dt:dt="r8">0</Current><DateUtc dt:dt="string">2016-09-07T21:05:03Z</DateUtc></FrequencyChange></FrequencyChanges></Clock>\n	Hungry_Donkey_bar_English_2-168-1	60.017	-25	1.0.0.18	1	-869949896	Standard	2.0.10.353	2.0.10.353	09-07-2016	9/7/2016 9:05:04 PM	17:05:04	2.0.10.248	110	Bar50-50.bmp	47	2	?	10r_4g.bmp	0r_4g.bmp	2r_2g.bmp	0r_2g.bmp		0r_4g.bmp			TrialProc	TrialList	0	cvbn	-999999	16	337633	0	v	4	337637	414	-460	-46	-2	-60	8	8	3	11	110	-10	0	-2	0	4	4	2	2	0	4
Hungry_Donkey_bar_English_2	168	1	<?xml version="1.0"?>\n<Clock xmlns:dt="urn:schemas-microsoft-com:datatypes"><Description dt:dt="string">E-Prime Primary Realtime Clock</Description><StartTime><Timestamp dt:dt="int">0</Timestamp><DateUtc dt:dt="string">2016-09-07T21:05:03Z</DateUtc></StartTime><FrequencyChanges><FrequencyChange><Frequency dt:dt="r8">3507675</Frequency><Timestamp dt:dt="r8">286892193994</Timestamp><Current dt:dt="r8">0</Current><DateUtc dt:dt="string">2016-09-07T21:05:03Z</DateUtc></FrequencyChange></FrequencyChanges></Clock>\n	Hungry_Donkey_bar_English_2-168-1	60.017	-25	1.0.0.18	1	-869949896	Standard	2.0.10.353	2.0.10.353	09-07-2016	9/7/2016 9:05:04 PM	17:05:04	2.0.10.248	111	Bar50-50.bmp	48	2	?	10r_4g.bmp	0r_4g.bmp	2r_2g.bmp	0r_2g.bmp		0r_4g.bmp			TrialProc	TrialList	0	cvbn	-999999	16	339666	0	v	675	340341	418	-460	-42	-2	-56	8	8	3	12	111	-10	0	-2	0	4	4	2	2	0	4
