ExperimentName	Subject	Session	Clock.Information	DataFile.Basename	Display.RefreshRate	Eindtotaal[Session]	ExperimentVersion	Group	RandomSeed	RuntimeCapabilities	RuntimeVersion	RuntimeVersionExpected	SessionDate	SessionStartDateTimeUtc	SessionTime	StudioVersion	Block	BarImage	BarTotalWinst	DoorChoice	Eindtotaal[Block]	FBDoor1	FBDoor2	FBDoor3	FBDoor4	Image1	Image2	Image3	Image4	Procedure	Running	spel.ACC	spel.CRESP	spel.DurationError	spel.OnsetDelay	spel.OnsetTime	spel.OnsetToOnsetTime	spel.RESP	spel.RT	spel.RTTime	TotalGain	TotalLose	Totalsum	TotalsumD1	TotalsumD2	TotalsumD3	TotalsumD4	TrialList	TrialList.Cycle	TrialList.Sample	varV1	varV2	varV3	varV4	varW1	varW2	varW3	varW4	Verliesbedrag	Winstbedrag
Hungry_Donkey_bar_English_2	131	1	<?xml version="1.0"?>\n<Clock xmlns:dt="urn:schemas-microsoft-com:datatypes"><Description dt:dt="string">E-Prime Primary Realtime Clock</Description><StartTime><Timestamp dt:dt="int">0</Timestamp><DateUtc dt:dt="string">2016-02-24T21:05:41Z</DateUtc></StartTime><FrequencyChanges><FrequencyChange><Frequency dt:dt="r8">3507714</Frequency><Timestamp dt:dt="r8">356321721278</Timestamp><Current dt:dt="r8">0</Current><DateUtc dt:dt="string">2016-02-24T21:05:41Z</DateUtc></FrequencyChange></FrequencyChanges></Clock>\n	Hungry_Donkey_bar_English_2-131-1	60.018	-130	1.0.0.18	1	-159892689	Standard	2.0.10.353	2.0.10.353	02-24-2016	2/24/2016 9:05:42 PM	16:05:42	2.0.10.248	1	Bar100-0.bmp	100	1	?	0r_4g.bmp	0r_4g.bmp	0r_2g.bmp	0r_2g.bmp	0r_4g.bmp				TrialProc	TrialList	0	cvbn	-999999	32	51262	0	c	960	52222	4	0	4	4	0	0	0	8	1	1	0	0	0	0	4	4	2	2	0	4
Hungry_Donkey_bar_English_2	131	1	<?xml version="1.0"?>\n<Clock xmlns:dt="urn:schemas-microsoft-com:datatypes"><Description dt:dt="string">E-Prime Primary Realtime Clock</Description><StartTime><Timestamp dt:dt="int">0</Timestamp><DateUtc dt:dt="string">2016-02-24T21:05:41Z</DateUtc></StartTime><FrequencyChanges><FrequencyChange><Frequency dt:dt="r8">3507714</Frequency><Timestamp dt:dt="r8">356321721278</Timestamp><Current dt:dt="r8">0</Current><DateUtc dt:dt="string">2016-02-24T21:05:41Z</DateUtc></FrequencyChange></FrequencyChanges></Clock>\n	Hungry_Donkey_bar_English_2-131-1	60.018	-130	1.0.0.18	1	-159892689	Standard	2.0.10.353	2.0.10.353	02-24-2016	2/24/2016 9:05:42 PM	16:05:42	2.0.10.248	2	Bar75-25.bmp	75	3	?	10r_4g.bmp	0r_4g.bmp	2r_2g.bmp	0r_2g.bmp			2r_2g.bmp		TrialProc	TrialList	0	cvbn	-999999	15	54261	0	b	1849	56110	6	-2	4	4	0	0	0	2	1	2	-10	0	-2	0	4	4	2	2	-2	2
Hungry_Donkey_bar_English_2	131	1	<?xml version="1.0"?>\n<Clock xmlns:dt="urn:schemas-microsoft-com:datatypes"><Description dt:dt="string">E-Prime Primary Realtime Clock</Description><StartTime><Timestamp dt:dt="int">0</Timestamp><DateUtc dt:dt="string">2016-02-24T21:05:41Z</DateUtc></StartTime><FrequencyChanges><FrequencyChange><Frequency dt:dt="r8">3507714</Frequency><Timestamp dt:dt="r8">356321721278</Timestamp><Current dt:dt="r8">0</Current><DateUtc dt:dt="string">2016-02-24T21:05:41Z</DateUtc></FrequencyChange></FrequencyChanges></Clock>\n	Hungry_Donkey_bar_English_2-131-1	60.018	-130	1.0.0.18	1	-159892689	Standard	2.0.10.353	2.0.10.353	02-24-2016	2/24/2016 9:05:42 PM	16:05:42	2.0.10.248	3	Bar37-63.bmp	40	4	?	8r_4g.bmp	50r_4g.bmp	1r_2g.bmp	10r_2g.bmp				10r_2g.bmp	TrialProc	TrialList	0	cvbn	-999999	16	58143	0	n	687	58830	8	-12	-4	4	0	0	-8	1	1	3	-8	-50	-1	-10	4	4	2	2	-10	2
Hungry_Donkey_bar_English_2	131	1	<?xml version="1.0"?>\n<Clock xmlns:dt="urn:schemas-microsoft-com:datatypes"><Description dt:dt="string">E-Prime Primary Realtime Clock</Description><StartTime><Timestamp dt:dt="int">0</Timestamp><DateUtc dt:dt="string">2016-02-24T21:05:41Z</DateUtc></StartTime><FrequencyChanges><FrequencyChange><Frequency dt:dt="r8">3507714</Frequency><Timestamp dt:dt="r8">356321721278</Timestamp><Current dt:dt="r8">0</Current><DateUtc dt:dt="string">2016-02-24T21:05:41Z</DateUtc></FrequencyChange></FrequencyChanges></Clock>\n	Hungry_Donkey_bar_English_2-131-1	60.018	-130	1.0.0.18	1	-159892689	Standard	2.0.10.353	2.0.10.353	02-24-2016	2/24/2016 9:05:42 PM	16:05:42	2.0.10.248	4	Bar50-50.bmp	50	1	?	0r_4g.bmp	0r_4g.bmp	0r_2g.bmp	0r_2g.bmp	0r_4g.bmp				TrialProc	TrialList	0	cvbn	-999999	16	60876	0	c	754	61630	12	-12	0	8	0	0	-8	7	1	4	0	0	0	0	4	4	2	2	0	4
Hungry_Donkey_bar_English_2	131	1	<?xml version="1.0"?>\n<Clock xmlns:dt="urn:schemas-microsoft-com:datatypes"><Description dt:dt="string">E-Prime Primary Realtime Clock</Description><StartTime><Timestamp dt:dt="int">0</Timestamp><DateUtc dt:dt="string">2016-02-24T21:05:41Z</DateUtc></StartTime><FrequencyChanges><FrequencyChange><Frequency dt:dt="r8">3507714</Frequency><Timestamp dt:dt="r8">356321721278</Timestamp><Current dt:dt="r8">0</Current><DateUtc dt:dt="string">2016-02-24T21:05:41Z</DateUtc></FrequencyChange></FrequencyChanges></Clock>\n	Hungry_Donkey_bar_English_2-131-1	60.018	-130	1.0.0.18	1	-159892689	Standard	2.0.10.353	2.0.10.353	02-24-2016	2/24/2016 9:05:42 PM	16:05:42	2.0.10.248	5	Bar63-37.bmp	57	2	?	12r_4g.bmp	0r_4g.bmp	3r_2g.bmp	0r_2g.bmp		0r_4g.bmp			TrialProc	TrialList	0	cvbn	-999999	15	63658	0	v	611	64269	16	-12	4	8	4	0	-8	5	1	5	-12	0	-3	0	4	4	2	2	0	4
Hungry_Donkey_bar_English_2	131	1	<?xml version="1.0"?>\n<Clock xmlns:dt="urn:schemas-microsoft-com:datatypes"><Description dt:dt="string">E-Prime Primary Realtime Clock</Description><StartTime><Timestamp dt:dt="int">0</Timestamp><DateUtc dt:dt="string">2016-02-24T21:05:41Z</DateUtc></StartTime><FrequencyChanges><FrequencyChange><Frequency dt:dt="r8">3507714</Frequency><Timestamp dt:dt="r8">356321721278</Timestamp><Current dt:dt="r8">0</Current><DateUtc dt:dt="string">2016-02-24T21:05:41Z</DateUtc></FrequencyChange></FrequencyChanges></Clock>\n	Hungry_Donkey_bar_English_2-131-1	60.018	-130	1.0.0.18	1	-159892689	Standard	2.0.10.353	2.0.10.353	02-24-2016	2/24/2016 9:05:42 PM	16:05:42	2.0.10.248	6	Bar50-50.bmp	56	3	?	10r_4g.bmp	0r_4g.bmp	2r_2g.bmp	0r_2g.bmp			2r_2g.bmp		TrialProc	TrialList	0	cvbn	-999999	17	66308	0	b	633	66941	18	-14	4	8	4	0	-8	4	1	6	-10	0	-2	0	4	4	2	2	-2	2
Hungry_Donkey_bar_English_2	131	1	<?xml version="1.0"?>\n<Clock xmlns:dt="urn:schemas-microsoft-com:datatypes"><Description dt:dt="string">E-Prime Primary Realtime Clock</Description><StartTime><Timestamp dt:dt="int">0</Timestamp><DateUtc dt:dt="string">2016-02-24T21:05:41Z</DateUtc></StartTime><FrequencyChanges><FrequencyChange><Frequency dt:dt="r8">3507714</Frequency><Timestamp dt:dt="r8">356321721278</Timestamp><Current dt:dt="r8">0</Current><DateUtc dt:dt="string">2016-02-24T21:05:41Z</DateUtc></FrequencyChange></FrequencyChanges></Clock>\n	Hungry_Donkey_bar_English_2-131-1	60.018	-130	1.0.0.18	1	-159892689	Standard	2.0.10.353	2.0.10.353	02-24-2016	2/24/2016 9:05:42 PM	16:05:42	2.0.10.248	7	Bar63-37.bmp	61	1	?	0r_4g.bmp	0r_4g.bmp	0r_2g.bmp	0r_2g.bmp	0r_4g.bmp				TrialProc	TrialList	0	cvbn	-999999	16	68973	0	c	768	69741	22	-14	8	12	4	0	-8	10	1	7	0	0	0	0	4	4	2	2	0	4
Hungry_Donkey_bar_English_2	131	1	<?xml version="1.0"?>\n<Clock xmlns:dt="urn:schemas-microsoft-com:datatypes"><Description dt:dt="string">E-Prime Primary Realtime Clock</Description><StartTime><Timestamp dt:dt="int">0</Timestamp><DateUtc dt:dt="string">2016-02-24T21:05:41Z</DateUtc></StartTime><FrequencyChanges><FrequencyChange><Frequency dt:dt="r8">3507714</Frequency><Timestamp dt:dt="r8">356321721278</Timestamp><Current dt:dt="r8">0</Current><DateUtc dt:dt="string">2016-02-24T21:05:41Z</DateUtc></FrequencyChange></FrequencyChanges></Clock>\n	Hungry_Donkey_bar_English_2-131-1	60.018	-130	1.0.0.18	1	-159892689	Standard	2.0.10.353	2.0.10.353	02-24-2016	2/24/2016 9:05:42 PM	16:05:42	2.0.10.248	8	Bar50-50.bmp	52	1	?	10r_4g.bmp	0r_4g.bmp	2r_2g.bmp	0r_2g.bmp	10r_4g.bmp				TrialProc	TrialList	0	cvbn	-999999	16	71773	0	c	320	72093	26	-24	2	6	4	0	-8	3	1	8	-10	0	-2	0	4	4	2	2	-10	4
Hungry_Donkey_bar_English_2	131	1	<?xml version="1.0"?>\n<Clock xmlns:dt="urn:schemas-microsoft-com:datatypes"><Description dt:dt="string">E-Prime Primary Realtime Clock</Description><StartTime><Timestamp dt:dt="int">0</Timestamp><DateUtc dt:dt="string">2016-02-24T21:05:41Z</DateUtc></StartTime><FrequencyChanges><FrequencyChange><Frequency dt:dt="r8">3507714</Frequency><Timestamp dt:dt="r8">356321721278</Timestamp><Current dt:dt="r8">0</Current><DateUtc dt:dt="string">2016-02-24T21:05:41Z</DateUtc></FrequencyChange></FrequencyChanges></Clock>\n	Hungry_Donkey_bar_English_2-131-1	60.018	-130	1.0.0.18	1	-159892689	Standard	2.0.10.353	2.0.10.353	02-24-2016	2/24/2016 9:05:42 PM	16:05:42	2.0.10.248	9	Bar50-50.bmp	54	3	?	0r_4g.bmp	0r_4g.bmp	0r_2g.bmp	0r_2g.bmp			0r_2g.bmp		TrialProc	TrialList	0	cvbn	-999999	16	74139	0	b	594	74733	28	-24	4	6	4	2	-8	6	1	9	0	0	0	0	4	4	2	2	0	2
Hungry_Donkey_bar_English_2	131	1	<?xml version="1.0"?>\n<Clock xmlns:dt="urn:schemas-microsoft-com:datatypes"><Description dt:dt="string">E-Prime Primary Realtime Clock</Description><StartTime><Timestamp dt:dt="int">0</Timestamp><DateUtc dt:dt="string">2016-02-24T21:05:41Z</DateUtc></StartTime><FrequencyChanges><FrequencyChange><Frequency dt:dt="r8">3507714</Frequency><Timestamp dt:dt="r8">356321721278</Timestamp><Current dt:dt="r8">0</Current><DateUtc dt:dt="string">2016-02-24T21:05:41Z</DateUtc></FrequencyChange></FrequencyChanges></Clock>\n	Hungry_Donkey_bar_English_2-131-1	60.018	-130	1.0.0.18	1	-159892689	Standard	2.0.10.353	2.0.10.353	02-24-2016	2/24/2016 9:05:42 PM	16:05:42	2.0.10.248	10	Bar63-37.bmp	57	2	?	0r_4g.bmp	0r_4g.bmp	0r_2g.bmp	0r_2g.bmp		0r_4g.bmp			TrialProc	TrialList	0	cvbn	-999999	16	76771	0	v	90	76861	32	-24	8	6	8	2	-8	9	1	10	0	0	0	0	4	4	2	2	0	4
Hungry_Donkey_bar_English_2	131	1	<?xml version="1.0"?>\n<Clock xmlns:dt="urn:schemas-microsoft-com:datatypes"><Description dt:dt="string">E-Prime Primary Realtime Clock</Description><StartTime><Timestamp dt:dt="int">0</Timestamp><DateUtc dt:dt="string">2016-02-24T21:05:41Z</DateUtc></StartTime><FrequencyChanges><FrequencyChange><Frequency dt:dt="r8">3507714</Frequency><Timestamp dt:dt="r8">356321721278</Timestamp><Current dt:dt="r8">0</Current><DateUtc dt:dt="string">2016-02-24T21:05:41Z</DateUtc></FrequencyChange></FrequencyChanges></Clock>\n	Hungry_Donkey_bar_English_2-131-1	60.018	-130	1.0.0.18	1	-159892689	Standard	2.0.10.353	2.0.10.353	02-24-2016	2/24/2016 9:05:42 PM	16:05:42	2.0.10.248	11	Bar63-37.bmp	59	4	?	0r_4g.bmp	0r_4g.bmp	0r_2g.bmp	0r_2g.bmp				0r_2g.bmp	TrialProc	TrialList	0	cvbn	-999999	16	78887	0	n	470	79357	34	-24	10	6	8	2	-6	7	2	11	0	0	0	0	4	4	2	2	0	2
Hungry_Donkey_bar_English_2	131	1	<?xml version="1.0"?>\n<Clock xmlns:dt="urn:schemas-microsoft-com:datatypes"><Description dt:dt="string">E-Prime Primary Realtime Clock</Description><StartTime><Timestamp dt:dt="int">0</Timestamp><DateUtc dt:dt="string">2016-02-24T21:05:41Z</DateUtc></StartTime><FrequencyChanges><FrequencyChange><Frequency dt:dt="r8">3507714</Frequency><Timestamp dt:dt="r8">356321721278</Timestamp><Current dt:dt="r8">0</Current><DateUtc dt:dt="string">2016-02-24T21:05:41Z</DateUtc></FrequencyChange></FrequencyChanges></Clock>\n	Hungry_Donkey_bar_English_2-131-1	60.018	-130	1.0.0.18	1	-159892689	Standard	2.0.10.353	2.0.10.353	02-24-2016	2/24/2016 9:05:42 PM	16:05:42	2.0.10.248	12	Bar63-37.bmp	60	3	?	0r_4g.bmp	0r_4g.bmp	0r_2g.bmp	0r_2g.bmp			0r_2g.bmp		TrialProc	TrialList	0	cvbn	-999999	16	81386	0	b	50	81436	36	-24	12	6	8	4	-6	8	2	12	0	0	0	0	4	4	2	2	0	2
Hungry_Donkey_bar_English_2	131	1	<?xml version="1.0"?>\n<Clock xmlns:dt="urn:schemas-microsoft-com:datatypes"><Description dt:dt="string">E-Prime Primary Realtime Clock</Description><StartTime><Timestamp dt:dt="int">0</Timestamp><DateUtc dt:dt="string">2016-02-24T21:05:41Z</DateUtc></StartTime><FrequencyChanges><FrequencyChange><Frequency dt:dt="r8">3507714</Frequency><Timestamp dt:dt="r8">356321721278</Timestamp><Current dt:dt="r8">0</Current><DateUtc dt:dt="string">2016-02-24T21:05:41Z</DateUtc></FrequencyChange></FrequencyChanges></Clock>\n	Hungry_Donkey_bar_English_2-131-1	60.018	-130	1.0.0.18	1	-159892689	Standard	2.0.10.353	2.0.10.353	02-24-2016	2/24/2016 9:05:42 PM	16:05:42	2.0.10.248	13	Bar63-37.bmp	62	1	?	0r_4g.bmp	0r_4g.bmp	0r_2g.bmp	0r_2g.bmp	0r_4g.bmp				TrialProc	TrialList	0	cvbn	-999999	16	83469	0	c	591	84060	40	-24	16	10	8	4	-6	9	2	13	0	0	0	0	4	4	2	2	0	4
Hungry_Donkey_bar_English_2	131	1	<?xml version="1.0"?>\n<Clock xmlns:dt="urn:schemas-microsoft-com:datatypes"><Description dt:dt="string">E-Prime Primary Realtime Clock</Description><StartTime><Timestamp dt:dt="int">0</Timestamp><DateUtc dt:dt="string">2016-02-24T21:05:41Z</DateUtc></StartTime><FrequencyChanges><FrequencyChange><Frequency dt:dt="r8">3507714</Frequency><Timestamp dt:dt="r8">356321721278</Timestamp><Current dt:dt="r8">0</Current><DateUtc dt:dt="string">2016-02-24T21:05:41Z</DateUtc></FrequencyChange></FrequencyChanges></Clock>\n	Hungry_Donkey_bar_English_2-131-1	60.018	-130	1.0.0.18	1	-159892689	Standard	2.0.10.353	2.0.10.353	02-24-2016	2/24/2016 9:05:42 PM	16:05:42	2.0.10.248	14	Bar63-37.bmp	65	2	?	10r_4g.bmp	0r_4g.bmp	2r_2g.bmp	0r_2g.bmp		0r_4g.bmp			TrialProc	TrialList	0	cvbn	-999999	16	86085	0	v	567	86652	44	-24	20	10	12	4	-6	4	2	14	-10	0	-2	0	4	4	2	2	0	4
Hungry_Donkey_bar_English_2	131	1	<?xml version="1.0"?>\n<Clock xmlns:dt="urn:schemas-microsoft-com:datatypes"><Description dt:dt="string">E-Prime Primary Realtime Clock</Description><StartTime><Timestamp dt:dt="int">0</Timestamp><DateUtc dt:dt="string">2016-02-24T21:05:41Z</DateUtc></StartTime><FrequencyChanges><FrequencyChange><Frequency dt:dt="r8">3507714</Frequency><Timestamp dt:dt="r8">356321721278</Timestamp><Current dt:dt="r8">0</Current><DateUtc dt:dt="string">2016-02-24T21:05:41Z</DateUtc></FrequencyChange></FrequencyChanges></Clock>\n	Hungry_Donkey_bar_English_2-131-1	60.018	-130	1.0.0.18	1	-159892689	Standard	2.0.10.353	2.0.10.353	02-24-2016	2/24/2016 9:05:42 PM	16:05:42	2.0.10.248	15	Bar63-37.bmp	66	4	?	0r_4g.bmp	0r_4g.bmp	0r_2g.bmp	0r_2g.bmp				0r_2g.bmp	TrialProc	TrialList	0	cvbn	-999999	16	88684	0	n	608	89292	46	-24	22	10	12	4	-4	10	2	15	0	0	0	0	4	4	2	2	0	2
Hungry_Donkey_bar_English_2	131	1	<?xml version="1.0"?>\n<Clock xmlns:dt="urn:schemas-microsoft-com:datatypes"><Description dt:dt="string">E-Prime Primary Realtime Clock</Description><StartTime><Timestamp dt:dt="int">0</Timestamp><DateUtc dt:dt="string">2016-02-24T21:05:41Z</DateUtc></StartTime><FrequencyChanges><FrequencyChange><Frequency dt:dt="r8">3507714</Frequency><Timestamp dt:dt="r8">356321721278</Timestamp><Current dt:dt="r8">0</Current><DateUtc dt:dt="string">2016-02-24T21:05:41Z</DateUtc></FrequencyChange></FrequencyChanges></Clock>\n	Hungry_Donkey_bar_English_2-131-1	60.018	-130	1.0.0.18	1	-159892689	Standard	2.0.10.353	2.0.10.353	02-24-2016	2/24/2016 9:05:42 PM	16:05:42	2.0.10.248	16	Bar63-37.bmp	58	1	?	12r_4g.bmp	0r_4g.bmp	3r_2g.bmp	0r_2g.bmp	12r_4g.bmp				TrialProc	TrialList	0	cvbn	-999999	16	91317	0	c	295	91612	50	-36	14	2	12	4	-4	5	2	16	-12	0	-3	0	4	4	2	2	-12	4
Hungry_Donkey_bar_English_2	131	1	<?xml version="1.0"?>\n<Clock xmlns:dt="urn:schemas-microsoft-com:datatypes"><Description dt:dt="string">E-Prime Primary Realtime Clock</Description><StartTime><Timestamp dt:dt="int">0</Timestamp><DateUtc dt:dt="string">2016-02-24T21:05:41Z</DateUtc></StartTime><FrequencyChanges><FrequencyChange><Frequency dt:dt="r8">3507714</Frequency><Timestamp dt:dt="r8">356321721278</Timestamp><Current dt:dt="r8">0</Current><DateUtc dt:dt="string">2016-02-24T21:05:41Z</DateUtc></FrequencyChange></FrequencyChanges></Clock>\n	Hungry_Donkey_bar_English_2-131-1	60.018	-130	1.0.0.18	1	-159892689	Standard	2.0.10.353	2.0.10.353	02-24-2016	2/24/2016 9:05:42 PM	16:05:42	2.0.10.248	17	Bar63-37.bmp	59	4	?	10r_4g.bmp	0r_4g.bmp	2r_2g.bmp	0r_2g.bmp				0r_2g.bmp	TrialProc	TrialList	0	cvbn	-999999	16	93649	0	n	91	93740	52	-36	16	2	12	4	-2	3	2	17	-10	0	-2	0	4	4	2	2	0	2
Hungry_Donkey_bar_English_2	131	1	<?xml version="1.0"?>\n<Clock xmlns:dt="urn:schemas-microsoft-com:datatypes"><Description dt:dt="string">E-Prime Primary Realtime Clock</Description><StartTime><Timestamp dt:dt="int">0</Timestamp><DateUtc dt:dt="string">2016-02-24T21:05:41Z</DateUtc></StartTime><FrequencyChanges><FrequencyChange><Frequency dt:dt="r8">3507714</Frequency><Timestamp dt:dt="r8">356321721278</Timestamp><Current dt:dt="r8">0</Current><DateUtc dt:dt="string">2016-02-24T21:05:41Z</DateUtc></FrequencyChange></FrequencyChanges></Clock>\n	Hungry_Donkey_bar_English_2-131-1	60.018	-130	1.0.0.18	1	-159892689	Standard	2.0.10.353	2.0.10.353	02-24-2016	2/24/2016 9:05:42 PM	16:05:42	2.0.10.248	18	Bar50-50.bmp	56	1	?	8r_4g.bmp	50r_4g.bmp	1r_2g.bmp	10r_2g.bmp	8r_4g.bmp				TrialProc	TrialList	0	cvbn	-999999	16	95765	0	c	582	96347	56	-44	12	-2	12	4	-2	1	2	18	-8	-50	-1	-10	4	4	2	2	-8	4
Hungry_Donkey_bar_English_2	131	1	<?xml version="1.0"?>\n<Clock xmlns:dt="urn:schemas-microsoft-com:datatypes"><Description dt:dt="string">E-Prime Primary Realtime Clock</Description><StartTime><Timestamp dt:dt="int">0</Timestamp><DateUtc dt:dt="string">2016-02-24T21:05:41Z</DateUtc></StartTime><FrequencyChanges><FrequencyChange><Frequency dt:dt="r8">3507714</Frequency><Timestamp dt:dt="r8">356321721278</Timestamp><Current dt:dt="r8">0</Current><DateUtc dt:dt="string">2016-02-24T21:05:41Z</DateUtc></FrequencyChange></FrequencyChanges></Clock>\n	Hungry_Donkey_bar_English_2-131-1	60.018	-130	1.0.0.18	1	-159892689	Standard	2.0.10.353	2.0.10.353	02-24-2016	2/24/2016 9:05:42 PM	16:05:42	2.0.10.248	19	Bar63-37.bmp	58	2	?	0r_4g.bmp	0r_4g.bmp	0r_2g.bmp	0r_2g.bmp		0r_4g.bmp			TrialProc	TrialList	0	cvbn	-999999	16	98381	0	v	526	98907	60	-44	16	-2	16	4	-2	6	2	19	0	0	0	0	4	4	2	2	0	4
Hungry_Donkey_bar_English_2	131	1	<?xml version="1.0"?>\n<Clock xmlns:dt="urn:schemas-microsoft-com:datatypes"><Description dt:dt="string">E-Prime Primary Realtime Clock</Description><StartTime><Timestamp dt:dt="int">0</Timestamp><DateUtc dt:dt="string">2016-02-24T21:05:41Z</DateUtc></StartTime><FrequencyChanges><FrequencyChange><Frequency dt:dt="r8">3507714</Frequency><Timestamp dt:dt="r8">356321721278</Timestamp><Current dt:dt="r8">0</Current><DateUtc dt:dt="string">2016-02-24T21:05:41Z</DateUtc></FrequencyChange></FrequencyChanges></Clock>\n	Hungry_Donkey_bar_English_2-131-1	60.018	-130	1.0.0.18	1	-159892689	Standard	2.0.10.353	2.0.10.353	02-24-2016	2/24/2016 9:05:42 PM	16:05:42	2.0.10.248	20	Bar50-50.bmp	54	1	?	10r_4g.bmp	0r_4g.bmp	2r_2g.bmp	0r_2g.bmp	10r_4g.bmp				TrialProc	TrialList	0	cvbn	-999999	16	100947	0	c	328	101275	64	-54	10	-8	16	4	-2	2	2	20	-10	0	-2	0	4	4	2	2	-10	4
Hungry_Donkey_bar_English_2	131	1	<?xml version="1.0"?>\n<Clock xmlns:dt="urn:schemas-microsoft-com:datatypes"><Description dt:dt="string">E-Prime Primary Realtime Clock</Description><StartTime><Timestamp dt:dt="int">0</Timestamp><DateUtc dt:dt="string">2016-02-24T21:05:41Z</DateUtc></StartTime><FrequencyChanges><FrequencyChange><Frequency dt:dt="r8">3507714</Frequency><Timestamp dt:dt="r8">356321721278</Timestamp><Current dt:dt="r8">0</Current><DateUtc dt:dt="string">2016-02-24T21:05:41Z</DateUtc></FrequencyChange></FrequencyChanges></Clock>\n	Hungry_Donkey_bar_English_2-131-1	60.018	-130	1.0.0.18	1	-159892689	Standard	2.0.10.353	2.0.10.353	02-24-2016	2/24/2016 9:05:42 PM	16:05:42	2.0.10.248	21	Bar50-50.bmp	55	3	?	0r_4g.bmp	0r_4g.bmp	0r_2g.bmp	0r_2g.bmp			0r_2g.bmp		TrialProc	TrialList	0	cvbn	-999999	16	103313	0	b	458	103771	66	-54	12	-8	16	6	-2	10	3	21	0	0	0	0	4	4	2	2	0	2
Hungry_Donkey_bar_English_2	131	1	<?xml version="1.0"?>\n<Clock xmlns:dt="urn:schemas-microsoft-com:datatypes"><Description dt:dt="string">E-Prime Primary Realtime Clock</Description><StartTime><Timestamp dt:dt="int">0</Timestamp><DateUtc dt:dt="string">2016-02-24T21:05:41Z</DateUtc></StartTime><FrequencyChanges><FrequencyChange><Frequency dt:dt="r8">3507714</Frequency><Timestamp dt:dt="r8">356321721278</Timestamp><Current dt:dt="r8">0</Current><DateUtc dt:dt="string">2016-02-24T21:05:41Z</DateUtc></FrequencyChange></FrequencyChanges></Clock>\n	Hungry_Donkey_bar_English_2-131-1	60.018	-130	1.0.0.18	1	-159892689	Standard	2.0.10.353	2.0.10.353	02-24-2016	2/24/2016 9:05:42 PM	16:05:42	2.0.10.248	22	Bar50-50.bmp	56	4	?	0r_4g.bmp	0r_4g.bmp	0r_2g.bmp	0r_2g.bmp				0r_2g.bmp	TrialProc	TrialList	0	cvbn	-999999	16	105796	0	n	551	106347	68	-54	14	-8	16	6	0	8	3	22	0	0	0	0	4	4	2	2	0	2
Hungry_Donkey_bar_English_2	131	1	<?xml version="1.0"?>\n<Clock xmlns:dt="urn:schemas-microsoft-com:datatypes"><Description dt:dt="string">E-Prime Primary Realtime Clock</Description><StartTime><Timestamp dt:dt="int">0</Timestamp><DateUtc dt:dt="string">2016-02-24T21:05:41Z</DateUtc></StartTime><FrequencyChanges><FrequencyChange><Frequency dt:dt="r8">3507714</Frequency><Timestamp dt:dt="r8">356321721278</Timestamp><Current dt:dt="r8">0</Current><DateUtc dt:dt="string">2016-02-24T21:05:41Z</DateUtc></FrequencyChange></FrequencyChanges></Clock>\n	Hungry_Donkey_bar_English_2-131-1	60.018	-130	1.0.0.18	1	-159892689	Standard	2.0.10.353	2.0.10.353	02-24-2016	2/24/2016 9:05:42 PM	16:05:42	2.0.10.248	23	Bar50-50.bmp	53	1	?	10r_4g.bmp	0r_4g.bmp	2r_2g.bmp	0r_2g.bmp	10r_4g.bmp				TrialProc	TrialList	0	cvbn	-999999	16	108378	0	c	705	109083	72	-64	8	-14	16	6	0	4	3	23	-10	0	-2	0	4	4	2	2	-10	4
Hungry_Donkey_bar_English_2	131	1	<?xml version="1.0"?>\n<Clock xmlns:dt="urn:schemas-microsoft-com:datatypes"><Description dt:dt="string">E-Prime Primary Realtime Clock</Description><StartTime><Timestamp dt:dt="int">0</Timestamp><DateUtc dt:dt="string">2016-02-24T21:05:41Z</DateUtc></StartTime><FrequencyChanges><FrequencyChange><Frequency dt:dt="r8">3507714</Frequency><Timestamp dt:dt="r8">356321721278</Timestamp><Current dt:dt="r8">0</Current><DateUtc dt:dt="string">2016-02-24T21:05:41Z</DateUtc></FrequencyChange></FrequencyChanges></Clock>\n	Hungry_Donkey_bar_English_2-131-1	60.018	-130	1.0.0.18	1	-159892689	Standard	2.0.10.353	2.0.10.353	02-24-2016	2/24/2016 9:05:42 PM	16:05:42	2.0.10.248	24	Bar50-50.bmp	54	2	?	0r_4g.bmp	0r_4g.bmp	0r_2g.bmp	0r_2g.bmp		0r_4g.bmp			TrialProc	TrialList	0	cvbn	-999999	16	111111	0	v	644	111755	76	-64	12	-14	20	6	0	9	3	24	0	0	0	0	4	4	2	2	0	4
Hungry_Donkey_bar_English_2	131	1	<?xml version="1.0"?>\n<Clock xmlns:dt="urn:schemas-microsoft-com:datatypes"><Description dt:dt="string">E-Prime Primary Realtime Clock</Description><StartTime><Timestamp dt:dt="int">0</Timestamp><DateUtc dt:dt="string">2016-02-24T21:05:41Z</DateUtc></StartTime><FrequencyChanges><FrequencyChange><Frequency dt:dt="r8">3507714</Frequency><Timestamp dt:dt="r8">356321721278</Timestamp><Current dt:dt="r8">0</Current><DateUtc dt:dt="string">2016-02-24T21:05:41Z</DateUtc></FrequencyChange></FrequencyChanges></Clock>\n	Hungry_Donkey_bar_English_2-131-1	60.018	-130	1.0.0.18	1	-159892689	Standard	2.0.10.353	2.0.10.353	02-24-2016	2/24/2016 9:05:42 PM	16:05:42	2.0.10.248	25	Bar37-63.bmp	41	2	?	8r_4g.bmp	50r_4g.bmp	1r_2g.bmp	10r_2g.bmp		50r_4g.bmp			TrialProc	TrialList	0	cvbn	-999999	16	113793	0	v	505	114298	80	-114	-34	-14	-26	6	0	1	3	25	-8	-50	-1	-10	4	4	2	2	-50	4
Hungry_Donkey_bar_English_2	131	1	<?xml version="1.0"?>\n<Clock xmlns:dt="urn:schemas-microsoft-com:datatypes"><Description dt:dt="string">E-Prime Primary Realtime Clock</Description><StartTime><Timestamp dt:dt="int">0</Timestamp><DateUtc dt:dt="string">2016-02-24T21:05:41Z</DateUtc></StartTime><FrequencyChanges><FrequencyChange><Frequency dt:dt="r8">3507714</Frequency><Timestamp dt:dt="r8">356321721278</Timestamp><Current dt:dt="r8">0</Current><DateUtc dt:dt="string">2016-02-24T21:05:41Z</DateUtc></FrequencyChange></FrequencyChanges></Clock>\n	Hungry_Donkey_bar_English_2-131-1	60.018	-130	1.0.0.18	1	-159892689	Standard	2.0.10.353	2.0.10.353	02-24-2016	2/24/2016 9:05:42 PM	16:05:42	2.0.10.248	26	Bar37-63.bmp	42	2	?	0r_4g.bmp	0r_4g.bmp	0r_2g.bmp	0r_2g.bmp		0r_4g.bmp			TrialProc	TrialList	0	cvbn	-999999	16	116343	0	v	643	116986	84	-114	-30	-14	-22	6	0	7	3	26	0	0	0	0	4	4	2	2	0	4
Hungry_Donkey_bar_English_2	131	1	<?xml version="1.0"?>\n<Clock xmlns:dt="urn:schemas-microsoft-com:datatypes"><Description dt:dt="string">E-Prime Primary Realtime Clock</Description><StartTime><Timestamp dt:dt="int">0</Timestamp><DateUtc dt:dt="string">2016-02-24T21:05:41Z</DateUtc></StartTime><FrequencyChanges><FrequencyChange><Frequency dt:dt="r8">3507714</Frequency><Timestamp dt:dt="r8">356321721278</Timestamp><Current dt:dt="r8">0</Current><DateUtc dt:dt="string">2016-02-24T21:05:41Z</DateUtc></FrequencyChange></FrequencyChanges></Clock>\n	Hungry_Donkey_bar_English_2-131-1	60.018	-130	1.0.0.18	1	-159892689	Standard	2.0.10.353	2.0.10.353	02-24-2016	2/24/2016 9:05:42 PM	16:05:42	2.0.10.248	27	Bar37-63.bmp	42	3	?	12r_4g.bmp	0r_4g.bmp	3r_2g.bmp	0r_2g.bmp			3r_2g.bmp		TrialProc	TrialList	0	cvbn	-999999	16	119025	0	b	505	119530	86	-117	-31	-14	-22	5	0	5	3	27	-12	0	-3	0	4	4	2	2	-3	2
Hungry_Donkey_bar_English_2	131	1	<?xml version="1.0"?>\n<Clock xmlns:dt="urn:schemas-microsoft-com:datatypes"><Description dt:dt="string">E-Prime Primary Realtime Clock</Description><StartTime><Timestamp dt:dt="int">0</Timestamp><DateUtc dt:dt="string">2016-02-24T21:05:41Z</DateUtc></StartTime><FrequencyChanges><FrequencyChange><Frequency dt:dt="r8">3507714</Frequency><Timestamp dt:dt="r8">356321721278</Timestamp><Current dt:dt="r8">0</Current><DateUtc dt:dt="string">2016-02-24T21:05:41Z</DateUtc></FrequencyChange></FrequencyChanges></Clock>\n	Hungry_Donkey_bar_English_2-131-1	60.018	-130	1.0.0.18	1	-159892689	Standard	2.0.10.353	2.0.10.353	02-24-2016	2/24/2016 9:05:42 PM	16:05:42	2.0.10.248	28	Bar37-63.bmp	43	4	?	0r_4g.bmp	0r_4g.bmp	0r_2g.bmp	0r_2g.bmp				0r_2g.bmp	TrialProc	TrialList	0	cvbn	-999999	16	121574	0	n	548	122122	88	-117	-29	-14	-22	5	2	6	3	28	0	0	0	0	4	4	2	2	0	2
Hungry_Donkey_bar_English_2	131	1	<?xml version="1.0"?>\n<Clock xmlns:dt="urn:schemas-microsoft-com:datatypes"><Description dt:dt="string">E-Prime Primary Realtime Clock</Description><StartTime><Timestamp dt:dt="int">0</Timestamp><DateUtc dt:dt="string">2016-02-24T21:05:41Z</DateUtc></StartTime><FrequencyChanges><FrequencyChange><Frequency dt:dt="r8">3507714</Frequency><Timestamp dt:dt="r8">356321721278</Timestamp><Current dt:dt="r8">0</Current><DateUtc dt:dt="string">2016-02-24T21:05:41Z</DateUtc></FrequencyChange></FrequencyChanges></Clock>\n	Hungry_Donkey_bar_English_2-131-1	60.018	-130	1.0.0.18	1	-159892689	Standard	2.0.10.353	2.0.10.353	02-24-2016	2/24/2016 9:05:42 PM	16:05:42	2.0.10.248	29	Bar37-63.bmp	42	1	?	10r_4g.bmp	0r_4g.bmp	2r_2g.bmp	0r_2g.bmp	10r_4g.bmp				TrialProc	TrialList	0	cvbn	-999999	16	124157	0	c	397	124554	92	-127	-35	-20	-22	5	2	2	3	29	-10	0	-2	0	4	4	2	2	-10	4
Hungry_Donkey_bar_English_2	131	1	<?xml version="1.0"?>\n<Clock xmlns:dt="urn:schemas-microsoft-com:datatypes"><Description dt:dt="string">E-Prime Primary Realtime Clock</Description><StartTime><Timestamp dt:dt="int">0</Timestamp><DateUtc dt:dt="string">2016-02-24T21:05:41Z</DateUtc></StartTime><FrequencyChanges><FrequencyChange><Frequency dt:dt="r8">3507714</Frequency><Timestamp dt:dt="r8">356321721278</Timestamp><Current dt:dt="r8">0</Current><DateUtc dt:dt="string">2016-02-24T21:05:41Z</DateUtc></FrequencyChange></FrequencyChanges></Clock>\n	Hungry_Donkey_bar_English_2-131-1	60.018	-130	1.0.0.18	1	-159892689	Standard	2.0.10.353	2.0.10.353	02-24-2016	2/24/2016 9:05:42 PM	16:05:42	2.0.10.248	30	Bar37-63.bmp	42	3	?	10r_4g.bmp	0r_4g.bmp	2r_2g.bmp	0r_2g.bmp			2r_2g.bmp		TrialProc	TrialList	0	cvbn	-999999	16	126590	0	b	604	127194	94	-129	-35	-20	-22	5	2	3	3	30	-10	0	-2	0	4	4	2	2	-2	2
Hungry_Donkey_bar_English_2	131	1	<?xml version="1.0"?>\n<Clock xmlns:dt="urn:schemas-microsoft-com:datatypes"><Description dt:dt="string">E-Prime Primary Realtime Clock</Description><StartTime><Timestamp dt:dt="int">0</Timestamp><DateUtc dt:dt="string">2016-02-24T21:05:41Z</DateUtc></StartTime><FrequencyChanges><FrequencyChange><Frequency dt:dt="r8">3507714</Frequency><Timestamp dt:dt="r8">356321721278</Timestamp><Current dt:dt="r8">0</Current><DateUtc dt:dt="string">2016-02-24T21:05:41Z</DateUtc></FrequencyChange></FrequencyChanges></Clock>\n	Hungry_Donkey_bar_English_2-131-1	60.018	-130	1.0.0.18	1	-159892689	Standard	2.0.10.353	2.0.10.353	02-24-2016	2/24/2016 9:05:42 PM	16:05:42	2.0.10.248	31	Bar37-63.bmp	43	2	?	0r_4g.bmp	0r_4g.bmp	0r_2g.bmp	0r_2g.bmp		0r_4g.bmp			TrialProc	TrialList	0	cvbn	-999999	16	129222	0	v	612	129834	98	-129	-31	-20	-18	5	2	9	4	31	0	0	0	0	4	4	2	2	0	4
Hungry_Donkey_bar_English_2	131	1	<?xml version="1.0"?>\n<Clock xmlns:dt="urn:schemas-microsoft-com:datatypes"><Description dt:dt="string">E-Prime Primary Realtime Clock</Description><StartTime><Timestamp dt:dt="int">0</Timestamp><DateUtc dt:dt="string">2016-02-24T21:05:41Z</DateUtc></StartTime><FrequencyChanges><FrequencyChange><Frequency dt:dt="r8">3507714</Frequency><Timestamp dt:dt="r8">356321721278</Timestamp><Current dt:dt="r8">0</Current><DateUtc dt:dt="string">2016-02-24T21:05:41Z</DateUtc></FrequencyChange></FrequencyChanges></Clock>\n	Hungry_Donkey_bar_English_2-131-1	60.018	-130	1.0.0.18	1	-159892689	Standard	2.0.10.353	2.0.10.353	02-24-2016	2/24/2016 9:05:42 PM	16:05:42	2.0.10.248	32	Bar50-50.bmp	44	4	?	0r_4g.bmp	0r_4g.bmp	0r_2g.bmp	0r_2g.bmp				0r_2g.bmp	TrialProc	TrialList	0	cvbn	-999999	16	131871	0	n	602	132473	100	-129	-29	-20	-18	5	4	10	4	32	0	0	0	0	4	4	2	2	0	2
Hungry_Donkey_bar_English_2	131	1	<?xml version="1.0"?>\n<Clock xmlns:dt="urn:schemas-microsoft-com:datatypes"><Description dt:dt="string">E-Prime Primary Realtime Clock</Description><StartTime><Timestamp dt:dt="int">0</Timestamp><DateUtc dt:dt="string">2016-02-24T21:05:41Z</DateUtc></StartTime><FrequencyChanges><FrequencyChange><Frequency dt:dt="r8">3507714</Frequency><Timestamp dt:dt="r8">356321721278</Timestamp><Current dt:dt="r8">0</Current><DateUtc dt:dt="string">2016-02-24T21:05:41Z</DateUtc></FrequencyChange></FrequencyChanges></Clock>\n	Hungry_Donkey_bar_English_2-131-1	60.018	-130	1.0.0.18	1	-159892689	Standard	2.0.10.353	2.0.10.353	02-24-2016	2/24/2016 9:05:42 PM	16:05:42	2.0.10.248	33	Bar50-50.bmp	45	2	?	0r_4g.bmp	0r_4g.bmp	0r_2g.bmp	0r_2g.bmp		0r_4g.bmp			TrialProc	TrialList	0	cvbn	-999999	16	134504	0	v	353	134857	104	-129	-25	-20	-14	5	4	6	4	33	0	0	0	0	4	4	2	2	0	4
Hungry_Donkey_bar_English_2	131	1	<?xml version="1.0"?>\n<Clock xmlns:dt="urn:schemas-microsoft-com:datatypes"><Description dt:dt="string">E-Prime Primary Realtime Clock</Description><StartTime><Timestamp dt:dt="int">0</Timestamp><DateUtc dt:dt="string">2016-02-24T21:05:41Z</DateUtc></StartTime><FrequencyChanges><FrequencyChange><Frequency dt:dt="r8">3507714</Frequency><Timestamp dt:dt="r8">356321721278</Timestamp><Current dt:dt="r8">0</Current><DateUtc dt:dt="string">2016-02-24T21:05:41Z</DateUtc></FrequencyChange></FrequencyChanges></Clock>\n	Hungry_Donkey_bar_English_2-131-1	60.018	-130	1.0.0.18	1	-159892689	Standard	2.0.10.353	2.0.10.353	02-24-2016	2/24/2016 9:05:42 PM	16:05:42	2.0.10.248	34	Bar50-50.bmp	46	2	?	10r_4g.bmp	0r_4g.bmp	2r_2g.bmp	0r_2g.bmp		0r_4g.bmp			TrialProc	TrialList	0	cvbn	-999999	16	136887	0	v	306	137193	108	-129	-21	-20	-10	5	4	4	4	34	-10	0	-2	0	4	4	2	2	0	4
Hungry_Donkey_bar_English_2	131	1	<?xml version="1.0"?>\n<Clock xmlns:dt="urn:schemas-microsoft-com:datatypes"><Description dt:dt="string">E-Prime Primary Realtime Clock</Description><StartTime><Timestamp dt:dt="int">0</Timestamp><DateUtc dt:dt="string">2016-02-24T21:05:41Z</DateUtc></StartTime><FrequencyChanges><FrequencyChange><Frequency dt:dt="r8">3507714</Frequency><Timestamp dt:dt="r8">356321721278</Timestamp><Current dt:dt="r8">0</Current><DateUtc dt:dt="string">2016-02-24T21:05:41Z</DateUtc></FrequencyChange></FrequencyChanges></Clock>\n	Hungry_Donkey_bar_English_2-131-1	60.018	-130	1.0.0.18	1	-159892689	Standard	2.0.10.353	2.0.10.353	02-24-2016	2/24/2016 9:05:42 PM	16:05:42	2.0.10.248	35	Bar50-50.bmp	46	2	?	10r_4g.bmp	0r_4g.bmp	2r_2g.bmp	0r_2g.bmp		0r_4g.bmp			TrialProc	TrialList	0	cvbn	-999999	16	139219	0	v	502	139721	112	-129	-17	-20	-6	5	4	3	4	35	-10	0	-2	0	4	4	2	2	0	4
Hungry_Donkey_bar_English_2	131	1	<?xml version="1.0"?>\n<Clock xmlns:dt="urn:schemas-microsoft-com:datatypes"><Description dt:dt="string">E-Prime Primary Realtime Clock</Description><StartTime><Timestamp dt:dt="int">0</Timestamp><DateUtc dt:dt="string">2016-02-24T21:05:41Z</DateUtc></StartTime><FrequencyChanges><FrequencyChange><Frequency dt:dt="r8">3507714</Frequency><Timestamp dt:dt="r8">356321721278</Timestamp><Current dt:dt="r8">0</Current><DateUtc dt:dt="string">2016-02-24T21:05:41Z</DateUtc></FrequencyChange></FrequencyChanges></Clock>\n	Hungry_Donkey_bar_English_2-131-1	60.018	-130	1.0.0.18	1	-159892689	Standard	2.0.10.353	2.0.10.353	02-24-2016	2/24/2016 9:05:42 PM	16:05:42	2.0.10.248	36	Bar50-50.bmp	47	2	?	0r_4g.bmp	0r_4g.bmp	0r_2g.bmp	0r_2g.bmp		0r_4g.bmp			TrialProc	TrialList	0	cvbn	-999999	16	141752	0	v	545	142297	116	-129	-13	-20	-2	5	4	8	4	36	0	0	0	0	4	4	2	2	0	4
Hungry_Donkey_bar_English_2	131	1	<?xml version="1.0"?>\n<Clock xmlns:dt="urn:schemas-microsoft-com:datatypes"><Description dt:dt="string">E-Prime Primary Realtime Clock</Description><StartTime><Timestamp dt:dt="int">0</Timestamp><DateUtc dt:dt="string">2016-02-24T21:05:41Z</DateUtc></StartTime><FrequencyChanges><FrequencyChange><Frequency dt:dt="r8">3507714</Frequency><Timestamp dt:dt="r8">356321721278</Timestamp><Current dt:dt="r8">0</Current><DateUtc dt:dt="string">2016-02-24T21:05:41Z</DateUtc></FrequencyChange></FrequencyChanges></Clock>\n	Hungry_Donkey_bar_English_2-131-1	60.018	-130	1.0.0.18	1	-159892689	Standard	2.0.10.353	2.0.10.353	02-24-2016	2/24/2016 9:05:42 PM	16:05:42	2.0.10.248	37	Bar50-50.bmp	48	2	?	0r_4g.bmp	0r_4g.bmp	0r_2g.bmp	0r_2g.bmp		0r_4g.bmp			TrialProc	TrialList	0	cvbn	-999999	16	144334	0	v	459	144793	120	-129	-9	-20	2	5	4	7	4	37	0	0	0	0	4	4	2	2	0	4
Hungry_Donkey_bar_English_2	131	1	<?xml version="1.0"?>\n<Clock xmlns:dt="urn:schemas-microsoft-com:datatypes"><Description dt:dt="string">E-Prime Primary Realtime Clock</Description><StartTime><Timestamp dt:dt="int">0</Timestamp><DateUtc dt:dt="string">2016-02-24T21:05:41Z</DateUtc></StartTime><FrequencyChanges><FrequencyChange><Frequency dt:dt="r8">3507714</Frequency><Timestamp dt:dt="r8">356321721278</Timestamp><Current dt:dt="r8">0</Current><DateUtc dt:dt="string">2016-02-24T21:05:41Z</DateUtc></FrequencyChange></FrequencyChanges></Clock>\n	Hungry_Donkey_bar_English_2-131-1	60.018	-130	1.0.0.18	1	-159892689	Standard	2.0.10.353	2.0.10.353	02-24-2016	2/24/2016 9:05:42 PM	16:05:42	2.0.10.248	38	Bar37-63.bmp	41	2	?	8r_4g.bmp	50r_4g.bmp	1r_2g.bmp	10r_2g.bmp		50r_4g.bmp			TrialProc	TrialList	0	cvbn	-999999	16	146817	0	v	647	147464	124	-179	-55	-20	-44	5	4	1	4	38	-8	-50	-1	-10	4	4	2	2	-50	4
Hungry_Donkey_bar_English_2	131	1	<?xml version="1.0"?>\n<Clock xmlns:dt="urn:schemas-microsoft-com:datatypes"><Description dt:dt="string">E-Prime Primary Realtime Clock</Description><StartTime><Timestamp dt:dt="int">0</Timestamp><DateUtc dt:dt="string">2016-02-24T21:05:41Z</DateUtc></StartTime><FrequencyChanges><FrequencyChange><Frequency dt:dt="r8">3507714</Frequency><Timestamp dt:dt="r8">356321721278</Timestamp><Current dt:dt="r8">0</Current><DateUtc dt:dt="string">2016-02-24T21:05:41Z</DateUtc></FrequencyChange></FrequencyChanges></Clock>\n	Hungry_Donkey_bar_English_2-131-1	60.018	-130	1.0.0.18	1	-159892689	Standard	2.0.10.353	2.0.10.353	02-24-2016	2/24/2016 9:05:42 PM	16:05:42	2.0.10.248	39	Bar37-63.bmp	41	4	?	10r_4g.bmp	0r_4g.bmp	2r_2g.bmp	0r_2g.bmp				0r_2g.bmp	TrialProc	TrialList	0	cvbn	-999999	17	149500	0	n	572	150072	126	-179	-53	-20	-44	5	6	2	4	39	-10	0	-2	0	4	4	2	2	0	2
Hungry_Donkey_bar_English_2	131	1	<?xml version="1.0"?>\n<Clock xmlns:dt="urn:schemas-microsoft-com:datatypes"><Description dt:dt="string">E-Prime Primary Realtime Clock</Description><StartTime><Timestamp dt:dt="int">0</Timestamp><DateUtc dt:dt="string">2016-02-24T21:05:41Z</DateUtc></StartTime><FrequencyChanges><FrequencyChange><Frequency dt:dt="r8">3507714</Frequency><Timestamp dt:dt="r8">356321721278</Timestamp><Current dt:dt="r8">0</Current><DateUtc dt:dt="string">2016-02-24T21:05:41Z</DateUtc></FrequencyChange></FrequencyChanges></Clock>\n	Hungry_Donkey_bar_English_2-131-1	60.018	-130	1.0.0.18	1	-159892689	Standard	2.0.10.353	2.0.10.353	02-24-2016	2/24/2016 9:05:42 PM	16:05:42	2.0.10.248	40	Bar37-63.bmp	40	1	?	12r_4g.bmp	0r_4g.bmp	3r_2g.bmp	0r_2g.bmp	12r_4g.bmp				TrialProc	TrialList	0	cvbn	-999999	16	152099	0	c	149	152248	130	-191	-61	-28	-44	5	6	5	4	40	-12	0	-3	0	4	4	2	2	-12	4
Hungry_Donkey_bar_English_2	131	1	<?xml version="1.0"?>\n<Clock xmlns:dt="urn:schemas-microsoft-com:datatypes"><Description dt:dt="string">E-Prime Primary Realtime Clock</Description><StartTime><Timestamp dt:dt="int">0</Timestamp><DateUtc dt:dt="string">2016-02-24T21:05:41Z</DateUtc></StartTime><FrequencyChanges><FrequencyChange><Frequency dt:dt="r8">3507714</Frequency><Timestamp dt:dt="r8">356321721278</Timestamp><Current dt:dt="r8">0</Current><DateUtc dt:dt="string">2016-02-24T21:05:41Z</DateUtc></FrequencyChange></FrequencyChanges></Clock>\n	Hungry_Donkey_bar_English_2-131-1	60.018	-130	1.0.0.18	1	-159892689	Standard	2.0.10.353	2.0.10.353	02-24-2016	2/24/2016 9:05:42 PM	16:05:42	2.0.10.248	41	Bar37-63.bmp	41	2	?	10r_4g.bmp	0r_4g.bmp	2r_2g.bmp	0r_2g.bmp		0r_4g.bmp			TrialProc	TrialList	0	cvbn	-999999	16	154281	0	v	591	154872	134	-191	-57	-28	-40	5	6	4	5	41	-10	0	-2	0	4	4	2	2	0	4
Hungry_Donkey_bar_English_2	131	1	<?xml version="1.0"?>\n<Clock xmlns:dt="urn:schemas-microsoft-com:datatypes"><Description dt:dt="string">E-Prime Primary Realtime Clock</Description><StartTime><Timestamp dt:dt="int">0</Timestamp><DateUtc dt:dt="string">2016-02-24T21:05:41Z</DateUtc></StartTime><FrequencyChanges><FrequencyChange><Frequency dt:dt="r8">3507714</Frequency><Timestamp dt:dt="r8">356321721278</Timestamp><Current dt:dt="r8">0</Current><DateUtc dt:dt="string">2016-02-24T21:05:41Z</DateUtc></FrequencyChange></FrequencyChanges></Clock>\n	Hungry_Donkey_bar_English_2-131-1	60.018	-130	1.0.0.18	1	-159892689	Standard	2.0.10.353	2.0.10.353	02-24-2016	2/24/2016 9:05:42 PM	16:05:42	2.0.10.248	42	Bar37-63.bmp	41	3	?	10r_4g.bmp	0r_4g.bmp	2r_2g.bmp	0r_2g.bmp			2r_2g.bmp		TrialProc	TrialList	0	cvbn	-999999	16	156897	0	b	535	157432	136	-193	-57	-28	-40	5	6	3	5	42	-10	0	-2	0	4	4	2	2	-2	2
Hungry_Donkey_bar_English_2	131	1	<?xml version="1.0"?>\n<Clock xmlns:dt="urn:schemas-microsoft-com:datatypes"><Description dt:dt="string">E-Prime Primary Realtime Clock</Description><StartTime><Timestamp dt:dt="int">0</Timestamp><DateUtc dt:dt="string">2016-02-24T21:05:41Z</DateUtc></StartTime><FrequencyChanges><FrequencyChange><Frequency dt:dt="r8">3507714</Frequency><Timestamp dt:dt="r8">356321721278</Timestamp><Current dt:dt="r8">0</Current><DateUtc dt:dt="string">2016-02-24T21:05:41Z</DateUtc></FrequencyChange></FrequencyChanges></Clock>\n	Hungry_Donkey_bar_English_2-131-1	60.018	-130	1.0.0.18	1	-159892689	Standard	2.0.10.353	2.0.10.353	02-24-2016	2/24/2016 9:05:42 PM	16:05:42	2.0.10.248	43	Bar37-63.bmp	42	1	?	0r_4g.bmp	0r_4g.bmp	0r_2g.bmp	0r_2g.bmp	0r_4g.bmp				TrialProc	TrialList	0	cvbn	-999999	16	159463	0	c	593	160056	140	-193	-53	-24	-40	5	6	9	5	43	0	0	0	0	4	4	2	2	0	4
Hungry_Donkey_bar_English_2	131	1	<?xml version="1.0"?>\n<Clock xmlns:dt="urn:schemas-microsoft-com:datatypes"><Description dt:dt="string">E-Prime Primary Realtime Clock</Description><StartTime><Timestamp dt:dt="int">0</Timestamp><DateUtc dt:dt="string">2016-02-24T21:05:41Z</DateUtc></StartTime><FrequencyChanges><FrequencyChange><Frequency dt:dt="r8">3507714</Frequency><Timestamp dt:dt="r8">356321721278</Timestamp><Current dt:dt="r8">0</Current><DateUtc dt:dt="string">2016-02-24T21:05:41Z</DateUtc></FrequencyChange></FrequencyChanges></Clock>\n	Hungry_Donkey_bar_English_2-131-1	60.018	-130	1.0.0.18	1	-159892689	Standard	2.0.10.353	2.0.10.353	02-24-2016	2/24/2016 9:05:42 PM	16:05:42	2.0.10.248	44	Bar37-63.bmp	42	4	?	0r_4g.bmp	0r_4g.bmp	0r_2g.bmp	0r_2g.bmp				0r_2g.bmp	TrialProc	TrialList	0	cvbn	-999999	16	162079	0	n	537	162616	142	-193	-51	-24	-40	5	8	6	5	44	0	0	0	0	4	4	2	2	0	2
Hungry_Donkey_bar_English_2	131	1	<?xml version="1.0"?>\n<Clock xmlns:dt="urn:schemas-microsoft-com:datatypes"><Description dt:dt="string">E-Prime Primary Realtime Clock</Description><StartTime><Timestamp dt:dt="int">0</Timestamp><DateUtc dt:dt="string">2016-02-24T21:05:41Z</DateUtc></StartTime><FrequencyChanges><FrequencyChange><Frequency dt:dt="r8">3507714</Frequency><Timestamp dt:dt="r8">356321721278</Timestamp><Current dt:dt="r8">0</Current><DateUtc dt:dt="string">2016-02-24T21:05:41Z</DateUtc></FrequencyChange></FrequencyChanges></Clock>\n	Hungry_Donkey_bar_English_2-131-1	60.018	-130	1.0.0.18	1	-159892689	Standard	2.0.10.353	2.0.10.353	02-24-2016	2/24/2016 9:05:42 PM	16:05:42	2.0.10.248	45	Bar37-63.bmp	43	1	?	0r_4g.bmp	0r_4g.bmp	0r_2g.bmp	0r_2g.bmp	0r_4g.bmp				TrialProc	TrialList	0	cvbn	-999999	16	164645	0	c	498	165143	146	-193	-47	-20	-40	5	8	7	5	45	0	0	0	0	4	4	2	2	0	4
Hungry_Donkey_bar_English_2	131	1	<?xml version="1.0"?>\n<Clock xmlns:dt="urn:schemas-microsoft-com:datatypes"><Description dt:dt="string">E-Prime Primary Realtime Clock</Description><StartTime><Timestamp dt:dt="int">0</Timestamp><DateUtc dt:dt="string">2016-02-24T21:05:41Z</DateUtc></StartTime><FrequencyChanges><FrequencyChange><Frequency dt:dt="r8">3507714</Frequency><Timestamp dt:dt="r8">356321721278</Timestamp><Current dt:dt="r8">0</Current><DateUtc dt:dt="string">2016-02-24T21:05:41Z</DateUtc></FrequencyChange></FrequencyChanges></Clock>\n	Hungry_Donkey_bar_English_2-131-1	60.018	-130	1.0.0.18	1	-159892689	Standard	2.0.10.353	2.0.10.353	02-24-2016	2/24/2016 9:05:42 PM	16:05:42	2.0.10.248	46	Bar37-63.bmp	42	4	?	8r_4g.bmp	50r_4g.bmp	1r_2g.bmp	10r_2g.bmp				10r_2g.bmp	TrialProc	TrialList	0	cvbn	-999999	16	167178	0	n	317	167495	148	-203	-55	-20	-40	5	0	1	5	46	-8	-50	-1	-10	4	4	2	2	-10	2
Hungry_Donkey_bar_English_2	131	1	<?xml version="1.0"?>\n<Clock xmlns:dt="urn:schemas-microsoft-com:datatypes"><Description dt:dt="string">E-Prime Primary Realtime Clock</Description><StartTime><Timestamp dt:dt="int">0</Timestamp><DateUtc dt:dt="string">2016-02-24T21:05:41Z</DateUtc></StartTime><FrequencyChanges><FrequencyChange><Frequency dt:dt="r8">3507714</Frequency><Timestamp dt:dt="r8">356321721278</Timestamp><Current dt:dt="r8">0</Current><DateUtc dt:dt="string">2016-02-24T21:05:41Z</DateUtc></FrequencyChange></FrequencyChanges></Clock>\n	Hungry_Donkey_bar_English_2-131-1	60.018	-130	1.0.0.18	1	-159892689	Standard	2.0.10.353	2.0.10.353	02-24-2016	2/24/2016 9:05:42 PM	16:05:42	2.0.10.248	47	Bar37-63.bmp	43	2	?	10r_4g.bmp	0r_4g.bmp	2r_2g.bmp	0r_2g.bmp		0r_4g.bmp			TrialProc	TrialList	0	cvbn	-999999	16	169527	0	v	336	169863	152	-203	-51	-20	-36	5	0	2	5	47	-10	0	-2	0	4	4	2	2	0	4
Hungry_Donkey_bar_English_2	131	1	<?xml version="1.0"?>\n<Clock xmlns:dt="urn:schemas-microsoft-com:datatypes"><Description dt:dt="string">E-Prime Primary Realtime Clock</Description><StartTime><Timestamp dt:dt="int">0</Timestamp><DateUtc dt:dt="string">2016-02-24T21:05:41Z</DateUtc></StartTime><FrequencyChanges><FrequencyChange><Frequency dt:dt="r8">3507714</Frequency><Timestamp dt:dt="r8">356321721278</Timestamp><Current dt:dt="r8">0</Current><DateUtc dt:dt="string">2016-02-24T21:05:41Z</DateUtc></FrequencyChange></FrequencyChanges></Clock>\n	Hungry_Donkey_bar_English_2-131-1	60.018	-130	1.0.0.18	1	-159892689	Standard	2.0.10.353	2.0.10.353	02-24-2016	2/24/2016 9:05:42 PM	16:05:42	2.0.10.248	48	Bar37-63.bmp	43	1	?	0r_4g.bmp	0r_4g.bmp	0r_2g.bmp	0r_2g.bmp	0r_4g.bmp				TrialProc	TrialList	0	cvbn	-999999	16	171893	0	c	386	172279	156	-203	-47	-16	-36	5	0	10	5	48	0	0	0	0	4	4	2	2	0	4
Hungry_Donkey_bar_English_2	131	1	<?xml version="1.0"?>\n<Clock xmlns:dt="urn:schemas-microsoft-com:datatypes"><Description dt:dt="string">E-Prime Primary Realtime Clock</Description><StartTime><Timestamp dt:dt="int">0</Timestamp><DateUtc dt:dt="string">2016-02-24T21:05:41Z</DateUtc></StartTime><FrequencyChanges><FrequencyChange><Frequency dt:dt="r8">3507714</Frequency><Timestamp dt:dt="r8">356321721278</Timestamp><Current dt:dt="r8">0</Current><DateUtc dt:dt="string">2016-02-24T21:05:41Z</DateUtc></FrequencyChange></FrequencyChanges></Clock>\n	Hungry_Donkey_bar_English_2-131-1	60.018	-130	1.0.0.18	1	-159892689	Standard	2.0.10.353	2.0.10.353	02-24-2016	2/24/2016 9:05:42 PM	16:05:42	2.0.10.248	49	Bar50-50.bmp	44	3	?	0r_4g.bmp	0r_4g.bmp	0r_2g.bmp	0r_2g.bmp			0r_2g.bmp		TrialProc	TrialList	0	cvbn	-999999	16	174309	0	b	626	174935	158	-203	-45	-16	-36	7	0	8	5	49	0	0	0	0	4	4	2	2	0	2
Hungry_Donkey_bar_English_2	131	1	<?xml version="1.0"?>\n<Clock xmlns:dt="urn:schemas-microsoft-com:datatypes"><Description dt:dt="string">E-Prime Primary Realtime Clock</Description><StartTime><Timestamp dt:dt="int">0</Timestamp><DateUtc dt:dt="string">2016-02-24T21:05:41Z</DateUtc></StartTime><FrequencyChanges><FrequencyChange><Frequency dt:dt="r8">3507714</Frequency><Timestamp dt:dt="r8">356321721278</Timestamp><Current dt:dt="r8">0</Current><DateUtc dt:dt="string">2016-02-24T21:05:41Z</DateUtc></FrequencyChange></FrequencyChanges></Clock>\n	Hungry_Donkey_bar_English_2-131-1	60.018	-130	1.0.0.18	1	-159892689	Standard	2.0.10.353	2.0.10.353	02-24-2016	2/24/2016 9:05:42 PM	16:05:42	2.0.10.248	50	Bar37-63.bmp	43	1	?	12r_4g.bmp	0r_4g.bmp	3r_2g.bmp	0r_2g.bmp	12r_4g.bmp				TrialProc	TrialList	0	cvbn	-999999	16	176975	0	c	536	177511	162	-215	-53	-24	-36	7	0	5	5	50	-12	0	-3	0	4	4	2	2	-12	4
Hungry_Donkey_bar_English_2	131	1	<?xml version="1.0"?>\n<Clock xmlns:dt="urn:schemas-microsoft-com:datatypes"><Description dt:dt="string">E-Prime Primary Realtime Clock</Description><StartTime><Timestamp dt:dt="int">0</Timestamp><DateUtc dt:dt="string">2016-02-24T21:05:41Z</DateUtc></StartTime><FrequencyChanges><FrequencyChange><Frequency dt:dt="r8">3507714</Frequency><Timestamp dt:dt="r8">356321721278</Timestamp><Current dt:dt="r8">0</Current><DateUtc dt:dt="string">2016-02-24T21:05:41Z</DateUtc></FrequencyChange></FrequencyChanges></Clock>\n	Hungry_Donkey_bar_English_2-131-1	60.018	-130	1.0.0.18	1	-159892689	Standard	2.0.10.353	2.0.10.353	02-24-2016	2/24/2016 9:05:42 PM	16:05:42	2.0.10.248	51	Bar37-63.bmp	39	2	?	8r_4g.bmp	50r_4g.bmp	1r_2g.bmp	10r_2g.bmp		50r_4g.bmp			TrialProc	TrialList	0	cvbn	-999999	16	179541	0	v	338	179879	166	-265	-99	-24	-82	7	0	1	6	51	-8	-50	-1	-10	4	4	2	2	-50	4
Hungry_Donkey_bar_English_2	131	1	<?xml version="1.0"?>\n<Clock xmlns:dt="urn:schemas-microsoft-com:datatypes"><Description dt:dt="string">E-Prime Primary Realtime Clock</Description><StartTime><Timestamp dt:dt="int">0</Timestamp><DateUtc dt:dt="string">2016-02-24T21:05:41Z</DateUtc></StartTime><FrequencyChanges><FrequencyChange><Frequency dt:dt="r8">3507714</Frequency><Timestamp dt:dt="r8">356321721278</Timestamp><Current dt:dt="r8">0</Current><DateUtc dt:dt="string">2016-02-24T21:05:41Z</DateUtc></FrequencyChange></FrequencyChanges></Clock>\n	Hungry_Donkey_bar_English_2-131-1	60.018	-130	1.0.0.18	1	-159892689	Standard	2.0.10.353	2.0.10.353	02-24-2016	2/24/2016 9:05:42 PM	16:05:42	2.0.10.248	52	Bar37-63.bmp	39	4	?	10r_4g.bmp	0r_4g.bmp	2r_2g.bmp	0r_2g.bmp				0r_2g.bmp	TrialProc	TrialList	0	cvbn	-999999	17	181907	0	n	387	182294	168	-265	-97	-24	-82	7	2	4	6	52	-10	0	-2	0	4	4	2	2	0	2
Hungry_Donkey_bar_English_2	131	1	<?xml version="1.0"?>\n<Clock xmlns:dt="urn:schemas-microsoft-com:datatypes"><Description dt:dt="string">E-Prime Primary Realtime Clock</Description><StartTime><Timestamp dt:dt="int">0</Timestamp><DateUtc dt:dt="string">2016-02-24T21:05:41Z</DateUtc></StartTime><FrequencyChanges><FrequencyChange><Frequency dt:dt="r8">3507714</Frequency><Timestamp dt:dt="r8">356321721278</Timestamp><Current dt:dt="r8">0</Current><DateUtc dt:dt="string">2016-02-24T21:05:41Z</DateUtc></FrequencyChange></FrequencyChanges></Clock>\n	Hungry_Donkey_bar_English_2-131-1	60.018	-130	1.0.0.18	1	-159892689	Standard	2.0.10.353	2.0.10.353	02-24-2016	2/24/2016 9:05:42 PM	16:05:42	2.0.10.248	53	Bar37-63.bmp	39	4	?	0r_4g.bmp	0r_4g.bmp	0r_2g.bmp	0r_2g.bmp				0r_2g.bmp	TrialProc	TrialList	0	cvbn	-999999	17	184323	0	n	419	184742	170	-265	-95	-24	-82	7	4	8	6	53	0	0	0	0	4	4	2	2	0	2
Hungry_Donkey_bar_English_2	131	1	<?xml version="1.0"?>\n<Clock xmlns:dt="urn:schemas-microsoft-com:datatypes"><Description dt:dt="string">E-Prime Primary Realtime Clock</Description><StartTime><Timestamp dt:dt="int">0</Timestamp><DateUtc dt:dt="string">2016-02-24T21:05:41Z</DateUtc></StartTime><FrequencyChanges><FrequencyChange><Frequency dt:dt="r8">3507714</Frequency><Timestamp dt:dt="r8">356321721278</Timestamp><Current dt:dt="r8">0</Current><DateUtc dt:dt="string">2016-02-24T21:05:41Z</DateUtc></FrequencyChange></FrequencyChanges></Clock>\n	Hungry_Donkey_bar_English_2-131-1	60.018	-130	1.0.0.18	1	-159892689	Standard	2.0.10.353	2.0.10.353	02-24-2016	2/24/2016 9:05:42 PM	16:05:42	2.0.10.248	54	Bar37-63.bmp	39	4	?	10r_4g.bmp	0r_4g.bmp	2r_2g.bmp	0r_2g.bmp				0r_2g.bmp	TrialProc	TrialList	0	cvbn	-999999	16	186772	0	n	354	187126	172	-265	-93	-24	-82	7	6	3	6	54	-10	0	-2	0	4	4	2	2	0	2
Hungry_Donkey_bar_English_2	131	1	<?xml version="1.0"?>\n<Clock xmlns:dt="urn:schemas-microsoft-com:datatypes"><Description dt:dt="string">E-Prime Primary Realtime Clock</Description><StartTime><Timestamp dt:dt="int">0</Timestamp><DateUtc dt:dt="string">2016-02-24T21:05:41Z</DateUtc></StartTime><FrequencyChanges><FrequencyChange><Frequency dt:dt="r8">3507714</Frequency><Timestamp dt:dt="r8">356321721278</Timestamp><Current dt:dt="r8">0</Current><DateUtc dt:dt="string">2016-02-24T21:05:41Z</DateUtc></FrequencyChange></FrequencyChanges></Clock>\n	Hungry_Donkey_bar_English_2-131-1	60.018	-130	1.0.0.18	1	-159892689	Standard	2.0.10.353	2.0.10.353	02-24-2016	2/24/2016 9:05:42 PM	16:05:42	2.0.10.248	55	Bar37-63.bmp	40	4	?	10r_4g.bmp	0r_4g.bmp	2r_2g.bmp	0r_2g.bmp				0r_2g.bmp	TrialProc	TrialList	0	cvbn	-999999	16	189154	0	n	324	189478	174	-265	-91	-24	-82	7	8	2	6	55	-10	0	-2	0	4	4	2	2	0	2
Hungry_Donkey_bar_English_2	131	1	<?xml version="1.0"?>\n<Clock xmlns:dt="urn:schemas-microsoft-com:datatypes"><Description dt:dt="string">E-Prime Primary Realtime Clock</Description><StartTime><Timestamp dt:dt="int">0</Timestamp><DateUtc dt:dt="string">2016-02-24T21:05:41Z</DateUtc></StartTime><FrequencyChanges><FrequencyChange><Frequency dt:dt="r8">3507714</Frequency><Timestamp dt:dt="r8">356321721278</Timestamp><Current dt:dt="r8">0</Current><DateUtc dt:dt="string">2016-02-24T21:05:41Z</DateUtc></FrequencyChange></FrequencyChanges></Clock>\n	Hungry_Donkey_bar_English_2-131-1	60.018	-130	1.0.0.18	1	-159892689	Standard	2.0.10.353	2.0.10.353	02-24-2016	2/24/2016 9:05:42 PM	16:05:42	2.0.10.248	56	Bar37-63.bmp	40	4	?	0r_4g.bmp	0r_4g.bmp	0r_2g.bmp	0r_2g.bmp				0r_2g.bmp	TrialProc	TrialList	0	cvbn	-999999	16	191504	0	n	390	191894	176	-265	-89	-24	-82	7	10	9	6	56	0	0	0	0	4	4	2	2	0	2
Hungry_Donkey_bar_English_2	131	1	<?xml version="1.0"?>\n<Clock xmlns:dt="urn:schemas-microsoft-com:datatypes"><Description dt:dt="string">E-Prime Primary Realtime Clock</Description><StartTime><Timestamp dt:dt="int">0</Timestamp><DateUtc dt:dt="string">2016-02-24T21:05:41Z</DateUtc></StartTime><FrequencyChanges><FrequencyChange><Frequency dt:dt="r8">3507714</Frequency><Timestamp dt:dt="r8">356321721278</Timestamp><Current dt:dt="r8">0</Current><DateUtc dt:dt="string">2016-02-24T21:05:41Z</DateUtc></FrequencyChange></FrequencyChanges></Clock>\n	Hungry_Donkey_bar_English_2-131-1	60.018	-130	1.0.0.18	1	-159892689	Standard	2.0.10.353	2.0.10.353	02-24-2016	2/24/2016 9:05:42 PM	16:05:42	2.0.10.248	57	Bar37-63.bmp	40	4	?	0r_4g.bmp	0r_4g.bmp	0r_2g.bmp	0r_2g.bmp				0r_2g.bmp	TrialProc	TrialList	0	cvbn	-999999	16	193920	0	n	406	194326	178	-265	-87	-24	-82	7	12	10	6	57	0	0	0	0	4	4	2	2	0	2
Hungry_Donkey_bar_English_2	131	1	<?xml version="1.0"?>\n<Clock xmlns:dt="urn:schemas-microsoft-com:datatypes"><Description dt:dt="string">E-Prime Primary Realtime Clock</Description><StartTime><Timestamp dt:dt="int">0</Timestamp><DateUtc dt:dt="string">2016-02-24T21:05:41Z</DateUtc></StartTime><FrequencyChanges><FrequencyChange><Frequency dt:dt="r8">3507714</Frequency><Timestamp dt:dt="r8">356321721278</Timestamp><Current dt:dt="r8">0</Current><DateUtc dt:dt="string">2016-02-24T21:05:41Z</DateUtc></FrequencyChange></FrequencyChanges></Clock>\n	Hungry_Donkey_bar_English_2-131-1	60.018	-130	1.0.0.18	1	-159892689	Standard	2.0.10.353	2.0.10.353	02-24-2016	2/24/2016 9:05:42 PM	16:05:42	2.0.10.248	58	Bar37-63.bmp	40	4	?	0r_4g.bmp	0r_4g.bmp	0r_2g.bmp	0r_2g.bmp				0r_2g.bmp	TrialProc	TrialList	0	cvbn	-999999	16	196352	0	n	502	196854	180	-265	-85	-24	-82	7	14	6	6	58	0	0	0	0	4	4	2	2	0	2
Hungry_Donkey_bar_English_2	131	1	<?xml version="1.0"?>\n<Clock xmlns:dt="urn:schemas-microsoft-com:datatypes"><Description dt:dt="string">E-Prime Primary Realtime Clock</Description><StartTime><Timestamp dt:dt="int">0</Timestamp><DateUtc dt:dt="string">2016-02-24T21:05:41Z</DateUtc></StartTime><FrequencyChanges><FrequencyChange><Frequency dt:dt="r8">3507714</Frequency><Timestamp dt:dt="r8">356321721278</Timestamp><Current dt:dt="r8">0</Current><DateUtc dt:dt="string">2016-02-24T21:05:41Z</DateUtc></FrequencyChange></FrequencyChanges></Clock>\n	Hungry_Donkey_bar_English_2-131-1	60.018	-130	1.0.0.18	1	-159892689	Standard	2.0.10.353	2.0.10.353	02-24-2016	2/24/2016 9:05:42 PM	16:05:42	2.0.10.248	59	Bar37-63.bmp	41	4	?	0r_4g.bmp	0r_4g.bmp	0r_2g.bmp	0r_2g.bmp				0r_2g.bmp	TrialProc	TrialList	0	cvbn	-999999	16	198885	0	n	480	199365	182	-265	-83	-24	-82	7	16	7	6	59	0	0	0	0	4	4	2	2	0	2
Hungry_Donkey_bar_English_2	131	1	<?xml version="1.0"?>\n<Clock xmlns:dt="urn:schemas-microsoft-com:datatypes"><Description dt:dt="string">E-Prime Primary Realtime Clock</Description><StartTime><Timestamp dt:dt="int">0</Timestamp><DateUtc dt:dt="string">2016-02-24T21:05:41Z</DateUtc></StartTime><FrequencyChanges><FrequencyChange><Frequency dt:dt="r8">3507714</Frequency><Timestamp dt:dt="r8">356321721278</Timestamp><Current dt:dt="r8">0</Current><DateUtc dt:dt="string">2016-02-24T21:05:41Z</DateUtc></FrequencyChange></FrequencyChanges></Clock>\n	Hungry_Donkey_bar_English_2-131-1	60.018	-130	1.0.0.18	1	-159892689	Standard	2.0.10.353	2.0.10.353	02-24-2016	2/24/2016 9:05:42 PM	16:05:42	2.0.10.248	60	Bar37-63.bmp	41	4	?	12r_4g.bmp	0r_4g.bmp	3r_2g.bmp	0r_2g.bmp				0r_2g.bmp	TrialProc	TrialList	0	cvbn	-999999	16	201401	0	n	428	201829	184	-265	-81	-24	-82	7	18	5	6	60	-12	0	-3	0	4	4	2	2	0	2
Hungry_Donkey_bar_English_2	131	1	<?xml version="1.0"?>\n<Clock xmlns:dt="urn:schemas-microsoft-com:datatypes"><Description dt:dt="string">E-Prime Primary Realtime Clock</Description><StartTime><Timestamp dt:dt="int">0</Timestamp><DateUtc dt:dt="string">2016-02-24T21:05:41Z</DateUtc></StartTime><FrequencyChanges><FrequencyChange><Frequency dt:dt="r8">3507714</Frequency><Timestamp dt:dt="r8">356321721278</Timestamp><Current dt:dt="r8">0</Current><DateUtc dt:dt="string">2016-02-24T21:05:41Z</DateUtc></FrequencyChange></FrequencyChanges></Clock>\n	Hungry_Donkey_bar_English_2-131-1	60.018	-130	1.0.0.18	1	-159892689	Standard	2.0.10.353	2.0.10.353	02-24-2016	2/24/2016 9:05:42 PM	16:05:42	2.0.10.248	61	Bar37-63.bmp	41	4	?	0r_4g.bmp	0r_4g.bmp	0r_2g.bmp	0r_2g.bmp				0r_2g.bmp	TrialProc	TrialList	0	cvbn	-999999	16	203867	0	n	410	204277	186	-265	-79	-24	-82	7	20	9	7	61	0	0	0	0	4	4	2	2	0	2
Hungry_Donkey_bar_English_2	131	1	<?xml version="1.0"?>\n<Clock xmlns:dt="urn:schemas-microsoft-com:datatypes"><Description dt:dt="string">E-Prime Primary Realtime Clock</Description><StartTime><Timestamp dt:dt="int">0</Timestamp><DateUtc dt:dt="string">2016-02-24T21:05:41Z</DateUtc></StartTime><FrequencyChanges><FrequencyChange><Frequency dt:dt="r8">3507714</Frequency><Timestamp dt:dt="r8">356321721278</Timestamp><Current dt:dt="r8">0</Current><DateUtc dt:dt="string">2016-02-24T21:05:41Z</DateUtc></FrequencyChange></FrequencyChanges></Clock>\n	Hungry_Donkey_bar_English_2-131-1	60.018	-130	1.0.0.18	1	-159892689	Standard	2.0.10.353	2.0.10.353	02-24-2016	2/24/2016 9:05:42 PM	16:05:42	2.0.10.248	62	Bar37-63.bmp	42	4	?	0r_4g.bmp	0r_4g.bmp	0r_2g.bmp	0r_2g.bmp				0r_2g.bmp	TrialProc	TrialList	0	cvbn	-999999	16	206316	0	n	329	206645	188	-265	-77	-24	-82	7	22	7	7	62	0	0	0	0	4	4	2	2	0	2
Hungry_Donkey_bar_English_2	131	1	<?xml version="1.0"?>\n<Clock xmlns:dt="urn:schemas-microsoft-com:datatypes"><Description dt:dt="string">E-Prime Primary Realtime Clock</Description><StartTime><Timestamp dt:dt="int">0</Timestamp><DateUtc dt:dt="string">2016-02-24T21:05:41Z</DateUtc></StartTime><FrequencyChanges><FrequencyChange><Frequency dt:dt="r8">3507714</Frequency><Timestamp dt:dt="r8">356321721278</Timestamp><Current dt:dt="r8">0</Current><DateUtc dt:dt="string">2016-02-24T21:05:41Z</DateUtc></FrequencyChange></FrequencyChanges></Clock>\n	Hungry_Donkey_bar_English_2-131-1	60.018	-130	1.0.0.18	1	-159892689	Standard	2.0.10.353	2.0.10.353	02-24-2016	2/24/2016 9:05:42 PM	16:05:42	2.0.10.248	63	Bar37-63.bmp	42	4	?	10r_4g.bmp	0r_4g.bmp	2r_2g.bmp	0r_2g.bmp				0r_2g.bmp	TrialProc	TrialList	0	cvbn	-999999	16	208682	0	n	347	209029	190	-265	-75	-24	-82	7	24	4	7	63	-10	0	-2	0	4	4	2	2	0	2
Hungry_Donkey_bar_English_2	131	1	<?xml version="1.0"?>\n<Clock xmlns:dt="urn:schemas-microsoft-com:datatypes"><Description dt:dt="string">E-Prime Primary Realtime Clock</Description><StartTime><Timestamp dt:dt="int">0</Timestamp><DateUtc dt:dt="string">2016-02-24T21:05:41Z</DateUtc></StartTime><FrequencyChanges><FrequencyChange><Frequency dt:dt="r8">3507714</Frequency><Timestamp dt:dt="r8">356321721278</Timestamp><Current dt:dt="r8">0</Current><DateUtc dt:dt="string">2016-02-24T21:05:41Z</DateUtc></FrequencyChange></FrequencyChanges></Clock>\n	Hungry_Donkey_bar_English_2-131-1	60.018	-130	1.0.0.18	1	-159892689	Standard	2.0.10.353	2.0.10.353	02-24-2016	2/24/2016 9:05:42 PM	16:05:42	2.0.10.248	64	Bar37-63.bmp	42	4	?	10r_4g.bmp	0r_4g.bmp	2r_2g.bmp	0r_2g.bmp				0r_2g.bmp	TrialProc	TrialList	0	cvbn	-999999	17	211065	0	n	236	211301	192	-265	-73	-24	-82	7	26	2	7	64	-10	0	-2	0	4	4	2	2	0	2
Hungry_Donkey_bar_English_2	131	1	<?xml version="1.0"?>\n<Clock xmlns:dt="urn:schemas-microsoft-com:datatypes"><Description dt:dt="string">E-Prime Primary Realtime Clock</Description><StartTime><Timestamp dt:dt="int">0</Timestamp><DateUtc dt:dt="string">2016-02-24T21:05:41Z</DateUtc></StartTime><FrequencyChanges><FrequencyChange><Frequency dt:dt="r8">3507714</Frequency><Timestamp dt:dt="r8">356321721278</Timestamp><Current dt:dt="r8">0</Current><DateUtc dt:dt="string">2016-02-24T21:05:41Z</DateUtc></FrequencyChange></FrequencyChanges></Clock>\n	Hungry_Donkey_bar_English_2-131-1	60.018	-130	1.0.0.18	1	-159892689	Standard	2.0.10.353	2.0.10.353	02-24-2016	2/24/2016 9:05:42 PM	16:05:42	2.0.10.248	65	Bar37-63.bmp	42	4	?	0r_4g.bmp	0r_4g.bmp	0r_2g.bmp	0r_2g.bmp				0r_2g.bmp	TrialProc	TrialList	0	cvbn	-999999	17	213331	0	n	578	213909	194	-265	-71	-24	-82	7	28	8	7	65	0	0	0	0	4	4	2	2	0	2
Hungry_Donkey_bar_English_2	131	1	<?xml version="1.0"?>\n<Clock xmlns:dt="urn:schemas-microsoft-com:datatypes"><Description dt:dt="string">E-Prime Primary Realtime Clock</Description><StartTime><Timestamp dt:dt="int">0</Timestamp><DateUtc dt:dt="string">2016-02-24T21:05:41Z</DateUtc></StartTime><FrequencyChanges><FrequencyChange><Frequency dt:dt="r8">3507714</Frequency><Timestamp dt:dt="r8">356321721278</Timestamp><Current dt:dt="r8">0</Current><DateUtc dt:dt="string">2016-02-24T21:05:41Z</DateUtc></FrequencyChange></FrequencyChanges></Clock>\n	Hungry_Donkey_bar_English_2-131-1	60.018	-130	1.0.0.18	1	-159892689	Standard	2.0.10.353	2.0.10.353	02-24-2016	2/24/2016 9:05:42 PM	16:05:42	2.0.10.248	66	Bar37-63.bmp	43	4	?	12r_4g.bmp	0r_4g.bmp	3r_2g.bmp	0r_2g.bmp				0r_2g.bmp	TrialProc	TrialList	0	cvbn	-999999	16	215946	0	n	362	216308	196	-265	-69	-24	-82	7	30	5	7	66	-12	0	-3	0	4	4	2	2	0	2
Hungry_Donkey_bar_English_2	131	1	<?xml version="1.0"?>\n<Clock xmlns:dt="urn:schemas-microsoft-com:datatypes"><Description dt:dt="string">E-Prime Primary Realtime Clock</Description><StartTime><Timestamp dt:dt="int">0</Timestamp><DateUtc dt:dt="string">2016-02-24T21:05:41Z</DateUtc></StartTime><FrequencyChanges><FrequencyChange><Frequency dt:dt="r8">3507714</Frequency><Timestamp dt:dt="r8">356321721278</Timestamp><Current dt:dt="r8">0</Current><DateUtc dt:dt="string">2016-02-24T21:05:41Z</DateUtc></FrequencyChange></FrequencyChanges></Clock>\n	Hungry_Donkey_bar_English_2-131-1	60.018	-130	1.0.0.18	1	-159892689	Standard	2.0.10.353	2.0.10.353	02-24-2016	2/24/2016 9:05:42 PM	16:05:42	2.0.10.248	67	Bar37-63.bmp	43	4	?	0r_4g.bmp	0r_4g.bmp	0r_2g.bmp	0r_2g.bmp				0r_2g.bmp	TrialProc	TrialList	0	cvbn	-999999	16	218346	0	n	266	218612	198	-265	-67	-24	-82	7	32	10	7	67	0	0	0	0	4	4	2	2	0	2
Hungry_Donkey_bar_English_2	131	1	<?xml version="1.0"?>\n<Clock xmlns:dt="urn:schemas-microsoft-com:datatypes"><Description dt:dt="string">E-Prime Primary Realtime Clock</Description><StartTime><Timestamp dt:dt="int">0</Timestamp><DateUtc dt:dt="string">2016-02-24T21:05:41Z</DateUtc></StartTime><FrequencyChanges><FrequencyChange><Frequency dt:dt="r8">3507714</Frequency><Timestamp dt:dt="r8">356321721278</Timestamp><Current dt:dt="r8">0</Current><DateUtc dt:dt="string">2016-02-24T21:05:41Z</DateUtc></FrequencyChange></FrequencyChanges></Clock>\n	Hungry_Donkey_bar_English_2-131-1	60.018	-130	1.0.0.18	1	-159892689	Standard	2.0.10.353	2.0.10.353	02-24-2016	2/24/2016 9:05:42 PM	16:05:42	2.0.10.248	68	Bar37-63.bmp	43	4	?	10r_4g.bmp	0r_4g.bmp	2r_2g.bmp	0r_2g.bmp				0r_2g.bmp	TrialProc	TrialList	0	cvbn	-999999	16	220645	0	n	415	221060	200	-265	-65	-24	-82	7	34	3	7	68	-10	0	-2	0	4	4	2	2	0	2
Hungry_Donkey_bar_English_2	131	1	<?xml version="1.0"?>\n<Clock xmlns:dt="urn:schemas-microsoft-com:datatypes"><Description dt:dt="string">E-Prime Primary Realtime Clock</Description><StartTime><Timestamp dt:dt="int">0</Timestamp><DateUtc dt:dt="string">2016-02-24T21:05:41Z</DateUtc></StartTime><FrequencyChanges><FrequencyChange><Frequency dt:dt="r8">3507714</Frequency><Timestamp dt:dt="r8">356321721278</Timestamp><Current dt:dt="r8">0</Current><DateUtc dt:dt="string">2016-02-24T21:05:41Z</DateUtc></FrequencyChange></FrequencyChanges></Clock>\n	Hungry_Donkey_bar_English_2-131-1	60.018	-130	1.0.0.18	1	-159892689	Standard	2.0.10.353	2.0.10.353	02-24-2016	2/24/2016 9:05:42 PM	16:05:42	2.0.10.248	69	Bar37-63.bmp	42	4	?	8r_4g.bmp	50r_4g.bmp	1r_2g.bmp	10r_2g.bmp				10r_2g.bmp	TrialProc	TrialList	0	cvbn	-999999	16	223094	0	n	318	223412	202	-275	-73	-24	-82	7	26	1	7	69	-8	-50	-1	-10	4	4	2	2	-10	2
Hungry_Donkey_bar_English_2	131	1	<?xml version="1.0"?>\n<Clock xmlns:dt="urn:schemas-microsoft-com:datatypes"><Description dt:dt="string">E-Prime Primary Realtime Clock</Description><StartTime><Timestamp dt:dt="int">0</Timestamp><DateUtc dt:dt="string">2016-02-24T21:05:41Z</DateUtc></StartTime><FrequencyChanges><FrequencyChange><Frequency dt:dt="r8">3507714</Frequency><Timestamp dt:dt="r8">356321721278</Timestamp><Current dt:dt="r8">0</Current><DateUtc dt:dt="string">2016-02-24T21:05:41Z</DateUtc></FrequencyChange></FrequencyChanges></Clock>\n	Hungry_Donkey_bar_English_2-131-1	60.018	-130	1.0.0.18	1	-159892689	Standard	2.0.10.353	2.0.10.353	02-24-2016	2/24/2016 9:05:42 PM	16:05:42	2.0.10.248	70	Bar37-63.bmp	43	3	?	0r_4g.bmp	0r_4g.bmp	0r_2g.bmp	0r_2g.bmp			0r_2g.bmp		TrialProc	TrialList	0	cvbn	-999999	16	225444	0	b	560	226004	204	-275	-71	-24	-82	9	26	6	7	70	0	0	0	0	4	4	2	2	0	2
Hungry_Donkey_bar_English_2	131	1	<?xml version="1.0"?>\n<Clock xmlns:dt="urn:schemas-microsoft-com:datatypes"><Description dt:dt="string">E-Prime Primary Realtime Clock</Description><StartTime><Timestamp dt:dt="int">0</Timestamp><DateUtc dt:dt="string">2016-02-24T21:05:41Z</DateUtc></StartTime><FrequencyChanges><FrequencyChange><Frequency dt:dt="r8">3507714</Frequency><Timestamp dt:dt="r8">356321721278</Timestamp><Current dt:dt="r8">0</Current><DateUtc dt:dt="string">2016-02-24T21:05:41Z</DateUtc></FrequencyChange></FrequencyChanges></Clock>\n	Hungry_Donkey_bar_English_2-131-1	60.018	-130	1.0.0.18	1	-159892689	Standard	2.0.10.353	2.0.10.353	02-24-2016	2/24/2016 9:05:42 PM	16:05:42	2.0.10.248	71	Bar37-63.bmp	42	1	?	8r_4g.bmp	50r_4g.bmp	1r_2g.bmp	10r_2g.bmp	8r_4g.bmp				TrialProc	TrialList	0	cvbn	-999999	15	228026	0	c	506	228532	208	-283	-75	-28	-82	9	26	1	8	71	-8	-50	-1	-10	4	4	2	2	-8	4
Hungry_Donkey_bar_English_2	131	1	<?xml version="1.0"?>\n<Clock xmlns:dt="urn:schemas-microsoft-com:datatypes"><Description dt:dt="string">E-Prime Primary Realtime Clock</Description><StartTime><Timestamp dt:dt="int">0</Timestamp><DateUtc dt:dt="string">2016-02-24T21:05:41Z</DateUtc></StartTime><FrequencyChanges><FrequencyChange><Frequency dt:dt="r8">3507714</Frequency><Timestamp dt:dt="r8">356321721278</Timestamp><Current dt:dt="r8">0</Current><DateUtc dt:dt="string">2016-02-24T21:05:41Z</DateUtc></FrequencyChange></FrequencyChanges></Clock>\n	Hungry_Donkey_bar_English_2-131-1	60.018	-130	1.0.0.18	1	-159892689	Standard	2.0.10.353	2.0.10.353	02-24-2016	2/24/2016 9:05:42 PM	16:05:42	2.0.10.248	72	Bar37-63.bmp	42	3	?	10r_4g.bmp	0r_4g.bmp	2r_2g.bmp	0r_2g.bmp			2r_2g.bmp		TrialProc	TrialList	0	cvbn	-999999	16	230559	0	b	516	231075	210	-285	-75	-28	-82	9	26	3	8	72	-10	0	-2	0	4	4	2	2	-2	2
Hungry_Donkey_bar_English_2	131	1	<?xml version="1.0"?>\n<Clock xmlns:dt="urn:schemas-microsoft-com:datatypes"><Description dt:dt="string">E-Prime Primary Realtime Clock</Description><StartTime><Timestamp dt:dt="int">0</Timestamp><DateUtc dt:dt="string">2016-02-24T21:05:41Z</DateUtc></StartTime><FrequencyChanges><FrequencyChange><Frequency dt:dt="r8">3507714</Frequency><Timestamp dt:dt="r8">356321721278</Timestamp><Current dt:dt="r8">0</Current><DateUtc dt:dt="string">2016-02-24T21:05:41Z</DateUtc></FrequencyChange></FrequencyChanges></Clock>\n	Hungry_Donkey_bar_English_2-131-1	60.018	-130	1.0.0.18	1	-159892689	Standard	2.0.10.353	2.0.10.353	02-24-2016	2/24/2016 9:05:42 PM	16:05:42	2.0.10.248	73	Bar37-63.bmp	43	4	?	0r_4g.bmp	0r_4g.bmp	0r_2g.bmp	0r_2g.bmp				0r_2g.bmp	TrialProc	TrialList	0	cvbn	-999999	16	233108	0	n	383	233491	212	-285	-73	-28	-82	9	28	9	8	73	0	0	0	0	4	4	2	2	0	2
Hungry_Donkey_bar_English_2	131	1	<?xml version="1.0"?>\n<Clock xmlns:dt="urn:schemas-microsoft-com:datatypes"><Description dt:dt="string">E-Prime Primary Realtime Clock</Description><StartTime><Timestamp dt:dt="int">0</Timestamp><DateUtc dt:dt="string">2016-02-24T21:05:41Z</DateUtc></StartTime><FrequencyChanges><FrequencyChange><Frequency dt:dt="r8">3507714</Frequency><Timestamp dt:dt="r8">356321721278</Timestamp><Current dt:dt="r8">0</Current><DateUtc dt:dt="string">2016-02-24T21:05:41Z</DateUtc></FrequencyChange></FrequencyChanges></Clock>\n	Hungry_Donkey_bar_English_2-131-1	60.018	-130	1.0.0.18	1	-159892689	Standard	2.0.10.353	2.0.10.353	02-24-2016	2/24/2016 9:05:42 PM	16:05:42	2.0.10.248	74	Bar37-63.bmp	43	2	?	0r_4g.bmp	0r_4g.bmp	0r_2g.bmp	0r_2g.bmp		0r_4g.bmp			TrialProc	TrialList	0	cvbn	-999999	16	235524	0	v	431	235955	216	-285	-69	-28	-78	9	28	6	8	74	0	0	0	0	4	4	2	2	0	4
Hungry_Donkey_bar_English_2	131	1	<?xml version="1.0"?>\n<Clock xmlns:dt="urn:schemas-microsoft-com:datatypes"><Description dt:dt="string">E-Prime Primary Realtime Clock</Description><StartTime><Timestamp dt:dt="int">0</Timestamp><DateUtc dt:dt="string">2016-02-24T21:05:41Z</DateUtc></StartTime><FrequencyChanges><FrequencyChange><Frequency dt:dt="r8">3507714</Frequency><Timestamp dt:dt="r8">356321721278</Timestamp><Current dt:dt="r8">0</Current><DateUtc dt:dt="string">2016-02-24T21:05:41Z</DateUtc></FrequencyChange></FrequencyChanges></Clock>\n	Hungry_Donkey_bar_English_2-131-1	60.018	-130	1.0.0.18	1	-159892689	Standard	2.0.10.353	2.0.10.353	02-24-2016	2/24/2016 9:05:42 PM	16:05:42	2.0.10.248	75	Bar37-63.bmp	43	4	?	0r_4g.bmp	0r_4g.bmp	0r_2g.bmp	0r_2g.bmp				0r_2g.bmp	TrialProc	TrialList	0	cvbn	-999999	16	237990	0	n	1165	239155	218	-285	-67	-28	-78	9	30	8	8	75	0	0	0	0	4	4	2	2	0	2
Hungry_Donkey_bar_English_2	131	1	<?xml version="1.0"?>\n<Clock xmlns:dt="urn:schemas-microsoft-com:datatypes"><Description dt:dt="string">E-Prime Primary Realtime Clock</Description><StartTime><Timestamp dt:dt="int">0</Timestamp><DateUtc dt:dt="string">2016-02-24T21:05:41Z</DateUtc></StartTime><FrequencyChanges><FrequencyChange><Frequency dt:dt="r8">3507714</Frequency><Timestamp dt:dt="r8">356321721278</Timestamp><Current dt:dt="r8">0</Current><DateUtc dt:dt="string">2016-02-24T21:05:41Z</DateUtc></FrequencyChange></FrequencyChanges></Clock>\n	Hungry_Donkey_bar_English_2-131-1	60.018	-130	1.0.0.18	1	-159892689	Standard	2.0.10.353	2.0.10.353	02-24-2016	2/24/2016 9:05:42 PM	16:05:42	2.0.10.248	76	Bar37-63.bmp	43	1	?	10r_4g.bmp	0r_4g.bmp	2r_2g.bmp	0r_2g.bmp	10r_4g.bmp				TrialProc	TrialList	0	cvbn	-999999	16	241189	0	c	430	241619	222	-295	-73	-34	-78	9	30	2	8	76	-10	0	-2	0	4	4	2	2	-10	4
Hungry_Donkey_bar_English_2	131	1	<?xml version="1.0"?>\n<Clock xmlns:dt="urn:schemas-microsoft-com:datatypes"><Description dt:dt="string">E-Prime Primary Realtime Clock</Description><StartTime><Timestamp dt:dt="int">0</Timestamp><DateUtc dt:dt="string">2016-02-24T21:05:41Z</DateUtc></StartTime><FrequencyChanges><FrequencyChange><Frequency dt:dt="r8">3507714</Frequency><Timestamp dt:dt="r8">356321721278</Timestamp><Current dt:dt="r8">0</Current><DateUtc dt:dt="string">2016-02-24T21:05:41Z</DateUtc></FrequencyChange></FrequencyChanges></Clock>\n	Hungry_Donkey_bar_English_2-131-1	60.018	-130	1.0.0.18	1	-159892689	Standard	2.0.10.353	2.0.10.353	02-24-2016	2/24/2016 9:05:42 PM	16:05:42	2.0.10.248	77	Bar37-63.bmp	43	4	?	0r_4g.bmp	0r_4g.bmp	0r_2g.bmp	0r_2g.bmp				0r_2g.bmp	TrialProc	TrialList	0	cvbn	-999999	16	243655	0	n	396	244051	224	-295	-71	-34	-78	9	32	7	8	77	0	0	0	0	4	4	2	2	0	2
Hungry_Donkey_bar_English_2	131	1	<?xml version="1.0"?>\n<Clock xmlns:dt="urn:schemas-microsoft-com:datatypes"><Description dt:dt="string">E-Prime Primary Realtime Clock</Description><StartTime><Timestamp dt:dt="int">0</Timestamp><DateUtc dt:dt="string">2016-02-24T21:05:41Z</DateUtc></StartTime><FrequencyChanges><FrequencyChange><Frequency dt:dt="r8">3507714</Frequency><Timestamp dt:dt="r8">356321721278</Timestamp><Current dt:dt="r8">0</Current><DateUtc dt:dt="string">2016-02-24T21:05:41Z</DateUtc></FrequencyChange></FrequencyChanges></Clock>\n	Hungry_Donkey_bar_English_2-131-1	60.018	-130	1.0.0.18	1	-159892689	Standard	2.0.10.353	2.0.10.353	02-24-2016	2/24/2016 9:05:42 PM	16:05:42	2.0.10.248	78	Bar37-63.bmp	43	4	?	10r_4g.bmp	0r_4g.bmp	2r_2g.bmp	0r_2g.bmp				0r_2g.bmp	TrialProc	TrialList	0	cvbn	-999999	16	246087	0	n	332	246419	226	-295	-69	-34	-78	9	34	4	8	78	-10	0	-2	0	4	4	2	2	0	2
Hungry_Donkey_bar_English_2	131	1	<?xml version="1.0"?>\n<Clock xmlns:dt="urn:schemas-microsoft-com:datatypes"><Description dt:dt="string">E-Prime Primary Realtime Clock</Description><StartTime><Timestamp dt:dt="int">0</Timestamp><DateUtc dt:dt="string">2016-02-24T21:05:41Z</DateUtc></StartTime><FrequencyChanges><FrequencyChange><Frequency dt:dt="r8">3507714</Frequency><Timestamp dt:dt="r8">356321721278</Timestamp><Current dt:dt="r8">0</Current><DateUtc dt:dt="string">2016-02-24T21:05:41Z</DateUtc></FrequencyChange></FrequencyChanges></Clock>\n	Hungry_Donkey_bar_English_2-131-1	60.018	-130	1.0.0.18	1	-159892689	Standard	2.0.10.353	2.0.10.353	02-24-2016	2/24/2016 9:05:42 PM	16:05:42	2.0.10.248	79	Bar50-50.bmp	44	2	?	12r_4g.bmp	0r_4g.bmp	3r_2g.bmp	0r_2g.bmp		0r_4g.bmp			TrialProc	TrialList	0	cvbn	-999999	16	248453	0	v	445	248898	230	-295	-65	-34	-74	9	34	5	8	79	-12	0	-3	0	4	4	2	2	0	4
Hungry_Donkey_bar_English_2	131	1	<?xml version="1.0"?>\n<Clock xmlns:dt="urn:schemas-microsoft-com:datatypes"><Description dt:dt="string">E-Prime Primary Realtime Clock</Description><StartTime><Timestamp dt:dt="int">0</Timestamp><DateUtc dt:dt="string">2016-02-24T21:05:41Z</DateUtc></StartTime><FrequencyChanges><FrequencyChange><Frequency dt:dt="r8">3507714</Frequency><Timestamp dt:dt="r8">356321721278</Timestamp><Current dt:dt="r8">0</Current><DateUtc dt:dt="string">2016-02-24T21:05:41Z</DateUtc></FrequencyChange></FrequencyChanges></Clock>\n	Hungry_Donkey_bar_English_2-131-1	60.018	-130	1.0.0.18	1	-159892689	Standard	2.0.10.353	2.0.10.353	02-24-2016	2/24/2016 9:05:42 PM	16:05:42	2.0.10.248	80	Bar50-50.bmp	44	3	?	0r_4g.bmp	0r_4g.bmp	0r_2g.bmp	0r_2g.bmp			0r_2g.bmp		TrialProc	TrialList	0	cvbn	-999999	16	250936	0	b	346	251282	232	-295	-63	-34	-74	11	34	10	8	80	0	0	0	0	4	4	2	2	0	2
Hungry_Donkey_bar_English_2	131	1	<?xml version="1.0"?>\n<Clock xmlns:dt="urn:schemas-microsoft-com:datatypes"><Description dt:dt="string">E-Prime Primary Realtime Clock</Description><StartTime><Timestamp dt:dt="int">0</Timestamp><DateUtc dt:dt="string">2016-02-24T21:05:41Z</DateUtc></StartTime><FrequencyChanges><FrequencyChange><Frequency dt:dt="r8">3507714</Frequency><Timestamp dt:dt="r8">356321721278</Timestamp><Current dt:dt="r8">0</Current><DateUtc dt:dt="string">2016-02-24T21:05:41Z</DateUtc></FrequencyChange></FrequencyChanges></Clock>\n	Hungry_Donkey_bar_English_2-131-1	60.018	-130	1.0.0.18	1	-159892689	Standard	2.0.10.353	2.0.10.353	02-24-2016	2/24/2016 9:05:42 PM	16:05:42	2.0.10.248	81	Bar50-50.bmp	44	4	?	12r_4g.bmp	0r_4g.bmp	3r_2g.bmp	0r_2g.bmp				0r_2g.bmp	TrialProc	TrialList	0	cvbn	-999999	16	253319	0	n	267	253586	234	-295	-61	-34	-74	11	36	5	9	81	-12	0	-3	0	4	4	2	2	0	2
Hungry_Donkey_bar_English_2	131	1	<?xml version="1.0"?>\n<Clock xmlns:dt="urn:schemas-microsoft-com:datatypes"><Description dt:dt="string">E-Prime Primary Realtime Clock</Description><StartTime><Timestamp dt:dt="int">0</Timestamp><DateUtc dt:dt="string">2016-02-24T21:05:41Z</DateUtc></StartTime><FrequencyChanges><FrequencyChange><Frequency dt:dt="r8">3507714</Frequency><Timestamp dt:dt="r8">356321721278</Timestamp><Current dt:dt="r8">0</Current><DateUtc dt:dt="string">2016-02-24T21:05:41Z</DateUtc></FrequencyChange></FrequencyChanges></Clock>\n	Hungry_Donkey_bar_English_2-131-1	60.018	-130	1.0.0.18	1	-159892689	Standard	2.0.10.353	2.0.10.353	02-24-2016	2/24/2016 9:05:42 PM	16:05:42	2.0.10.248	82	Bar50-50.bmp	45	1	?	0r_4g.bmp	0r_4g.bmp	0r_2g.bmp	0r_2g.bmp	0r_4g.bmp				TrialProc	TrialList	0	cvbn	-999999	16	255618	0	c	304	255922	238	-295	-57	-30	-74	11	36	9	9	82	0	0	0	0	4	4	2	2	0	4
Hungry_Donkey_bar_English_2	131	1	<?xml version="1.0"?>\n<Clock xmlns:dt="urn:schemas-microsoft-com:datatypes"><Description dt:dt="string">E-Prime Primary Realtime Clock</Description><StartTime><Timestamp dt:dt="int">0</Timestamp><DateUtc dt:dt="string">2016-02-24T21:05:41Z</DateUtc></StartTime><FrequencyChanges><FrequencyChange><Frequency dt:dt="r8">3507714</Frequency><Timestamp dt:dt="r8">356321721278</Timestamp><Current dt:dt="r8">0</Current><DateUtc dt:dt="string">2016-02-24T21:05:41Z</DateUtc></FrequencyChange></FrequencyChanges></Clock>\n	Hungry_Donkey_bar_English_2-131-1	60.018	-130	1.0.0.18	1	-159892689	Standard	2.0.10.353	2.0.10.353	02-24-2016	2/24/2016 9:05:42 PM	16:05:42	2.0.10.248	83	Bar50-50.bmp	45	2	?	0r_4g.bmp	0r_4g.bmp	0r_2g.bmp	0r_2g.bmp		0r_4g.bmp			TrialProc	TrialList	0	cvbn	-999999	16	257951	0	v	291	258242	242	-295	-53	-30	-70	11	36	8	9	83	0	0	0	0	4	4	2	2	0	4
Hungry_Donkey_bar_English_2	131	1	<?xml version="1.0"?>\n<Clock xmlns:dt="urn:schemas-microsoft-com:datatypes"><Description dt:dt="string">E-Prime Primary Realtime Clock</Description><StartTime><Timestamp dt:dt="int">0</Timestamp><DateUtc dt:dt="string">2016-02-24T21:05:41Z</DateUtc></StartTime><FrequencyChanges><FrequencyChange><Frequency dt:dt="r8">3507714</Frequency><Timestamp dt:dt="r8">356321721278</Timestamp><Current dt:dt="r8">0</Current><DateUtc dt:dt="string">2016-02-24T21:05:41Z</DateUtc></FrequencyChange></FrequencyChanges></Clock>\n	Hungry_Donkey_bar_English_2-131-1	60.018	-130	1.0.0.18	1	-159892689	Standard	2.0.10.353	2.0.10.353	02-24-2016	2/24/2016 9:05:42 PM	16:05:42	2.0.10.248	84	Bar50-50.bmp	45	4	?	0r_4g.bmp	0r_4g.bmp	0r_2g.bmp	0r_2g.bmp				0r_2g.bmp	TrialProc	TrialList	0	cvbn	-999999	16	260267	0	n	359	260626	244	-295	-51	-30	-70	11	38	7	9	84	0	0	0	0	4	4	2	2	0	2
Hungry_Donkey_bar_English_2	131	1	<?xml version="1.0"?>\n<Clock xmlns:dt="urn:schemas-microsoft-com:datatypes"><Description dt:dt="string">E-Prime Primary Realtime Clock</Description><StartTime><Timestamp dt:dt="int">0</Timestamp><DateUtc dt:dt="string">2016-02-24T21:05:41Z</DateUtc></StartTime><FrequencyChanges><FrequencyChange><Frequency dt:dt="r8">3507714</Frequency><Timestamp dt:dt="r8">356321721278</Timestamp><Current dt:dt="r8">0</Current><DateUtc dt:dt="string">2016-02-24T21:05:41Z</DateUtc></FrequencyChange></FrequencyChanges></Clock>\n	Hungry_Donkey_bar_English_2-131-1	60.018	-130	1.0.0.18	1	-159892689	Standard	2.0.10.353	2.0.10.353	02-24-2016	2/24/2016 9:05:42 PM	16:05:42	2.0.10.248	85	Bar50-50.bmp	46	2	?	0r_4g.bmp	0r_4g.bmp	0r_2g.bmp	0r_2g.bmp		0r_4g.bmp			TrialProc	TrialList	0	cvbn	-999999	15	262649	0	v	473	263122	248	-295	-47	-30	-66	11	38	10	9	85	0	0	0	0	4	4	2	2	0	4
Hungry_Donkey_bar_English_2	131	1	<?xml version="1.0"?>\n<Clock xmlns:dt="urn:schemas-microsoft-com:datatypes"><Description dt:dt="string">E-Prime Primary Realtime Clock</Description><StartTime><Timestamp dt:dt="int">0</Timestamp><DateUtc dt:dt="string">2016-02-24T21:05:41Z</DateUtc></StartTime><FrequencyChanges><FrequencyChange><Frequency dt:dt="r8">3507714</Frequency><Timestamp dt:dt="r8">356321721278</Timestamp><Current dt:dt="r8">0</Current><DateUtc dt:dt="string">2016-02-24T21:05:41Z</DateUtc></FrequencyChange></FrequencyChanges></Clock>\n	Hungry_Donkey_bar_English_2-131-1	60.018	-130	1.0.0.18	1	-159892689	Standard	2.0.10.353	2.0.10.353	02-24-2016	2/24/2016 9:05:42 PM	16:05:42	2.0.10.248	86	Bar50-50.bmp	46	4	?	10r_4g.bmp	0r_4g.bmp	2r_2g.bmp	0r_2g.bmp				0r_2g.bmp	TrialProc	TrialList	0	cvbn	-999999	16	265148	0	n	341	265489	250	-295	-45	-30	-66	11	40	3	9	86	-10	0	-2	0	4	4	2	2	0	2
Hungry_Donkey_bar_English_2	131	1	<?xml version="1.0"?>\n<Clock xmlns:dt="urn:schemas-microsoft-com:datatypes"><Description dt:dt="string">E-Prime Primary Realtime Clock</Description><StartTime><Timestamp dt:dt="int">0</Timestamp><DateUtc dt:dt="string">2016-02-24T21:05:41Z</DateUtc></StartTime><FrequencyChanges><FrequencyChange><Frequency dt:dt="r8">3507714</Frequency><Timestamp dt:dt="r8">356321721278</Timestamp><Current dt:dt="r8">0</Current><DateUtc dt:dt="string">2016-02-24T21:05:41Z</DateUtc></FrequencyChange></FrequencyChanges></Clock>\n	Hungry_Donkey_bar_English_2-131-1	60.018	-130	1.0.0.18	1	-159892689	Standard	2.0.10.353	2.0.10.353	02-24-2016	2/24/2016 9:05:42 PM	16:05:42	2.0.10.248	87	Bar50-50.bmp	46	3	?	10r_4g.bmp	0r_4g.bmp	2r_2g.bmp	0r_2g.bmp			2r_2g.bmp		TrialProc	TrialList	0	cvbn	-999999	16	267514	0	b	407	267921	252	-297	-45	-30	-66	11	40	2	9	87	-10	0	-2	0	4	4	2	2	-2	2
Hungry_Donkey_bar_English_2	131	1	<?xml version="1.0"?>\n<Clock xmlns:dt="urn:schemas-microsoft-com:datatypes"><Description dt:dt="string">E-Prime Primary Realtime Clock</Description><StartTime><Timestamp dt:dt="int">0</Timestamp><DateUtc dt:dt="string">2016-02-24T21:05:41Z</DateUtc></StartTime><FrequencyChanges><FrequencyChange><Frequency dt:dt="r8">3507714</Frequency><Timestamp dt:dt="r8">356321721278</Timestamp><Current dt:dt="r8">0</Current><DateUtc dt:dt="string">2016-02-24T21:05:41Z</DateUtc></FrequencyChange></FrequencyChanges></Clock>\n	Hungry_Donkey_bar_English_2-131-1	60.018	-130	1.0.0.18	1	-159892689	Standard	2.0.10.353	2.0.10.353	02-24-2016	2/24/2016 9:05:42 PM	16:05:42	2.0.10.248	88	Bar50-50.bmp	46	1	?	8r_4g.bmp	50r_4g.bmp	1r_2g.bmp	10r_2g.bmp	8r_4g.bmp				TrialProc	TrialList	0	cvbn	-999999	16	269947	0	c	342	270289	256	-305	-49	-34	-66	11	40	1	9	88	-8	-50	-1	-10	4	4	2	2	-8	4
Hungry_Donkey_bar_English_2	131	1	<?xml version="1.0"?>\n<Clock xmlns:dt="urn:schemas-microsoft-com:datatypes"><Description dt:dt="string">E-Prime Primary Realtime Clock</Description><StartTime><Timestamp dt:dt="int">0</Timestamp><DateUtc dt:dt="string">2016-02-24T21:05:41Z</DateUtc></StartTime><FrequencyChanges><FrequencyChange><Frequency dt:dt="r8">3507714</Frequency><Timestamp dt:dt="r8">356321721278</Timestamp><Current dt:dt="r8">0</Current><DateUtc dt:dt="string">2016-02-24T21:05:41Z</DateUtc></FrequencyChange></FrequencyChanges></Clock>\n	Hungry_Donkey_bar_English_2-131-1	60.018	-130	1.0.0.18	1	-159892689	Standard	2.0.10.353	2.0.10.353	02-24-2016	2/24/2016 9:05:42 PM	16:05:42	2.0.10.248	89	Bar50-50.bmp	46	2	?	0r_4g.bmp	0r_4g.bmp	0r_2g.bmp	0r_2g.bmp		0r_4g.bmp			TrialProc	TrialList	0	cvbn	-999999	16	272313	0	v	184	272497	260	-305	-45	-34	-62	11	40	6	9	89	0	0	0	0	4	4	2	2	0	4
Hungry_Donkey_bar_English_2	131	1	<?xml version="1.0"?>\n<Clock xmlns:dt="urn:schemas-microsoft-com:datatypes"><Description dt:dt="string">E-Prime Primary Realtime Clock</Description><StartTime><Timestamp dt:dt="int">0</Timestamp><DateUtc dt:dt="string">2016-02-24T21:05:41Z</DateUtc></StartTime><FrequencyChanges><FrequencyChange><Frequency dt:dt="r8">3507714</Frequency><Timestamp dt:dt="r8">356321721278</Timestamp><Current dt:dt="r8">0</Current><DateUtc dt:dt="string">2016-02-24T21:05:41Z</DateUtc></FrequencyChange></FrequencyChanges></Clock>\n	Hungry_Donkey_bar_English_2-131-1	60.018	-130	1.0.0.18	1	-159892689	Standard	2.0.10.353	2.0.10.353	02-24-2016	2/24/2016 9:05:42 PM	16:05:42	2.0.10.248	90	Bar50-50.bmp	46	4	?	10r_4g.bmp	0r_4g.bmp	2r_2g.bmp	0r_2g.bmp				0r_2g.bmp	TrialProc	TrialList	0	cvbn	-999999	16	274529	0	n	144	274673	262	-305	-43	-34	-62	11	42	4	9	90	-10	0	-2	0	4	4	2	2	0	2
Hungry_Donkey_bar_English_2	131	1	<?xml version="1.0"?>\n<Clock xmlns:dt="urn:schemas-microsoft-com:datatypes"><Description dt:dt="string">E-Prime Primary Realtime Clock</Description><StartTime><Timestamp dt:dt="int">0</Timestamp><DateUtc dt:dt="string">2016-02-24T21:05:41Z</DateUtc></StartTime><FrequencyChanges><FrequencyChange><Frequency dt:dt="r8">3507714</Frequency><Timestamp dt:dt="r8">356321721278</Timestamp><Current dt:dt="r8">0</Current><DateUtc dt:dt="string">2016-02-24T21:05:41Z</DateUtc></FrequencyChange></FrequencyChanges></Clock>\n	Hungry_Donkey_bar_English_2-131-1	60.018	-130	1.0.0.18	1	-159892689	Standard	2.0.10.353	2.0.10.353	02-24-2016	2/24/2016 9:05:42 PM	16:05:42	2.0.10.248	91	Bar50-50.bmp	46	1	?	10r_4g.bmp	0r_4g.bmp	2r_2g.bmp	0r_2g.bmp	10r_4g.bmp				TrialProc	TrialList	0	cvbn	-999999	16	276712	0	c	441	277153	266	-315	-49	-40	-62	11	42	2	10	91	-10	0	-2	0	4	4	2	2	-10	4
Hungry_Donkey_bar_English_2	131	1	<?xml version="1.0"?>\n<Clock xmlns:dt="urn:schemas-microsoft-com:datatypes"><Description dt:dt="string">E-Prime Primary Realtime Clock</Description><StartTime><Timestamp dt:dt="int">0</Timestamp><DateUtc dt:dt="string">2016-02-24T21:05:41Z</DateUtc></StartTime><FrequencyChanges><FrequencyChange><Frequency dt:dt="r8">3507714</Frequency><Timestamp dt:dt="r8">356321721278</Timestamp><Current dt:dt="r8">0</Current><DateUtc dt:dt="string">2016-02-24T21:05:41Z</DateUtc></FrequencyChange></FrequencyChanges></Clock>\n	Hungry_Donkey_bar_English_2-131-1	60.018	-130	1.0.0.18	1	-159892689	Standard	2.0.10.353	2.0.10.353	02-24-2016	2/24/2016 9:05:42 PM	16:05:42	2.0.10.248	92	Bar50-50.bmp	46	2	?	10r_4g.bmp	0r_4g.bmp	2r_2g.bmp	0r_2g.bmp		0r_4g.bmp			TrialProc	TrialList	0	cvbn	-999999	16	279178	0	v	135	279313	270	-315	-45	-40	-58	11	42	4	10	92	-10	0	-2	0	4	4	2	2	0	4
Hungry_Donkey_bar_English_2	131	1	<?xml version="1.0"?>\n<Clock xmlns:dt="urn:schemas-microsoft-com:datatypes"><Description dt:dt="string">E-Prime Primary Realtime Clock</Description><StartTime><Timestamp dt:dt="int">0</Timestamp><DateUtc dt:dt="string">2016-02-24T21:05:41Z</DateUtc></StartTime><FrequencyChanges><FrequencyChange><Frequency dt:dt="r8">3507714</Frequency><Timestamp dt:dt="r8">356321721278</Timestamp><Current dt:dt="r8">0</Current><DateUtc dt:dt="string">2016-02-24T21:05:41Z</DateUtc></FrequencyChange></FrequencyChanges></Clock>\n	Hungry_Donkey_bar_English_2-131-1	60.018	-130	1.0.0.18	1	-159892689	Standard	2.0.10.353	2.0.10.353	02-24-2016	2/24/2016 9:05:42 PM	16:05:42	2.0.10.248	93	Bar50-50.bmp	46	4	?	8r_4g.bmp	50r_4g.bmp	1r_2g.bmp	10r_2g.bmp				10r_2g.bmp	TrialProc	TrialList	0	cvbn	-999999	16	281344	0	n	224	281568	272	-325	-53	-40	-58	11	34	1	10	93	-8	-50	-1	-10	4	4	2	2	-10	2
Hungry_Donkey_bar_English_2	131	1	<?xml version="1.0"?>\n<Clock xmlns:dt="urn:schemas-microsoft-com:datatypes"><Description dt:dt="string">E-Prime Primary Realtime Clock</Description><StartTime><Timestamp dt:dt="int">0</Timestamp><DateUtc dt:dt="string">2016-02-24T21:05:41Z</DateUtc></StartTime><FrequencyChanges><FrequencyChange><Frequency dt:dt="r8">3507714</Frequency><Timestamp dt:dt="r8">356321721278</Timestamp><Current dt:dt="r8">0</Current><DateUtc dt:dt="string">2016-02-24T21:05:41Z</DateUtc></FrequencyChange></FrequencyChanges></Clock>\n	Hungry_Donkey_bar_English_2-131-1	60.018	-130	1.0.0.18	1	-159892689	Standard	2.0.10.353	2.0.10.353	02-24-2016	2/24/2016 9:05:42 PM	16:05:42	2.0.10.248	94	Bar50-50.bmp	46	2	?	0r_4g.bmp	0r_4g.bmp	0r_2g.bmp	0r_2g.bmp		0r_4g.bmp			TrialProc	TrialList	0	cvbn	-999999	16	283593	0	v	375	283968	276	-325	-49	-40	-54	11	34	8	10	94	0	0	0	0	4	4	2	2	0	4
Hungry_Donkey_bar_English_2	131	1	<?xml version="1.0"?>\n<Clock xmlns:dt="urn:schemas-microsoft-com:datatypes"><Description dt:dt="string">E-Prime Primary Realtime Clock</Description><StartTime><Timestamp dt:dt="int">0</Timestamp><DateUtc dt:dt="string">2016-02-24T21:05:41Z</DateUtc></StartTime><FrequencyChanges><FrequencyChange><Frequency dt:dt="r8">3507714</Frequency><Timestamp dt:dt="r8">356321721278</Timestamp><Current dt:dt="r8">0</Current><DateUtc dt:dt="string">2016-02-24T21:05:41Z</DateUtc></FrequencyChange></FrequencyChanges></Clock>\n	Hungry_Donkey_bar_English_2-131-1	60.018	-130	1.0.0.18	1	-159892689	Standard	2.0.10.353	2.0.10.353	02-24-2016	2/24/2016 9:05:42 PM	16:05:42	2.0.10.248	95	Bar50-50.bmp	46	4	?	12r_4g.bmp	0r_4g.bmp	3r_2g.bmp	0r_2g.bmp				0r_2g.bmp	TrialProc	TrialList	0	cvbn	-999999	16	285992	0	n	520	286512	278	-325	-47	-40	-54	11	36	5	10	95	-12	0	-3	0	4	4	2	2	0	2
Hungry_Donkey_bar_English_2	131	1	<?xml version="1.0"?>\n<Clock xmlns:dt="urn:schemas-microsoft-com:datatypes"><Description dt:dt="string">E-Prime Primary Realtime Clock</Description><StartTime><Timestamp dt:dt="int">0</Timestamp><DateUtc dt:dt="string">2016-02-24T21:05:41Z</DateUtc></StartTime><FrequencyChanges><FrequencyChange><Frequency dt:dt="r8">3507714</Frequency><Timestamp dt:dt="r8">356321721278</Timestamp><Current dt:dt="r8">0</Current><DateUtc dt:dt="string">2016-02-24T21:05:41Z</DateUtc></FrequencyChange></FrequencyChanges></Clock>\n	Hungry_Donkey_bar_English_2-131-1	60.018	-130	1.0.0.18	1	-159892689	Standard	2.0.10.353	2.0.10.353	02-24-2016	2/24/2016 9:05:42 PM	16:05:42	2.0.10.248	96	Bar50-50.bmp	46	2	?	0r_4g.bmp	0r_4g.bmp	0r_2g.bmp	0r_2g.bmp		0r_4g.bmp			TrialProc	TrialList	0	cvbn	-999999	17	288542	0	v	402	288944	282	-325	-43	-40	-50	11	36	7	10	96	0	0	0	0	4	4	2	2	0	4
Hungry_Donkey_bar_English_2	131	1	<?xml version="1.0"?>\n<Clock xmlns:dt="urn:schemas-microsoft-com:datatypes"><Description dt:dt="string">E-Prime Primary Realtime Clock</Description><StartTime><Timestamp dt:dt="int">0</Timestamp><DateUtc dt:dt="string">2016-02-24T21:05:41Z</DateUtc></StartTime><FrequencyChanges><FrequencyChange><Frequency dt:dt="r8">3507714</Frequency><Timestamp dt:dt="r8">356321721278</Timestamp><Current dt:dt="r8">0</Current><DateUtc dt:dt="string">2016-02-24T21:05:41Z</DateUtc></FrequencyChange></FrequencyChanges></Clock>\n	Hungry_Donkey_bar_English_2-131-1	60.018	-130	1.0.0.18	1	-159892689	Standard	2.0.10.353	2.0.10.353	02-24-2016	2/24/2016 9:05:42 PM	16:05:42	2.0.10.248	97	Bar50-50.bmp	47	3	?	0r_4g.bmp	0r_4g.bmp	0r_2g.bmp	0r_2g.bmp			0r_2g.bmp		TrialProc	TrialList	0	cvbn	-999999	16	290974	0	b	674	291648	284	-325	-41	-40	-50	13	36	9	10	97	0	0	0	0	4	4	2	2	0	2
Hungry_Donkey_bar_English_2	131	1	<?xml version="1.0"?>\n<Clock xmlns:dt="urn:schemas-microsoft-com:datatypes"><Description dt:dt="string">E-Prime Primary Realtime Clock</Description><StartTime><Timestamp dt:dt="int">0</Timestamp><DateUtc dt:dt="string">2016-02-24T21:05:41Z</DateUtc></StartTime><FrequencyChanges><FrequencyChange><Frequency dt:dt="r8">3507714</Frequency><Timestamp dt:dt="r8">356321721278</Timestamp><Current dt:dt="r8">0</Current><DateUtc dt:dt="string">2016-02-24T21:05:41Z</DateUtc></FrequencyChange></FrequencyChanges></Clock>\n	Hungry_Donkey_bar_English_2-131-1	60.018	-130	1.0.0.18	1	-159892689	Standard	2.0.10.353	2.0.10.353	02-24-2016	2/24/2016 9:05:42 PM	16:05:42	2.0.10.248	98	Bar50-50.bmp	46	1	?	10r_4g.bmp	0r_4g.bmp	2r_2g.bmp	0r_2g.bmp	10r_4g.bmp				TrialProc	TrialList	0	cvbn	-999999	16	293673	0	c	151	293824	288	-335	-47	-46	-50	13	36	3	10	98	-10	0	-2	0	4	4	2	2	-10	4
Hungry_Donkey_bar_English_2	131	1	<?xml version="1.0"?>\n<Clock xmlns:dt="urn:schemas-microsoft-com:datatypes"><Description dt:dt="string">E-Prime Primary Realtime Clock</Description><StartTime><Timestamp dt:dt="int">0</Timestamp><DateUtc dt:dt="string">2016-02-24T21:05:41Z</DateUtc></StartTime><FrequencyChanges><FrequencyChange><Frequency dt:dt="r8">3507714</Frequency><Timestamp dt:dt="r8">356321721278</Timestamp><Current dt:dt="r8">0</Current><DateUtc dt:dt="string">2016-02-24T21:05:41Z</DateUtc></FrequencyChange></FrequencyChanges></Clock>\n	Hungry_Donkey_bar_English_2-131-1	60.018	-130	1.0.0.18	1	-159892689	Standard	2.0.10.353	2.0.10.353	02-24-2016	2/24/2016 9:05:42 PM	16:05:42	2.0.10.248	99	Bar50-50.bmp	47	2	?	0r_4g.bmp	0r_4g.bmp	0r_2g.bmp	0r_2g.bmp		0r_4g.bmp			TrialProc	TrialList	0	cvbn	-999999	16	295856	0	v	464	296320	292	-335	-43	-46	-46	13	36	10	10	99	0	0	0	0	4	4	2	2	0	4
Hungry_Donkey_bar_English_2	131	1	<?xml version="1.0"?>\n<Clock xmlns:dt="urn:schemas-microsoft-com:datatypes"><Description dt:dt="string">E-Prime Primary Realtime Clock</Description><StartTime><Timestamp dt:dt="int">0</Timestamp><DateUtc dt:dt="string">2016-02-24T21:05:41Z</DateUtc></StartTime><FrequencyChanges><FrequencyChange><Frequency dt:dt="r8">3507714</Frequency><Timestamp dt:dt="r8">356321721278</Timestamp><Current dt:dt="r8">0</Current><DateUtc dt:dt="string">2016-02-24T21:05:41Z</DateUtc></FrequencyChange></FrequencyChanges></Clock>\n	Hungry_Donkey_bar_English_2-131-1	60.018	-130	1.0.0.18	1	-159892689	Standard	2.0.10.353	2.0.10.353	02-24-2016	2/24/2016 9:05:42 PM	16:05:42	2.0.10.248	100	Bar50-50.bmp	47	2	?	0r_4g.bmp	0r_4g.bmp	0r_2g.bmp	0r_2g.bmp		0r_4g.bmp			TrialProc	TrialList	0	cvbn	-999999	16	298355	0	v	604	298959	296	-335	-39	-46	-42	13	36	6	10	100	0	0	0	0	4	4	2	2	0	4
Hungry_Donkey_bar_English_2	131	1	<?xml version="1.0"?>\n<Clock xmlns:dt="urn:schemas-microsoft-com:datatypes"><Description dt:dt="string">E-Prime Primary Realtime Clock</Description><StartTime><Timestamp dt:dt="int">0</Timestamp><DateUtc dt:dt="string">2016-02-24T21:05:41Z</DateUtc></StartTime><FrequencyChanges><FrequencyChange><Frequency dt:dt="r8">3507714</Frequency><Timestamp dt:dt="r8">356321721278</Timestamp><Current dt:dt="r8">0</Current><DateUtc dt:dt="string">2016-02-24T21:05:41Z</DateUtc></FrequencyChange></FrequencyChanges></Clock>\n	Hungry_Donkey_bar_English_2-131-1	60.018	-130	1.0.0.18	1	-159892689	Standard	2.0.10.353	2.0.10.353	02-24-2016	2/24/2016 9:05:42 PM	16:05:42	2.0.10.248	101	Bar50-50.bmp	47	4	?	12r_4g.bmp	0r_4g.bmp	3r_2g.bmp	0r_2g.bmp				0r_2g.bmp	TrialProc	TrialList	0	cvbn	-999999	16	300988	0	n	291	301279	298	-335	-37	-46	-42	13	38	5	11	101	-12	0	-3	0	4	4	2	2	0	2
Hungry_Donkey_bar_English_2	131	1	<?xml version="1.0"?>\n<Clock xmlns:dt="urn:schemas-microsoft-com:datatypes"><Description dt:dt="string">E-Prime Primary Realtime Clock</Description><StartTime><Timestamp dt:dt="int">0</Timestamp><DateUtc dt:dt="string">2016-02-24T21:05:41Z</DateUtc></StartTime><FrequencyChanges><FrequencyChange><Frequency dt:dt="r8">3507714</Frequency><Timestamp dt:dt="r8">356321721278</Timestamp><Current dt:dt="r8">0</Current><DateUtc dt:dt="string">2016-02-24T21:05:41Z</DateUtc></FrequencyChange></FrequencyChanges></Clock>\n	Hungry_Donkey_bar_English_2-131-1	60.018	-130	1.0.0.18	1	-159892689	Standard	2.0.10.353	2.0.10.353	02-24-2016	2/24/2016 9:05:42 PM	16:05:42	2.0.10.248	102	Bar50-50.bmp	47	1	?	0r_4g.bmp	0r_4g.bmp	0r_2g.bmp	0r_2g.bmp	0r_4g.bmp				TrialProc	TrialList	0	cvbn	-999999	16	303304	0	c	359	303663	302	-335	-33	-42	-42	13	38	9	11	102	0	0	0	0	4	4	2	2	0	4
Hungry_Donkey_bar_English_2	131	1	<?xml version="1.0"?>\n<Clock xmlns:dt="urn:schemas-microsoft-com:datatypes"><Description dt:dt="string">E-Prime Primary Realtime Clock</Description><StartTime><Timestamp dt:dt="int">0</Timestamp><DateUtc dt:dt="string">2016-02-24T21:05:41Z</DateUtc></StartTime><FrequencyChanges><FrequencyChange><Frequency dt:dt="r8">3507714</Frequency><Timestamp dt:dt="r8">356321721278</Timestamp><Current dt:dt="r8">0</Current><DateUtc dt:dt="string">2016-02-24T21:05:41Z</DateUtc></FrequencyChange></FrequencyChanges></Clock>\n	Hungry_Donkey_bar_English_2-131-1	60.018	-130	1.0.0.18	1	-159892689	Standard	2.0.10.353	2.0.10.353	02-24-2016	2/24/2016 9:05:42 PM	16:05:42	2.0.10.248	103	Bar50-50.bmp	48	2	?	0r_4g.bmp	0r_4g.bmp	0r_2g.bmp	0r_2g.bmp		0r_4g.bmp			TrialProc	TrialList	0	cvbn	-999999	16	305686	0	v	409	306095	306	-335	-29	-42	-38	13	38	10	11	103	0	0	0	0	4	4	2	2	0	4
Hungry_Donkey_bar_English_2	131	1	<?xml version="1.0"?>\n<Clock xmlns:dt="urn:schemas-microsoft-com:datatypes"><Description dt:dt="string">E-Prime Primary Realtime Clock</Description><StartTime><Timestamp dt:dt="int">0</Timestamp><DateUtc dt:dt="string">2016-02-24T21:05:41Z</DateUtc></StartTime><FrequencyChanges><FrequencyChange><Frequency dt:dt="r8">3507714</Frequency><Timestamp dt:dt="r8">356321721278</Timestamp><Current dt:dt="r8">0</Current><DateUtc dt:dt="string">2016-02-24T21:05:41Z</DateUtc></FrequencyChange></FrequencyChanges></Clock>\n	Hungry_Donkey_bar_English_2-131-1	60.018	-130	1.0.0.18	1	-159892689	Standard	2.0.10.353	2.0.10.353	02-24-2016	2/24/2016 9:05:42 PM	16:05:42	2.0.10.248	104	Bar50-50.bmp	48	3	?	10r_4g.bmp	0r_4g.bmp	2r_2g.bmp	0r_2g.bmp			2r_2g.bmp		TrialProc	TrialList	0	cvbn	-999999	16	308119	0	b	584	308703	308	-337	-29	-42	-38	13	38	4	11	104	-10	0	-2	0	4	4	2	2	-2	2
Hungry_Donkey_bar_English_2	131	1	<?xml version="1.0"?>\n<Clock xmlns:dt="urn:schemas-microsoft-com:datatypes"><Description dt:dt="string">E-Prime Primary Realtime Clock</Description><StartTime><Timestamp dt:dt="int">0</Timestamp><DateUtc dt:dt="string">2016-02-24T21:05:41Z</DateUtc></StartTime><FrequencyChanges><FrequencyChange><Frequency dt:dt="r8">3507714</Frequency><Timestamp dt:dt="r8">356321721278</Timestamp><Current dt:dt="r8">0</Current><DateUtc dt:dt="string">2016-02-24T21:05:41Z</DateUtc></FrequencyChange></FrequencyChanges></Clock>\n	Hungry_Donkey_bar_English_2-131-1	60.018	-130	1.0.0.18	1	-159892689	Standard	2.0.10.353	2.0.10.353	02-24-2016	2/24/2016 9:05:42 PM	16:05:42	2.0.10.248	105	Bar50-50.bmp	48	4	?	0r_4g.bmp	0r_4g.bmp	0r_2g.bmp	0r_2g.bmp				0r_2g.bmp	TrialProc	TrialList	0	cvbn	-999999	16	310735	0	n	416	311151	310	-337	-27	-42	-38	13	40	6	11	105	0	0	0	0	4	4	2	2	0	2
Hungry_Donkey_bar_English_2	131	1	<?xml version="1.0"?>\n<Clock xmlns:dt="urn:schemas-microsoft-com:datatypes"><Description dt:dt="string">E-Prime Primary Realtime Clock</Description><StartTime><Timestamp dt:dt="int">0</Timestamp><DateUtc dt:dt="string">2016-02-24T21:05:41Z</DateUtc></StartTime><FrequencyChanges><FrequencyChange><Frequency dt:dt="r8">3507714</Frequency><Timestamp dt:dt="r8">356321721278</Timestamp><Current dt:dt="r8">0</Current><DateUtc dt:dt="string">2016-02-24T21:05:41Z</DateUtc></FrequencyChange></FrequencyChanges></Clock>\n	Hungry_Donkey_bar_English_2-131-1	60.018	-130	1.0.0.18	1	-159892689	Standard	2.0.10.353	2.0.10.353	02-24-2016	2/24/2016 9:05:42 PM	16:05:42	2.0.10.248	106	Bar50-50.bmp	48	1	?	0r_4g.bmp	0r_4g.bmp	0r_2g.bmp	0r_2g.bmp	0r_4g.bmp				TrialProc	TrialList	0	cvbn	-999999	16	313184	0	c	383	313567	314	-337	-23	-38	-38	13	40	7	11	106	0	0	0	0	4	4	2	2	0	4
Hungry_Donkey_bar_English_2	131	1	<?xml version="1.0"?>\n<Clock xmlns:dt="urn:schemas-microsoft-com:datatypes"><Description dt:dt="string">E-Prime Primary Realtime Clock</Description><StartTime><Timestamp dt:dt="int">0</Timestamp><DateUtc dt:dt="string">2016-02-24T21:05:41Z</DateUtc></StartTime><FrequencyChanges><FrequencyChange><Frequency dt:dt="r8">3507714</Frequency><Timestamp dt:dt="r8">356321721278</Timestamp><Current dt:dt="r8">0</Current><DateUtc dt:dt="string">2016-02-24T21:05:41Z</DateUtc></FrequencyChange></FrequencyChanges></Clock>\n	Hungry_Donkey_bar_English_2-131-1	60.018	-130	1.0.0.18	1	-159892689	Standard	2.0.10.353	2.0.10.353	02-24-2016	2/24/2016 9:05:42 PM	16:05:42	2.0.10.248	107	Bar50-50.bmp	49	2	?	10r_4g.bmp	0r_4g.bmp	2r_2g.bmp	0r_2g.bmp		0r_4g.bmp			TrialProc	TrialList	0	cvbn	-999999	16	315600	0	v	302	315902	318	-337	-19	-38	-34	13	40	3	11	107	-10	0	-2	0	4	4	2	2	0	4
Hungry_Donkey_bar_English_2	131	1	<?xml version="1.0"?>\n<Clock xmlns:dt="urn:schemas-microsoft-com:datatypes"><Description dt:dt="string">E-Prime Primary Realtime Clock</Description><StartTime><Timestamp dt:dt="int">0</Timestamp><DateUtc dt:dt="string">2016-02-24T21:05:41Z</DateUtc></StartTime><FrequencyChanges><FrequencyChange><Frequency dt:dt="r8">3507714</Frequency><Timestamp dt:dt="r8">356321721278</Timestamp><Current dt:dt="r8">0</Current><DateUtc dt:dt="string">2016-02-24T21:05:41Z</DateUtc></FrequencyChange></FrequencyChanges></Clock>\n	Hungry_Donkey_bar_English_2-131-1	60.018	-130	1.0.0.18	1	-159892689	Standard	2.0.10.353	2.0.10.353	02-24-2016	2/24/2016 9:05:42 PM	16:05:42	2.0.10.248	108	Bar50-50.bmp	49	4	?	0r_4g.bmp	0r_4g.bmp	0r_2g.bmp	0r_2g.bmp				0r_2g.bmp	TrialProc	TrialList	0	cvbn	-999999	16	317933	0	n	97	318030	320	-337	-17	-38	-34	13	42	8	11	108	0	0	0	0	4	4	2	2	0	2
Hungry_Donkey_bar_English_2	131	1	<?xml version="1.0"?>\n<Clock xmlns:dt="urn:schemas-microsoft-com:datatypes"><Description dt:dt="string">E-Prime Primary Realtime Clock</Description><StartTime><Timestamp dt:dt="int">0</Timestamp><DateUtc dt:dt="string">2016-02-24T21:05:41Z</DateUtc></StartTime><FrequencyChanges><FrequencyChange><Frequency dt:dt="r8">3507714</Frequency><Timestamp dt:dt="r8">356321721278</Timestamp><Current dt:dt="r8">0</Current><DateUtc dt:dt="string">2016-02-24T21:05:41Z</DateUtc></FrequencyChange></FrequencyChanges></Clock>\n	Hungry_Donkey_bar_English_2-131-1	60.018	-130	1.0.0.18	1	-159892689	Standard	2.0.10.353	2.0.10.353	02-24-2016	2/24/2016 9:05:42 PM	16:05:42	2.0.10.248	109	Bar50-50.bmp	48	1	?	8r_4g.bmp	50r_4g.bmp	1r_2g.bmp	10r_2g.bmp	8r_4g.bmp				TrialProc	TrialList	0	cvbn	-999999	17	320066	0	c	524	320590	324	-345	-21	-42	-34	13	42	1	11	109	-8	-50	-1	-10	4	4	2	2	-8	4
Hungry_Donkey_bar_English_2	131	1	<?xml version="1.0"?>\n<Clock xmlns:dt="urn:schemas-microsoft-com:datatypes"><Description dt:dt="string">E-Prime Primary Realtime Clock</Description><StartTime><Timestamp dt:dt="int">0</Timestamp><DateUtc dt:dt="string">2016-02-24T21:05:41Z</DateUtc></StartTime><FrequencyChanges><FrequencyChange><Frequency dt:dt="r8">3507714</Frequency><Timestamp dt:dt="r8">356321721278</Timestamp><Current dt:dt="r8">0</Current><DateUtc dt:dt="string">2016-02-24T21:05:41Z</DateUtc></FrequencyChange></FrequencyChanges></Clock>\n	Hungry_Donkey_bar_English_2-131-1	60.018	-130	1.0.0.18	1	-159892689	Standard	2.0.10.353	2.0.10.353	02-24-2016	2/24/2016 9:05:42 PM	16:05:42	2.0.10.248	110	Bar50-50.bmp	49	2	?	10r_4g.bmp	0r_4g.bmp	2r_2g.bmp	0r_2g.bmp		0r_4g.bmp			TrialProc	TrialList	0	cvbn	-999999	16	322615	0	v	839	323454	328	-345	-17	-42	-30	13	42	2	11	110	-10	0	-2	0	4	4	2	2	0	4
Hungry_Donkey_bar_English_2	131	1	<?xml version="1.0"?>\n<Clock xmlns:dt="urn:schemas-microsoft-com:datatypes"><Description dt:dt="string">E-Prime Primary Realtime Clock</Description><StartTime><Timestamp dt:dt="int">0</Timestamp><DateUtc dt:dt="string">2016-02-24T21:05:41Z</DateUtc></StartTime><FrequencyChanges><FrequencyChange><Frequency dt:dt="r8">3507714</Frequency><Timestamp dt:dt="r8">356321721278</Timestamp><Current dt:dt="r8">0</Current><DateUtc dt:dt="string">2016-02-24T21:05:41Z</DateUtc></FrequencyChange></FrequencyChanges></Clock>\n	Hungry_Donkey_bar_English_2-131-1	60.018	-130	1.0.0.18	1	-159892689	Standard	2.0.10.353	2.0.10.353	02-24-2016	2/24/2016 9:05:42 PM	16:05:42	2.0.10.248	111	Bar50-50.bmp	49	4	?	0r_4g.bmp	0r_4g.bmp	0r_2g.bmp	0r_2g.bmp				0r_2g.bmp	TrialProc	TrialList	0	cvbn	-999999	16	325481	0	n	341	325822	330	-345	-15	-42	-30	13	44	6	12	111	0	0	0	0	4	4	2	2	0	2
