ExperimentName	Subject	Session	Clock.Information	DataFile.Basename	Display.RefreshRate	Eindtotaal[Session]	ExperimentVersion	Group	RandomSeed	RuntimeCapabilities	RuntimeVersion	RuntimeVersionExpected	SessionDate	SessionStartDateTimeUtc	SessionTime	StudioVersion	Block	BarImage	BarTotalWinst	DoorChoice	Eindtotaal[Block]	FBDoor1	FBDoor2	FBDoor3	FBDoor4	Image1	Image2	Image3	Image4	Procedure	Running	spel.ACC	spel.CRESP	spel.DurationError	spel.OnsetDelay	spel.OnsetTime	spel.OnsetToOnsetTime	spel.RESP	spel.RT	spel.RTTime	TotalGain	TotalLose	Totalsum	TotalsumD1	TotalsumD2	TotalsumD3	TotalsumD4	TrialList	TrialList.Cycle	TrialList.Sample	varV1	varV2	varV3	varV4	varW1	varW2	varW3	varW4	Verliesbedrag	Winstbedrag
Hungry_Donkey_bar_English_2	167	1	<?xml version="1.0"?>\n<Clock xmlns:dt="urn:schemas-microsoft-com:datatypes"><Description dt:dt="string">E-Prime Primary Realtime Clock</Description><StartTime><Timestamp dt:dt="int">0</Timestamp><DateUtc dt:dt="string">2016-08-03T21:56:06Z</DateUtc></StartTime><FrequencyChanges><FrequencyChange><Frequency dt:dt="r8">3507685</Frequency><Timestamp dt:dt="r8">280759898</Timestamp><Current dt:dt="r8">0</Current><DateUtc dt:dt="string">2016-08-03T21:56:06Z</DateUtc></FrequencyChange></FrequencyChanges></Clock>\n	Hungry_Donkey_bar_English_2-167-1	60.017	92	1.0.0.18	1	281421448	Standard	2.0.10.353	2.0.10.353	08-03-2016	8/3/2016 9:56:06 PM	17:56:06	2.0.10.248	1	Bar100-0.bmp	100	4	?	0r_4g.bmp	0r_4g.bmp	0r_2g.bmp	0r_2g.bmp				0r_2g.bmp	TrialProc	TrialList	0	cvbn	-999999	22	92416	0	n	2250	94666	2	0	2	0	0	0	2	6	1	1	0	0	0	0	4	4	2	2	0	2
Hungry_Donkey_bar_English_2	167	1	<?xml version="1.0"?>\n<Clock xmlns:dt="urn:schemas-microsoft-com:datatypes"><Description dt:dt="string">E-Prime Primary Realtime Clock</Description><StartTime><Timestamp dt:dt="int">0</Timestamp><DateUtc dt:dt="string">2016-08-03T21:56:06Z</DateUtc></StartTime><FrequencyChanges><FrequencyChange><Frequency dt:dt="r8">3507685</Frequency><Timestamp dt:dt="r8">280759898</Timestamp><Current dt:dt="r8">0</Current><DateUtc dt:dt="string">2016-08-03T21:56:06Z</DateUtc></FrequencyChange></FrequencyChanges></Clock>\n	Hungry_Donkey_bar_English_2-167-1	60.017	92	1.0.0.18	1	281421448	Standard	2.0.10.353	2.0.10.353	08-03-2016	8/3/2016 9:56:06 PM	17:56:06	2.0.10.248	2	Bar37-63.bmp	43	1	?	8r_4g.bmp	50r_4g.bmp	1r_2g.bmp	10r_2g.bmp	8r_4g.bmp				TrialProc	TrialList	0	cvbn	-999999	16	96714	0	c	4367	101081	6	-8	-2	-4	0	0	2	1	1	2	-8	-50	-1	-10	4	4	2	2	-8	4
Hungry_Donkey_bar_English_2	167	1	<?xml version="1.0"?>\n<Clock xmlns:dt="urn:schemas-microsoft-com:datatypes"><Description dt:dt="string">E-Prime Primary Realtime Clock</Description><StartTime><Timestamp dt:dt="int">0</Timestamp><DateUtc dt:dt="string">2016-08-03T21:56:06Z</DateUtc></StartTime><FrequencyChanges><FrequencyChange><Frequency dt:dt="r8">3507685</Frequency><Timestamp dt:dt="r8">280759898</Timestamp><Current dt:dt="r8">0</Current><DateUtc dt:dt="string">2016-08-03T21:56:06Z</DateUtc></FrequencyChange></FrequencyChanges></Clock>\n	Hungry_Donkey_bar_English_2-167-1	60.017	92	1.0.0.18	1	281421448	Standard	2.0.10.353	2.0.10.353	08-03-2016	8/3/2016 9:56:06 PM	17:56:06	2.0.10.248	3	Bar50-50.bmp	50	3	?	0r_4g.bmp	0r_4g.bmp	0r_2g.bmp	0r_2g.bmp			0r_2g.bmp		TrialProc	TrialList	0	cvbn	-999999	16	103129	0	b	4064	107193	8	-8	0	-4	0	2	2	8	1	3	0	0	0	0	4	4	2	2	0	2
Hungry_Donkey_bar_English_2	167	1	<?xml version="1.0"?>\n<Clock xmlns:dt="urn:schemas-microsoft-com:datatypes"><Description dt:dt="string">E-Prime Primary Realtime Clock</Description><StartTime><Timestamp dt:dt="int">0</Timestamp><DateUtc dt:dt="string">2016-08-03T21:56:06Z</DateUtc></StartTime><FrequencyChanges><FrequencyChange><Frequency dt:dt="r8">3507685</Frequency><Timestamp dt:dt="r8">280759898</Timestamp><Current dt:dt="r8">0</Current><DateUtc dt:dt="string">2016-08-03T21:56:06Z</DateUtc></FrequencyChange></FrequencyChanges></Clock>\n	Hungry_Donkey_bar_English_2-167-1	60.017	92	1.0.0.18	1	281421448	Standard	2.0.10.353	2.0.10.353	08-03-2016	8/3/2016 9:56:06 PM	17:56:06	2.0.10.248	4	Bar63-37.bmp	60	2	?	10r_4g.bmp	0r_4g.bmp	2r_2g.bmp	0r_2g.bmp		0r_4g.bmp			TrialProc	TrialList	0	cvbn	-999999	16	109227	0	v	1422	110649	12	-8	4	-4	4	2	2	3	1	4	-10	0	-2	0	4	4	2	2	0	4
Hungry_Donkey_bar_English_2	167	1	<?xml version="1.0"?>\n<Clock xmlns:dt="urn:schemas-microsoft-com:datatypes"><Description dt:dt="string">E-Prime Primary Realtime Clock</Description><StartTime><Timestamp dt:dt="int">0</Timestamp><DateUtc dt:dt="string">2016-08-03T21:56:06Z</DateUtc></StartTime><FrequencyChanges><FrequencyChange><Frequency dt:dt="r8">3507685</Frequency><Timestamp dt:dt="r8">280759898</Timestamp><Current dt:dt="r8">0</Current><DateUtc dt:dt="string">2016-08-03T21:56:06Z</DateUtc></FrequencyChange></FrequencyChanges></Clock>\n	Hungry_Donkey_bar_English_2-167-1	60.017	92	1.0.0.18	1	281421448	Standard	2.0.10.353	2.0.10.353	08-03-2016	8/3/2016 9:56:06 PM	17:56:06	2.0.10.248	5	Bar63-37.bmp	64	4	?	0r_4g.bmp	0r_4g.bmp	0r_2g.bmp	0r_2g.bmp				0r_2g.bmp	TrialProc	TrialList	0	cvbn	-999999	16	112693	0	n	2036	114729	14	-8	6	-4	4	2	4	9	1	5	0	0	0	0	4	4	2	2	0	2
Hungry_Donkey_bar_English_2	167	1	<?xml version="1.0"?>\n<Clock xmlns:dt="urn:schemas-microsoft-com:datatypes"><Description dt:dt="string">E-Prime Primary Realtime Clock</Description><StartTime><Timestamp dt:dt="int">0</Timestamp><DateUtc dt:dt="string">2016-08-03T21:56:06Z</DateUtc></StartTime><FrequencyChanges><FrequencyChange><Frequency dt:dt="r8">3507685</Frequency><Timestamp dt:dt="r8">280759898</Timestamp><Current dt:dt="r8">0</Current><DateUtc dt:dt="string">2016-08-03T21:56:06Z</DateUtc></FrequencyChange></FrequencyChanges></Clock>\n	Hungry_Donkey_bar_English_2-167-1	60.017	92	1.0.0.18	1	281421448	Standard	2.0.10.353	2.0.10.353	08-03-2016	8/3/2016 9:56:06 PM	17:56:06	2.0.10.248	6	Bar63-37.bmp	69	2	?	0r_4g.bmp	0r_4g.bmp	0r_2g.bmp	0r_2g.bmp		0r_4g.bmp			TrialProc	TrialList	0	cvbn	-999999	16	116759	0	v	2113	118872	18	-8	10	-4	8	2	4	10	1	6	0	0	0	0	4	4	2	2	0	4
Hungry_Donkey_bar_English_2	167	1	<?xml version="1.0"?>\n<Clock xmlns:dt="urn:schemas-microsoft-com:datatypes"><Description dt:dt="string">E-Prime Primary Realtime Clock</Description><StartTime><Timestamp dt:dt="int">0</Timestamp><DateUtc dt:dt="string">2016-08-03T21:56:06Z</DateUtc></StartTime><FrequencyChanges><FrequencyChange><Frequency dt:dt="r8">3507685</Frequency><Timestamp dt:dt="r8">280759898</Timestamp><Current dt:dt="r8">0</Current><DateUtc dt:dt="string">2016-08-03T21:56:06Z</DateUtc></FrequencyChange></FrequencyChanges></Clock>\n	Hungry_Donkey_bar_English_2-167-1	60.017	92	1.0.0.18	1	281421448	Standard	2.0.10.353	2.0.10.353	08-03-2016	8/3/2016 9:56:06 PM	17:56:06	2.0.10.248	7	Bar75-25.bmp	73	1	?	0r_4g.bmp	0r_4g.bmp	0r_2g.bmp	0r_2g.bmp	0r_4g.bmp				TrialProc	TrialList	0	cvbn	-999999	16	120907	0	c	1661	122568	22	-8	14	0	8	2	4	7	1	7	0	0	0	0	4	4	2	2	0	4
Hungry_Donkey_bar_English_2	167	1	<?xml version="1.0"?>\n<Clock xmlns:dt="urn:schemas-microsoft-com:datatypes"><Description dt:dt="string">E-Prime Primary Realtime Clock</Description><StartTime><Timestamp dt:dt="int">0</Timestamp><DateUtc dt:dt="string">2016-08-03T21:56:06Z</DateUtc></StartTime><FrequencyChanges><FrequencyChange><Frequency dt:dt="r8">3507685</Frequency><Timestamp dt:dt="r8">280759898</Timestamp><Current dt:dt="r8">0</Current><DateUtc dt:dt="string">2016-08-03T21:56:06Z</DateUtc></FrequencyChange></FrequencyChanges></Clock>\n	Hungry_Donkey_bar_English_2-167-1	60.017	92	1.0.0.18	1	281421448	Standard	2.0.10.353	2.0.10.353	08-03-2016	8/3/2016 9:56:06 PM	17:56:06	2.0.10.248	8	Bar75-25.bmp	71	3	?	10r_4g.bmp	0r_4g.bmp	2r_2g.bmp	0r_2g.bmp			2r_2g.bmp		TrialProc	TrialList	0	cvbn	-999999	16	124606	0	b	1082	125688	24	-10	14	0	8	2	4	2	1	8	-10	0	-2	0	4	4	2	2	-2	2
Hungry_Donkey_bar_English_2	167	1	<?xml version="1.0"?>\n<Clock xmlns:dt="urn:schemas-microsoft-com:datatypes"><Description dt:dt="string">E-Prime Primary Realtime Clock</Description><StartTime><Timestamp dt:dt="int">0</Timestamp><DateUtc dt:dt="string">2016-08-03T21:56:06Z</DateUtc></StartTime><FrequencyChanges><FrequencyChange><Frequency dt:dt="r8">3507685</Frequency><Timestamp dt:dt="r8">280759898</Timestamp><Current dt:dt="r8">0</Current><DateUtc dt:dt="string">2016-08-03T21:56:06Z</DateUtc></FrequencyChange></FrequencyChanges></Clock>\n	Hungry_Donkey_bar_English_2-167-1	60.017	92	1.0.0.18	1	281421448	Standard	2.0.10.353	2.0.10.353	08-03-2016	8/3/2016 9:56:06 PM	17:56:06	2.0.10.248	9	Bar75-25.bmp	72	4	?	10r_4g.bmp	0r_4g.bmp	2r_2g.bmp	0r_2g.bmp				0r_2g.bmp	TrialProc	TrialList	0	cvbn	-999999	16	127722	0	n	4478	132200	26	-10	16	0	8	2	6	4	1	9	-10	0	-2	0	4	4	2	2	0	2
Hungry_Donkey_bar_English_2	167	1	<?xml version="1.0"?>\n<Clock xmlns:dt="urn:schemas-microsoft-com:datatypes"><Description dt:dt="string">E-Prime Primary Realtime Clock</Description><StartTime><Timestamp dt:dt="int">0</Timestamp><DateUtc dt:dt="string">2016-08-03T21:56:06Z</DateUtc></StartTime><FrequencyChanges><FrequencyChange><Frequency dt:dt="r8">3507685</Frequency><Timestamp dt:dt="r8">280759898</Timestamp><Current dt:dt="r8">0</Current><DateUtc dt:dt="string">2016-08-03T21:56:06Z</DateUtc></FrequencyChange></FrequencyChanges></Clock>\n	Hungry_Donkey_bar_English_2-167-1	60.017	92	1.0.0.18	1	281421448	Standard	2.0.10.353	2.0.10.353	08-03-2016	8/3/2016 9:56:06 PM	17:56:06	2.0.10.248	10	Bar63-37.bmp	68	3	?	12r_4g.bmp	0r_4g.bmp	3r_2g.bmp	0r_2g.bmp			3r_2g.bmp		TrialProc	TrialList	0	cvbn	-999999	16	134237	0	b	683	134920	28	-13	15	0	8	1	6	5	1	10	-12	0	-3	0	4	4	2	2	-3	2
Hungry_Donkey_bar_English_2	167	1	<?xml version="1.0"?>\n<Clock xmlns:dt="urn:schemas-microsoft-com:datatypes"><Description dt:dt="string">E-Prime Primary Realtime Clock</Description><StartTime><Timestamp dt:dt="int">0</Timestamp><DateUtc dt:dt="string">2016-08-03T21:56:06Z</DateUtc></StartTime><FrequencyChanges><FrequencyChange><Frequency dt:dt="r8">3507685</Frequency><Timestamp dt:dt="r8">280759898</Timestamp><Current dt:dt="r8">0</Current><DateUtc dt:dt="string">2016-08-03T21:56:06Z</DateUtc></FrequencyChange></FrequencyChanges></Clock>\n	Hungry_Donkey_bar_English_2-167-1	60.017	92	1.0.0.18	1	281421448	Standard	2.0.10.353	2.0.10.353	08-03-2016	8/3/2016 9:56:06 PM	17:56:06	2.0.10.248	11	Bar75-25.bmp	71	2	?	10r_4g.bmp	0r_4g.bmp	2r_2g.bmp	0r_2g.bmp		0r_4g.bmp			TrialProc	TrialList	0	cvbn	-999999	16	136953	0	v	1214	138167	32	-13	19	0	12	1	6	2	2	11	-10	0	-2	0	4	4	2	2	0	4
Hungry_Donkey_bar_English_2	167	1	<?xml version="1.0"?>\n<Clock xmlns:dt="urn:schemas-microsoft-com:datatypes"><Description dt:dt="string">E-Prime Primary Realtime Clock</Description><StartTime><Timestamp dt:dt="int">0</Timestamp><DateUtc dt:dt="string">2016-08-03T21:56:06Z</DateUtc></StartTime><FrequencyChanges><FrequencyChange><Frequency dt:dt="r8">3507685</Frequency><Timestamp dt:dt="r8">280759898</Timestamp><Current dt:dt="r8">0</Current><DateUtc dt:dt="string">2016-08-03T21:56:06Z</DateUtc></FrequencyChange></FrequencyChanges></Clock>\n	Hungry_Donkey_bar_English_2-167-1	60.017	92	1.0.0.18	1	281421448	Standard	2.0.10.353	2.0.10.353	08-03-2016	8/3/2016 9:56:06 PM	17:56:06	2.0.10.248	12	Bar75-25.bmp	73	1	?	0r_4g.bmp	0r_4g.bmp	0r_2g.bmp	0r_2g.bmp	0r_4g.bmp				TrialProc	TrialList	0	cvbn	-999999	16	140202	0	c	461	140663	36	-13	23	4	12	1	6	10	2	12	0	0	0	0	4	4	2	2	0	4
Hungry_Donkey_bar_English_2	167	1	<?xml version="1.0"?>\n<Clock xmlns:dt="urn:schemas-microsoft-com:datatypes"><Description dt:dt="string">E-Prime Primary Realtime Clock</Description><StartTime><Timestamp dt:dt="int">0</Timestamp><DateUtc dt:dt="string">2016-08-03T21:56:06Z</DateUtc></StartTime><FrequencyChanges><FrequencyChange><Frequency dt:dt="r8">3507685</Frequency><Timestamp dt:dt="r8">280759898</Timestamp><Current dt:dt="r8">0</Current><DateUtc dt:dt="string">2016-08-03T21:56:06Z</DateUtc></FrequencyChange></FrequencyChanges></Clock>\n	Hungry_Donkey_bar_English_2-167-1	60.017	92	1.0.0.18	1	281421448	Standard	2.0.10.353	2.0.10.353	08-03-2016	8/3/2016 9:56:06 PM	17:56:06	2.0.10.248	13	Bar75-25.bmp	75	1	?	0r_4g.bmp	0r_4g.bmp	0r_2g.bmp	0r_2g.bmp	0r_4g.bmp				TrialProc	TrialList	0	cvbn	-999999	16	142701	0	c	1226	143927	40	-13	27	8	12	1	6	9	2	13	0	0	0	0	4	4	2	2	0	4
Hungry_Donkey_bar_English_2	167	1	<?xml version="1.0"?>\n<Clock xmlns:dt="urn:schemas-microsoft-com:datatypes"><Description dt:dt="string">E-Prime Primary Realtime Clock</Description><StartTime><Timestamp dt:dt="int">0</Timestamp><DateUtc dt:dt="string">2016-08-03T21:56:06Z</DateUtc></StartTime><FrequencyChanges><FrequencyChange><Frequency dt:dt="r8">3507685</Frequency><Timestamp dt:dt="r8">280759898</Timestamp><Current dt:dt="r8">0</Current><DateUtc dt:dt="string">2016-08-03T21:56:06Z</DateUtc></FrequencyChange></FrequencyChanges></Clock>\n	Hungry_Donkey_bar_English_2-167-1	60.017	92	1.0.0.18	1	281421448	Standard	2.0.10.353	2.0.10.353	08-03-2016	8/3/2016 9:56:06 PM	17:56:06	2.0.10.248	14	Bar75-25.bmp	77	2	?	0r_4g.bmp	0r_4g.bmp	0r_2g.bmp	0r_2g.bmp		0r_4g.bmp			TrialProc	TrialList	0	cvbn	-999999	16	145967	0	v	1096	147063	44	-13	31	8	16	1	6	6	2	14	0	0	0	0	4	4	2	2	0	4
Hungry_Donkey_bar_English_2	167	1	<?xml version="1.0"?>\n<Clock xmlns:dt="urn:schemas-microsoft-com:datatypes"><Description dt:dt="string">E-Prime Primary Realtime Clock</Description><StartTime><Timestamp dt:dt="int">0</Timestamp><DateUtc dt:dt="string">2016-08-03T21:56:06Z</DateUtc></StartTime><FrequencyChanges><FrequencyChange><Frequency dt:dt="r8">3507685</Frequency><Timestamp dt:dt="r8">280759898</Timestamp><Current dt:dt="r8">0</Current><DateUtc dt:dt="string">2016-08-03T21:56:06Z</DateUtc></FrequencyChange></FrequencyChanges></Clock>\n	Hungry_Donkey_bar_English_2-167-1	60.017	92	1.0.0.18	1	281421448	Standard	2.0.10.353	2.0.10.353	08-03-2016	8/3/2016 9:56:06 PM	17:56:06	2.0.10.248	15	Bar75-25.bmp	78	4	?	10r_4g.bmp	0r_4g.bmp	2r_2g.bmp	0r_2g.bmp				0r_2g.bmp	TrialProc	TrialList	0	cvbn	-999999	16	149099	0	n	1052	150151	46	-13	33	8	16	1	8	3	2	15	-10	0	-2	0	4	4	2	2	0	2
Hungry_Donkey_bar_English_2	167	1	<?xml version="1.0"?>\n<Clock xmlns:dt="urn:schemas-microsoft-com:datatypes"><Description dt:dt="string">E-Prime Primary Realtime Clock</Description><StartTime><Timestamp dt:dt="int">0</Timestamp><DateUtc dt:dt="string">2016-08-03T21:56:06Z</DateUtc></StartTime><FrequencyChanges><FrequencyChange><Frequency dt:dt="r8">3507685</Frequency><Timestamp dt:dt="r8">280759898</Timestamp><Current dt:dt="r8">0</Current><DateUtc dt:dt="string">2016-08-03T21:56:06Z</DateUtc></FrequencyChange></FrequencyChanges></Clock>\n	Hungry_Donkey_bar_English_2-167-1	60.017	92	1.0.0.18	1	281421448	Standard	2.0.10.353	2.0.10.353	08-03-2016	8/3/2016 9:56:06 PM	17:56:06	2.0.10.248	16	Bar75-25.bmp	77	3	?	8r_4g.bmp	50r_4g.bmp	1r_2g.bmp	10r_2g.bmp			1r_2g.bmp		TrialProc	TrialList	0	cvbn	-999999	16	152182	0	b	801	152983	48	-14	34	8	16	2	8	1	2	16	-8	-50	-1	-10	4	4	2	2	-1	2
Hungry_Donkey_bar_English_2	167	1	<?xml version="1.0"?>\n<Clock xmlns:dt="urn:schemas-microsoft-com:datatypes"><Description dt:dt="string">E-Prime Primary Realtime Clock</Description><StartTime><Timestamp dt:dt="int">0</Timestamp><DateUtc dt:dt="string">2016-08-03T21:56:06Z</DateUtc></StartTime><FrequencyChanges><FrequencyChange><Frequency dt:dt="r8">3507685</Frequency><Timestamp dt:dt="r8">280759898</Timestamp><Current dt:dt="r8">0</Current><DateUtc dt:dt="string">2016-08-03T21:56:06Z</DateUtc></FrequencyChange></FrequencyChanges></Clock>\n	Hungry_Donkey_bar_English_2-167-1	60.017	92	1.0.0.18	1	281421448	Standard	2.0.10.353	2.0.10.353	08-03-2016	8/3/2016 9:56:06 PM	17:56:06	2.0.10.248	17	Bar75-25.bmp	79	2	?	10r_4g.bmp	0r_4g.bmp	2r_2g.bmp	0r_2g.bmp		0r_4g.bmp			TrialProc	TrialList	0	cvbn	-999999	16	155014	0	v	368	155382	52	-14	38	8	20	2	8	4	2	17	-10	0	-2	0	4	4	2	2	0	4
Hungry_Donkey_bar_English_2	167	1	<?xml version="1.0"?>\n<Clock xmlns:dt="urn:schemas-microsoft-com:datatypes"><Description dt:dt="string">E-Prime Primary Realtime Clock</Description><StartTime><Timestamp dt:dt="int">0</Timestamp><DateUtc dt:dt="string">2016-08-03T21:56:06Z</DateUtc></StartTime><FrequencyChanges><FrequencyChange><Frequency dt:dt="r8">3507685</Frequency><Timestamp dt:dt="r8">280759898</Timestamp><Current dt:dt="r8">0</Current><DateUtc dt:dt="string">2016-08-03T21:56:06Z</DateUtc></FrequencyChange></FrequencyChanges></Clock>\n	Hungry_Donkey_bar_English_2-167-1	60.017	92	1.0.0.18	1	281421448	Standard	2.0.10.353	2.0.10.353	08-03-2016	8/3/2016 9:56:06 PM	17:56:06	2.0.10.248	18	Bar75-25.bmp	79	4	?	0r_4g.bmp	0r_4g.bmp	0r_2g.bmp	0r_2g.bmp				0r_2g.bmp	TrialProc	TrialList	0	cvbn	-999999	17	157414	0	n	816	158230	54	-14	40	8	20	2	10	7	2	18	0	0	0	0	4	4	2	2	0	2
Hungry_Donkey_bar_English_2	167	1	<?xml version="1.0"?>\n<Clock xmlns:dt="urn:schemas-microsoft-com:datatypes"><Description dt:dt="string">E-Prime Primary Realtime Clock</Description><StartTime><Timestamp dt:dt="int">0</Timestamp><DateUtc dt:dt="string">2016-08-03T21:56:06Z</DateUtc></StartTime><FrequencyChanges><FrequencyChange><Frequency dt:dt="r8">3507685</Frequency><Timestamp dt:dt="r8">280759898</Timestamp><Current dt:dt="r8">0</Current><DateUtc dt:dt="string">2016-08-03T21:56:06Z</DateUtc></FrequencyChange></FrequencyChanges></Clock>\n	Hungry_Donkey_bar_English_2-167-1	60.017	92	1.0.0.18	1	281421448	Standard	2.0.10.353	2.0.10.353	08-03-2016	8/3/2016 9:56:06 PM	17:56:06	2.0.10.248	19	Bar63-37.bmp	69	1	?	12r_4g.bmp	0r_4g.bmp	3r_2g.bmp	0r_2g.bmp	12r_4g.bmp				TrialProc	TrialList	0	cvbn	-999999	16	160263	0	c	1999	162262	58	-26	32	0	20	2	10	5	2	19	-12	0	-3	0	4	4	2	2	-12	4
Hungry_Donkey_bar_English_2	167	1	<?xml version="1.0"?>\n<Clock xmlns:dt="urn:schemas-microsoft-com:datatypes"><Description dt:dt="string">E-Prime Primary Realtime Clock</Description><StartTime><Timestamp dt:dt="int">0</Timestamp><DateUtc dt:dt="string">2016-08-03T21:56:06Z</DateUtc></StartTime><FrequencyChanges><FrequencyChange><Frequency dt:dt="r8">3507685</Frequency><Timestamp dt:dt="r8">280759898</Timestamp><Current dt:dt="r8">0</Current><DateUtc dt:dt="string">2016-08-03T21:56:06Z</DateUtc></FrequencyChange></FrequencyChanges></Clock>\n	Hungry_Donkey_bar_English_2-167-1	60.017	92	1.0.0.18	1	281421448	Standard	2.0.10.353	2.0.10.353	08-03-2016	8/3/2016 9:56:06 PM	17:56:06	2.0.10.248	20	Bar75-25.bmp	70	2	?	0r_4g.bmp	0r_4g.bmp	0r_2g.bmp	0r_2g.bmp		0r_4g.bmp			TrialProc	TrialList	0	cvbn	-999999	16	164295	0	v	1615	165910	62	-26	36	0	24	2	10	8	2	20	0	0	0	0	4	4	2	2	0	4
Hungry_Donkey_bar_English_2	167	1	<?xml version="1.0"?>\n<Clock xmlns:dt="urn:schemas-microsoft-com:datatypes"><Description dt:dt="string">E-Prime Primary Realtime Clock</Description><StartTime><Timestamp dt:dt="int">0</Timestamp><DateUtc dt:dt="string">2016-08-03T21:56:06Z</DateUtc></StartTime><FrequencyChanges><FrequencyChange><Frequency dt:dt="r8">3507685</Frequency><Timestamp dt:dt="r8">280759898</Timestamp><Current dt:dt="r8">0</Current><DateUtc dt:dt="string">2016-08-03T21:56:06Z</DateUtc></FrequencyChange></FrequencyChanges></Clock>\n	Hungry_Donkey_bar_English_2-167-1	60.017	92	1.0.0.18	1	281421448	Standard	2.0.10.353	2.0.10.353	08-03-2016	8/3/2016 9:56:06 PM	17:56:06	2.0.10.248	21	Bar75-25.bmp	70	3	?	8r_4g.bmp	50r_4g.bmp	1r_2g.bmp	10r_2g.bmp			1r_2g.bmp		TrialProc	TrialList	0	cvbn	-999999	16	167944	0	b	558	168502	64	-27	37	0	24	3	10	1	3	21	-8	-50	-1	-10	4	4	2	2	-1	2
Hungry_Donkey_bar_English_2	167	1	<?xml version="1.0"?>\n<Clock xmlns:dt="urn:schemas-microsoft-com:datatypes"><Description dt:dt="string">E-Prime Primary Realtime Clock</Description><StartTime><Timestamp dt:dt="int">0</Timestamp><DateUtc dt:dt="string">2016-08-03T21:56:06Z</DateUtc></StartTime><FrequencyChanges><FrequencyChange><Frequency dt:dt="r8">3507685</Frequency><Timestamp dt:dt="r8">280759898</Timestamp><Current dt:dt="r8">0</Current><DateUtc dt:dt="string">2016-08-03T21:56:06Z</DateUtc></FrequencyChange></FrequencyChanges></Clock>\n	Hungry_Donkey_bar_English_2-167-1	60.017	92	1.0.0.18	1	281421448	Standard	2.0.10.353	2.0.10.353	08-03-2016	8/3/2016 9:56:06 PM	17:56:06	2.0.10.248	22	Bar75-25.bmp	71	4	?	0r_4g.bmp	0r_4g.bmp	0r_2g.bmp	0r_2g.bmp				0r_2g.bmp	TrialProc	TrialList	0	cvbn	-999999	16	170543	0	n	599	171142	66	-27	39	0	24	3	12	9	3	22	0	0	0	0	4	4	2	2	0	2
Hungry_Donkey_bar_English_2	167	1	<?xml version="1.0"?>\n<Clock xmlns:dt="urn:schemas-microsoft-com:datatypes"><Description dt:dt="string">E-Prime Primary Realtime Clock</Description><StartTime><Timestamp dt:dt="int">0</Timestamp><DateUtc dt:dt="string">2016-08-03T21:56:06Z</DateUtc></StartTime><FrequencyChanges><FrequencyChange><Frequency dt:dt="r8">3507685</Frequency><Timestamp dt:dt="r8">280759898</Timestamp><Current dt:dt="r8">0</Current><DateUtc dt:dt="string">2016-08-03T21:56:06Z</DateUtc></FrequencyChange></FrequencyChanges></Clock>\n	Hungry_Donkey_bar_English_2-167-1	60.017	92	1.0.0.18	1	281421448	Standard	2.0.10.353	2.0.10.353	08-03-2016	8/3/2016 9:56:06 PM	17:56:06	2.0.10.248	23	Bar75-25.bmp	72	2	?	10r_4g.bmp	0r_4g.bmp	2r_2g.bmp	0r_2g.bmp		0r_4g.bmp			TrialProc	TrialList	0	cvbn	-999999	16	173176	0	v	1405	174581	70	-27	43	0	28	3	12	2	3	23	-10	0	-2	0	4	4	2	2	0	4
Hungry_Donkey_bar_English_2	167	1	<?xml version="1.0"?>\n<Clock xmlns:dt="urn:schemas-microsoft-com:datatypes"><Description dt:dt="string">E-Prime Primary Realtime Clock</Description><StartTime><Timestamp dt:dt="int">0</Timestamp><DateUtc dt:dt="string">2016-08-03T21:56:06Z</DateUtc></StartTime><FrequencyChanges><FrequencyChange><Frequency dt:dt="r8">3507685</Frequency><Timestamp dt:dt="r8">280759898</Timestamp><Current dt:dt="r8">0</Current><DateUtc dt:dt="string">2016-08-03T21:56:06Z</DateUtc></FrequencyChange></FrequencyChanges></Clock>\n	Hungry_Donkey_bar_English_2-167-1	60.017	92	1.0.0.18	1	281421448	Standard	2.0.10.353	2.0.10.353	08-03-2016	8/3/2016 9:56:06 PM	17:56:06	2.0.10.248	24	Bar75-25.bmp	71	3	?	10r_4g.bmp	0r_4g.bmp	2r_2g.bmp	0r_2g.bmp			2r_2g.bmp		TrialProc	TrialList	0	cvbn	-999999	16	176608	0	b	725	177333	72	-29	43	0	28	3	12	3	3	24	-10	0	-2	0	4	4	2	2	-2	2
Hungry_Donkey_bar_English_2	167	1	<?xml version="1.0"?>\n<Clock xmlns:dt="urn:schemas-microsoft-com:datatypes"><Description dt:dt="string">E-Prime Primary Realtime Clock</Description><StartTime><Timestamp dt:dt="int">0</Timestamp><DateUtc dt:dt="string">2016-08-03T21:56:06Z</DateUtc></StartTime><FrequencyChanges><FrequencyChange><Frequency dt:dt="r8">3507685</Frequency><Timestamp dt:dt="r8">280759898</Timestamp><Current dt:dt="r8">0</Current><DateUtc dt:dt="string">2016-08-03T21:56:06Z</DateUtc></FrequencyChange></FrequencyChanges></Clock>\n	Hungry_Donkey_bar_English_2-167-1	60.017	92	1.0.0.18	1	281421448	Standard	2.0.10.353	2.0.10.353	08-03-2016	8/3/2016 9:56:06 PM	17:56:06	2.0.10.248	25	Bar75-25.bmp	72	4	?	0r_4g.bmp	0r_4g.bmp	0r_2g.bmp	0r_2g.bmp				0r_2g.bmp	TrialProc	TrialList	0	cvbn	-999999	16	179374	0	n	1543	180917	74	-29	45	0	28	3	14	7	3	25	0	0	0	0	4	4	2	2	0	2
Hungry_Donkey_bar_English_2	167	1	<?xml version="1.0"?>\n<Clock xmlns:dt="urn:schemas-microsoft-com:datatypes"><Description dt:dt="string">E-Prime Primary Realtime Clock</Description><StartTime><Timestamp dt:dt="int">0</Timestamp><DateUtc dt:dt="string">2016-08-03T21:56:06Z</DateUtc></StartTime><FrequencyChanges><FrequencyChange><Frequency dt:dt="r8">3507685</Frequency><Timestamp dt:dt="r8">280759898</Timestamp><Current dt:dt="r8">0</Current><DateUtc dt:dt="string">2016-08-03T21:56:06Z</DateUtc></FrequencyChange></FrequencyChanges></Clock>\n	Hungry_Donkey_bar_English_2-167-1	60.017	92	1.0.0.18	1	281421448	Standard	2.0.10.353	2.0.10.353	08-03-2016	8/3/2016 9:56:06 PM	17:56:06	2.0.10.248	26	Bar75-25.bmp	73	1	?	0r_4g.bmp	0r_4g.bmp	0r_2g.bmp	0r_2g.bmp	0r_4g.bmp				TrialProc	TrialList	0	cvbn	-999999	16	182956	0	c	3033	185989	78	-29	49	4	28	3	14	8	3	26	0	0	0	0	4	4	2	2	0	4
Hungry_Donkey_bar_English_2	167	1	<?xml version="1.0"?>\n<Clock xmlns:dt="urn:schemas-microsoft-com:datatypes"><Description dt:dt="string">E-Prime Primary Realtime Clock</Description><StartTime><Timestamp dt:dt="int">0</Timestamp><DateUtc dt:dt="string">2016-08-03T21:56:06Z</DateUtc></StartTime><FrequencyChanges><FrequencyChange><Frequency dt:dt="r8">3507685</Frequency><Timestamp dt:dt="r8">280759898</Timestamp><Current dt:dt="r8">0</Current><DateUtc dt:dt="string">2016-08-03T21:56:06Z</DateUtc></FrequencyChange></FrequencyChanges></Clock>\n	Hungry_Donkey_bar_English_2-167-1	60.017	92	1.0.0.18	1	281421448	Standard	2.0.10.353	2.0.10.353	08-03-2016	8/3/2016 9:56:06 PM	17:56:06	2.0.10.248	27	Bar75-25.bmp	74	2	?	0r_4g.bmp	0r_4g.bmp	0r_2g.bmp	0r_2g.bmp		0r_4g.bmp			TrialProc	TrialList	0	cvbn	-999999	16	188021	0	v	2832	190853	82	-29	53	4	32	3	14	10	3	27	0	0	0	0	4	4	2	2	0	4
Hungry_Donkey_bar_English_2	167	1	<?xml version="1.0"?>\n<Clock xmlns:dt="urn:schemas-microsoft-com:datatypes"><Description dt:dt="string">E-Prime Primary Realtime Clock</Description><StartTime><Timestamp dt:dt="int">0</Timestamp><DateUtc dt:dt="string">2016-08-03T21:56:06Z</DateUtc></StartTime><FrequencyChanges><FrequencyChange><Frequency dt:dt="r8">3507685</Frequency><Timestamp dt:dt="r8">280759898</Timestamp><Current dt:dt="r8">0</Current><DateUtc dt:dt="string">2016-08-03T21:56:06Z</DateUtc></FrequencyChange></FrequencyChanges></Clock>\n	Hungry_Donkey_bar_English_2-167-1	60.017	92	1.0.0.18	1	281421448	Standard	2.0.10.353	2.0.10.353	08-03-2016	8/3/2016 9:56:06 PM	17:56:06	2.0.10.248	28	Bar75-25.bmp	74	3	?	0r_4g.bmp	0r_4g.bmp	0r_2g.bmp	0r_2g.bmp			0r_2g.bmp		TrialProc	TrialList	0	cvbn	-999999	16	192887	0	b	2317	195204	84	-29	55	4	32	5	14	6	3	28	0	0	0	0	4	4	2	2	0	2
Hungry_Donkey_bar_English_2	167	1	<?xml version="1.0"?>\n<Clock xmlns:dt="urn:schemas-microsoft-com:datatypes"><Description dt:dt="string">E-Prime Primary Realtime Clock</Description><StartTime><Timestamp dt:dt="int">0</Timestamp><DateUtc dt:dt="string">2016-08-03T21:56:06Z</DateUtc></StartTime><FrequencyChanges><FrequencyChange><Frequency dt:dt="r8">3507685</Frequency><Timestamp dt:dt="r8">280759898</Timestamp><Current dt:dt="r8">0</Current><DateUtc dt:dt="string">2016-08-03T21:56:06Z</DateUtc></FrequencyChange></FrequencyChanges></Clock>\n	Hungry_Donkey_bar_English_2-167-1	60.017	92	1.0.0.18	1	281421448	Standard	2.0.10.353	2.0.10.353	08-03-2016	8/3/2016 9:56:06 PM	17:56:06	2.0.10.248	29	Bar75-25.bmp	75	4	?	10r_4g.bmp	0r_4g.bmp	2r_2g.bmp	0r_2g.bmp				0r_2g.bmp	TrialProc	TrialList	0	cvbn	-999999	16	197235	0	n	1105	198340	86	-29	57	4	32	5	16	4	3	29	-10	0	-2	0	4	4	2	2	0	2
Hungry_Donkey_bar_English_2	167	1	<?xml version="1.0"?>\n<Clock xmlns:dt="urn:schemas-microsoft-com:datatypes"><Description dt:dt="string">E-Prime Primary Realtime Clock</Description><StartTime><Timestamp dt:dt="int">0</Timestamp><DateUtc dt:dt="string">2016-08-03T21:56:06Z</DateUtc></StartTime><FrequencyChanges><FrequencyChange><Frequency dt:dt="r8">3507685</Frequency><Timestamp dt:dt="r8">280759898</Timestamp><Current dt:dt="r8">0</Current><DateUtc dt:dt="string">2016-08-03T21:56:06Z</DateUtc></FrequencyChange></FrequencyChanges></Clock>\n	Hungry_Donkey_bar_English_2-167-1	60.017	92	1.0.0.18	1	281421448	Standard	2.0.10.353	2.0.10.353	08-03-2016	8/3/2016 9:56:06 PM	17:56:06	2.0.10.248	30	Bar63-37.bmp	69	1	?	12r_4g.bmp	0r_4g.bmp	3r_2g.bmp	0r_2g.bmp	12r_4g.bmp				TrialProc	TrialList	0	cvbn	-999999	16	200368	0	c	1316	201684	90	-41	49	-4	32	5	16	5	3	30	-12	0	-3	0	4	4	2	2	-12	4
Hungry_Donkey_bar_English_2	167	1	<?xml version="1.0"?>\n<Clock xmlns:dt="urn:schemas-microsoft-com:datatypes"><Description dt:dt="string">E-Prime Primary Realtime Clock</Description><StartTime><Timestamp dt:dt="int">0</Timestamp><DateUtc dt:dt="string">2016-08-03T21:56:06Z</DateUtc></StartTime><FrequencyChanges><FrequencyChange><Frequency dt:dt="r8">3507685</Frequency><Timestamp dt:dt="r8">280759898</Timestamp><Current dt:dt="r8">0</Current><DateUtc dt:dt="string">2016-08-03T21:56:06Z</DateUtc></FrequencyChange></FrequencyChanges></Clock>\n	Hungry_Donkey_bar_English_2-167-1	60.017	92	1.0.0.18	1	281421448	Standard	2.0.10.353	2.0.10.353	08-03-2016	8/3/2016 9:56:06 PM	17:56:06	2.0.10.248	31	Bar75-25.bmp	70	2	?	10r_4g.bmp	0r_4g.bmp	2r_2g.bmp	0r_2g.bmp		0r_4g.bmp			TrialProc	TrialList	0	cvbn	-999999	16	203717	0	v	1215	204932	94	-41	53	-4	36	5	16	4	4	31	-10	0	-2	0	4	4	2	2	0	4
Hungry_Donkey_bar_English_2	167	1	<?xml version="1.0"?>\n<Clock xmlns:dt="urn:schemas-microsoft-com:datatypes"><Description dt:dt="string">E-Prime Primary Realtime Clock</Description><StartTime><Timestamp dt:dt="int">0</Timestamp><DateUtc dt:dt="string">2016-08-03T21:56:06Z</DateUtc></StartTime><FrequencyChanges><FrequencyChange><Frequency dt:dt="r8">3507685</Frequency><Timestamp dt:dt="r8">280759898</Timestamp><Current dt:dt="r8">0</Current><DateUtc dt:dt="string">2016-08-03T21:56:06Z</DateUtc></FrequencyChange></FrequencyChanges></Clock>\n	Hungry_Donkey_bar_English_2-167-1	60.017	92	1.0.0.18	1	281421448	Standard	2.0.10.353	2.0.10.353	08-03-2016	8/3/2016 9:56:06 PM	17:56:06	2.0.10.248	32	Bar75-25.bmp	70	3	?	0r_4g.bmp	0r_4g.bmp	0r_2g.bmp	0r_2g.bmp			0r_2g.bmp		TrialProc	TrialList	0	cvbn	-999999	16	206966	0	b	990	207956	96	-41	55	-4	36	7	16	9	4	32	0	0	0	0	4	4	2	2	0	2
Hungry_Donkey_bar_English_2	167	1	<?xml version="1.0"?>\n<Clock xmlns:dt="urn:schemas-microsoft-com:datatypes"><Description dt:dt="string">E-Prime Primary Realtime Clock</Description><StartTime><Timestamp dt:dt="int">0</Timestamp><DateUtc dt:dt="string">2016-08-03T21:56:06Z</DateUtc></StartTime><FrequencyChanges><FrequencyChange><Frequency dt:dt="r8">3507685</Frequency><Timestamp dt:dt="r8">280759898</Timestamp><Current dt:dt="r8">0</Current><DateUtc dt:dt="string">2016-08-03T21:56:06Z</DateUtc></FrequencyChange></FrequencyChanges></Clock>\n	Hungry_Donkey_bar_English_2-167-1	60.017	92	1.0.0.18	1	281421448	Standard	2.0.10.353	2.0.10.353	08-03-2016	8/3/2016 9:56:06 PM	17:56:06	2.0.10.248	33	Bar75-25.bmp	71	4	?	10r_4g.bmp	0r_4g.bmp	2r_2g.bmp	0r_2g.bmp				0r_2g.bmp	TrialProc	TrialList	0	cvbn	-999999	16	209982	0	n	438	210420	98	-41	57	-4	36	7	18	2	4	33	-10	0	-2	0	4	4	2	2	0	2
Hungry_Donkey_bar_English_2	167	1	<?xml version="1.0"?>\n<Clock xmlns:dt="urn:schemas-microsoft-com:datatypes"><Description dt:dt="string">E-Prime Primary Realtime Clock</Description><StartTime><Timestamp dt:dt="int">0</Timestamp><DateUtc dt:dt="string">2016-08-03T21:56:06Z</DateUtc></StartTime><FrequencyChanges><FrequencyChange><Frequency dt:dt="r8">3507685</Frequency><Timestamp dt:dt="r8">280759898</Timestamp><Current dt:dt="r8">0</Current><DateUtc dt:dt="string">2016-08-03T21:56:06Z</DateUtc></FrequencyChange></FrequencyChanges></Clock>\n	Hungry_Donkey_bar_English_2-167-1	60.017	92	1.0.0.18	1	281421448	Standard	2.0.10.353	2.0.10.353	08-03-2016	8/3/2016 9:56:06 PM	17:56:06	2.0.10.248	34	Bar75-25.bmp	70	3	?	10r_4g.bmp	0r_4g.bmp	2r_2g.bmp	0r_2g.bmp			2r_2g.bmp		TrialProc	TrialList	0	cvbn	-999999	16	212464	0	b	691	213155	100	-43	57	-4	36	7	18	3	4	34	-10	0	-2	0	4	4	2	2	-2	2
Hungry_Donkey_bar_English_2	167	1	<?xml version="1.0"?>\n<Clock xmlns:dt="urn:schemas-microsoft-com:datatypes"><Description dt:dt="string">E-Prime Primary Realtime Clock</Description><StartTime><Timestamp dt:dt="int">0</Timestamp><DateUtc dt:dt="string">2016-08-03T21:56:06Z</DateUtc></StartTime><FrequencyChanges><FrequencyChange><Frequency dt:dt="r8">3507685</Frequency><Timestamp dt:dt="r8">280759898</Timestamp><Current dt:dt="r8">0</Current><DateUtc dt:dt="string">2016-08-03T21:56:06Z</DateUtc></FrequencyChange></FrequencyChanges></Clock>\n	Hungry_Donkey_bar_English_2-167-1	60.017	92	1.0.0.18	1	281421448	Standard	2.0.10.353	2.0.10.353	08-03-2016	8/3/2016 9:56:06 PM	17:56:06	2.0.10.248	35	Bar75-25.bmp	71	2	?	0r_4g.bmp	0r_4g.bmp	0r_2g.bmp	0r_2g.bmp		0r_4g.bmp			TrialProc	TrialList	0	cvbn	-999999	16	215197	0	v	694	215891	104	-43	61	-4	40	7	18	7	4	35	0	0	0	0	4	4	2	2	0	4
Hungry_Donkey_bar_English_2	167	1	<?xml version="1.0"?>\n<Clock xmlns:dt="urn:schemas-microsoft-com:datatypes"><Description dt:dt="string">E-Prime Primary Realtime Clock</Description><StartTime><Timestamp dt:dt="int">0</Timestamp><DateUtc dt:dt="string">2016-08-03T21:56:06Z</DateUtc></StartTime><FrequencyChanges><FrequencyChange><Frequency dt:dt="r8">3507685</Frequency><Timestamp dt:dt="r8">280759898</Timestamp><Current dt:dt="r8">0</Current><DateUtc dt:dt="string">2016-08-03T21:56:06Z</DateUtc></FrequencyChange></FrequencyChanges></Clock>\n	Hungry_Donkey_bar_English_2-167-1	60.017	92	1.0.0.18	1	281421448	Standard	2.0.10.353	2.0.10.353	08-03-2016	8/3/2016 9:56:06 PM	17:56:06	2.0.10.248	36	Bar63-37.bmp	68	1	?	8r_4g.bmp	50r_4g.bmp	1r_2g.bmp	10r_2g.bmp	8r_4g.bmp				TrialProc	TrialList	0	cvbn	-999999	16	217929	0	c	1706	219635	108	-51	57	-8	40	7	18	1	4	36	-8	-50	-1	-10	4	4	2	2	-8	4
Hungry_Donkey_bar_English_2	167	1	<?xml version="1.0"?>\n<Clock xmlns:dt="urn:schemas-microsoft-com:datatypes"><Description dt:dt="string">E-Prime Primary Realtime Clock</Description><StartTime><Timestamp dt:dt="int">0</Timestamp><DateUtc dt:dt="string">2016-08-03T21:56:06Z</DateUtc></StartTime><FrequencyChanges><FrequencyChange><Frequency dt:dt="r8">3507685</Frequency><Timestamp dt:dt="r8">280759898</Timestamp><Current dt:dt="r8">0</Current><DateUtc dt:dt="string">2016-08-03T21:56:06Z</DateUtc></FrequencyChange></FrequencyChanges></Clock>\n	Hungry_Donkey_bar_English_2-167-1	60.017	92	1.0.0.18	1	281421448	Standard	2.0.10.353	2.0.10.353	08-03-2016	8/3/2016 9:56:06 PM	17:56:06	2.0.10.248	37	Bar63-37.bmp	69	2	?	0r_4g.bmp	0r_4g.bmp	0r_2g.bmp	0r_2g.bmp		0r_4g.bmp			TrialProc	TrialList	0	cvbn	-999999	16	221678	0	v	2357	224035	112	-51	61	-8	44	7	18	8	4	37	0	0	0	0	4	4	2	2	0	4
Hungry_Donkey_bar_English_2	167	1	<?xml version="1.0"?>\n<Clock xmlns:dt="urn:schemas-microsoft-com:datatypes"><Description dt:dt="string">E-Prime Primary Realtime Clock</Description><StartTime><Timestamp dt:dt="int">0</Timestamp><DateUtc dt:dt="string">2016-08-03T21:56:06Z</DateUtc></StartTime><FrequencyChanges><FrequencyChange><Frequency dt:dt="r8">3507685</Frequency><Timestamp dt:dt="r8">280759898</Timestamp><Current dt:dt="r8">0</Current><DateUtc dt:dt="string">2016-08-03T21:56:06Z</DateUtc></FrequencyChange></FrequencyChanges></Clock>\n	Hungry_Donkey_bar_English_2-167-1	60.017	92	1.0.0.18	1	281421448	Standard	2.0.10.353	2.0.10.353	08-03-2016	8/3/2016 9:56:06 PM	17:56:06	2.0.10.248	38	Bar63-37.bmp	69	3	?	0r_4g.bmp	0r_4g.bmp	0r_2g.bmp	0r_2g.bmp			0r_2g.bmp		TrialProc	TrialList	0	cvbn	-999999	16	226077	0	b	1702	227779	114	-51	63	-8	44	9	18	6	4	38	0	0	0	0	4	4	2	2	0	2
Hungry_Donkey_bar_English_2	167	1	<?xml version="1.0"?>\n<Clock xmlns:dt="urn:schemas-microsoft-com:datatypes"><Description dt:dt="string">E-Prime Primary Realtime Clock</Description><StartTime><Timestamp dt:dt="int">0</Timestamp><DateUtc dt:dt="string">2016-08-03T21:56:06Z</DateUtc></StartTime><FrequencyChanges><FrequencyChange><Frequency dt:dt="r8">3507685</Frequency><Timestamp dt:dt="r8">280759898</Timestamp><Current dt:dt="r8">0</Current><DateUtc dt:dt="string">2016-08-03T21:56:06Z</DateUtc></FrequencyChange></FrequencyChanges></Clock>\n	Hungry_Donkey_bar_English_2-167-1	60.017	92	1.0.0.18	1	281421448	Standard	2.0.10.353	2.0.10.353	08-03-2016	8/3/2016 9:56:06 PM	17:56:06	2.0.10.248	39	Bar63-37.bmp	69	4	?	12r_4g.bmp	0r_4g.bmp	3r_2g.bmp	0r_2g.bmp				0r_2g.bmp	TrialProc	TrialList	0	cvbn	-999999	16	229809	0	n	866	230675	116	-51	65	-8	44	9	20	5	4	39	-12	0	-3	0	4	4	2	2	0	2
Hungry_Donkey_bar_English_2	167	1	<?xml version="1.0"?>\n<Clock xmlns:dt="urn:schemas-microsoft-com:datatypes"><Description dt:dt="string">E-Prime Primary Realtime Clock</Description><StartTime><Timestamp dt:dt="int">0</Timestamp><DateUtc dt:dt="string">2016-08-03T21:56:06Z</DateUtc></StartTime><FrequencyChanges><FrequencyChange><Frequency dt:dt="r8">3507685</Frequency><Timestamp dt:dt="r8">280759898</Timestamp><Current dt:dt="r8">0</Current><DateUtc dt:dt="string">2016-08-03T21:56:06Z</DateUtc></FrequencyChange></FrequencyChanges></Clock>\n	Hungry_Donkey_bar_English_2-167-1	60.017	92	1.0.0.18	1	281421448	Standard	2.0.10.353	2.0.10.353	08-03-2016	8/3/2016 9:56:06 PM	17:56:06	2.0.10.248	40	Bar75-25.bmp	70	2	?	0r_4g.bmp	0r_4g.bmp	0r_2g.bmp	0r_2g.bmp		0r_4g.bmp			TrialProc	TrialList	0	cvbn	-999999	16	232708	0	v	1070	233778	120	-51	69	-8	48	9	20	10	4	40	0	0	0	0	4	4	2	2	0	4
Hungry_Donkey_bar_English_2	167	1	<?xml version="1.0"?>\n<Clock xmlns:dt="urn:schemas-microsoft-com:datatypes"><Description dt:dt="string">E-Prime Primary Realtime Clock</Description><StartTime><Timestamp dt:dt="int">0</Timestamp><DateUtc dt:dt="string">2016-08-03T21:56:06Z</DateUtc></StartTime><FrequencyChanges><FrequencyChange><Frequency dt:dt="r8">3507685</Frequency><Timestamp dt:dt="r8">280759898</Timestamp><Current dt:dt="r8">0</Current><DateUtc dt:dt="string">2016-08-03T21:56:06Z</DateUtc></FrequencyChange></FrequencyChanges></Clock>\n	Hungry_Donkey_bar_English_2-167-1	60.017	92	1.0.0.18	1	281421448	Standard	2.0.10.353	2.0.10.353	08-03-2016	8/3/2016 9:56:06 PM	17:56:06	2.0.10.248	41	Bar75-25.bmp	70	3	?	10r_4g.bmp	0r_4g.bmp	2r_2g.bmp	0r_2g.bmp			2r_2g.bmp		TrialProc	TrialList	0	cvbn	-999999	17	235808	0	b	466	236274	122	-53	69	-8	48	9	20	3	5	41	-10	0	-2	0	4	4	2	2	-2	2
Hungry_Donkey_bar_English_2	167	1	<?xml version="1.0"?>\n<Clock xmlns:dt="urn:schemas-microsoft-com:datatypes"><Description dt:dt="string">E-Prime Primary Realtime Clock</Description><StartTime><Timestamp dt:dt="int">0</Timestamp><DateUtc dt:dt="string">2016-08-03T21:56:06Z</DateUtc></StartTime><FrequencyChanges><FrequencyChange><Frequency dt:dt="r8">3507685</Frequency><Timestamp dt:dt="r8">280759898</Timestamp><Current dt:dt="r8">0</Current><DateUtc dt:dt="string">2016-08-03T21:56:06Z</DateUtc></FrequencyChange></FrequencyChanges></Clock>\n	Hungry_Donkey_bar_English_2-167-1	60.017	92	1.0.0.18	1	281421448	Standard	2.0.10.353	2.0.10.353	08-03-2016	8/3/2016 9:56:06 PM	17:56:06	2.0.10.248	42	Bar75-25.bmp	70	4	?	10r_4g.bmp	0r_4g.bmp	2r_2g.bmp	0r_2g.bmp				0r_2g.bmp	TrialProc	TrialList	0	cvbn	-999999	16	238307	0	n	463	238770	124	-53	71	-8	48	9	22	2	5	42	-10	0	-2	0	4	4	2	2	0	2
Hungry_Donkey_bar_English_2	167	1	<?xml version="1.0"?>\n<Clock xmlns:dt="urn:schemas-microsoft-com:datatypes"><Description dt:dt="string">E-Prime Primary Realtime Clock</Description><StartTime><Timestamp dt:dt="int">0</Timestamp><DateUtc dt:dt="string">2016-08-03T21:56:06Z</DateUtc></StartTime><FrequencyChanges><FrequencyChange><Frequency dt:dt="r8">3507685</Frequency><Timestamp dt:dt="r8">280759898</Timestamp><Current dt:dt="r8">0</Current><DateUtc dt:dt="string">2016-08-03T21:56:06Z</DateUtc></FrequencyChange></FrequencyChanges></Clock>\n	Hungry_Donkey_bar_English_2-167-1	60.017	92	1.0.0.18	1	281421448	Standard	2.0.10.353	2.0.10.353	08-03-2016	8/3/2016 9:56:06 PM	17:56:06	2.0.10.248	43	Bar75-25.bmp	71	2	?	0r_4g.bmp	0r_4g.bmp	0r_2g.bmp	0r_2g.bmp		0r_4g.bmp			TrialProc	TrialList	0	cvbn	-999999	16	240806	0	v	444	241250	128	-53	75	-8	52	9	22	8	5	43	0	0	0	0	4	4	2	2	0	4
Hungry_Donkey_bar_English_2	167	1	<?xml version="1.0"?>\n<Clock xmlns:dt="urn:schemas-microsoft-com:datatypes"><Description dt:dt="string">E-Prime Primary Realtime Clock</Description><StartTime><Timestamp dt:dt="int">0</Timestamp><DateUtc dt:dt="string">2016-08-03T21:56:06Z</DateUtc></StartTime><FrequencyChanges><FrequencyChange><Frequency dt:dt="r8">3507685</Frequency><Timestamp dt:dt="r8">280759898</Timestamp><Current dt:dt="r8">0</Current><DateUtc dt:dt="string">2016-08-03T21:56:06Z</DateUtc></FrequencyChange></FrequencyChanges></Clock>\n	Hungry_Donkey_bar_English_2-167-1	60.017	92	1.0.0.18	1	281421448	Standard	2.0.10.353	2.0.10.353	08-03-2016	8/3/2016 9:56:06 PM	17:56:06	2.0.10.248	44	Bar75-25.bmp	71	3	?	8r_4g.bmp	50r_4g.bmp	1r_2g.bmp	10r_2g.bmp			1r_2g.bmp		TrialProc	TrialList	0	cvbn	-999999	16	243289	0	b	489	243778	130	-54	76	-8	52	10	22	1	5	44	-8	-50	-1	-10	4	4	2	2	-1	2
Hungry_Donkey_bar_English_2	167	1	<?xml version="1.0"?>\n<Clock xmlns:dt="urn:schemas-microsoft-com:datatypes"><Description dt:dt="string">E-Prime Primary Realtime Clock</Description><StartTime><Timestamp dt:dt="int">0</Timestamp><DateUtc dt:dt="string">2016-08-03T21:56:06Z</DateUtc></StartTime><FrequencyChanges><FrequencyChange><Frequency dt:dt="r8">3507685</Frequency><Timestamp dt:dt="r8">280759898</Timestamp><Current dt:dt="r8">0</Current><DateUtc dt:dt="string">2016-08-03T21:56:06Z</DateUtc></FrequencyChange></FrequencyChanges></Clock>\n	Hungry_Donkey_bar_English_2-167-1	60.017	92	1.0.0.18	1	281421448	Standard	2.0.10.353	2.0.10.353	08-03-2016	8/3/2016 9:56:06 PM	17:56:06	2.0.10.248	45	Bar75-25.bmp	71	4	?	0r_4g.bmp	0r_4g.bmp	0r_2g.bmp	0r_2g.bmp				0r_2g.bmp	TrialProc	TrialList	0	cvbn	-999999	16	245805	0	n	533	246338	132	-54	78	-8	52	10	24	6	5	45	0	0	0	0	4	4	2	2	0	2
Hungry_Donkey_bar_English_2	167	1	<?xml version="1.0"?>\n<Clock xmlns:dt="urn:schemas-microsoft-com:datatypes"><Description dt:dt="string">E-Prime Primary Realtime Clock</Description><StartTime><Timestamp dt:dt="int">0</Timestamp><DateUtc dt:dt="string">2016-08-03T21:56:06Z</DateUtc></StartTime><FrequencyChanges><FrequencyChange><Frequency dt:dt="r8">3507685</Frequency><Timestamp dt:dt="r8">280759898</Timestamp><Current dt:dt="r8">0</Current><DateUtc dt:dt="string">2016-08-03T21:56:06Z</DateUtc></FrequencyChange></FrequencyChanges></Clock>\n	Hungry_Donkey_bar_English_2-167-1	60.017	92	1.0.0.18	1	281421448	Standard	2.0.10.353	2.0.10.353	08-03-2016	8/3/2016 9:56:06 PM	17:56:06	2.0.10.248	46	Bar75-25.bmp	72	1	?	0r_4g.bmp	0r_4g.bmp	0r_2g.bmp	0r_2g.bmp	0r_4g.bmp				TrialProc	TrialList	0	cvbn	-999999	17	248371	0	c	1583	249954	136	-54	82	-4	52	10	24	10	5	46	0	0	0	0	4	4	2	2	0	4
Hungry_Donkey_bar_English_2	167	1	<?xml version="1.0"?>\n<Clock xmlns:dt="urn:schemas-microsoft-com:datatypes"><Description dt:dt="string">E-Prime Primary Realtime Clock</Description><StartTime><Timestamp dt:dt="int">0</Timestamp><DateUtc dt:dt="string">2016-08-03T21:56:06Z</DateUtc></StartTime><FrequencyChanges><FrequencyChange><Frequency dt:dt="r8">3507685</Frequency><Timestamp dt:dt="r8">280759898</Timestamp><Current dt:dt="r8">0</Current><DateUtc dt:dt="string">2016-08-03T21:56:06Z</DateUtc></FrequencyChange></FrequencyChanges></Clock>\n	Hungry_Donkey_bar_English_2-167-1	60.017	92	1.0.0.18	1	281421448	Standard	2.0.10.353	2.0.10.353	08-03-2016	8/3/2016 9:56:06 PM	17:56:06	2.0.10.248	47	Bar75-25.bmp	72	2	?	0r_4g.bmp	0r_4g.bmp	0r_2g.bmp	0r_2g.bmp		0r_4g.bmp			TrialProc	TrialList	0	cvbn	-999999	16	251986	0	v	399	252385	140	-54	86	-4	56	10	24	7	5	47	0	0	0	0	4	4	2	2	0	4
Hungry_Donkey_bar_English_2	167	1	<?xml version="1.0"?>\n<Clock xmlns:dt="urn:schemas-microsoft-com:datatypes"><Description dt:dt="string">E-Prime Primary Realtime Clock</Description><StartTime><Timestamp dt:dt="int">0</Timestamp><DateUtc dt:dt="string">2016-08-03T21:56:06Z</DateUtc></StartTime><FrequencyChanges><FrequencyChange><Frequency dt:dt="r8">3507685</Frequency><Timestamp dt:dt="r8">280759898</Timestamp><Current dt:dt="r8">0</Current><DateUtc dt:dt="string">2016-08-03T21:56:06Z</DateUtc></FrequencyChange></FrequencyChanges></Clock>\n	Hungry_Donkey_bar_English_2-167-1	60.017	92	1.0.0.18	1	281421448	Standard	2.0.10.353	2.0.10.353	08-03-2016	8/3/2016 9:56:06 PM	17:56:06	2.0.10.248	48	Bar75-25.bmp	71	3	?	12r_4g.bmp	0r_4g.bmp	3r_2g.bmp	0r_2g.bmp			3r_2g.bmp		TrialProc	TrialList	0	cvbn	-999999	16	254419	0	b	542	254961	142	-57	85	-4	56	9	24	5	5	48	-12	0	-3	0	4	4	2	2	-3	2
Hungry_Donkey_bar_English_2	167	1	<?xml version="1.0"?>\n<Clock xmlns:dt="urn:schemas-microsoft-com:datatypes"><Description dt:dt="string">E-Prime Primary Realtime Clock</Description><StartTime><Timestamp dt:dt="int">0</Timestamp><DateUtc dt:dt="string">2016-08-03T21:56:06Z</DateUtc></StartTime><FrequencyChanges><FrequencyChange><Frequency dt:dt="r8">3507685</Frequency><Timestamp dt:dt="r8">280759898</Timestamp><Current dt:dt="r8">0</Current><DateUtc dt:dt="string">2016-08-03T21:56:06Z</DateUtc></FrequencyChange></FrequencyChanges></Clock>\n	Hungry_Donkey_bar_English_2-167-1	60.017	92	1.0.0.18	1	281421448	Standard	2.0.10.353	2.0.10.353	08-03-2016	8/3/2016 9:56:06 PM	17:56:06	2.0.10.248	49	Bar75-25.bmp	72	4	?	10r_4g.bmp	0r_4g.bmp	2r_2g.bmp	0r_2g.bmp				0r_2g.bmp	TrialProc	TrialList	0	cvbn	-999999	16	256985	0	n	744	257729	144	-57	87	-4	56	9	26	4	5	49	-10	0	-2	0	4	4	2	2	0	2
Hungry_Donkey_bar_English_2	167	1	<?xml version="1.0"?>\n<Clock xmlns:dt="urn:schemas-microsoft-com:datatypes"><Description dt:dt="string">E-Prime Primary Realtime Clock</Description><StartTime><Timestamp dt:dt="int">0</Timestamp><DateUtc dt:dt="string">2016-08-03T21:56:06Z</DateUtc></StartTime><FrequencyChanges><FrequencyChange><Frequency dt:dt="r8">3507685</Frequency><Timestamp dt:dt="r8">280759898</Timestamp><Current dt:dt="r8">0</Current><DateUtc dt:dt="string">2016-08-03T21:56:06Z</DateUtc></FrequencyChange></FrequencyChanges></Clock>\n	Hungry_Donkey_bar_English_2-167-1	60.017	92	1.0.0.18	1	281421448	Standard	2.0.10.353	2.0.10.353	08-03-2016	8/3/2016 9:56:06 PM	17:56:06	2.0.10.248	50	Bar75-25.bmp	72	1	?	0r_4g.bmp	0r_4g.bmp	0r_2g.bmp	0r_2g.bmp	0r_4g.bmp				TrialProc	TrialList	0	cvbn	-999999	16	259767	0	c	458	260225	148	-57	91	0	56	9	26	9	5	50	0	0	0	0	4	4	2	2	0	4
Hungry_Donkey_bar_English_2	167	1	<?xml version="1.0"?>\n<Clock xmlns:dt="urn:schemas-microsoft-com:datatypes"><Description dt:dt="string">E-Prime Primary Realtime Clock</Description><StartTime><Timestamp dt:dt="int">0</Timestamp><DateUtc dt:dt="string">2016-08-03T21:56:06Z</DateUtc></StartTime><FrequencyChanges><FrequencyChange><Frequency dt:dt="r8">3507685</Frequency><Timestamp dt:dt="r8">280759898</Timestamp><Current dt:dt="r8">0</Current><DateUtc dt:dt="string">2016-08-03T21:56:06Z</DateUtc></FrequencyChange></FrequencyChanges></Clock>\n	Hungry_Donkey_bar_English_2-167-1	60.017	92	1.0.0.18	1	281421448	Standard	2.0.10.353	2.0.10.353	08-03-2016	8/3/2016 9:56:06 PM	17:56:06	2.0.10.248	51	Bar75-25.bmp	73	2	?	12r_4g.bmp	0r_4g.bmp	3r_2g.bmp	0r_2g.bmp		0r_4g.bmp			TrialProc	TrialList	0	cvbn	-999999	16	262250	0	v	1319	263569	152	-57	95	0	60	9	26	5	6	51	-12	0	-3	0	4	4	2	2	0	4
Hungry_Donkey_bar_English_2	167	1	<?xml version="1.0"?>\n<Clock xmlns:dt="urn:schemas-microsoft-com:datatypes"><Description dt:dt="string">E-Prime Primary Realtime Clock</Description><StartTime><Timestamp dt:dt="int">0</Timestamp><DateUtc dt:dt="string">2016-08-03T21:56:06Z</DateUtc></StartTime><FrequencyChanges><FrequencyChange><Frequency dt:dt="r8">3507685</Frequency><Timestamp dt:dt="r8">280759898</Timestamp><Current dt:dt="r8">0</Current><DateUtc dt:dt="string">2016-08-03T21:56:06Z</DateUtc></FrequencyChange></FrequencyChanges></Clock>\n	Hungry_Donkey_bar_English_2-167-1	60.017	92	1.0.0.18	1	281421448	Standard	2.0.10.353	2.0.10.353	08-03-2016	8/3/2016 9:56:06 PM	17:56:06	2.0.10.248	52	Bar75-25.bmp	73	3	?	0r_4g.bmp	0r_4g.bmp	0r_2g.bmp	0r_2g.bmp			0r_2g.bmp		TrialProc	TrialList	0	cvbn	-999999	16	265599	0	b	50	265649	154	-57	97	0	60	11	26	9	6	52	0	0	0	0	4	4	2	2	0	2
Hungry_Donkey_bar_English_2	167	1	<?xml version="1.0"?>\n<Clock xmlns:dt="urn:schemas-microsoft-com:datatypes"><Description dt:dt="string">E-Prime Primary Realtime Clock</Description><StartTime><Timestamp dt:dt="int">0</Timestamp><DateUtc dt:dt="string">2016-08-03T21:56:06Z</DateUtc></StartTime><FrequencyChanges><FrequencyChange><Frequency dt:dt="r8">3507685</Frequency><Timestamp dt:dt="r8">280759898</Timestamp><Current dt:dt="r8">0</Current><DateUtc dt:dt="string">2016-08-03T21:56:06Z</DateUtc></FrequencyChange></FrequencyChanges></Clock>\n	Hungry_Donkey_bar_English_2-167-1	60.017	92	1.0.0.18	1	281421448	Standard	2.0.10.353	2.0.10.353	08-03-2016	8/3/2016 9:56:06 PM	17:56:06	2.0.10.248	53	Bar75-25.bmp	73	4	?	10r_4g.bmp	0r_4g.bmp	2r_2g.bmp	0r_2g.bmp				0r_2g.bmp	TrialProc	TrialList	0	cvbn	-999999	16	267682	0	n	351	268033	156	-57	99	0	60	11	28	4	6	53	-10	0	-2	0	4	4	2	2	0	2
Hungry_Donkey_bar_English_2	167	1	<?xml version="1.0"?>\n<Clock xmlns:dt="urn:schemas-microsoft-com:datatypes"><Description dt:dt="string">E-Prime Primary Realtime Clock</Description><StartTime><Timestamp dt:dt="int">0</Timestamp><DateUtc dt:dt="string">2016-08-03T21:56:06Z</DateUtc></StartTime><FrequencyChanges><FrequencyChange><Frequency dt:dt="r8">3507685</Frequency><Timestamp dt:dt="r8">280759898</Timestamp><Current dt:dt="r8">0</Current><DateUtc dt:dt="string">2016-08-03T21:56:06Z</DateUtc></FrequencyChange></FrequencyChanges></Clock>\n	Hungry_Donkey_bar_English_2-167-1	60.017	92	1.0.0.18	1	281421448	Standard	2.0.10.353	2.0.10.353	08-03-2016	8/3/2016 9:56:06 PM	17:56:06	2.0.10.248	54	Bar75-25.bmp	73	3	?	0r_4g.bmp	0r_4g.bmp	0r_2g.bmp	0r_2g.bmp			0r_2g.bmp		TrialProc	TrialList	0	cvbn	-999999	16	270064	0	b	753	270817	158	-57	101	0	60	13	28	6	6	54	0	0	0	0	4	4	2	2	0	2
Hungry_Donkey_bar_English_2	167	1	<?xml version="1.0"?>\n<Clock xmlns:dt="urn:schemas-microsoft-com:datatypes"><Description dt:dt="string">E-Prime Primary Realtime Clock</Description><StartTime><Timestamp dt:dt="int">0</Timestamp><DateUtc dt:dt="string">2016-08-03T21:56:06Z</DateUtc></StartTime><FrequencyChanges><FrequencyChange><Frequency dt:dt="r8">3507685</Frequency><Timestamp dt:dt="r8">280759898</Timestamp><Current dt:dt="r8">0</Current><DateUtc dt:dt="string">2016-08-03T21:56:06Z</DateUtc></FrequencyChange></FrequencyChanges></Clock>\n	Hungry_Donkey_bar_English_2-167-1	60.017	92	1.0.0.18	1	281421448	Standard	2.0.10.353	2.0.10.353	08-03-2016	8/3/2016 9:56:06 PM	17:56:06	2.0.10.248	55	Bar75-25.bmp	74	2	?	10r_4g.bmp	0r_4g.bmp	2r_2g.bmp	0r_2g.bmp		0r_4g.bmp			TrialProc	TrialList	0	cvbn	-999999	16	272847	0	v	1089	273936	162	-57	105	0	64	13	28	2	6	55	-10	0	-2	0	4	4	2	2	0	4
Hungry_Donkey_bar_English_2	167	1	<?xml version="1.0"?>\n<Clock xmlns:dt="urn:schemas-microsoft-com:datatypes"><Description dt:dt="string">E-Prime Primary Realtime Clock</Description><StartTime><Timestamp dt:dt="int">0</Timestamp><DateUtc dt:dt="string">2016-08-03T21:56:06Z</DateUtc></StartTime><FrequencyChanges><FrequencyChange><Frequency dt:dt="r8">3507685</Frequency><Timestamp dt:dt="r8">280759898</Timestamp><Current dt:dt="r8">0</Current><DateUtc dt:dt="string">2016-08-03T21:56:06Z</DateUtc></FrequencyChange></FrequencyChanges></Clock>\n	Hungry_Donkey_bar_English_2-167-1	60.017	92	1.0.0.18	1	281421448	Standard	2.0.10.353	2.0.10.353	08-03-2016	8/3/2016 9:56:06 PM	17:56:06	2.0.10.248	56	Bar75-25.bmp	71	1	?	10r_4g.bmp	0r_4g.bmp	2r_2g.bmp	0r_2g.bmp	10r_4g.bmp				TrialProc	TrialList	0	cvbn	-999999	16	275963	0	c	309	276272	166	-67	99	-6	64	13	28	3	6	56	-10	0	-2	0	4	4	2	2	-10	4
Hungry_Donkey_bar_English_2	167	1	<?xml version="1.0"?>\n<Clock xmlns:dt="urn:schemas-microsoft-com:datatypes"><Description dt:dt="string">E-Prime Primary Realtime Clock</Description><StartTime><Timestamp dt:dt="int">0</Timestamp><DateUtc dt:dt="string">2016-08-03T21:56:06Z</DateUtc></StartTime><FrequencyChanges><FrequencyChange><Frequency dt:dt="r8">3507685</Frequency><Timestamp dt:dt="r8">280759898</Timestamp><Current dt:dt="r8">0</Current><DateUtc dt:dt="string">2016-08-03T21:56:06Z</DateUtc></FrequencyChange></FrequencyChanges></Clock>\n	Hungry_Donkey_bar_English_2-167-1	60.017	92	1.0.0.18	1	281421448	Standard	2.0.10.353	2.0.10.353	08-03-2016	8/3/2016 9:56:06 PM	17:56:06	2.0.10.248	57	Bar63-37.bmp	59	2	?	8r_4g.bmp	50r_4g.bmp	1r_2g.bmp	10r_2g.bmp		50r_4g.bmp			TrialProc	TrialList	0	cvbn	-999999	16	278312	0	v	1016	279328	170	-117	53	-6	18	13	28	1	6	57	-8	-50	-1	-10	4	4	2	2	-50	4
Hungry_Donkey_bar_English_2	167	1	<?xml version="1.0"?>\n<Clock xmlns:dt="urn:schemas-microsoft-com:datatypes"><Description dt:dt="string">E-Prime Primary Realtime Clock</Description><StartTime><Timestamp dt:dt="int">0</Timestamp><DateUtc dt:dt="string">2016-08-03T21:56:06Z</DateUtc></StartTime><FrequencyChanges><FrequencyChange><Frequency dt:dt="r8">3507685</Frequency><Timestamp dt:dt="r8">280759898</Timestamp><Current dt:dt="r8">0</Current><DateUtc dt:dt="string">2016-08-03T21:56:06Z</DateUtc></FrequencyChange></FrequencyChanges></Clock>\n	Hungry_Donkey_bar_English_2-167-1	60.017	92	1.0.0.18	1	281421448	Standard	2.0.10.353	2.0.10.353	08-03-2016	8/3/2016 9:56:06 PM	17:56:06	2.0.10.248	58	Bar63-37.bmp	60	2	?	0r_4g.bmp	0r_4g.bmp	0r_2g.bmp	0r_2g.bmp		0r_4g.bmp			TrialProc	TrialList	0	cvbn	-999999	16	281361	0	v	1199	282560	174	-117	57	-6	22	13	28	8	6	58	0	0	0	0	4	4	2	2	0	4
Hungry_Donkey_bar_English_2	167	1	<?xml version="1.0"?>\n<Clock xmlns:dt="urn:schemas-microsoft-com:datatypes"><Description dt:dt="string">E-Prime Primary Realtime Clock</Description><StartTime><Timestamp dt:dt="int">0</Timestamp><DateUtc dt:dt="string">2016-08-03T21:56:06Z</DateUtc></StartTime><FrequencyChanges><FrequencyChange><Frequency dt:dt="r8">3507685</Frequency><Timestamp dt:dt="r8">280759898</Timestamp><Current dt:dt="r8">0</Current><DateUtc dt:dt="string">2016-08-03T21:56:06Z</DateUtc></FrequencyChange></FrequencyChanges></Clock>\n	Hungry_Donkey_bar_English_2-167-1	60.017	92	1.0.0.18	1	281421448	Standard	2.0.10.353	2.0.10.353	08-03-2016	8/3/2016 9:56:06 PM	17:56:06	2.0.10.248	59	Bar63-37.bmp	60	3	?	0r_4g.bmp	0r_4g.bmp	0r_2g.bmp	0r_2g.bmp			0r_2g.bmp		TrialProc	TrialList	0	cvbn	-999999	16	284593	0	b	1087	285680	176	-117	59	-6	22	15	28	10	6	59	0	0	0	0	4	4	2	2	0	2
Hungry_Donkey_bar_English_2	167	1	<?xml version="1.0"?>\n<Clock xmlns:dt="urn:schemas-microsoft-com:datatypes"><Description dt:dt="string">E-Prime Primary Realtime Clock</Description><StartTime><Timestamp dt:dt="int">0</Timestamp><DateUtc dt:dt="string">2016-08-03T21:56:06Z</DateUtc></StartTime><FrequencyChanges><FrequencyChange><Frequency dt:dt="r8">3507685</Frequency><Timestamp dt:dt="r8">280759898</Timestamp><Current dt:dt="r8">0</Current><DateUtc dt:dt="string">2016-08-03T21:56:06Z</DateUtc></FrequencyChange></FrequencyChanges></Clock>\n	Hungry_Donkey_bar_English_2-167-1	60.017	92	1.0.0.18	1	281421448	Standard	2.0.10.353	2.0.10.353	08-03-2016	8/3/2016 9:56:06 PM	17:56:06	2.0.10.248	60	Bar63-37.bmp	60	4	?	0r_4g.bmp	0r_4g.bmp	0r_2g.bmp	0r_2g.bmp				0r_2g.bmp	TrialProc	TrialList	0	cvbn	-999999	16	287709	0	n	3522	291231	178	-117	61	-6	22	15	30	7	6	60	0	0	0	0	4	4	2	2	0	2
Hungry_Donkey_bar_English_2	167	1	<?xml version="1.0"?>\n<Clock xmlns:dt="urn:schemas-microsoft-com:datatypes"><Description dt:dt="string">E-Prime Primary Realtime Clock</Description><StartTime><Timestamp dt:dt="int">0</Timestamp><DateUtc dt:dt="string">2016-08-03T21:56:06Z</DateUtc></StartTime><FrequencyChanges><FrequencyChange><Frequency dt:dt="r8">3507685</Frequency><Timestamp dt:dt="r8">280759898</Timestamp><Current dt:dt="r8">0</Current><DateUtc dt:dt="string">2016-08-03T21:56:06Z</DateUtc></FrequencyChange></FrequencyChanges></Clock>\n	Hungry_Donkey_bar_English_2-167-1	60.017	92	1.0.0.18	1	281421448	Standard	2.0.10.353	2.0.10.353	08-03-2016	8/3/2016 9:56:06 PM	17:56:06	2.0.10.248	61	Bar63-37.bmp	61	2	?	12r_4g.bmp	0r_4g.bmp	3r_2g.bmp	0r_2g.bmp		0r_4g.bmp			TrialProc	TrialList	0	cvbn	-999999	16	293258	0	v	421	293679	182	-117	65	-6	26	15	30	5	7	61	-12	0	-3	0	4	4	2	2	0	4
Hungry_Donkey_bar_English_2	167	1	<?xml version="1.0"?>\n<Clock xmlns:dt="urn:schemas-microsoft-com:datatypes"><Description dt:dt="string">E-Prime Primary Realtime Clock</Description><StartTime><Timestamp dt:dt="int">0</Timestamp><DateUtc dt:dt="string">2016-08-03T21:56:06Z</DateUtc></StartTime><FrequencyChanges><FrequencyChange><Frequency dt:dt="r8">3507685</Frequency><Timestamp dt:dt="r8">280759898</Timestamp><Current dt:dt="r8">0</Current><DateUtc dt:dt="string">2016-08-03T21:56:06Z</DateUtc></FrequencyChange></FrequencyChanges></Clock>\n	Hungry_Donkey_bar_English_2-167-1	60.017	92	1.0.0.18	1	281421448	Standard	2.0.10.353	2.0.10.353	08-03-2016	8/3/2016 9:56:06 PM	17:56:06	2.0.10.248	62	Bar63-37.bmp	61	1	?	0r_4g.bmp	0r_4g.bmp	0r_2g.bmp	0r_2g.bmp	0r_4g.bmp				TrialProc	TrialList	0	cvbn	-999999	16	295707	0	c	452	296159	186	-117	69	-2	26	15	30	7	7	62	0	0	0	0	4	4	2	2	0	4
Hungry_Donkey_bar_English_2	167	1	<?xml version="1.0"?>\n<Clock xmlns:dt="urn:schemas-microsoft-com:datatypes"><Description dt:dt="string">E-Prime Primary Realtime Clock</Description><StartTime><Timestamp dt:dt="int">0</Timestamp><DateUtc dt:dt="string">2016-08-03T21:56:06Z</DateUtc></StartTime><FrequencyChanges><FrequencyChange><Frequency dt:dt="r8">3507685</Frequency><Timestamp dt:dt="r8">280759898</Timestamp><Current dt:dt="r8">0</Current><DateUtc dt:dt="string">2016-08-03T21:56:06Z</DateUtc></FrequencyChange></FrequencyChanges></Clock>\n	Hungry_Donkey_bar_English_2-167-1	60.017	92	1.0.0.18	1	281421448	Standard	2.0.10.353	2.0.10.353	08-03-2016	8/3/2016 9:56:06 PM	17:56:06	2.0.10.248	63	Bar63-37.bmp	61	3	?	10r_4g.bmp	0r_4g.bmp	2r_2g.bmp	0r_2g.bmp			2r_2g.bmp		TrialProc	TrialList	0	cvbn	-999999	17	298190	0	b	481	298671	188	-119	69	-2	26	15	30	2	7	63	-10	0	-2	0	4	4	2	2	-2	2
Hungry_Donkey_bar_English_2	167	1	<?xml version="1.0"?>\n<Clock xmlns:dt="urn:schemas-microsoft-com:datatypes"><Description dt:dt="string">E-Prime Primary Realtime Clock</Description><StartTime><Timestamp dt:dt="int">0</Timestamp><DateUtc dt:dt="string">2016-08-03T21:56:06Z</DateUtc></StartTime><FrequencyChanges><FrequencyChange><Frequency dt:dt="r8">3507685</Frequency><Timestamp dt:dt="r8">280759898</Timestamp><Current dt:dt="r8">0</Current><DateUtc dt:dt="string">2016-08-03T21:56:06Z</DateUtc></FrequencyChange></FrequencyChanges></Clock>\n	Hungry_Donkey_bar_English_2-167-1	60.017	92	1.0.0.18	1	281421448	Standard	2.0.10.353	2.0.10.353	08-03-2016	8/3/2016 9:56:06 PM	17:56:06	2.0.10.248	64	Bar63-37.bmp	61	4	?	10r_4g.bmp	0r_4g.bmp	2r_2g.bmp	0r_2g.bmp				0r_2g.bmp	TrialProc	TrialList	0	cvbn	-999999	16	300705	0	n	1358	302063	190	-119	71	-2	26	15	32	4	7	64	-10	0	-2	0	4	4	2	2	0	2
Hungry_Donkey_bar_English_2	167	1	<?xml version="1.0"?>\n<Clock xmlns:dt="urn:schemas-microsoft-com:datatypes"><Description dt:dt="string">E-Prime Primary Realtime Clock</Description><StartTime><Timestamp dt:dt="int">0</Timestamp><DateUtc dt:dt="string">2016-08-03T21:56:06Z</DateUtc></StartTime><FrequencyChanges><FrequencyChange><Frequency dt:dt="r8">3507685</Frequency><Timestamp dt:dt="r8">280759898</Timestamp><Current dt:dt="r8">0</Current><DateUtc dt:dt="string">2016-08-03T21:56:06Z</DateUtc></FrequencyChange></FrequencyChanges></Clock>\n	Hungry_Donkey_bar_English_2-167-1	60.017	92	1.0.0.18	1	281421448	Standard	2.0.10.353	2.0.10.353	08-03-2016	8/3/2016 9:56:06 PM	17:56:06	2.0.10.248	65	Bar63-37.bmp	62	4	?	0r_4g.bmp	0r_4g.bmp	0r_2g.bmp	0r_2g.bmp				0r_2g.bmp	TrialProc	TrialList	0	cvbn	-999999	16	304088	0	n	263	304351	192	-119	73	-2	26	15	34	6	7	65	0	0	0	0	4	4	2	2	0	2
Hungry_Donkey_bar_English_2	167	1	<?xml version="1.0"?>\n<Clock xmlns:dt="urn:schemas-microsoft-com:datatypes"><Description dt:dt="string">E-Prime Primary Realtime Clock</Description><StartTime><Timestamp dt:dt="int">0</Timestamp><DateUtc dt:dt="string">2016-08-03T21:56:06Z</DateUtc></StartTime><FrequencyChanges><FrequencyChange><Frequency dt:dt="r8">3507685</Frequency><Timestamp dt:dt="r8">280759898</Timestamp><Current dt:dt="r8">0</Current><DateUtc dt:dt="string">2016-08-03T21:56:06Z</DateUtc></FrequencyChange></FrequencyChanges></Clock>\n	Hungry_Donkey_bar_English_2-167-1	60.017	92	1.0.0.18	1	281421448	Standard	2.0.10.353	2.0.10.353	08-03-2016	8/3/2016 9:56:06 PM	17:56:06	2.0.10.248	66	Bar63-37.bmp	62	4	?	0r_4g.bmp	0r_4g.bmp	0r_2g.bmp	0r_2g.bmp				0r_2g.bmp	TrialProc	TrialList	0	cvbn	-999999	16	306387	0	n	604	306991	194	-119	75	-2	26	15	36	10	7	66	0	0	0	0	4	4	2	2	0	2
Hungry_Donkey_bar_English_2	167	1	<?xml version="1.0"?>\n<Clock xmlns:dt="urn:schemas-microsoft-com:datatypes"><Description dt:dt="string">E-Prime Primary Realtime Clock</Description><StartTime><Timestamp dt:dt="int">0</Timestamp><DateUtc dt:dt="string">2016-08-03T21:56:06Z</DateUtc></StartTime><FrequencyChanges><FrequencyChange><Frequency dt:dt="r8">3507685</Frequency><Timestamp dt:dt="r8">280759898</Timestamp><Current dt:dt="r8">0</Current><DateUtc dt:dt="string">2016-08-03T21:56:06Z</DateUtc></FrequencyChange></FrequencyChanges></Clock>\n	Hungry_Donkey_bar_English_2-167-1	60.017	92	1.0.0.18	1	281421448	Standard	2.0.10.353	2.0.10.353	08-03-2016	8/3/2016 9:56:06 PM	17:56:06	2.0.10.248	67	Bar63-37.bmp	61	1	?	8r_4g.bmp	50r_4g.bmp	1r_2g.bmp	10r_2g.bmp	8r_4g.bmp				TrialProc	TrialList	0	cvbn	-999999	16	309020	0	c	1059	310079	198	-127	71	-6	26	15	36	1	7	67	-8	-50	-1	-10	4	4	2	2	-8	4
Hungry_Donkey_bar_English_2	167	1	<?xml version="1.0"?>\n<Clock xmlns:dt="urn:schemas-microsoft-com:datatypes"><Description dt:dt="string">E-Prime Primary Realtime Clock</Description><StartTime><Timestamp dt:dt="int">0</Timestamp><DateUtc dt:dt="string">2016-08-03T21:56:06Z</DateUtc></StartTime><FrequencyChanges><FrequencyChange><Frequency dt:dt="r8">3507685</Frequency><Timestamp dt:dt="r8">280759898</Timestamp><Current dt:dt="r8">0</Current><DateUtc dt:dt="string">2016-08-03T21:56:06Z</DateUtc></FrequencyChange></FrequencyChanges></Clock>\n	Hungry_Donkey_bar_English_2-167-1	60.017	92	1.0.0.18	1	281421448	Standard	2.0.10.353	2.0.10.353	08-03-2016	8/3/2016 9:56:06 PM	17:56:06	2.0.10.248	68	Bar63-37.bmp	61	2	?	0r_4g.bmp	0r_4g.bmp	0r_2g.bmp	0r_2g.bmp		0r_4g.bmp			TrialProc	TrialList	0	cvbn	-999999	15	312102	0	v	1960	314062	202	-127	75	-6	30	15	36	9	7	68	0	0	0	0	4	4	2	2	0	4
Hungry_Donkey_bar_English_2	167	1	<?xml version="1.0"?>\n<Clock xmlns:dt="urn:schemas-microsoft-com:datatypes"><Description dt:dt="string">E-Prime Primary Realtime Clock</Description><StartTime><Timestamp dt:dt="int">0</Timestamp><DateUtc dt:dt="string">2016-08-03T21:56:06Z</DateUtc></StartTime><FrequencyChanges><FrequencyChange><Frequency dt:dt="r8">3507685</Frequency><Timestamp dt:dt="r8">280759898</Timestamp><Current dt:dt="r8">0</Current><DateUtc dt:dt="string">2016-08-03T21:56:06Z</DateUtc></FrequencyChange></FrequencyChanges></Clock>\n	Hungry_Donkey_bar_English_2-167-1	60.017	92	1.0.0.18	1	281421448	Standard	2.0.10.353	2.0.10.353	08-03-2016	8/3/2016 9:56:06 PM	17:56:06	2.0.10.248	69	Bar63-37.bmp	62	3	?	0r_4g.bmp	0r_4g.bmp	0r_2g.bmp	0r_2g.bmp			0r_2g.bmp		TrialProc	TrialList	0	cvbn	-999999	16	316101	0	b	457	316558	204	-127	77	-6	30	17	36	8	7	69	0	0	0	0	4	4	2	2	0	2
Hungry_Donkey_bar_English_2	167	1	<?xml version="1.0"?>\n<Clock xmlns:dt="urn:schemas-microsoft-com:datatypes"><Description dt:dt="string">E-Prime Primary Realtime Clock</Description><StartTime><Timestamp dt:dt="int">0</Timestamp><DateUtc dt:dt="string">2016-08-03T21:56:06Z</DateUtc></StartTime><FrequencyChanges><FrequencyChange><Frequency dt:dt="r8">3507685</Frequency><Timestamp dt:dt="r8">280759898</Timestamp><Current dt:dt="r8">0</Current><DateUtc dt:dt="string">2016-08-03T21:56:06Z</DateUtc></FrequencyChange></FrequencyChanges></Clock>\n	Hungry_Donkey_bar_English_2-167-1	60.017	92	1.0.0.18	1	281421448	Standard	2.0.10.353	2.0.10.353	08-03-2016	8/3/2016 9:56:06 PM	17:56:06	2.0.10.248	70	Bar63-37.bmp	62	4	?	10r_4g.bmp	0r_4g.bmp	2r_2g.bmp	0r_2g.bmp				0r_2g.bmp	TrialProc	TrialList	0	cvbn	-999999	16	318600	0	n	758	319358	206	-127	79	-6	30	17	38	3	7	70	-10	0	-2	0	4	4	2	2	0	2
Hungry_Donkey_bar_English_2	167	1	<?xml version="1.0"?>\n<Clock xmlns:dt="urn:schemas-microsoft-com:datatypes"><Description dt:dt="string">E-Prime Primary Realtime Clock</Description><StartTime><Timestamp dt:dt="int">0</Timestamp><DateUtc dt:dt="string">2016-08-03T21:56:06Z</DateUtc></StartTime><FrequencyChanges><FrequencyChange><Frequency dt:dt="r8">3507685</Frequency><Timestamp dt:dt="r8">280759898</Timestamp><Current dt:dt="r8">0</Current><DateUtc dt:dt="string">2016-08-03T21:56:06Z</DateUtc></FrequencyChange></FrequencyChanges></Clock>\n	Hungry_Donkey_bar_English_2-167-1	60.017	92	1.0.0.18	1	281421448	Standard	2.0.10.353	2.0.10.353	08-03-2016	8/3/2016 9:56:06 PM	17:56:06	2.0.10.248	71	Bar63-37.bmp	62	3	?	12r_4g.bmp	0r_4g.bmp	3r_2g.bmp	0r_2g.bmp			3r_2g.bmp		TrialProc	TrialList	0	cvbn	-999999	16	321399	0	b	4807	326206	208	-130	78	-6	30	16	38	5	8	71	-12	0	-3	0	4	4	2	2	-3	2
Hungry_Donkey_bar_English_2	167	1	<?xml version="1.0"?>\n<Clock xmlns:dt="urn:schemas-microsoft-com:datatypes"><Description dt:dt="string">E-Prime Primary Realtime Clock</Description><StartTime><Timestamp dt:dt="int">0</Timestamp><DateUtc dt:dt="string">2016-08-03T21:56:06Z</DateUtc></StartTime><FrequencyChanges><FrequencyChange><Frequency dt:dt="r8">3507685</Frequency><Timestamp dt:dt="r8">280759898</Timestamp><Current dt:dt="r8">0</Current><DateUtc dt:dt="string">2016-08-03T21:56:06Z</DateUtc></FrequencyChange></FrequencyChanges></Clock>\n	Hungry_Donkey_bar_English_2-167-1	60.017	92	1.0.0.18	1	281421448	Standard	2.0.10.353	2.0.10.353	08-03-2016	8/3/2016 9:56:06 PM	17:56:06	2.0.10.248	72	Bar50-50.bmp	54	2	?	8r_4g.bmp	50r_4g.bmp	1r_2g.bmp	10r_2g.bmp		50r_4g.bmp			TrialProc	TrialList	0	cvbn	-999999	17	328248	0	v	1302	329550	212	-180	32	-6	-16	16	38	1	8	72	-8	-50	-1	-10	4	4	2	2	-50	4
Hungry_Donkey_bar_English_2	167	1	<?xml version="1.0"?>\n<Clock xmlns:dt="urn:schemas-microsoft-com:datatypes"><Description dt:dt="string">E-Prime Primary Realtime Clock</Description><StartTime><Timestamp dt:dt="int">0</Timestamp><DateUtc dt:dt="string">2016-08-03T21:56:06Z</DateUtc></StartTime><FrequencyChanges><FrequencyChange><Frequency dt:dt="r8">3507685</Frequency><Timestamp dt:dt="r8">280759898</Timestamp><Current dt:dt="r8">0</Current><DateUtc dt:dt="string">2016-08-03T21:56:06Z</DateUtc></FrequencyChange></FrequencyChanges></Clock>\n	Hungry_Donkey_bar_English_2-167-1	60.017	92	1.0.0.18	1	281421448	Standard	2.0.10.353	2.0.10.353	08-03-2016	8/3/2016 9:56:06 PM	17:56:06	2.0.10.248	73	Bar50-50.bmp	55	2	?	10r_4g.bmp	0r_4g.bmp	2r_2g.bmp	0r_2g.bmp		0r_4g.bmp			TrialProc	TrialList	0	cvbn	-999999	16	331580	0	v	4865	336445	216	-180	36	-6	-12	16	38	3	8	73	-10	0	-2	0	4	4	2	2	0	4
Hungry_Donkey_bar_English_2	167	1	<?xml version="1.0"?>\n<Clock xmlns:dt="urn:schemas-microsoft-com:datatypes"><Description dt:dt="string">E-Prime Primary Realtime Clock</Description><StartTime><Timestamp dt:dt="int">0</Timestamp><DateUtc dt:dt="string">2016-08-03T21:56:06Z</DateUtc></StartTime><FrequencyChanges><FrequencyChange><Frequency dt:dt="r8">3507685</Frequency><Timestamp dt:dt="r8">280759898</Timestamp><Current dt:dt="r8">0</Current><DateUtc dt:dt="string">2016-08-03T21:56:06Z</DateUtc></FrequencyChange></FrequencyChanges></Clock>\n	Hungry_Donkey_bar_English_2-167-1	60.017	92	1.0.0.18	1	281421448	Standard	2.0.10.353	2.0.10.353	08-03-2016	8/3/2016 9:56:06 PM	17:56:06	2.0.10.248	74	Bar50-50.bmp	55	3	?	0r_4g.bmp	0r_4g.bmp	0r_2g.bmp	0r_2g.bmp			0r_2g.bmp		TrialProc	TrialList	0	cvbn	-999999	16	338478	0	b	607	339085	218	-180	38	-6	-12	18	38	9	8	74	0	0	0	0	4	4	2	2	0	2
Hungry_Donkey_bar_English_2	167	1	<?xml version="1.0"?>\n<Clock xmlns:dt="urn:schemas-microsoft-com:datatypes"><Description dt:dt="string">E-Prime Primary Realtime Clock</Description><StartTime><Timestamp dt:dt="int">0</Timestamp><DateUtc dt:dt="string">2016-08-03T21:56:06Z</DateUtc></StartTime><FrequencyChanges><FrequencyChange><Frequency dt:dt="r8">3507685</Frequency><Timestamp dt:dt="r8">280759898</Timestamp><Current dt:dt="r8">0</Current><DateUtc dt:dt="string">2016-08-03T21:56:06Z</DateUtc></FrequencyChange></FrequencyChanges></Clock>\n	Hungry_Donkey_bar_English_2-167-1	60.017	92	1.0.0.18	1	281421448	Standard	2.0.10.353	2.0.10.353	08-03-2016	8/3/2016 9:56:06 PM	17:56:06	2.0.10.248	75	Bar50-50.bmp	55	2	?	0r_4g.bmp	0r_4g.bmp	0r_2g.bmp	0r_2g.bmp		0r_4g.bmp			TrialProc	TrialList	0	cvbn	-999999	16	341110	0	v	311	341421	222	-180	42	-6	-8	18	38	10	8	75	0	0	0	0	4	4	2	2	0	4
Hungry_Donkey_bar_English_2	167	1	<?xml version="1.0"?>\n<Clock xmlns:dt="urn:schemas-microsoft-com:datatypes"><Description dt:dt="string">E-Prime Primary Realtime Clock</Description><StartTime><Timestamp dt:dt="int">0</Timestamp><DateUtc dt:dt="string">2016-08-03T21:56:06Z</DateUtc></StartTime><FrequencyChanges><FrequencyChange><Frequency dt:dt="r8">3507685</Frequency><Timestamp dt:dt="r8">280759898</Timestamp><Current dt:dt="r8">0</Current><DateUtc dt:dt="string">2016-08-03T21:56:06Z</DateUtc></FrequencyChange></FrequencyChanges></Clock>\n	Hungry_Donkey_bar_English_2-167-1	60.017	92	1.0.0.18	1	281421448	Standard	2.0.10.353	2.0.10.353	08-03-2016	8/3/2016 9:56:06 PM	17:56:06	2.0.10.248	76	Bar50-50.bmp	55	3	?	0r_4g.bmp	0r_4g.bmp	0r_2g.bmp	0r_2g.bmp			0r_2g.bmp		TrialProc	TrialList	0	cvbn	-999999	16	343460	0	b	57	343517	224	-180	44	-6	-8	20	38	8	8	76	0	0	0	0	4	4	2	2	0	2
Hungry_Donkey_bar_English_2	167	1	<?xml version="1.0"?>\n<Clock xmlns:dt="urn:schemas-microsoft-com:datatypes"><Description dt:dt="string">E-Prime Primary Realtime Clock</Description><StartTime><Timestamp dt:dt="int">0</Timestamp><DateUtc dt:dt="string">2016-08-03T21:56:06Z</DateUtc></StartTime><FrequencyChanges><FrequencyChange><Frequency dt:dt="r8">3507685</Frequency><Timestamp dt:dt="r8">280759898</Timestamp><Current dt:dt="r8">0</Current><DateUtc dt:dt="string">2016-08-03T21:56:06Z</DateUtc></FrequencyChange></FrequencyChanges></Clock>\n	Hungry_Donkey_bar_English_2-167-1	60.017	92	1.0.0.18	1	281421448	Standard	2.0.10.353	2.0.10.353	08-03-2016	8/3/2016 9:56:06 PM	17:56:06	2.0.10.248	77	Bar50-50.bmp	56	1	?	0r_4g.bmp	0r_4g.bmp	0r_2g.bmp	0r_2g.bmp	0r_4g.bmp				TrialProc	TrialList	0	cvbn	-999999	17	345543	0	c	1686	347229	228	-180	48	-2	-8	20	38	6	8	77	0	0	0	0	4	4	2	2	0	4
Hungry_Donkey_bar_English_2	167	1	<?xml version="1.0"?>\n<Clock xmlns:dt="urn:schemas-microsoft-com:datatypes"><Description dt:dt="string">E-Prime Primary Realtime Clock</Description><StartTime><Timestamp dt:dt="int">0</Timestamp><DateUtc dt:dt="string">2016-08-03T21:56:06Z</DateUtc></StartTime><FrequencyChanges><FrequencyChange><Frequency dt:dt="r8">3507685</Frequency><Timestamp dt:dt="r8">280759898</Timestamp><Current dt:dt="r8">0</Current><DateUtc dt:dt="string">2016-08-03T21:56:06Z</DateUtc></FrequencyChange></FrequencyChanges></Clock>\n	Hungry_Donkey_bar_English_2-167-1	60.017	92	1.0.0.18	1	281421448	Standard	2.0.10.353	2.0.10.353	08-03-2016	8/3/2016 9:56:06 PM	17:56:06	2.0.10.248	78	Bar50-50.bmp	56	4	?	10r_4g.bmp	0r_4g.bmp	2r_2g.bmp	0r_2g.bmp				0r_2g.bmp	TrialProc	TrialList	0	cvbn	-999999	16	349258	0	n	3090	352348	230	-180	50	-2	-8	20	40	2	8	78	-10	0	-2	0	4	4	2	2	0	2
Hungry_Donkey_bar_English_2	167	1	<?xml version="1.0"?>\n<Clock xmlns:dt="urn:schemas-microsoft-com:datatypes"><Description dt:dt="string">E-Prime Primary Realtime Clock</Description><StartTime><Timestamp dt:dt="int">0</Timestamp><DateUtc dt:dt="string">2016-08-03T21:56:06Z</DateUtc></StartTime><FrequencyChanges><FrequencyChange><Frequency dt:dt="r8">3507685</Frequency><Timestamp dt:dt="r8">280759898</Timestamp><Current dt:dt="r8">0</Current><DateUtc dt:dt="string">2016-08-03T21:56:06Z</DateUtc></FrequencyChange></FrequencyChanges></Clock>\n	Hungry_Donkey_bar_English_2-167-1	60.017	92	1.0.0.18	1	281421448	Standard	2.0.10.353	2.0.10.353	08-03-2016	8/3/2016 9:56:06 PM	17:56:06	2.0.10.248	79	Bar50-50.bmp	56	3	?	0r_4g.bmp	0r_4g.bmp	0r_2g.bmp	0r_2g.bmp			0r_2g.bmp		TrialProc	TrialList	0	cvbn	-999999	16	354373	0	b	1031	355404	232	-180	52	-2	-8	22	40	7	8	79	0	0	0	0	4	4	2	2	0	2
Hungry_Donkey_bar_English_2	167	1	<?xml version="1.0"?>\n<Clock xmlns:dt="urn:schemas-microsoft-com:datatypes"><Description dt:dt="string">E-Prime Primary Realtime Clock</Description><StartTime><Timestamp dt:dt="int">0</Timestamp><DateUtc dt:dt="string">2016-08-03T21:56:06Z</DateUtc></StartTime><FrequencyChanges><FrequencyChange><Frequency dt:dt="r8">3507685</Frequency><Timestamp dt:dt="r8">280759898</Timestamp><Current dt:dt="r8">0</Current><DateUtc dt:dt="string">2016-08-03T21:56:06Z</DateUtc></FrequencyChange></FrequencyChanges></Clock>\n	Hungry_Donkey_bar_English_2-167-1	60.017	92	1.0.0.18	1	281421448	Standard	2.0.10.353	2.0.10.353	08-03-2016	8/3/2016 9:56:06 PM	17:56:06	2.0.10.248	80	Bar50-50.bmp	55	1	?	10r_4g.bmp	0r_4g.bmp	2r_2g.bmp	0r_2g.bmp	10r_4g.bmp				TrialProc	TrialList	0	cvbn	-999999	16	357439	0	c	1037	358476	236	-190	46	-8	-8	22	40	4	8	80	-10	0	-2	0	4	4	2	2	-10	4
Hungry_Donkey_bar_English_2	167	1	<?xml version="1.0"?>\n<Clock xmlns:dt="urn:schemas-microsoft-com:datatypes"><Description dt:dt="string">E-Prime Primary Realtime Clock</Description><StartTime><Timestamp dt:dt="int">0</Timestamp><DateUtc dt:dt="string">2016-08-03T21:56:06Z</DateUtc></StartTime><FrequencyChanges><FrequencyChange><Frequency dt:dt="r8">3507685</Frequency><Timestamp dt:dt="r8">280759898</Timestamp><Current dt:dt="r8">0</Current><DateUtc dt:dt="string">2016-08-03T21:56:06Z</DateUtc></FrequencyChange></FrequencyChanges></Clock>\n	Hungry_Donkey_bar_English_2-167-1	60.017	92	1.0.0.18	1	281421448	Standard	2.0.10.353	2.0.10.353	08-03-2016	8/3/2016 9:56:06 PM	17:56:06	2.0.10.248	81	Bar50-50.bmp	56	4	?	10r_4g.bmp	0r_4g.bmp	2r_2g.bmp	0r_2g.bmp				0r_2g.bmp	TrialProc	TrialList	0	cvbn	-999999	16	360505	0	n	771	361276	238	-190	48	-8	-8	22	42	3	9	81	-10	0	-2	0	4	4	2	2	0	2
Hungry_Donkey_bar_English_2	167	1	<?xml version="1.0"?>\n<Clock xmlns:dt="urn:schemas-microsoft-com:datatypes"><Description dt:dt="string">E-Prime Primary Realtime Clock</Description><StartTime><Timestamp dt:dt="int">0</Timestamp><DateUtc dt:dt="string">2016-08-03T21:56:06Z</DateUtc></StartTime><FrequencyChanges><FrequencyChange><Frequency dt:dt="r8">3507685</Frequency><Timestamp dt:dt="r8">280759898</Timestamp><Current dt:dt="r8">0</Current><DateUtc dt:dt="string">2016-08-03T21:56:06Z</DateUtc></FrequencyChange></FrequencyChanges></Clock>\n	Hungry_Donkey_bar_English_2-167-1	60.017	92	1.0.0.18	1	281421448	Standard	2.0.10.353	2.0.10.353	08-03-2016	8/3/2016 9:56:06 PM	17:56:06	2.0.10.248	82	Bar50-50.bmp	56	2	?	12r_4g.bmp	0r_4g.bmp	3r_2g.bmp	0r_2g.bmp		0r_4g.bmp			TrialProc	TrialList	0	cvbn	-999999	16	363304	0	v	628	363932	242	-190	52	-8	-4	22	42	5	9	82	-12	0	-3	0	4	4	2	2	0	4
Hungry_Donkey_bar_English_2	167	1	<?xml version="1.0"?>\n<Clock xmlns:dt="urn:schemas-microsoft-com:datatypes"><Description dt:dt="string">E-Prime Primary Realtime Clock</Description><StartTime><Timestamp dt:dt="int">0</Timestamp><DateUtc dt:dt="string">2016-08-03T21:56:06Z</DateUtc></StartTime><FrequencyChanges><FrequencyChange><Frequency dt:dt="r8">3507685</Frequency><Timestamp dt:dt="r8">280759898</Timestamp><Current dt:dt="r8">0</Current><DateUtc dt:dt="string">2016-08-03T21:56:06Z</DateUtc></FrequencyChange></FrequencyChanges></Clock>\n	Hungry_Donkey_bar_English_2-167-1	60.017	92	1.0.0.18	1	281421448	Standard	2.0.10.353	2.0.10.353	08-03-2016	8/3/2016 9:56:06 PM	17:56:06	2.0.10.248	83	Bar50-50.bmp	56	3	?	0r_4g.bmp	0r_4g.bmp	0r_2g.bmp	0r_2g.bmp			0r_2g.bmp		TrialProc	TrialList	0	cvbn	-999999	16	365970	0	b	26	365996	244	-190	54	-8	-4	24	42	6	9	83	0	0	0	0	4	4	2	2	0	2
Hungry_Donkey_bar_English_2	167	1	<?xml version="1.0"?>\n<Clock xmlns:dt="urn:schemas-microsoft-com:datatypes"><Description dt:dt="string">E-Prime Primary Realtime Clock</Description><StartTime><Timestamp dt:dt="int">0</Timestamp><DateUtc dt:dt="string">2016-08-03T21:56:06Z</DateUtc></StartTime><FrequencyChanges><FrequencyChange><Frequency dt:dt="r8">3507685</Frequency><Timestamp dt:dt="r8">280759898</Timestamp><Current dt:dt="r8">0</Current><DateUtc dt:dt="string">2016-08-03T21:56:06Z</DateUtc></FrequencyChange></FrequencyChanges></Clock>\n	Hungry_Donkey_bar_English_2-167-1	60.017	92	1.0.0.18	1	281421448	Standard	2.0.10.353	2.0.10.353	08-03-2016	8/3/2016 9:56:06 PM	17:56:06	2.0.10.248	84	Bar63-37.bmp	57	2	?	0r_4g.bmp	0r_4g.bmp	0r_2g.bmp	0r_2g.bmp		0r_4g.bmp			TrialProc	TrialList	0	cvbn	-999999	15	368019	0	v	4024	372043	248	-190	58	-8	0	24	42	7	9	84	0	0	0	0	4	4	2	2	0	4
Hungry_Donkey_bar_English_2	167	1	<?xml version="1.0"?>\n<Clock xmlns:dt="urn:schemas-microsoft-com:datatypes"><Description dt:dt="string">E-Prime Primary Realtime Clock</Description><StartTime><Timestamp dt:dt="int">0</Timestamp><DateUtc dt:dt="string">2016-08-03T21:56:06Z</DateUtc></StartTime><FrequencyChanges><FrequencyChange><Frequency dt:dt="r8">3507685</Frequency><Timestamp dt:dt="r8">280759898</Timestamp><Current dt:dt="r8">0</Current><DateUtc dt:dt="string">2016-08-03T21:56:06Z</DateUtc></FrequencyChange></FrequencyChanges></Clock>\n	Hungry_Donkey_bar_English_2-167-1	60.017	92	1.0.0.18	1	281421448	Standard	2.0.10.353	2.0.10.353	08-03-2016	8/3/2016 9:56:06 PM	17:56:06	2.0.10.248	85	Bar63-37.bmp	57	3	?	10r_4g.bmp	0r_4g.bmp	2r_2g.bmp	0r_2g.bmp			2r_2g.bmp		TrialProc	TrialList	0	cvbn	-999999	16	374068	0	b	375	374443	250	-192	58	-8	0	24	42	4	9	85	-10	0	-2	0	4	4	2	2	-2	2
Hungry_Donkey_bar_English_2	167	1	<?xml version="1.0"?>\n<Clock xmlns:dt="urn:schemas-microsoft-com:datatypes"><Description dt:dt="string">E-Prime Primary Realtime Clock</Description><StartTime><Timestamp dt:dt="int">0</Timestamp><DateUtc dt:dt="string">2016-08-03T21:56:06Z</DateUtc></StartTime><FrequencyChanges><FrequencyChange><Frequency dt:dt="r8">3507685</Frequency><Timestamp dt:dt="r8">280759898</Timestamp><Current dt:dt="r8">0</Current><DateUtc dt:dt="string">2016-08-03T21:56:06Z</DateUtc></FrequencyChange></FrequencyChanges></Clock>\n	Hungry_Donkey_bar_English_2-167-1	60.017	92	1.0.0.18	1	281421448	Standard	2.0.10.353	2.0.10.353	08-03-2016	8/3/2016 9:56:06 PM	17:56:06	2.0.10.248	86	Bar63-37.bmp	57	1	?	0r_4g.bmp	0r_4g.bmp	0r_2g.bmp	0r_2g.bmp	0r_4g.bmp				TrialProc	TrialList	0	cvbn	-999999	16	376484	0	c	583	377067	254	-192	62	-4	0	24	42	9	9	86	0	0	0	0	4	4	2	2	0	4
Hungry_Donkey_bar_English_2	167	1	<?xml version="1.0"?>\n<Clock xmlns:dt="urn:schemas-microsoft-com:datatypes"><Description dt:dt="string">E-Prime Primary Realtime Clock</Description><StartTime><Timestamp dt:dt="int">0</Timestamp><DateUtc dt:dt="string">2016-08-03T21:56:06Z</DateUtc></StartTime><FrequencyChanges><FrequencyChange><Frequency dt:dt="r8">3507685</Frequency><Timestamp dt:dt="r8">280759898</Timestamp><Current dt:dt="r8">0</Current><DateUtc dt:dt="string">2016-08-03T21:56:06Z</DateUtc></FrequencyChange></FrequencyChanges></Clock>\n	Hungry_Donkey_bar_English_2-167-1	60.017	92	1.0.0.18	1	281421448	Standard	2.0.10.353	2.0.10.353	08-03-2016	8/3/2016 9:56:06 PM	17:56:06	2.0.10.248	87	Bar63-37.bmp	57	2	?	0r_4g.bmp	0r_4g.bmp	0r_2g.bmp	0r_2g.bmp		0r_4g.bmp			TrialProc	TrialList	0	cvbn	-999999	16	379099	0	v	400	379499	258	-192	66	-4	4	24	42	8	9	87	0	0	0	0	4	4	2	2	0	4
Hungry_Donkey_bar_English_2	167	1	<?xml version="1.0"?>\n<Clock xmlns:dt="urn:schemas-microsoft-com:datatypes"><Description dt:dt="string">E-Prime Primary Realtime Clock</Description><StartTime><Timestamp dt:dt="int">0</Timestamp><DateUtc dt:dt="string">2016-08-03T21:56:06Z</DateUtc></StartTime><FrequencyChanges><FrequencyChange><Frequency dt:dt="r8">3507685</Frequency><Timestamp dt:dt="r8">280759898</Timestamp><Current dt:dt="r8">0</Current><DateUtc dt:dt="string">2016-08-03T21:56:06Z</DateUtc></FrequencyChange></FrequencyChanges></Clock>\n	Hungry_Donkey_bar_English_2-167-1	60.017	92	1.0.0.18	1	281421448	Standard	2.0.10.353	2.0.10.353	08-03-2016	8/3/2016 9:56:06 PM	17:56:06	2.0.10.248	88	Bar63-37.bmp	57	3	?	10r_4g.bmp	0r_4g.bmp	2r_2g.bmp	0r_2g.bmp			2r_2g.bmp		TrialProc	TrialList	0	cvbn	-999999	16	381532	0	b	719	382251	260	-194	66	-4	4	24	42	2	9	88	-10	0	-2	0	4	4	2	2	-2	2
Hungry_Donkey_bar_English_2	167	1	<?xml version="1.0"?>\n<Clock xmlns:dt="urn:schemas-microsoft-com:datatypes"><Description dt:dt="string">E-Prime Primary Realtime Clock</Description><StartTime><Timestamp dt:dt="int">0</Timestamp><DateUtc dt:dt="string">2016-08-03T21:56:06Z</DateUtc></StartTime><FrequencyChanges><FrequencyChange><Frequency dt:dt="r8">3507685</Frequency><Timestamp dt:dt="r8">280759898</Timestamp><Current dt:dt="r8">0</Current><DateUtc dt:dt="string">2016-08-03T21:56:06Z</DateUtc></FrequencyChange></FrequencyChanges></Clock>\n	Hungry_Donkey_bar_English_2-167-1	60.017	92	1.0.0.18	1	281421448	Standard	2.0.10.353	2.0.10.353	08-03-2016	8/3/2016 9:56:06 PM	17:56:06	2.0.10.248	89	Bar50-50.bmp	56	4	?	8r_4g.bmp	50r_4g.bmp	1r_2g.bmp	10r_2g.bmp				10r_2g.bmp	TrialProc	TrialList	0	cvbn	-999999	16	384281	0	n	386	384667	262	-204	58	-4	4	24	34	1	9	89	-8	-50	-1	-10	4	4	2	2	-10	2
Hungry_Donkey_bar_English_2	167	1	<?xml version="1.0"?>\n<Clock xmlns:dt="urn:schemas-microsoft-com:datatypes"><Description dt:dt="string">E-Prime Primary Realtime Clock</Description><StartTime><Timestamp dt:dt="int">0</Timestamp><DateUtc dt:dt="string">2016-08-03T21:56:06Z</DateUtc></StartTime><FrequencyChanges><FrequencyChange><Frequency dt:dt="r8">3507685</Frequency><Timestamp dt:dt="r8">280759898</Timestamp><Current dt:dt="r8">0</Current><DateUtc dt:dt="string">2016-08-03T21:56:06Z</DateUtc></FrequencyChange></FrequencyChanges></Clock>\n	Hungry_Donkey_bar_English_2-167-1	60.017	92	1.0.0.18	1	281421448	Standard	2.0.10.353	2.0.10.353	08-03-2016	8/3/2016 9:56:06 PM	17:56:06	2.0.10.248	90	Bar50-50.bmp	56	3	?	0r_4g.bmp	0r_4g.bmp	0r_2g.bmp	0r_2g.bmp			0r_2g.bmp		TrialProc	TrialList	0	cvbn	-999999	15	386697	0	b	1314	388011	264	-204	60	-4	4	26	34	10	9	90	0	0	0	0	4	4	2	2	0	2
Hungry_Donkey_bar_English_2	167	1	<?xml version="1.0"?>\n<Clock xmlns:dt="urn:schemas-microsoft-com:datatypes"><Description dt:dt="string">E-Prime Primary Realtime Clock</Description><StartTime><Timestamp dt:dt="int">0</Timestamp><DateUtc dt:dt="string">2016-08-03T21:56:06Z</DateUtc></StartTime><FrequencyChanges><FrequencyChange><Frequency dt:dt="r8">3507685</Frequency><Timestamp dt:dt="r8">280759898</Timestamp><Current dt:dt="r8">0</Current><DateUtc dt:dt="string">2016-08-03T21:56:06Z</DateUtc></FrequencyChange></FrequencyChanges></Clock>\n	Hungry_Donkey_bar_English_2-167-1	60.017	92	1.0.0.18	1	281421448	Standard	2.0.10.353	2.0.10.353	08-03-2016	8/3/2016 9:56:06 PM	17:56:06	2.0.10.248	91	Bar63-37.bmp	57	2	?	10r_4g.bmp	0r_4g.bmp	2r_2g.bmp	0r_2g.bmp		0r_4g.bmp			TrialProc	TrialList	0	cvbn	-999999	16	390046	0	v	588	390634	268	-204	64	-4	8	26	34	2	10	91	-10	0	-2	0	4	4	2	2	0	4
Hungry_Donkey_bar_English_2	167	1	<?xml version="1.0"?>\n<Clock xmlns:dt="urn:schemas-microsoft-com:datatypes"><Description dt:dt="string">E-Prime Primary Realtime Clock</Description><StartTime><Timestamp dt:dt="int">0</Timestamp><DateUtc dt:dt="string">2016-08-03T21:56:06Z</DateUtc></StartTime><FrequencyChanges><FrequencyChange><Frequency dt:dt="r8">3507685</Frequency><Timestamp dt:dt="r8">280759898</Timestamp><Current dt:dt="r8">0</Current><DateUtc dt:dt="string">2016-08-03T21:56:06Z</DateUtc></FrequencyChange></FrequencyChanges></Clock>\n	Hungry_Donkey_bar_English_2-167-1	60.017	92	1.0.0.18	1	281421448	Standard	2.0.10.353	2.0.10.353	08-03-2016	8/3/2016 9:56:06 PM	17:56:06	2.0.10.248	92	Bar50-50.bmp	56	1	?	10r_4g.bmp	0r_4g.bmp	2r_2g.bmp	0r_2g.bmp	10r_4g.bmp				TrialProc	TrialList	0	cvbn	-999999	16	392662	0	c	1748	394410	272	-214	58	-10	8	26	34	3	10	92	-10	0	-2	0	4	4	2	2	-10	4
Hungry_Donkey_bar_English_2	167	1	<?xml version="1.0"?>\n<Clock xmlns:dt="urn:schemas-microsoft-com:datatypes"><Description dt:dt="string">E-Prime Primary Realtime Clock</Description><StartTime><Timestamp dt:dt="int">0</Timestamp><DateUtc dt:dt="string">2016-08-03T21:56:06Z</DateUtc></StartTime><FrequencyChanges><FrequencyChange><Frequency dt:dt="r8">3507685</Frequency><Timestamp dt:dt="r8">280759898</Timestamp><Current dt:dt="r8">0</Current><DateUtc dt:dt="string">2016-08-03T21:56:06Z</DateUtc></FrequencyChange></FrequencyChanges></Clock>\n	Hungry_Donkey_bar_English_2-167-1	60.017	92	1.0.0.18	1	281421448	Standard	2.0.10.353	2.0.10.353	08-03-2016	8/3/2016 9:56:06 PM	17:56:06	2.0.10.248	93	Bar50-50.bmp	56	2	?	0r_4g.bmp	0r_4g.bmp	0r_2g.bmp	0r_2g.bmp		0r_4g.bmp			TrialProc	TrialList	0	cvbn	-999999	16	396444	0	v	8926	405370	276	-214	62	-10	12	26	34	8	10	93	0	0	0	0	4	4	2	2	0	4
Hungry_Donkey_bar_English_2	167	1	<?xml version="1.0"?>\n<Clock xmlns:dt="urn:schemas-microsoft-com:datatypes"><Description dt:dt="string">E-Prime Primary Realtime Clock</Description><StartTime><Timestamp dt:dt="int">0</Timestamp><DateUtc dt:dt="string">2016-08-03T21:56:06Z</DateUtc></StartTime><FrequencyChanges><FrequencyChange><Frequency dt:dt="r8">3507685</Frequency><Timestamp dt:dt="r8">280759898</Timestamp><Current dt:dt="r8">0</Current><DateUtc dt:dt="string">2016-08-03T21:56:06Z</DateUtc></FrequencyChange></FrequencyChanges></Clock>\n	Hungry_Donkey_bar_English_2-167-1	60.017	92	1.0.0.18	1	281421448	Standard	2.0.10.353	2.0.10.353	08-03-2016	8/3/2016 9:56:06 PM	17:56:06	2.0.10.248	94	Bar63-37.bmp	57	3	?	0r_4g.bmp	0r_4g.bmp	0r_2g.bmp	0r_2g.bmp			0r_2g.bmp		TrialProc	TrialList	0	cvbn	-999999	16	407408	0	b	442	407850	278	-214	64	-10	12	28	34	10	10	94	0	0	0	0	4	4	2	2	0	2
Hungry_Donkey_bar_English_2	167	1	<?xml version="1.0"?>\n<Clock xmlns:dt="urn:schemas-microsoft-com:datatypes"><Description dt:dt="string">E-Prime Primary Realtime Clock</Description><StartTime><Timestamp dt:dt="int">0</Timestamp><DateUtc dt:dt="string">2016-08-03T21:56:06Z</DateUtc></StartTime><FrequencyChanges><FrequencyChange><Frequency dt:dt="r8">3507685</Frequency><Timestamp dt:dt="r8">280759898</Timestamp><Current dt:dt="r8">0</Current><DateUtc dt:dt="string">2016-08-03T21:56:06Z</DateUtc></FrequencyChange></FrequencyChanges></Clock>\n	Hungry_Donkey_bar_English_2-167-1	60.017	92	1.0.0.18	1	281421448	Standard	2.0.10.353	2.0.10.353	08-03-2016	8/3/2016 9:56:06 PM	17:56:06	2.0.10.248	95	Bar63-37.bmp	57	4	?	0r_4g.bmp	0r_4g.bmp	0r_2g.bmp	0r_2g.bmp				0r_2g.bmp	TrialProc	TrialList	0	cvbn	-999999	16	409874	0	n	1111	410985	280	-214	66	-10	12	28	36	9	10	95	0	0	0	0	4	4	2	2	0	2
Hungry_Donkey_bar_English_2	167	1	<?xml version="1.0"?>\n<Clock xmlns:dt="urn:schemas-microsoft-com:datatypes"><Description dt:dt="string">E-Prime Primary Realtime Clock</Description><StartTime><Timestamp dt:dt="int">0</Timestamp><DateUtc dt:dt="string">2016-08-03T21:56:06Z</DateUtc></StartTime><FrequencyChanges><FrequencyChange><Frequency dt:dt="r8">3507685</Frequency><Timestamp dt:dt="r8">280759898</Timestamp><Current dt:dt="r8">0</Current><DateUtc dt:dt="string">2016-08-03T21:56:06Z</DateUtc></FrequencyChange></FrequencyChanges></Clock>\n	Hungry_Donkey_bar_English_2-167-1	60.017	92	1.0.0.18	1	281421448	Standard	2.0.10.353	2.0.10.353	08-03-2016	8/3/2016 9:56:06 PM	17:56:06	2.0.10.248	96	Bar50-50.bmp	56	1	?	10r_4g.bmp	0r_4g.bmp	2r_2g.bmp	0r_2g.bmp	10r_4g.bmp				TrialProc	TrialList	0	cvbn	-999999	16	413023	0	c	2138	415161	284	-224	60	-16	12	28	36	4	10	96	-10	0	-2	0	4	4	2	2	-10	4
Hungry_Donkey_bar_English_2	167	1	<?xml version="1.0"?>\n<Clock xmlns:dt="urn:schemas-microsoft-com:datatypes"><Description dt:dt="string">E-Prime Primary Realtime Clock</Description><StartTime><Timestamp dt:dt="int">0</Timestamp><DateUtc dt:dt="string">2016-08-03T21:56:06Z</DateUtc></StartTime><FrequencyChanges><FrequencyChange><Frequency dt:dt="r8">3507685</Frequency><Timestamp dt:dt="r8">280759898</Timestamp><Current dt:dt="r8">0</Current><DateUtc dt:dt="string">2016-08-03T21:56:06Z</DateUtc></FrequencyChange></FrequencyChanges></Clock>\n	Hungry_Donkey_bar_English_2-167-1	60.017	92	1.0.0.18	1	281421448	Standard	2.0.10.353	2.0.10.353	08-03-2016	8/3/2016 9:56:06 PM	17:56:06	2.0.10.248	97	Bar50-50.bmp	56	2	?	12r_4g.bmp	0r_4g.bmp	3r_2g.bmp	0r_2g.bmp		0r_4g.bmp			TrialProc	TrialList	0	cvbn	-999999	16	417188	0	v	2565	419753	288	-224	64	-16	16	28	36	5	10	97	-12	0	-3	0	4	4	2	2	0	4
Hungry_Donkey_bar_English_2	167	1	<?xml version="1.0"?>\n<Clock xmlns:dt="urn:schemas-microsoft-com:datatypes"><Description dt:dt="string">E-Prime Primary Realtime Clock</Description><StartTime><Timestamp dt:dt="int">0</Timestamp><DateUtc dt:dt="string">2016-08-03T21:56:06Z</DateUtc></StartTime><FrequencyChanges><FrequencyChange><Frequency dt:dt="r8">3507685</Frequency><Timestamp dt:dt="r8">280759898</Timestamp><Current dt:dt="r8">0</Current><DateUtc dt:dt="string">2016-08-03T21:56:06Z</DateUtc></FrequencyChange></FrequencyChanges></Clock>\n	Hungry_Donkey_bar_English_2-167-1	60.017	92	1.0.0.18	1	281421448	Standard	2.0.10.353	2.0.10.353	08-03-2016	8/3/2016 9:56:06 PM	17:56:06	2.0.10.248	98	Bar50-50.bmp	56	3	?	8r_4g.bmp	50r_4g.bmp	1r_2g.bmp	10r_2g.bmp			1r_2g.bmp		TrialProc	TrialList	0	cvbn	-999999	16	421787	0	b	446	422233	290	-225	65	-16	16	29	36	1	10	98	-8	-50	-1	-10	4	4	2	2	-1	2
Hungry_Donkey_bar_English_2	167	1	<?xml version="1.0"?>\n<Clock xmlns:dt="urn:schemas-microsoft-com:datatypes"><Description dt:dt="string">E-Prime Primary Realtime Clock</Description><StartTime><Timestamp dt:dt="int">0</Timestamp><DateUtc dt:dt="string">2016-08-03T21:56:06Z</DateUtc></StartTime><FrequencyChanges><FrequencyChange><Frequency dt:dt="r8">3507685</Frequency><Timestamp dt:dt="r8">280759898</Timestamp><Current dt:dt="r8">0</Current><DateUtc dt:dt="string">2016-08-03T21:56:06Z</DateUtc></FrequencyChange></FrequencyChanges></Clock>\n	Hungry_Donkey_bar_English_2-167-1	60.017	92	1.0.0.18	1	281421448	Standard	2.0.10.353	2.0.10.353	08-03-2016	8/3/2016 9:56:06 PM	17:56:06	2.0.10.248	99	Bar50-50.bmp	56	4	?	0r_4g.bmp	0r_4g.bmp	0r_2g.bmp	0r_2g.bmp				0r_2g.bmp	TrialProc	TrialList	0	cvbn	-999999	16	424270	0	n	4474	428744	292	-225	67	-16	16	29	38	6	10	99	0	0	0	0	4	4	2	2	0	2
Hungry_Donkey_bar_English_2	167	1	<?xml version="1.0"?>\n<Clock xmlns:dt="urn:schemas-microsoft-com:datatypes"><Description dt:dt="string">E-Prime Primary Realtime Clock</Description><StartTime><Timestamp dt:dt="int">0</Timestamp><DateUtc dt:dt="string">2016-08-03T21:56:06Z</DateUtc></StartTime><FrequencyChanges><FrequencyChange><Frequency dt:dt="r8">3507685</Frequency><Timestamp dt:dt="r8">280759898</Timestamp><Current dt:dt="r8">0</Current><DateUtc dt:dt="string">2016-08-03T21:56:06Z</DateUtc></FrequencyChange></FrequencyChanges></Clock>\n	Hungry_Donkey_bar_English_2-167-1	60.017	92	1.0.0.18	1	281421448	Standard	2.0.10.353	2.0.10.353	08-03-2016	8/3/2016 9:56:06 PM	17:56:06	2.0.10.248	100	Bar63-37.bmp	57	3	?	0r_4g.bmp	0r_4g.bmp	0r_2g.bmp	0r_2g.bmp			0r_2g.bmp		TrialProc	TrialList	0	cvbn	-999999	16	430768	0	b	744	431512	294	-225	69	-16	16	31	38	7	10	100	0	0	0	0	4	4	2	2	0	2
Hungry_Donkey_bar_English_2	167	1	<?xml version="1.0"?>\n<Clock xmlns:dt="urn:schemas-microsoft-com:datatypes"><Description dt:dt="string">E-Prime Primary Realtime Clock</Description><StartTime><Timestamp dt:dt="int">0</Timestamp><DateUtc dt:dt="string">2016-08-03T21:56:06Z</DateUtc></StartTime><FrequencyChanges><FrequencyChange><Frequency dt:dt="r8">3507685</Frequency><Timestamp dt:dt="r8">280759898</Timestamp><Current dt:dt="r8">0</Current><DateUtc dt:dt="string">2016-08-03T21:56:06Z</DateUtc></FrequencyChange></FrequencyChanges></Clock>\n	Hungry_Donkey_bar_English_2-167-1	60.017	92	1.0.0.18	1	281421448	Standard	2.0.10.353	2.0.10.353	08-03-2016	8/3/2016 9:56:06 PM	17:56:06	2.0.10.248	101	Bar63-37.bmp	57	2	?	10r_4g.bmp	0r_4g.bmp	2r_2g.bmp	0r_2g.bmp		0r_4g.bmp			TrialProc	TrialList	0	cvbn	-999999	16	433550	0	v	1786	435336	298	-225	73	-16	20	31	38	3	11	101	-10	0	-2	0	4	4	2	2	0	4
Hungry_Donkey_bar_English_2	167	1	<?xml version="1.0"?>\n<Clock xmlns:dt="urn:schemas-microsoft-com:datatypes"><Description dt:dt="string">E-Prime Primary Realtime Clock</Description><StartTime><Timestamp dt:dt="int">0</Timestamp><DateUtc dt:dt="string">2016-08-03T21:56:06Z</DateUtc></StartTime><FrequencyChanges><FrequencyChange><Frequency dt:dt="r8">3507685</Frequency><Timestamp dt:dt="r8">280759898</Timestamp><Current dt:dt="r8">0</Current><DateUtc dt:dt="string">2016-08-03T21:56:06Z</DateUtc></FrequencyChange></FrequencyChanges></Clock>\n	Hungry_Donkey_bar_English_2-167-1	60.017	92	1.0.0.18	1	281421448	Standard	2.0.10.353	2.0.10.353	08-03-2016	8/3/2016 9:56:06 PM	17:56:06	2.0.10.248	102	Bar50-50.bmp	56	4	?	8r_4g.bmp	50r_4g.bmp	1r_2g.bmp	10r_2g.bmp				10r_2g.bmp	TrialProc	TrialList	0	cvbn	-999999	16	437366	0	n	978	438344	300	-235	65	-16	20	31	30	1	11	102	-8	-50	-1	-10	4	4	2	2	-10	2
Hungry_Donkey_bar_English_2	167	1	<?xml version="1.0"?>\n<Clock xmlns:dt="urn:schemas-microsoft-com:datatypes"><Description dt:dt="string">E-Prime Primary Realtime Clock</Description><StartTime><Timestamp dt:dt="int">0</Timestamp><DateUtc dt:dt="string">2016-08-03T21:56:06Z</DateUtc></StartTime><FrequencyChanges><FrequencyChange><Frequency dt:dt="r8">3507685</Frequency><Timestamp dt:dt="r8">280759898</Timestamp><Current dt:dt="r8">0</Current><DateUtc dt:dt="string">2016-08-03T21:56:06Z</DateUtc></FrequencyChange></FrequencyChanges></Clock>\n	Hungry_Donkey_bar_English_2-167-1	60.017	92	1.0.0.18	1	281421448	Standard	2.0.10.353	2.0.10.353	08-03-2016	8/3/2016 9:56:06 PM	17:56:06	2.0.10.248	103	Bar50-50.bmp	56	4	?	10r_4g.bmp	0r_4g.bmp	2r_2g.bmp	0r_2g.bmp				0r_2g.bmp	TrialProc	TrialList	0	cvbn	-999999	16	440382	0	n	1338	441720	302	-235	67	-16	20	31	32	2	11	103	-10	0	-2	0	4	4	2	2	0	2
Hungry_Donkey_bar_English_2	167	1	<?xml version="1.0"?>\n<Clock xmlns:dt="urn:schemas-microsoft-com:datatypes"><Description dt:dt="string">E-Prime Primary Realtime Clock</Description><StartTime><Timestamp dt:dt="int">0</Timestamp><DateUtc dt:dt="string">2016-08-03T21:56:06Z</DateUtc></StartTime><FrequencyChanges><FrequencyChange><Frequency dt:dt="r8">3507685</Frequency><Timestamp dt:dt="r8">280759898</Timestamp><Current dt:dt="r8">0</Current><DateUtc dt:dt="string">2016-08-03T21:56:06Z</DateUtc></FrequencyChange></FrequencyChanges></Clock>\n	Hungry_Donkey_bar_English_2-167-1	60.017	92	1.0.0.18	1	281421448	Standard	2.0.10.353	2.0.10.353	08-03-2016	8/3/2016 9:56:06 PM	17:56:06	2.0.10.248	104	Bar50-50.bmp	56	3	?	12r_4g.bmp	0r_4g.bmp	3r_2g.bmp	0r_2g.bmp			3r_2g.bmp		TrialProc	TrialList	0	cvbn	-999999	16	443747	0	b	3013	446760	304	-238	66	-16	20	30	32	5	11	104	-12	0	-3	0	4	4	2	2	-3	2
Hungry_Donkey_bar_English_2	167	1	<?xml version="1.0"?>\n<Clock xmlns:dt="urn:schemas-microsoft-com:datatypes"><Description dt:dt="string">E-Prime Primary Realtime Clock</Description><StartTime><Timestamp dt:dt="int">0</Timestamp><DateUtc dt:dt="string">2016-08-03T21:56:06Z</DateUtc></StartTime><FrequencyChanges><FrequencyChange><Frequency dt:dt="r8">3507685</Frequency><Timestamp dt:dt="r8">280759898</Timestamp><Current dt:dt="r8">0</Current><DateUtc dt:dt="string">2016-08-03T21:56:06Z</DateUtc></FrequencyChange></FrequencyChanges></Clock>\n	Hungry_Donkey_bar_English_2-167-1	60.017	92	1.0.0.18	1	281421448	Standard	2.0.10.353	2.0.10.353	08-03-2016	8/3/2016 9:56:06 PM	17:56:06	2.0.10.248	105	Bar50-50.bmp	56	2	?	0r_4g.bmp	0r_4g.bmp	0r_2g.bmp	0r_2g.bmp		0r_4g.bmp			TrialProc	TrialList	0	cvbn	-999999	16	448796	0	v	523	449319	308	-238	70	-16	24	30	32	7	11	105	0	0	0	0	4	4	2	2	0	4
Hungry_Donkey_bar_English_2	167	1	<?xml version="1.0"?>\n<Clock xmlns:dt="urn:schemas-microsoft-com:datatypes"><Description dt:dt="string">E-Prime Primary Realtime Clock</Description><StartTime><Timestamp dt:dt="int">0</Timestamp><DateUtc dt:dt="string">2016-08-03T21:56:06Z</DateUtc></StartTime><FrequencyChanges><FrequencyChange><Frequency dt:dt="r8">3507685</Frequency><Timestamp dt:dt="r8">280759898</Timestamp><Current dt:dt="r8">0</Current><DateUtc dt:dt="string">2016-08-03T21:56:06Z</DateUtc></FrequencyChange></FrequencyChanges></Clock>\n	Hungry_Donkey_bar_English_2-167-1	60.017	92	1.0.0.18	1	281421448	Standard	2.0.10.353	2.0.10.353	08-03-2016	8/3/2016 9:56:06 PM	17:56:06	2.0.10.248	106	Bar63-37.bmp	57	1	?	0r_4g.bmp	0r_4g.bmp	0r_2g.bmp	0r_2g.bmp	0r_4g.bmp				TrialProc	TrialList	0	cvbn	-999999	16	451345	0	c	726	452071	312	-238	74	-12	24	30	32	6	11	106	0	0	0	0	4	4	2	2	0	4
Hungry_Donkey_bar_English_2	167	1	<?xml version="1.0"?>\n<Clock xmlns:dt="urn:schemas-microsoft-com:datatypes"><Description dt:dt="string">E-Prime Primary Realtime Clock</Description><StartTime><Timestamp dt:dt="int">0</Timestamp><DateUtc dt:dt="string">2016-08-03T21:56:06Z</DateUtc></StartTime><FrequencyChanges><FrequencyChange><Frequency dt:dt="r8">3507685</Frequency><Timestamp dt:dt="r8">280759898</Timestamp><Current dt:dt="r8">0</Current><DateUtc dt:dt="string">2016-08-03T21:56:06Z</DateUtc></FrequencyChange></FrequencyChanges></Clock>\n	Hungry_Donkey_bar_English_2-167-1	60.017	92	1.0.0.18	1	281421448	Standard	2.0.10.353	2.0.10.353	08-03-2016	8/3/2016 9:56:06 PM	17:56:06	2.0.10.248	107	Bar63-37.bmp	57	4	?	0r_4g.bmp	0r_4g.bmp	0r_2g.bmp	0r_2g.bmp				0r_2g.bmp	TrialProc	TrialList	0	cvbn	-999999	16	454111	0	n	2728	456839	314	-238	76	-12	24	30	34	9	11	107	0	0	0	0	4	4	2	2	0	2
Hungry_Donkey_bar_English_2	167	1	<?xml version="1.0"?>\n<Clock xmlns:dt="urn:schemas-microsoft-com:datatypes"><Description dt:dt="string">E-Prime Primary Realtime Clock</Description><StartTime><Timestamp dt:dt="int">0</Timestamp><DateUtc dt:dt="string">2016-08-03T21:56:06Z</DateUtc></StartTime><FrequencyChanges><FrequencyChange><Frequency dt:dt="r8">3507685</Frequency><Timestamp dt:dt="r8">280759898</Timestamp><Current dt:dt="r8">0</Current><DateUtc dt:dt="string">2016-08-03T21:56:06Z</DateUtc></FrequencyChange></FrequencyChanges></Clock>\n	Hungry_Donkey_bar_English_2-167-1	60.017	92	1.0.0.18	1	281421448	Standard	2.0.10.353	2.0.10.353	08-03-2016	8/3/2016 9:56:06 PM	17:56:06	2.0.10.248	108	Bar63-37.bmp	57	2	?	10r_4g.bmp	0r_4g.bmp	2r_2g.bmp	0r_2g.bmp		0r_4g.bmp			TrialProc	TrialList	0	cvbn	-999999	16	458876	0	v	3835	462711	318	-238	80	-12	28	30	34	4	11	108	-10	0	-2	0	4	4	2	2	0	4
Hungry_Donkey_bar_English_2	167	1	<?xml version="1.0"?>\n<Clock xmlns:dt="urn:schemas-microsoft-com:datatypes"><Description dt:dt="string">E-Prime Primary Realtime Clock</Description><StartTime><Timestamp dt:dt="int">0</Timestamp><DateUtc dt:dt="string">2016-08-03T21:56:06Z</DateUtc></StartTime><FrequencyChanges><FrequencyChange><Frequency dt:dt="r8">3507685</Frequency><Timestamp dt:dt="r8">280759898</Timestamp><Current dt:dt="r8">0</Current><DateUtc dt:dt="string">2016-08-03T21:56:06Z</DateUtc></FrequencyChange></FrequencyChanges></Clock>\n	Hungry_Donkey_bar_English_2-167-1	60.017	92	1.0.0.18	1	281421448	Standard	2.0.10.353	2.0.10.353	08-03-2016	8/3/2016 9:56:06 PM	17:56:06	2.0.10.248	109	Bar63-37.bmp	57	3	?	0r_4g.bmp	0r_4g.bmp	0r_2g.bmp	0r_2g.bmp			0r_2g.bmp		TrialProc	TrialList	0	cvbn	-999999	16	464741	0	b	3729	468470	320	-238	82	-12	28	32	34	10	11	109	0	0	0	0	4	4	2	2	0	2
Hungry_Donkey_bar_English_2	167	1	<?xml version="1.0"?>\n<Clock xmlns:dt="urn:schemas-microsoft-com:datatypes"><Description dt:dt="string">E-Prime Primary Realtime Clock</Description><StartTime><Timestamp dt:dt="int">0</Timestamp><DateUtc dt:dt="string">2016-08-03T21:56:06Z</DateUtc></StartTime><FrequencyChanges><FrequencyChange><Frequency dt:dt="r8">3507685</Frequency><Timestamp dt:dt="r8">280759898</Timestamp><Current dt:dt="r8">0</Current><DateUtc dt:dt="string">2016-08-03T21:56:06Z</DateUtc></FrequencyChange></FrequencyChanges></Clock>\n	Hungry_Donkey_bar_English_2-167-1	60.017	92	1.0.0.18	1	281421448	Standard	2.0.10.353	2.0.10.353	08-03-2016	8/3/2016 9:56:06 PM	17:56:06	2.0.10.248	110	Bar63-37.bmp	58	1	?	0r_4g.bmp	0r_4g.bmp	0r_2g.bmp	0r_2g.bmp	0r_4g.bmp				TrialProc	TrialList	0	cvbn	-999999	16	470506	0	c	1260	471766	324	-238	86	-8	28	32	34	8	11	110	0	0	0	0	4	4	2	2	0	4
Hungry_Donkey_bar_English_2	167	1	<?xml version="1.0"?>\n<Clock xmlns:dt="urn:schemas-microsoft-com:datatypes"><Description dt:dt="string">E-Prime Primary Realtime Clock</Description><StartTime><Timestamp dt:dt="int">0</Timestamp><DateUtc dt:dt="string">2016-08-03T21:56:06Z</DateUtc></StartTime><FrequencyChanges><FrequencyChange><Frequency dt:dt="r8">3507685</Frequency><Timestamp dt:dt="r8">280759898</Timestamp><Current dt:dt="r8">0</Current><DateUtc dt:dt="string">2016-08-03T21:56:06Z</DateUtc></FrequencyChange></FrequencyChanges></Clock>\n	Hungry_Donkey_bar_English_2-167-1	60.017	92	1.0.0.18	1	281421448	Standard	2.0.10.353	2.0.10.353	08-03-2016	8/3/2016 9:56:06 PM	17:56:06	2.0.10.248	111	Bar63-37.bmp	58	3	?	8r_4g.bmp	50r_4g.bmp	1r_2g.bmp	10r_2g.bmp			1r_2g.bmp		TrialProc	TrialList	0	cvbn	-999999	16	473805	0	b	601	474406	326	-239	87	-8	28	33	34	1	12	111	-8	-50	-1	-10	4	4	2	2	-1	2
Hungry_Donkey_bar_English_2	167	1	<?xml version="1.0"?>\n<Clock xmlns:dt="urn:schemas-microsoft-com:datatypes"><Description dt:dt="string">E-Prime Primary Realtime Clock</Description><StartTime><Timestamp dt:dt="int">0</Timestamp><DateUtc dt:dt="string">2016-08-03T21:56:06Z</DateUtc></StartTime><FrequencyChanges><FrequencyChange><Frequency dt:dt="r8">3507685</Frequency><Timestamp dt:dt="r8">280759898</Timestamp><Current dt:dt="r8">0</Current><DateUtc dt:dt="string">2016-08-03T21:56:06Z</DateUtc></FrequencyChange></FrequencyChanges></Clock>\n	Hungry_Donkey_bar_English_2-167-1	60.017	92	1.0.0.18	1	281421448	Standard	2.0.10.353	2.0.10.353	08-03-2016	8/3/2016 9:56:06 PM	17:56:06	2.0.10.248	112	Bar63-37.bmp	58	2	?	10r_4g.bmp	0r_4g.bmp	2r_2g.bmp	0r_2g.bmp		0r_4g.bmp			TrialProc	TrialList	0	cvbn	-999999	16	476438	0	v	608	477046	330	-239	91	-8	32	33	34	2	12	112	-10	0	-2	0	4	4	2	2	0	4
