ExperimentName	Subject	Session	Clock.Information	DataFile.Basename	Display.RefreshRate	Eindtotaal[Session]	ExperimentVersion	Group	RandomSeed	RuntimeCapabilities	RuntimeVersion	RuntimeVersionExpected	SessionDate	SessionStartDateTimeUtc	SessionTime	StudioVersion	Block	BarImage	BarTotalWinst	DoorChoice	Eindtotaal[Block]	FBDoor1	FBDoor2	FBDoor3	FBDoor4	Image1	Image2	Image3	Image4	Procedure	Running	spel.ACC	spel.CRESP	spel.DurationError	spel.OnsetDelay	spel.OnsetTime	spel.OnsetToOnsetTime	spel.RESP	spel.RT	spel.RTTime	TotalGain	TotalLose	Totalsum	TotalsumD1	TotalsumD2	TotalsumD3	TotalsumD4	TrialList	TrialList.Cycle	TrialList.Sample	varV1	varV2	varV3	varV4	varW1	varW2	varW3	varW4	Verliesbedrag	Winstbedrag
Hungry_Donkey_bar_English_2	132	1	<?xml version="1.0"?>\n<Clock xmlns:dt="urn:schemas-microsoft-com:datatypes"><Description dt:dt="string">E-Prime Primary Realtime Clock</Description><StartTime><Timestamp dt:dt="int">0</Timestamp><DateUtc dt:dt="string">2016-02-16T17:28:56Z</DateUtc></StartTime><FrequencyChanges><FrequencyChange><Frequency dt:dt="r8">3507724</Frequency><Timestamp dt:dt="r8">2956390863675</Timestamp><Current dt:dt="r8">0</Current><DateUtc dt:dt="string">2016-02-16T17:28:56Z</DateUtc></FrequencyChange></FrequencyChanges></Clock>\n	Hungry_Donkey_bar_English_2-132-1	60.018	-97	1.0.0.18	1	1454045346	Standard	2.0.10.353	2.0.10.353	02-16-2016	2/16/2016 5:28:56 PM	12:28:56	2.0.10.248	1	Bar25-75.bmp	29	1	?	10r_4g.bmp	0r_4g.bmp	2r_2g.bmp	0r_2g.bmp	10r_4g.bmp				TrialProc	TrialList	0	cvbn	-999999	14	107543	0	c	1585	109128	4	-10	-6	-6	0	0	0	4	1	1	-10	0	-2	0	4	4	2	2	-10	4
Hungry_Donkey_bar_English_2	132	1	<?xml version="1.0"?>\n<Clock xmlns:dt="urn:schemas-microsoft-com:datatypes"><Description dt:dt="string">E-Prime Primary Realtime Clock</Description><StartTime><Timestamp dt:dt="int">0</Timestamp><DateUtc dt:dt="string">2016-02-16T17:28:56Z</DateUtc></StartTime><FrequencyChanges><FrequencyChange><Frequency dt:dt="r8">3507724</Frequency><Timestamp dt:dt="r8">2956390863675</Timestamp><Current dt:dt="r8">0</Current><DateUtc dt:dt="string">2016-02-16T17:28:56Z</DateUtc></FrequencyChange></FrequencyChanges></Clock>\n	Hungry_Donkey_bar_English_2-132-1	60.018	-97	1.0.0.18	1	1454045346	Standard	2.0.10.353	2.0.10.353	02-16-2016	2/16/2016 5:28:56 PM	12:28:56	2.0.10.248	2	Bar25-75.bmp	23	4	?	8r_4g.bmp	50r_4g.bmp	1r_2g.bmp	10r_2g.bmp				10r_2g.bmp	TrialProc	TrialList	0	cvbn	-999999	16	111159	0	n	9329	120488	6	-20	-14	-6	0	0	-8	1	1	2	-8	-50	-1	-10	4	4	2	2	-10	2
Hungry_Donkey_bar_English_2	132	1	<?xml version="1.0"?>\n<Clock xmlns:dt="urn:schemas-microsoft-com:datatypes"><Description dt:dt="string">E-Prime Primary Realtime Clock</Description><StartTime><Timestamp dt:dt="int">0</Timestamp><DateUtc dt:dt="string">2016-02-16T17:28:56Z</DateUtc></StartTime><FrequencyChanges><FrequencyChange><Frequency dt:dt="r8">3507724</Frequency><Timestamp dt:dt="r8">2956390863675</Timestamp><Current dt:dt="r8">0</Current><DateUtc dt:dt="string">2016-02-16T17:28:56Z</DateUtc></FrequencyChange></FrequencyChanges></Clock>\n	Hungry_Donkey_bar_English_2-132-1	60.018	-97	1.0.0.18	1	1454045346	Standard	2.0.10.353	2.0.10.353	02-16-2016	2/16/2016 5:28:56 PM	12:28:56	2.0.10.248	3	Bar25-75.bmp	27	3	?	10r_4g.bmp	0r_4g.bmp	2r_2g.bmp	0r_2g.bmp			2r_2g.bmp		TrialProc	TrialList	0	cvbn	-999999	16	122522	0	b	2877	125399	8	-22	-14	-6	0	0	-8	3	1	3	-10	0	-2	0	4	4	2	2	-2	2
Hungry_Donkey_bar_English_2	132	1	<?xml version="1.0"?>\n<Clock xmlns:dt="urn:schemas-microsoft-com:datatypes"><Description dt:dt="string">E-Prime Primary Realtime Clock</Description><StartTime><Timestamp dt:dt="int">0</Timestamp><DateUtc dt:dt="string">2016-02-16T17:28:56Z</DateUtc></StartTime><FrequencyChanges><FrequencyChange><Frequency dt:dt="r8">3507724</Frequency><Timestamp dt:dt="r8">2956390863675</Timestamp><Current dt:dt="r8">0</Current><DateUtc dt:dt="string">2016-02-16T17:28:56Z</DateUtc></FrequencyChange></FrequencyChanges></Clock>\n	Hungry_Donkey_bar_English_2-132-1	60.018	-97	1.0.0.18	1	1454045346	Standard	2.0.10.353	2.0.10.353	02-16-2016	2/16/2016 5:28:56 PM	12:28:56	2.0.10.248	4	Bar37-63.bmp	35	2	?	0r_4g.bmp	0r_4g.bmp	0r_2g.bmp	0r_2g.bmp		0r_4g.bmp			TrialProc	TrialList	0	cvbn	-999999	16	127437	0	v	1498	128935	12	-22	-10	-6	4	0	-8	7	1	4	0	0	0	0	4	4	2	2	0	4
Hungry_Donkey_bar_English_2	132	1	<?xml version="1.0"?>\n<Clock xmlns:dt="urn:schemas-microsoft-com:datatypes"><Description dt:dt="string">E-Prime Primary Realtime Clock</Description><StartTime><Timestamp dt:dt="int">0</Timestamp><DateUtc dt:dt="string">2016-02-16T17:28:56Z</DateUtc></StartTime><FrequencyChanges><FrequencyChange><Frequency dt:dt="r8">3507724</Frequency><Timestamp dt:dt="r8">2956390863675</Timestamp><Current dt:dt="r8">0</Current><DateUtc dt:dt="string">2016-02-16T17:28:56Z</DateUtc></FrequencyChange></FrequencyChanges></Clock>\n	Hungry_Donkey_bar_English_2-132-1	60.018	-97	1.0.0.18	1	1454045346	Standard	2.0.10.353	2.0.10.353	02-16-2016	2/16/2016 5:28:56 PM	12:28:56	2.0.10.248	5	Bar37-63.bmp	42	1	?	0r_4g.bmp	0r_4g.bmp	0r_2g.bmp	0r_2g.bmp	0r_4g.bmp				TrialProc	TrialList	0	cvbn	-999999	16	130970	0	c	1549	132519	16	-22	-6	-2	4	0	-8	9	1	5	0	0	0	0	4	4	2	2	0	4
Hungry_Donkey_bar_English_2	132	1	<?xml version="1.0"?>\n<Clock xmlns:dt="urn:schemas-microsoft-com:datatypes"><Description dt:dt="string">E-Prime Primary Realtime Clock</Description><StartTime><Timestamp dt:dt="int">0</Timestamp><DateUtc dt:dt="string">2016-02-16T17:28:56Z</DateUtc></StartTime><FrequencyChanges><FrequencyChange><Frequency dt:dt="r8">3507724</Frequency><Timestamp dt:dt="r8">2956390863675</Timestamp><Current dt:dt="r8">0</Current><DateUtc dt:dt="string">2016-02-16T17:28:56Z</DateUtc></FrequencyChange></FrequencyChanges></Clock>\n	Hungry_Donkey_bar_English_2-132-1	60.018	-97	1.0.0.18	1	1454045346	Standard	2.0.10.353	2.0.10.353	02-16-2016	2/16/2016 5:28:56 PM	12:28:56	2.0.10.248	6	Bar50-50.bmp	45	4	?	10r_4g.bmp	0r_4g.bmp	2r_2g.bmp	0r_2g.bmp				0r_2g.bmp	TrialProc	TrialList	0	cvbn	-999999	16	134552	0	n	1711	136263	18	-22	-4	-2	4	0	-6	2	1	6	-10	0	-2	0	4	4	2	2	0	2
Hungry_Donkey_bar_English_2	132	1	<?xml version="1.0"?>\n<Clock xmlns:dt="urn:schemas-microsoft-com:datatypes"><Description dt:dt="string">E-Prime Primary Realtime Clock</Description><StartTime><Timestamp dt:dt="int">0</Timestamp><DateUtc dt:dt="string">2016-02-16T17:28:56Z</DateUtc></StartTime><FrequencyChanges><FrequencyChange><Frequency dt:dt="r8">3507724</Frequency><Timestamp dt:dt="r8">2956390863675</Timestamp><Current dt:dt="r8">0</Current><DateUtc dt:dt="string">2016-02-16T17:28:56Z</DateUtc></FrequencyChange></FrequencyChanges></Clock>\n	Hungry_Donkey_bar_English_2-132-1	60.018	-97	1.0.0.18	1	1454045346	Standard	2.0.10.353	2.0.10.353	02-16-2016	2/16/2016 5:28:56 PM	12:28:56	2.0.10.248	7	Bar50-50.bmp	48	3	?	0r_4g.bmp	0r_4g.bmp	0r_2g.bmp	0r_2g.bmp			0r_2g.bmp		TrialProc	TrialList	0	cvbn	-999999	16	138301	0	b	1178	139479	20	-22	-2	-2	4	2	-6	6	1	7	0	0	0	0	4	4	2	2	0	2
Hungry_Donkey_bar_English_2	132	1	<?xml version="1.0"?>\n<Clock xmlns:dt="urn:schemas-microsoft-com:datatypes"><Description dt:dt="string">E-Prime Primary Realtime Clock</Description><StartTime><Timestamp dt:dt="int">0</Timestamp><DateUtc dt:dt="string">2016-02-16T17:28:56Z</DateUtc></StartTime><FrequencyChanges><FrequencyChange><Frequency dt:dt="r8">3507724</Frequency><Timestamp dt:dt="r8">2956390863675</Timestamp><Current dt:dt="r8">0</Current><DateUtc dt:dt="string">2016-02-16T17:28:56Z</DateUtc></FrequencyChange></FrequencyChanges></Clock>\n	Hungry_Donkey_bar_English_2-132-1	60.018	-97	1.0.0.18	1	1454045346	Standard	2.0.10.353	2.0.10.353	02-16-2016	2/16/2016 5:28:56 PM	12:28:56	2.0.10.248	8	Bar50-50.bmp	52	2	?	0r_4g.bmp	0r_4g.bmp	0r_2g.bmp	0r_2g.bmp		0r_4g.bmp			TrialProc	TrialList	0	cvbn	-999999	16	141517	0	v	569	142086	24	-22	2	-2	8	2	-6	10	1	8	0	0	0	0	4	4	2	2	0	4
Hungry_Donkey_bar_English_2	132	1	<?xml version="1.0"?>\n<Clock xmlns:dt="urn:schemas-microsoft-com:datatypes"><Description dt:dt="string">E-Prime Primary Realtime Clock</Description><StartTime><Timestamp dt:dt="int">0</Timestamp><DateUtc dt:dt="string">2016-02-16T17:28:56Z</DateUtc></StartTime><FrequencyChanges><FrequencyChange><Frequency dt:dt="r8">3507724</Frequency><Timestamp dt:dt="r8">2956390863675</Timestamp><Current dt:dt="r8">0</Current><DateUtc dt:dt="string">2016-02-16T17:28:56Z</DateUtc></FrequencyChange></FrequencyChanges></Clock>\n	Hungry_Donkey_bar_English_2-132-1	60.018	-97	1.0.0.18	1	1454045346	Standard	2.0.10.353	2.0.10.353	02-16-2016	2/16/2016 5:28:56 PM	12:28:56	2.0.10.248	9	Bar50-50.bmp	54	4	?	12r_4g.bmp	0r_4g.bmp	3r_2g.bmp	0r_2g.bmp				0r_2g.bmp	TrialProc	TrialList	0	cvbn	-999999	16	144116	0	n	2050	146166	26	-22	4	-2	8	2	-4	5	1	9	-12	0	-3	0	4	4	2	2	0	2
Hungry_Donkey_bar_English_2	132	1	<?xml version="1.0"?>\n<Clock xmlns:dt="urn:schemas-microsoft-com:datatypes"><Description dt:dt="string">E-Prime Primary Realtime Clock</Description><StartTime><Timestamp dt:dt="int">0</Timestamp><DateUtc dt:dt="string">2016-02-16T17:28:56Z</DateUtc></StartTime><FrequencyChanges><FrequencyChange><Frequency dt:dt="r8">3507724</Frequency><Timestamp dt:dt="r8">2956390863675</Timestamp><Current dt:dt="r8">0</Current><DateUtc dt:dt="string">2016-02-16T17:28:56Z</DateUtc></FrequencyChange></FrequencyChanges></Clock>\n	Hungry_Donkey_bar_English_2-132-1	60.018	-97	1.0.0.18	1	1454045346	Standard	2.0.10.353	2.0.10.353	02-16-2016	2/16/2016 5:28:56 PM	12:28:56	2.0.10.248	10	Bar63-37.bmp	58	1	?	0r_4g.bmp	0r_4g.bmp	0r_2g.bmp	0r_2g.bmp	0r_4g.bmp				TrialProc	TrialList	0	cvbn	-999999	16	148198	0	c	1024	149222	30	-22	8	2	8	2	-4	8	1	10	0	0	0	0	4	4	2	2	0	4
Hungry_Donkey_bar_English_2	132	1	<?xml version="1.0"?>\n<Clock xmlns:dt="urn:schemas-microsoft-com:datatypes"><Description dt:dt="string">E-Prime Primary Realtime Clock</Description><StartTime><Timestamp dt:dt="int">0</Timestamp><DateUtc dt:dt="string">2016-02-16T17:28:56Z</DateUtc></StartTime><FrequencyChanges><FrequencyChange><Frequency dt:dt="r8">3507724</Frequency><Timestamp dt:dt="r8">2956390863675</Timestamp><Current dt:dt="r8">0</Current><DateUtc dt:dt="string">2016-02-16T17:28:56Z</DateUtc></FrequencyChange></FrequencyChanges></Clock>\n	Hungry_Donkey_bar_English_2-132-1	60.018	-97	1.0.0.18	1	1454045346	Standard	2.0.10.353	2.0.10.353	02-16-2016	2/16/2016 5:28:56 PM	12:28:56	2.0.10.248	11	Bar50-50.bmp	56	3	?	12r_4g.bmp	0r_4g.bmp	3r_2g.bmp	0r_2g.bmp			3r_2g.bmp		TrialProc	TrialList	0	cvbn	-999999	16	151264	0	b	422	151686	32	-25	7	2	8	1	-4	5	2	11	-12	0	-3	0	4	4	2	2	-3	2
Hungry_Donkey_bar_English_2	132	1	<?xml version="1.0"?>\n<Clock xmlns:dt="urn:schemas-microsoft-com:datatypes"><Description dt:dt="string">E-Prime Primary Realtime Clock</Description><StartTime><Timestamp dt:dt="int">0</Timestamp><DateUtc dt:dt="string">2016-02-16T17:28:56Z</DateUtc></StartTime><FrequencyChanges><FrequencyChange><Frequency dt:dt="r8">3507724</Frequency><Timestamp dt:dt="r8">2956390863675</Timestamp><Current dt:dt="r8">0</Current><DateUtc dt:dt="string">2016-02-16T17:28:56Z</DateUtc></FrequencyChange></FrequencyChanges></Clock>\n	Hungry_Donkey_bar_English_2-132-1	60.018	-97	1.0.0.18	1	1454045346	Standard	2.0.10.353	2.0.10.353	02-16-2016	2/16/2016 5:28:56 PM	12:28:56	2.0.10.248	12	Bar63-37.bmp	59	2	?	0r_4g.bmp	0r_4g.bmp	0r_2g.bmp	0r_2g.bmp		0r_4g.bmp			TrialProc	TrialList	0	cvbn	-999999	16	153713	0	v	1157	154870	36	-25	11	2	12	1	-4	8	2	12	0	0	0	0	4	4	2	2	0	4
Hungry_Donkey_bar_English_2	132	1	<?xml version="1.0"?>\n<Clock xmlns:dt="urn:schemas-microsoft-com:datatypes"><Description dt:dt="string">E-Prime Primary Realtime Clock</Description><StartTime><Timestamp dt:dt="int">0</Timestamp><DateUtc dt:dt="string">2016-02-16T17:28:56Z</DateUtc></StartTime><FrequencyChanges><FrequencyChange><Frequency dt:dt="r8">3507724</Frequency><Timestamp dt:dt="r8">2956390863675</Timestamp><Current dt:dt="r8">0</Current><DateUtc dt:dt="string">2016-02-16T17:28:56Z</DateUtc></FrequencyChange></FrequencyChanges></Clock>\n	Hungry_Donkey_bar_English_2-132-1	60.018	-97	1.0.0.18	1	1454045346	Standard	2.0.10.353	2.0.10.353	02-16-2016	2/16/2016 5:28:56 PM	12:28:56	2.0.10.248	13	Bar63-37.bmp	60	4	?	10r_4g.bmp	0r_4g.bmp	2r_2g.bmp	0r_2g.bmp				0r_2g.bmp	TrialProc	TrialList	0	cvbn	-999999	16	156895	0	n	2294	159189	38	-25	13	2	12	1	-2	3	2	13	-10	0	-2	0	4	4	2	2	0	2
Hungry_Donkey_bar_English_2	132	1	<?xml version="1.0"?>\n<Clock xmlns:dt="urn:schemas-microsoft-com:datatypes"><Description dt:dt="string">E-Prime Primary Realtime Clock</Description><StartTime><Timestamp dt:dt="int">0</Timestamp><DateUtc dt:dt="string">2016-02-16T17:28:56Z</DateUtc></StartTime><FrequencyChanges><FrequencyChange><Frequency dt:dt="r8">3507724</Frequency><Timestamp dt:dt="r8">2956390863675</Timestamp><Current dt:dt="r8">0</Current><DateUtc dt:dt="string">2016-02-16T17:28:56Z</DateUtc></FrequencyChange></FrequencyChanges></Clock>\n	Hungry_Donkey_bar_English_2-132-1	60.018	-97	1.0.0.18	1	1454045346	Standard	2.0.10.353	2.0.10.353	02-16-2016	2/16/2016 5:28:56 PM	12:28:56	2.0.10.248	14	Bar63-37.bmp	63	2	?	0r_4g.bmp	0r_4g.bmp	0r_2g.bmp	0r_2g.bmp		0r_4g.bmp			TrialProc	TrialList	0	cvbn	-999999	16	161227	0	v	1338	162565	42	-25	17	2	16	1	-2	10	2	14	0	0	0	0	4	4	2	2	0	4
Hungry_Donkey_bar_English_2	132	1	<?xml version="1.0"?>\n<Clock xmlns:dt="urn:schemas-microsoft-com:datatypes"><Description dt:dt="string">E-Prime Primary Realtime Clock</Description><StartTime><Timestamp dt:dt="int">0</Timestamp><DateUtc dt:dt="string">2016-02-16T17:28:56Z</DateUtc></StartTime><FrequencyChanges><FrequencyChange><Frequency dt:dt="r8">3507724</Frequency><Timestamp dt:dt="r8">2956390863675</Timestamp><Current dt:dt="r8">0</Current><DateUtc dt:dt="string">2016-02-16T17:28:56Z</DateUtc></FrequencyChange></FrequencyChanges></Clock>\n	Hungry_Donkey_bar_English_2-132-1	60.018	-97	1.0.0.18	1	1454045346	Standard	2.0.10.353	2.0.10.353	02-16-2016	2/16/2016 5:28:56 PM	12:28:56	2.0.10.248	15	Bar63-37.bmp	57	1	?	10r_4g.bmp	0r_4g.bmp	2r_2g.bmp	0r_2g.bmp	10r_4g.bmp				TrialProc	TrialList	0	cvbn	-999999	16	164593	0	c	1028	165621	46	-35	11	-4	16	1	-2	2	2	15	-10	0	-2	0	4	4	2	2	-10	4
Hungry_Donkey_bar_English_2	132	1	<?xml version="1.0"?>\n<Clock xmlns:dt="urn:schemas-microsoft-com:datatypes"><Description dt:dt="string">E-Prime Primary Realtime Clock</Description><StartTime><Timestamp dt:dt="int">0</Timestamp><DateUtc dt:dt="string">2016-02-16T17:28:56Z</DateUtc></StartTime><FrequencyChanges><FrequencyChange><Frequency dt:dt="r8">3507724</Frequency><Timestamp dt:dt="r8">2956390863675</Timestamp><Current dt:dt="r8">0</Current><DateUtc dt:dt="string">2016-02-16T17:28:56Z</DateUtc></FrequencyChange></FrequencyChanges></Clock>\n	Hungry_Donkey_bar_English_2-132-1	60.018	-97	1.0.0.18	1	1454045346	Standard	2.0.10.353	2.0.10.353	02-16-2016	2/16/2016 5:28:56 PM	12:28:56	2.0.10.248	16	Bar50-50.bmp	56	3	?	10r_4g.bmp	0r_4g.bmp	2r_2g.bmp	0r_2g.bmp			2r_2g.bmp		TrialProc	TrialList	0	cvbn	-999999	16	167659	0	b	1114	168773	48	-37	11	-4	16	1	-2	4	2	16	-10	0	-2	0	4	4	2	2	-2	2
Hungry_Donkey_bar_English_2	132	1	<?xml version="1.0"?>\n<Clock xmlns:dt="urn:schemas-microsoft-com:datatypes"><Description dt:dt="string">E-Prime Primary Realtime Clock</Description><StartTime><Timestamp dt:dt="int">0</Timestamp><DateUtc dt:dt="string">2016-02-16T17:28:56Z</DateUtc></StartTime><FrequencyChanges><FrequencyChange><Frequency dt:dt="r8">3507724</Frequency><Timestamp dt:dt="r8">2956390863675</Timestamp><Current dt:dt="r8">0</Current><DateUtc dt:dt="string">2016-02-16T17:28:56Z</DateUtc></FrequencyChange></FrequencyChanges></Clock>\n	Hungry_Donkey_bar_English_2-132-1	60.018	-97	1.0.0.18	1	1454045346	Standard	2.0.10.353	2.0.10.353	02-16-2016	2/16/2016 5:28:56 PM	12:28:56	2.0.10.248	17	Bar63-37.bmp	57	4	?	0r_4g.bmp	0r_4g.bmp	0r_2g.bmp	0r_2g.bmp				0r_2g.bmp	TrialProc	TrialList	0	cvbn	-999999	16	170808	0	n	541	171349	50	-37	13	-4	16	1	0	9	2	17	0	0	0	0	4	4	2	2	0	2
Hungry_Donkey_bar_English_2	132	1	<?xml version="1.0"?>\n<Clock xmlns:dt="urn:schemas-microsoft-com:datatypes"><Description dt:dt="string">E-Prime Primary Realtime Clock</Description><StartTime><Timestamp dt:dt="int">0</Timestamp><DateUtc dt:dt="string">2016-02-16T17:28:56Z</DateUtc></StartTime><FrequencyChanges><FrequencyChange><Frequency dt:dt="r8">3507724</Frequency><Timestamp dt:dt="r8">2956390863675</Timestamp><Current dt:dt="r8">0</Current><DateUtc dt:dt="string">2016-02-16T17:28:56Z</DateUtc></FrequencyChange></FrequencyChanges></Clock>\n	Hungry_Donkey_bar_English_2-132-1	60.018	-97	1.0.0.18	1	1454045346	Standard	2.0.10.353	2.0.10.353	02-16-2016	2/16/2016 5:28:56 PM	12:28:56	2.0.10.248	18	Bar50-50.bmp	53	4	?	8r_4g.bmp	50r_4g.bmp	1r_2g.bmp	10r_2g.bmp				10r_2g.bmp	TrialProc	TrialList	0	cvbn	-999999	16	173374	0	n	2278	175652	52	-47	5	-4	16	1	-8	1	2	18	-8	-50	-1	-10	4	4	2	2	-10	2
Hungry_Donkey_bar_English_2	132	1	<?xml version="1.0"?>\n<Clock xmlns:dt="urn:schemas-microsoft-com:datatypes"><Description dt:dt="string">E-Prime Primary Realtime Clock</Description><StartTime><Timestamp dt:dt="int">0</Timestamp><DateUtc dt:dt="string">2016-02-16T17:28:56Z</DateUtc></StartTime><FrequencyChanges><FrequencyChange><Frequency dt:dt="r8">3507724</Frequency><Timestamp dt:dt="r8">2956390863675</Timestamp><Current dt:dt="r8">0</Current><DateUtc dt:dt="string">2016-02-16T17:28:56Z</DateUtc></FrequencyChange></FrequencyChanges></Clock>\n	Hungry_Donkey_bar_English_2-132-1	60.018	-97	1.0.0.18	1	1454045346	Standard	2.0.10.353	2.0.10.353	02-16-2016	2/16/2016 5:28:56 PM	12:28:56	2.0.10.248	19	Bar50-50.bmp	53	3	?	0r_4g.bmp	0r_4g.bmp	0r_2g.bmp	0r_2g.bmp			0r_2g.bmp		TrialProc	TrialList	0	cvbn	-999999	16	177689	0	b	939	178628	54	-47	7	-4	16	3	-8	7	2	19	0	0	0	0	4	4	2	2	0	2
Hungry_Donkey_bar_English_2	132	1	<?xml version="1.0"?>\n<Clock xmlns:dt="urn:schemas-microsoft-com:datatypes"><Description dt:dt="string">E-Prime Primary Realtime Clock</Description><StartTime><Timestamp dt:dt="int">0</Timestamp><DateUtc dt:dt="string">2016-02-16T17:28:56Z</DateUtc></StartTime><FrequencyChanges><FrequencyChange><Frequency dt:dt="r8">3507724</Frequency><Timestamp dt:dt="r8">2956390863675</Timestamp><Current dt:dt="r8">0</Current><DateUtc dt:dt="string">2016-02-16T17:28:56Z</DateUtc></FrequencyChange></FrequencyChanges></Clock>\n	Hungry_Donkey_bar_English_2-132-1	60.018	-97	1.0.0.18	1	1454045346	Standard	2.0.10.353	2.0.10.353	02-16-2016	2/16/2016 5:28:56 PM	12:28:56	2.0.10.248	20	Bar50-50.bmp	55	2	?	0r_4g.bmp	0r_4g.bmp	0r_2g.bmp	0r_2g.bmp		0r_4g.bmp			TrialProc	TrialList	0	cvbn	-999999	16	180655	0	v	661	181316	58	-47	11	-4	20	3	-8	6	2	20	0	0	0	0	4	4	2	2	0	4
Hungry_Donkey_bar_English_2	132	1	<?xml version="1.0"?>\n<Clock xmlns:dt="urn:schemas-microsoft-com:datatypes"><Description dt:dt="string">E-Prime Primary Realtime Clock</Description><StartTime><Timestamp dt:dt="int">0</Timestamp><DateUtc dt:dt="string">2016-02-16T17:28:56Z</DateUtc></StartTime><FrequencyChanges><FrequencyChange><Frequency dt:dt="r8">3507724</Frequency><Timestamp dt:dt="r8">2956390863675</Timestamp><Current dt:dt="r8">0</Current><DateUtc dt:dt="string">2016-02-16T17:28:56Z</DateUtc></FrequencyChange></FrequencyChanges></Clock>\n	Hungry_Donkey_bar_English_2-132-1	60.018	-97	1.0.0.18	1	1454045346	Standard	2.0.10.353	2.0.10.353	02-16-2016	2/16/2016 5:28:56 PM	12:28:56	2.0.10.248	21	Bar50-50.bmp	51	1	?	12r_4g.bmp	0r_4g.bmp	3r_2g.bmp	0r_2g.bmp	12r_4g.bmp				TrialProc	TrialList	0	cvbn	-999999	16	183354	0	c	410	183764	62	-59	3	-12	20	3	-8	5	3	21	-12	0	-3	0	4	4	2	2	-12	4
Hungry_Donkey_bar_English_2	132	1	<?xml version="1.0"?>\n<Clock xmlns:dt="urn:schemas-microsoft-com:datatypes"><Description dt:dt="string">E-Prime Primary Realtime Clock</Description><StartTime><Timestamp dt:dt="int">0</Timestamp><DateUtc dt:dt="string">2016-02-16T17:28:56Z</DateUtc></StartTime><FrequencyChanges><FrequencyChange><Frequency dt:dt="r8">3507724</Frequency><Timestamp dt:dt="r8">2956390863675</Timestamp><Current dt:dt="r8">0</Current><DateUtc dt:dt="string">2016-02-16T17:28:56Z</DateUtc></FrequencyChange></FrequencyChanges></Clock>\n	Hungry_Donkey_bar_English_2-132-1	60.018	-97	1.0.0.18	1	1454045346	Standard	2.0.10.353	2.0.10.353	02-16-2016	2/16/2016 5:28:56 PM	12:28:56	2.0.10.248	22	Bar50-50.bmp	52	4	?	0r_4g.bmp	0r_4g.bmp	0r_2g.bmp	0r_2g.bmp				0r_2g.bmp	TrialProc	TrialList	0	cvbn	-999999	16	185803	0	n	905	186708	64	-59	5	-12	20	3	-6	9	3	22	0	0	0	0	4	4	2	2	0	2
Hungry_Donkey_bar_English_2	132	1	<?xml version="1.0"?>\n<Clock xmlns:dt="urn:schemas-microsoft-com:datatypes"><Description dt:dt="string">E-Prime Primary Realtime Clock</Description><StartTime><Timestamp dt:dt="int">0</Timestamp><DateUtc dt:dt="string">2016-02-16T17:28:56Z</DateUtc></StartTime><FrequencyChanges><FrequencyChange><Frequency dt:dt="r8">3507724</Frequency><Timestamp dt:dt="r8">2956390863675</Timestamp><Current dt:dt="r8">0</Current><DateUtc dt:dt="string">2016-02-16T17:28:56Z</DateUtc></FrequencyChange></FrequencyChanges></Clock>\n	Hungry_Donkey_bar_English_2-132-1	60.018	-97	1.0.0.18	1	1454045346	Standard	2.0.10.353	2.0.10.353	02-16-2016	2/16/2016 5:28:56 PM	12:28:56	2.0.10.248	23	Bar50-50.bmp	53	3	?	0r_4g.bmp	0r_4g.bmp	0r_2g.bmp	0r_2g.bmp			0r_2g.bmp		TrialProc	TrialList	0	cvbn	-999999	16	188736	0	b	387	189123	66	-59	7	-12	20	5	-6	8	3	23	0	0	0	0	4	4	2	2	0	2
Hungry_Donkey_bar_English_2	132	1	<?xml version="1.0"?>\n<Clock xmlns:dt="urn:schemas-microsoft-com:datatypes"><Description dt:dt="string">E-Prime Primary Realtime Clock</Description><StartTime><Timestamp dt:dt="int">0</Timestamp><DateUtc dt:dt="string">2016-02-16T17:28:56Z</DateUtc></StartTime><FrequencyChanges><FrequencyChange><Frequency dt:dt="r8">3507724</Frequency><Timestamp dt:dt="r8">2956390863675</Timestamp><Current dt:dt="r8">0</Current><DateUtc dt:dt="string">2016-02-16T17:28:56Z</DateUtc></FrequencyChange></FrequencyChanges></Clock>\n	Hungry_Donkey_bar_English_2-132-1	60.018	-97	1.0.0.18	1	1454045346	Standard	2.0.10.353	2.0.10.353	02-16-2016	2/16/2016 5:28:56 PM	12:28:56	2.0.10.248	24	Bar50-50.bmp	54	2	?	10r_4g.bmp	0r_4g.bmp	2r_2g.bmp	0r_2g.bmp		0r_4g.bmp			TrialProc	TrialList	0	cvbn	-999999	16	191152	0	v	403	191555	70	-59	11	-12	24	5	-6	3	3	24	-10	0	-2	0	4	4	2	2	0	4
Hungry_Donkey_bar_English_2	132	1	<?xml version="1.0"?>\n<Clock xmlns:dt="urn:schemas-microsoft-com:datatypes"><Description dt:dt="string">E-Prime Primary Realtime Clock</Description><StartTime><Timestamp dt:dt="int">0</Timestamp><DateUtc dt:dt="string">2016-02-16T17:28:56Z</DateUtc></StartTime><FrequencyChanges><FrequencyChange><Frequency dt:dt="r8">3507724</Frequency><Timestamp dt:dt="r8">2956390863675</Timestamp><Current dt:dt="r8">0</Current><DateUtc dt:dt="string">2016-02-16T17:28:56Z</DateUtc></FrequencyChange></FrequencyChanges></Clock>\n	Hungry_Donkey_bar_English_2-132-1	60.018	-97	1.0.0.18	1	1454045346	Standard	2.0.10.353	2.0.10.353	02-16-2016	2/16/2016 5:28:56 PM	12:28:56	2.0.10.248	25	Bar50-50.bmp	55	3	?	0r_4g.bmp	0r_4g.bmp	0r_2g.bmp	0r_2g.bmp			0r_2g.bmp		TrialProc	TrialList	0	cvbn	-999999	16	193584	0	b	547	194131	72	-59	13	-12	24	7	-6	10	3	25	0	0	0	0	4	4	2	2	0	2
Hungry_Donkey_bar_English_2	132	1	<?xml version="1.0"?>\n<Clock xmlns:dt="urn:schemas-microsoft-com:datatypes"><Description dt:dt="string">E-Prime Primary Realtime Clock</Description><StartTime><Timestamp dt:dt="int">0</Timestamp><DateUtc dt:dt="string">2016-02-16T17:28:56Z</DateUtc></StartTime><FrequencyChanges><FrequencyChange><Frequency dt:dt="r8">3507724</Frequency><Timestamp dt:dt="r8">2956390863675</Timestamp><Current dt:dt="r8">0</Current><DateUtc dt:dt="string">2016-02-16T17:28:56Z</DateUtc></FrequencyChange></FrequencyChanges></Clock>\n	Hungry_Donkey_bar_English_2-132-1	60.018	-97	1.0.0.18	1	1454045346	Standard	2.0.10.353	2.0.10.353	02-16-2016	2/16/2016 5:28:56 PM	12:28:56	2.0.10.248	26	Bar50-50.bmp	56	4	?	10r_4g.bmp	0r_4g.bmp	2r_2g.bmp	0r_2g.bmp				0r_2g.bmp	TrialProc	TrialList	0	cvbn	-999999	16	196167	0	n	732	196899	74	-59	15	-12	24	7	-4	4	3	26	-10	0	-2	0	4	4	2	2	0	2
Hungry_Donkey_bar_English_2	132	1	<?xml version="1.0"?>\n<Clock xmlns:dt="urn:schemas-microsoft-com:datatypes"><Description dt:dt="string">E-Prime Primary Realtime Clock</Description><StartTime><Timestamp dt:dt="int">0</Timestamp><DateUtc dt:dt="string">2016-02-16T17:28:56Z</DateUtc></StartTime><FrequencyChanges><FrequencyChange><Frequency dt:dt="r8">3507724</Frequency><Timestamp dt:dt="r8">2956390863675</Timestamp><Current dt:dt="r8">0</Current><DateUtc dt:dt="string">2016-02-16T17:28:56Z</DateUtc></FrequencyChange></FrequencyChanges></Clock>\n	Hungry_Donkey_bar_English_2-132-1	60.018	-97	1.0.0.18	1	1454045346	Standard	2.0.10.353	2.0.10.353	02-16-2016	2/16/2016 5:28:56 PM	12:28:56	2.0.10.248	27	Bar50-50.bmp	56	3	?	8r_4g.bmp	50r_4g.bmp	1r_2g.bmp	10r_2g.bmp			1r_2g.bmp		TrialProc	TrialList	0	cvbn	-999999	16	198933	0	b	638	199571	76	-60	16	-12	24	8	-4	1	3	27	-8	-50	-1	-10	4	4	2	2	-1	2
Hungry_Donkey_bar_English_2	132	1	<?xml version="1.0"?>\n<Clock xmlns:dt="urn:schemas-microsoft-com:datatypes"><Description dt:dt="string">E-Prime Primary Realtime Clock</Description><StartTime><Timestamp dt:dt="int">0</Timestamp><DateUtc dt:dt="string">2016-02-16T17:28:56Z</DateUtc></StartTime><FrequencyChanges><FrequencyChange><Frequency dt:dt="r8">3507724</Frequency><Timestamp dt:dt="r8">2956390863675</Timestamp><Current dt:dt="r8">0</Current><DateUtc dt:dt="string">2016-02-16T17:28:56Z</DateUtc></FrequencyChange></FrequencyChanges></Clock>\n	Hungry_Donkey_bar_English_2-132-1	60.018	-97	1.0.0.18	1	1454045346	Standard	2.0.10.353	2.0.10.353	02-16-2016	2/16/2016 5:28:56 PM	12:28:56	2.0.10.248	28	Bar63-37.bmp	57	4	?	10r_4g.bmp	0r_4g.bmp	2r_2g.bmp	0r_2g.bmp				0r_2g.bmp	TrialProc	TrialList	0	cvbn	-999999	17	201599	0	n	2612	204211	78	-60	18	-12	24	8	-2	2	3	28	-10	0	-2	0	4	4	2	2	0	2
Hungry_Donkey_bar_English_2	132	1	<?xml version="1.0"?>\n<Clock xmlns:dt="urn:schemas-microsoft-com:datatypes"><Description dt:dt="string">E-Prime Primary Realtime Clock</Description><StartTime><Timestamp dt:dt="int">0</Timestamp><DateUtc dt:dt="string">2016-02-16T17:28:56Z</DateUtc></StartTime><FrequencyChanges><FrequencyChange><Frequency dt:dt="r8">3507724</Frequency><Timestamp dt:dt="r8">2956390863675</Timestamp><Current dt:dt="r8">0</Current><DateUtc dt:dt="string">2016-02-16T17:28:56Z</DateUtc></FrequencyChange></FrequencyChanges></Clock>\n	Hungry_Donkey_bar_English_2-132-1	60.018	-97	1.0.0.18	1	1454045346	Standard	2.0.10.353	2.0.10.353	02-16-2016	2/16/2016 5:28:56 PM	12:28:56	2.0.10.248	29	Bar63-37.bmp	58	2	?	0r_4g.bmp	0r_4g.bmp	0r_2g.bmp	0r_2g.bmp		0r_4g.bmp			TrialProc	TrialList	0	cvbn	-999999	16	206247	0	v	1691	207938	82	-60	22	-12	28	8	-2	7	3	29	0	0	0	0	4	4	2	2	0	4
Hungry_Donkey_bar_English_2	132	1	<?xml version="1.0"?>\n<Clock xmlns:dt="urn:schemas-microsoft-com:datatypes"><Description dt:dt="string">E-Prime Primary Realtime Clock</Description><StartTime><Timestamp dt:dt="int">0</Timestamp><DateUtc dt:dt="string">2016-02-16T17:28:56Z</DateUtc></StartTime><FrequencyChanges><FrequencyChange><Frequency dt:dt="r8">3507724</Frequency><Timestamp dt:dt="r8">2956390863675</Timestamp><Current dt:dt="r8">0</Current><DateUtc dt:dt="string">2016-02-16T17:28:56Z</DateUtc></FrequencyChange></FrequencyChanges></Clock>\n	Hungry_Donkey_bar_English_2-132-1	60.018	-97	1.0.0.18	1	1454045346	Standard	2.0.10.353	2.0.10.353	02-16-2016	2/16/2016 5:28:56 PM	12:28:56	2.0.10.248	30	Bar63-37.bmp	58	4	?	0r_4g.bmp	0r_4g.bmp	0r_2g.bmp	0r_2g.bmp				0r_2g.bmp	TrialProc	TrialList	0	cvbn	-999999	16	209979	0	n	2327	212306	84	-60	24	-12	28	8	0	6	3	30	0	0	0	0	4	4	2	2	0	2
Hungry_Donkey_bar_English_2	132	1	<?xml version="1.0"?>\n<Clock xmlns:dt="urn:schemas-microsoft-com:datatypes"><Description dt:dt="string">E-Prime Primary Realtime Clock</Description><StartTime><Timestamp dt:dt="int">0</Timestamp><DateUtc dt:dt="string">2016-02-16T17:28:56Z</DateUtc></StartTime><FrequencyChanges><FrequencyChange><Frequency dt:dt="r8">3507724</Frequency><Timestamp dt:dt="r8">2956390863675</Timestamp><Current dt:dt="r8">0</Current><DateUtc dt:dt="string">2016-02-16T17:28:56Z</DateUtc></FrequencyChange></FrequencyChanges></Clock>\n	Hungry_Donkey_bar_English_2-132-1	60.018	-97	1.0.0.18	1	1454045346	Standard	2.0.10.353	2.0.10.353	02-16-2016	2/16/2016 5:28:56 PM	12:28:56	2.0.10.248	31	Bar63-37.bmp	59	1	?	0r_4g.bmp	0r_4g.bmp	0r_2g.bmp	0r_2g.bmp	0r_4g.bmp				TrialProc	TrialList	0	cvbn	-999999	16	214345	0	c	1609	215954	88	-60	28	-8	28	8	0	10	4	31	0	0	0	0	4	4	2	2	0	4
Hungry_Donkey_bar_English_2	132	1	<?xml version="1.0"?>\n<Clock xmlns:dt="urn:schemas-microsoft-com:datatypes"><Description dt:dt="string">E-Prime Primary Realtime Clock</Description><StartTime><Timestamp dt:dt="int">0</Timestamp><DateUtc dt:dt="string">2016-02-16T17:28:56Z</DateUtc></StartTime><FrequencyChanges><FrequencyChange><Frequency dt:dt="r8">3507724</Frequency><Timestamp dt:dt="r8">2956390863675</Timestamp><Current dt:dt="r8">0</Current><DateUtc dt:dt="string">2016-02-16T17:28:56Z</DateUtc></FrequencyChange></FrequencyChanges></Clock>\n	Hungry_Donkey_bar_English_2-132-1	60.018	-97	1.0.0.18	1	1454045346	Standard	2.0.10.353	2.0.10.353	02-16-2016	2/16/2016 5:28:56 PM	12:28:56	2.0.10.248	32	Bar63-37.bmp	60	4	?	0r_4g.bmp	0r_4g.bmp	0r_2g.bmp	0r_2g.bmp				0r_2g.bmp	TrialProc	TrialList	0	cvbn	-999999	16	217994	0	n	1208	219202	90	-60	30	-8	28	8	2	9	4	32	0	0	0	0	4	4	2	2	0	2
Hungry_Donkey_bar_English_2	132	1	<?xml version="1.0"?>\n<Clock xmlns:dt="urn:schemas-microsoft-com:datatypes"><Description dt:dt="string">E-Prime Primary Realtime Clock</Description><StartTime><Timestamp dt:dt="int">0</Timestamp><DateUtc dt:dt="string">2016-02-16T17:28:56Z</DateUtc></StartTime><FrequencyChanges><FrequencyChange><Frequency dt:dt="r8">3507724</Frequency><Timestamp dt:dt="r8">2956390863675</Timestamp><Current dt:dt="r8">0</Current><DateUtc dt:dt="string">2016-02-16T17:28:56Z</DateUtc></FrequencyChange></FrequencyChanges></Clock>\n	Hungry_Donkey_bar_English_2-132-1	60.018	-97	1.0.0.18	1	1454045346	Standard	2.0.10.353	2.0.10.353	02-16-2016	2/16/2016 5:28:56 PM	12:28:56	2.0.10.248	33	Bar63-37.bmp	61	2	?	0r_4g.bmp	0r_4g.bmp	0r_2g.bmp	0r_2g.bmp		0r_4g.bmp			TrialProc	TrialList	0	cvbn	-999999	16	221243	0	v	4070	225313	94	-60	34	-8	32	8	2	6	4	33	0	0	0	0	4	4	2	2	0	4
Hungry_Donkey_bar_English_2	132	1	<?xml version="1.0"?>\n<Clock xmlns:dt="urn:schemas-microsoft-com:datatypes"><Description dt:dt="string">E-Prime Primary Realtime Clock</Description><StartTime><Timestamp dt:dt="int">0</Timestamp><DateUtc dt:dt="string">2016-02-16T17:28:56Z</DateUtc></StartTime><FrequencyChanges><FrequencyChange><Frequency dt:dt="r8">3507724</Frequency><Timestamp dt:dt="r8">2956390863675</Timestamp><Current dt:dt="r8">0</Current><DateUtc dt:dt="string">2016-02-16T17:28:56Z</DateUtc></FrequencyChange></FrequencyChanges></Clock>\n	Hungry_Donkey_bar_English_2-132-1	60.018	-97	1.0.0.18	1	1454045346	Standard	2.0.10.353	2.0.10.353	02-16-2016	2/16/2016 5:28:56 PM	12:28:56	2.0.10.248	34	Bar63-37.bmp	62	4	?	10r_4g.bmp	0r_4g.bmp	2r_2g.bmp	0r_2g.bmp				0r_2g.bmp	TrialProc	TrialList	0	cvbn	-999999	16	227341	0	n	1828	229169	96	-60	36	-8	32	8	4	3	4	34	-10	0	-2	0	4	4	2	2	0	2
Hungry_Donkey_bar_English_2	132	1	<?xml version="1.0"?>\n<Clock xmlns:dt="urn:schemas-microsoft-com:datatypes"><Description dt:dt="string">E-Prime Primary Realtime Clock</Description><StartTime><Timestamp dt:dt="int">0</Timestamp><DateUtc dt:dt="string">2016-02-16T17:28:56Z</DateUtc></StartTime><FrequencyChanges><FrequencyChange><Frequency dt:dt="r8">3507724</Frequency><Timestamp dt:dt="r8">2956390863675</Timestamp><Current dt:dt="r8">0</Current><DateUtc dt:dt="string">2016-02-16T17:28:56Z</DateUtc></FrequencyChange></FrequencyChanges></Clock>\n	Hungry_Donkey_bar_English_2-132-1	60.018	-97	1.0.0.18	1	1454045346	Standard	2.0.10.353	2.0.10.353	02-16-2016	2/16/2016 5:28:56 PM	12:28:56	2.0.10.248	35	Bar63-37.bmp	59	1	?	10r_4g.bmp	0r_4g.bmp	2r_2g.bmp	0r_2g.bmp	10r_4g.bmp				TrialProc	TrialList	0	cvbn	-999999	16	231206	0	c	971	232177	100	-70	30	-14	32	8	4	4	4	35	-10	0	-2	0	4	4	2	2	-10	4
Hungry_Donkey_bar_English_2	132	1	<?xml version="1.0"?>\n<Clock xmlns:dt="urn:schemas-microsoft-com:datatypes"><Description dt:dt="string">E-Prime Primary Realtime Clock</Description><StartTime><Timestamp dt:dt="int">0</Timestamp><DateUtc dt:dt="string">2016-02-16T17:28:56Z</DateUtc></StartTime><FrequencyChanges><FrequencyChange><Frequency dt:dt="r8">3507724</Frequency><Timestamp dt:dt="r8">2956390863675</Timestamp><Current dt:dt="r8">0</Current><DateUtc dt:dt="string">2016-02-16T17:28:56Z</DateUtc></FrequencyChange></FrequencyChanges></Clock>\n	Hungry_Donkey_bar_English_2-132-1	60.018	-97	1.0.0.18	1	1454045346	Standard	2.0.10.353	2.0.10.353	02-16-2016	2/16/2016 5:28:56 PM	12:28:56	2.0.10.248	36	Bar63-37.bmp	59	3	?	0r_4g.bmp	0r_4g.bmp	0r_2g.bmp	0r_2g.bmp			0r_2g.bmp		TrialProc	TrialList	0	cvbn	-999999	16	234205	0	b	1236	235441	102	-70	32	-14	32	10	4	8	4	36	0	0	0	0	4	4	2	2	0	2
Hungry_Donkey_bar_English_2	132	1	<?xml version="1.0"?>\n<Clock xmlns:dt="urn:schemas-microsoft-com:datatypes"><Description dt:dt="string">E-Prime Primary Realtime Clock</Description><StartTime><Timestamp dt:dt="int">0</Timestamp><DateUtc dt:dt="string">2016-02-16T17:28:56Z</DateUtc></StartTime><FrequencyChanges><FrequencyChange><Frequency dt:dt="r8">3507724</Frequency><Timestamp dt:dt="r8">2956390863675</Timestamp><Current dt:dt="r8">0</Current><DateUtc dt:dt="string">2016-02-16T17:28:56Z</DateUtc></FrequencyChange></FrequencyChanges></Clock>\n	Hungry_Donkey_bar_English_2-132-1	60.018	-97	1.0.0.18	1	1454045346	Standard	2.0.10.353	2.0.10.353	02-16-2016	2/16/2016 5:28:56 PM	12:28:56	2.0.10.248	37	Bar63-37.bmp	60	4	?	0r_4g.bmp	0r_4g.bmp	0r_2g.bmp	0r_2g.bmp				0r_2g.bmp	TrialProc	TrialList	0	cvbn	-999999	16	237471	0	n	1121	238592	104	-70	34	-14	32	10	6	7	4	37	0	0	0	0	4	4	2	2	0	2
Hungry_Donkey_bar_English_2	132	1	<?xml version="1.0"?>\n<Clock xmlns:dt="urn:schemas-microsoft-com:datatypes"><Description dt:dt="string">E-Prime Primary Realtime Clock</Description><StartTime><Timestamp dt:dt="int">0</Timestamp><DateUtc dt:dt="string">2016-02-16T17:28:56Z</DateUtc></StartTime><FrequencyChanges><FrequencyChange><Frequency dt:dt="r8">3507724</Frequency><Timestamp dt:dt="r8">2956390863675</Timestamp><Current dt:dt="r8">0</Current><DateUtc dt:dt="string">2016-02-16T17:28:56Z</DateUtc></FrequencyChange></FrequencyChanges></Clock>\n	Hungry_Donkey_bar_English_2-132-1	60.018	-97	1.0.0.18	1	1454045346	Standard	2.0.10.353	2.0.10.353	02-16-2016	2/16/2016 5:28:56 PM	12:28:56	2.0.10.248	38	Bar50-50.bmp	47	2	?	8r_4g.bmp	50r_4g.bmp	1r_2g.bmp	10r_2g.bmp		50r_4g.bmp			TrialProc	TrialList	0	cvbn	-999999	16	240620	0	v	2100	242720	108	-120	-12	-14	-14	10	6	1	4	38	-8	-50	-1	-10	4	4	2	2	-50	4
Hungry_Donkey_bar_English_2	132	1	<?xml version="1.0"?>\n<Clock xmlns:dt="urn:schemas-microsoft-com:datatypes"><Description dt:dt="string">E-Prime Primary Realtime Clock</Description><StartTime><Timestamp dt:dt="int">0</Timestamp><DateUtc dt:dt="string">2016-02-16T17:28:56Z</DateUtc></StartTime><FrequencyChanges><FrequencyChange><Frequency dt:dt="r8">3507724</Frequency><Timestamp dt:dt="r8">2956390863675</Timestamp><Current dt:dt="r8">0</Current><DateUtc dt:dt="string">2016-02-16T17:28:56Z</DateUtc></FrequencyChange></FrequencyChanges></Clock>\n	Hungry_Donkey_bar_English_2-132-1	60.018	-97	1.0.0.18	1	1454045346	Standard	2.0.10.353	2.0.10.353	02-16-2016	2/16/2016 5:28:56 PM	12:28:56	2.0.10.248	39	Bar50-50.bmp	48	4	?	12r_4g.bmp	0r_4g.bmp	3r_2g.bmp	0r_2g.bmp				0r_2g.bmp	TrialProc	TrialList	0	cvbn	-999999	16	244752	0	n	1040	245792	110	-120	-10	-14	-14	10	8	5	4	39	-12	0	-3	0	4	4	2	2	0	2
Hungry_Donkey_bar_English_2	132	1	<?xml version="1.0"?>\n<Clock xmlns:dt="urn:schemas-microsoft-com:datatypes"><Description dt:dt="string">E-Prime Primary Realtime Clock</Description><StartTime><Timestamp dt:dt="int">0</Timestamp><DateUtc dt:dt="string">2016-02-16T17:28:56Z</DateUtc></StartTime><FrequencyChanges><FrequencyChange><Frequency dt:dt="r8">3507724</Frequency><Timestamp dt:dt="r8">2956390863675</Timestamp><Current dt:dt="r8">0</Current><DateUtc dt:dt="string">2016-02-16T17:28:56Z</DateUtc></FrequencyChange></FrequencyChanges></Clock>\n	Hungry_Donkey_bar_English_2-132-1	60.018	-97	1.0.0.18	1	1454045346	Standard	2.0.10.353	2.0.10.353	02-16-2016	2/16/2016 5:28:56 PM	12:28:56	2.0.10.248	40	Bar50-50.bmp	49	2	?	10r_4g.bmp	0r_4g.bmp	2r_2g.bmp	0r_2g.bmp		0r_4g.bmp			TrialProc	TrialList	0	cvbn	-999999	16	247818	0	v	998	248816	114	-120	-6	-14	-10	10	8	2	4	40	-10	0	-2	0	4	4	2	2	0	4
Hungry_Donkey_bar_English_2	132	1	<?xml version="1.0"?>\n<Clock xmlns:dt="urn:schemas-microsoft-com:datatypes"><Description dt:dt="string">E-Prime Primary Realtime Clock</Description><StartTime><Timestamp dt:dt="int">0</Timestamp><DateUtc dt:dt="string">2016-02-16T17:28:56Z</DateUtc></StartTime><FrequencyChanges><FrequencyChange><Frequency dt:dt="r8">3507724</Frequency><Timestamp dt:dt="r8">2956390863675</Timestamp><Current dt:dt="r8">0</Current><DateUtc dt:dt="string">2016-02-16T17:28:56Z</DateUtc></FrequencyChange></FrequencyChanges></Clock>\n	Hungry_Donkey_bar_English_2-132-1	60.018	-97	1.0.0.18	1	1454045346	Standard	2.0.10.353	2.0.10.353	02-16-2016	2/16/2016 5:28:56 PM	12:28:56	2.0.10.248	41	Bar50-50.bmp	49	4	?	0r_4g.bmp	0r_4g.bmp	0r_2g.bmp	0r_2g.bmp				0r_2g.bmp	TrialProc	TrialList	0	cvbn	-999999	16	250850	0	n	686	251536	116	-120	-4	-14	-10	10	10	8	5	41	0	0	0	0	4	4	2	2	0	2
Hungry_Donkey_bar_English_2	132	1	<?xml version="1.0"?>\n<Clock xmlns:dt="urn:schemas-microsoft-com:datatypes"><Description dt:dt="string">E-Prime Primary Realtime Clock</Description><StartTime><Timestamp dt:dt="int">0</Timestamp><DateUtc dt:dt="string">2016-02-16T17:28:56Z</DateUtc></StartTime><FrequencyChanges><FrequencyChange><Frequency dt:dt="r8">3507724</Frequency><Timestamp dt:dt="r8">2956390863675</Timestamp><Current dt:dt="r8">0</Current><DateUtc dt:dt="string">2016-02-16T17:28:56Z</DateUtc></FrequencyChange></FrequencyChanges></Clock>\n	Hungry_Donkey_bar_English_2-132-1	60.018	-97	1.0.0.18	1	1454045346	Standard	2.0.10.353	2.0.10.353	02-16-2016	2/16/2016 5:28:56 PM	12:28:56	2.0.10.248	42	Bar50-50.bmp	50	2	?	10r_4g.bmp	0r_4g.bmp	2r_2g.bmp	0r_2g.bmp		0r_4g.bmp			TrialProc	TrialList	0	cvbn	-999999	16	253566	0	v	833	254399	120	-120	0	-14	-6	10	10	2	5	42	-10	0	-2	0	4	4	2	2	0	4
Hungry_Donkey_bar_English_2	132	1	<?xml version="1.0"?>\n<Clock xmlns:dt="urn:schemas-microsoft-com:datatypes"><Description dt:dt="string">E-Prime Primary Realtime Clock</Description><StartTime><Timestamp dt:dt="int">0</Timestamp><DateUtc dt:dt="string">2016-02-16T17:28:56Z</DateUtc></StartTime><FrequencyChanges><FrequencyChange><Frequency dt:dt="r8">3507724</Frequency><Timestamp dt:dt="r8">2956390863675</Timestamp><Current dt:dt="r8">0</Current><DateUtc dt:dt="string">2016-02-16T17:28:56Z</DateUtc></FrequencyChange></FrequencyChanges></Clock>\n	Hungry_Donkey_bar_English_2-132-1	60.018	-97	1.0.0.18	1	1454045346	Standard	2.0.10.353	2.0.10.353	02-16-2016	2/16/2016 5:28:56 PM	12:28:56	2.0.10.248	43	Bar50-50.bmp	50	3	?	12r_4g.bmp	0r_4g.bmp	3r_2g.bmp	0r_2g.bmp			3r_2g.bmp		TrialProc	TrialList	0	cvbn	-999999	16	256432	0	b	399	256831	122	-123	-1	-14	-6	9	10	5	5	43	-12	0	-3	0	4	4	2	2	-3	2
Hungry_Donkey_bar_English_2	132	1	<?xml version="1.0"?>\n<Clock xmlns:dt="urn:schemas-microsoft-com:datatypes"><Description dt:dt="string">E-Prime Primary Realtime Clock</Description><StartTime><Timestamp dt:dt="int">0</Timestamp><DateUtc dt:dt="string">2016-02-16T17:28:56Z</DateUtc></StartTime><FrequencyChanges><FrequencyChange><Frequency dt:dt="r8">3507724</Frequency><Timestamp dt:dt="r8">2956390863675</Timestamp><Current dt:dt="r8">0</Current><DateUtc dt:dt="string">2016-02-16T17:28:56Z</DateUtc></FrequencyChange></FrequencyChanges></Clock>\n	Hungry_Donkey_bar_English_2-132-1	60.018	-97	1.0.0.18	1	1454045346	Standard	2.0.10.353	2.0.10.353	02-16-2016	2/16/2016 5:28:56 PM	12:28:56	2.0.10.248	44	Bar50-50.bmp	50	4	?	10r_4g.bmp	0r_4g.bmp	2r_2g.bmp	0r_2g.bmp				0r_2g.bmp	TrialProc	TrialList	0	cvbn	-999999	16	258865	0	n	398	259263	124	-123	1	-14	-6	9	12	4	5	44	-10	0	-2	0	4	4	2	2	0	2
Hungry_Donkey_bar_English_2	132	1	<?xml version="1.0"?>\n<Clock xmlns:dt="urn:schemas-microsoft-com:datatypes"><Description dt:dt="string">E-Prime Primary Realtime Clock</Description><StartTime><Timestamp dt:dt="int">0</Timestamp><DateUtc dt:dt="string">2016-02-16T17:28:56Z</DateUtc></StartTime><FrequencyChanges><FrequencyChange><Frequency dt:dt="r8">3507724</Frequency><Timestamp dt:dt="r8">2956390863675</Timestamp><Current dt:dt="r8">0</Current><DateUtc dt:dt="string">2016-02-16T17:28:56Z</DateUtc></FrequencyChange></FrequencyChanges></Clock>\n	Hungry_Donkey_bar_English_2-132-1	60.018	-97	1.0.0.18	1	1454045346	Standard	2.0.10.353	2.0.10.353	02-16-2016	2/16/2016 5:28:56 PM	12:28:56	2.0.10.248	45	Bar50-50.bmp	50	3	?	10r_4g.bmp	0r_4g.bmp	2r_2g.bmp	0r_2g.bmp			2r_2g.bmp		TrialProc	TrialList	0	cvbn	-999999	16	261297	0	b	622	261919	126	-125	1	-14	-6	9	12	3	5	45	-10	0	-2	0	4	4	2	2	-2	2
Hungry_Donkey_bar_English_2	132	1	<?xml version="1.0"?>\n<Clock xmlns:dt="urn:schemas-microsoft-com:datatypes"><Description dt:dt="string">E-Prime Primary Realtime Clock</Description><StartTime><Timestamp dt:dt="int">0</Timestamp><DateUtc dt:dt="string">2016-02-16T17:28:56Z</DateUtc></StartTime><FrequencyChanges><FrequencyChange><Frequency dt:dt="r8">3507724</Frequency><Timestamp dt:dt="r8">2956390863675</Timestamp><Current dt:dt="r8">0</Current><DateUtc dt:dt="string">2016-02-16T17:28:56Z</DateUtc></FrequencyChange></FrequencyChanges></Clock>\n	Hungry_Donkey_bar_English_2-132-1	60.018	-97	1.0.0.18	1	1454045346	Standard	2.0.10.353	2.0.10.353	02-16-2016	2/16/2016 5:28:56 PM	12:28:56	2.0.10.248	46	Bar50-50.bmp	51	4	?	0r_4g.bmp	0r_4g.bmp	0r_2g.bmp	0r_2g.bmp				0r_2g.bmp	TrialProc	TrialList	0	cvbn	-999999	17	263947	0	n	724	264671	128	-125	3	-14	-6	9	14	6	5	46	0	0	0	0	4	4	2	2	0	2
Hungry_Donkey_bar_English_2	132	1	<?xml version="1.0"?>\n<Clock xmlns:dt="urn:schemas-microsoft-com:datatypes"><Description dt:dt="string">E-Prime Primary Realtime Clock</Description><StartTime><Timestamp dt:dt="int">0</Timestamp><DateUtc dt:dt="string">2016-02-16T17:28:56Z</DateUtc></StartTime><FrequencyChanges><FrequencyChange><Frequency dt:dt="r8">3507724</Frequency><Timestamp dt:dt="r8">2956390863675</Timestamp><Current dt:dt="r8">0</Current><DateUtc dt:dt="string">2016-02-16T17:28:56Z</DateUtc></FrequencyChange></FrequencyChanges></Clock>\n	Hungry_Donkey_bar_English_2-132-1	60.018	-97	1.0.0.18	1	1454045346	Standard	2.0.10.353	2.0.10.353	02-16-2016	2/16/2016 5:28:56 PM	12:28:56	2.0.10.248	47	Bar50-50.bmp	50	1	?	8r_4g.bmp	50r_4g.bmp	1r_2g.bmp	10r_2g.bmp	8r_4g.bmp				TrialProc	TrialList	0	cvbn	-999999	16	266696	0	c	855	267551	132	-133	-1	-18	-6	9	14	1	5	47	-8	-50	-1	-10	4	4	2	2	-8	4
Hungry_Donkey_bar_English_2	132	1	<?xml version="1.0"?>\n<Clock xmlns:dt="urn:schemas-microsoft-com:datatypes"><Description dt:dt="string">E-Prime Primary Realtime Clock</Description><StartTime><Timestamp dt:dt="int">0</Timestamp><DateUtc dt:dt="string">2016-02-16T17:28:56Z</DateUtc></StartTime><FrequencyChanges><FrequencyChange><Frequency dt:dt="r8">3507724</Frequency><Timestamp dt:dt="r8">2956390863675</Timestamp><Current dt:dt="r8">0</Current><DateUtc dt:dt="string">2016-02-16T17:28:56Z</DateUtc></FrequencyChange></FrequencyChanges></Clock>\n	Hungry_Donkey_bar_English_2-132-1	60.018	-97	1.0.0.18	1	1454045346	Standard	2.0.10.353	2.0.10.353	02-16-2016	2/16/2016 5:28:56 PM	12:28:56	2.0.10.248	48	Bar50-50.bmp	51	2	?	0r_4g.bmp	0r_4g.bmp	0r_2g.bmp	0r_2g.bmp		0r_4g.bmp			TrialProc	TrialList	0	cvbn	-999999	16	269578	0	v	228	269806	136	-133	3	-18	-2	9	14	10	5	48	0	0	0	0	4	4	2	2	0	4
Hungry_Donkey_bar_English_2	132	1	<?xml version="1.0"?>\n<Clock xmlns:dt="urn:schemas-microsoft-com:datatypes"><Description dt:dt="string">E-Prime Primary Realtime Clock</Description><StartTime><Timestamp dt:dt="int">0</Timestamp><DateUtc dt:dt="string">2016-02-16T17:28:56Z</DateUtc></StartTime><FrequencyChanges><FrequencyChange><Frequency dt:dt="r8">3507724</Frequency><Timestamp dt:dt="r8">2956390863675</Timestamp><Current dt:dt="r8">0</Current><DateUtc dt:dt="string">2016-02-16T17:28:56Z</DateUtc></FrequencyChange></FrequencyChanges></Clock>\n	Hungry_Donkey_bar_English_2-132-1	60.018	-97	1.0.0.18	1	1454045346	Standard	2.0.10.353	2.0.10.353	02-16-2016	2/16/2016 5:28:56 PM	12:28:56	2.0.10.248	49	Bar50-50.bmp	51	2	?	0r_4g.bmp	0r_4g.bmp	0r_2g.bmp	0r_2g.bmp		0r_4g.bmp			TrialProc	TrialList	0	cvbn	-999999	16	271844	0	v	426	272270	140	-133	7	-18	2	9	14	7	5	49	0	0	0	0	4	4	2	2	0	4
Hungry_Donkey_bar_English_2	132	1	<?xml version="1.0"?>\n<Clock xmlns:dt="urn:schemas-microsoft-com:datatypes"><Description dt:dt="string">E-Prime Primary Realtime Clock</Description><StartTime><Timestamp dt:dt="int">0</Timestamp><DateUtc dt:dt="string">2016-02-16T17:28:56Z</DateUtc></StartTime><FrequencyChanges><FrequencyChange><Frequency dt:dt="r8">3507724</Frequency><Timestamp dt:dt="r8">2956390863675</Timestamp><Current dt:dt="r8">0</Current><DateUtc dt:dt="string">2016-02-16T17:28:56Z</DateUtc></FrequencyChange></FrequencyChanges></Clock>\n	Hungry_Donkey_bar_English_2-132-1	60.018	-97	1.0.0.18	1	1454045346	Standard	2.0.10.353	2.0.10.353	02-16-2016	2/16/2016 5:28:56 PM	12:28:56	2.0.10.248	50	Bar50-50.bmp	52	2	?	0r_4g.bmp	0r_4g.bmp	0r_2g.bmp	0r_2g.bmp		0r_4g.bmp			TrialProc	TrialList	0	cvbn	-999999	16	274310	0	v	344	274654	144	-133	11	-18	6	9	14	9	5	50	0	0	0	0	4	4	2	2	0	4
Hungry_Donkey_bar_English_2	132	1	<?xml version="1.0"?>\n<Clock xmlns:dt="urn:schemas-microsoft-com:datatypes"><Description dt:dt="string">E-Prime Primary Realtime Clock</Description><StartTime><Timestamp dt:dt="int">0</Timestamp><DateUtc dt:dt="string">2016-02-16T17:28:56Z</DateUtc></StartTime><FrequencyChanges><FrequencyChange><Frequency dt:dt="r8">3507724</Frequency><Timestamp dt:dt="r8">2956390863675</Timestamp><Current dt:dt="r8">0</Current><DateUtc dt:dt="string">2016-02-16T17:28:56Z</DateUtc></FrequencyChange></FrequencyChanges></Clock>\n	Hungry_Donkey_bar_English_2-132-1	60.018	-97	1.0.0.18	1	1454045346	Standard	2.0.10.353	2.0.10.353	02-16-2016	2/16/2016 5:28:56 PM	12:28:56	2.0.10.248	51	Bar50-50.bmp	53	2	?	10r_4g.bmp	0r_4g.bmp	2r_2g.bmp	0r_2g.bmp		0r_4g.bmp			TrialProc	TrialList	0	cvbn	-999999	16	276693	0	v	281	276974	148	-133	15	-18	10	9	14	4	6	51	-10	0	-2	0	4	4	2	2	0	4
Hungry_Donkey_bar_English_2	132	1	<?xml version="1.0"?>\n<Clock xmlns:dt="urn:schemas-microsoft-com:datatypes"><Description dt:dt="string">E-Prime Primary Realtime Clock</Description><StartTime><Timestamp dt:dt="int">0</Timestamp><DateUtc dt:dt="string">2016-02-16T17:28:56Z</DateUtc></StartTime><FrequencyChanges><FrequencyChange><Frequency dt:dt="r8">3507724</Frequency><Timestamp dt:dt="r8">2956390863675</Timestamp><Current dt:dt="r8">0</Current><DateUtc dt:dt="string">2016-02-16T17:28:56Z</DateUtc></FrequencyChange></FrequencyChanges></Clock>\n	Hungry_Donkey_bar_English_2-132-1	60.018	-97	1.0.0.18	1	1454045346	Standard	2.0.10.353	2.0.10.353	02-16-2016	2/16/2016 5:28:56 PM	12:28:56	2.0.10.248	52	Bar50-50.bmp	45	2	?	8r_4g.bmp	50r_4g.bmp	1r_2g.bmp	10r_2g.bmp		50r_4g.bmp			TrialProc	TrialList	0	cvbn	-999999	16	279009	0	v	157	279166	152	-183	-31	-18	-36	9	14	1	6	52	-8	-50	-1	-10	4	4	2	2	-50	4
Hungry_Donkey_bar_English_2	132	1	<?xml version="1.0"?>\n<Clock xmlns:dt="urn:schemas-microsoft-com:datatypes"><Description dt:dt="string">E-Prime Primary Realtime Clock</Description><StartTime><Timestamp dt:dt="int">0</Timestamp><DateUtc dt:dt="string">2016-02-16T17:28:56Z</DateUtc></StartTime><FrequencyChanges><FrequencyChange><Frequency dt:dt="r8">3507724</Frequency><Timestamp dt:dt="r8">2956390863675</Timestamp><Current dt:dt="r8">0</Current><DateUtc dt:dt="string">2016-02-16T17:28:56Z</DateUtc></FrequencyChange></FrequencyChanges></Clock>\n	Hungry_Donkey_bar_English_2-132-1	60.018	-97	1.0.0.18	1	1454045346	Standard	2.0.10.353	2.0.10.353	02-16-2016	2/16/2016 5:28:56 PM	12:28:56	2.0.10.248	53	Bar50-50.bmp	46	2	?	10r_4g.bmp	0r_4g.bmp	2r_2g.bmp	0r_2g.bmp		0r_4g.bmp			TrialProc	TrialList	0	cvbn	-999999	16	281191	0	v	407	281598	156	-183	-27	-18	-32	9	14	2	6	53	-10	0	-2	0	4	4	2	2	0	4
Hungry_Donkey_bar_English_2	132	1	<?xml version="1.0"?>\n<Clock xmlns:dt="urn:schemas-microsoft-com:datatypes"><Description dt:dt="string">E-Prime Primary Realtime Clock</Description><StartTime><Timestamp dt:dt="int">0</Timestamp><DateUtc dt:dt="string">2016-02-16T17:28:56Z</DateUtc></StartTime><FrequencyChanges><FrequencyChange><Frequency dt:dt="r8">3507724</Frequency><Timestamp dt:dt="r8">2956390863675</Timestamp><Current dt:dt="r8">0</Current><DateUtc dt:dt="string">2016-02-16T17:28:56Z</DateUtc></FrequencyChange></FrequencyChanges></Clock>\n	Hungry_Donkey_bar_English_2-132-1	60.018	-97	1.0.0.18	1	1454045346	Standard	2.0.10.353	2.0.10.353	02-16-2016	2/16/2016 5:28:56 PM	12:28:56	2.0.10.248	54	Bar50-50.bmp	47	2	?	0r_4g.bmp	0r_4g.bmp	0r_2g.bmp	0r_2g.bmp		0r_4g.bmp			TrialProc	TrialList	0	cvbn	-999999	16	283624	0	v	38	283662	160	-183	-23	-18	-28	9	14	9	6	54	0	0	0	0	4	4	2	2	0	4
Hungry_Donkey_bar_English_2	132	1	<?xml version="1.0"?>\n<Clock xmlns:dt="urn:schemas-microsoft-com:datatypes"><Description dt:dt="string">E-Prime Primary Realtime Clock</Description><StartTime><Timestamp dt:dt="int">0</Timestamp><DateUtc dt:dt="string">2016-02-16T17:28:56Z</DateUtc></StartTime><FrequencyChanges><FrequencyChange><Frequency dt:dt="r8">3507724</Frequency><Timestamp dt:dt="r8">2956390863675</Timestamp><Current dt:dt="r8">0</Current><DateUtc dt:dt="string">2016-02-16T17:28:56Z</DateUtc></FrequencyChange></FrequencyChanges></Clock>\n	Hungry_Donkey_bar_English_2-132-1	60.018	-97	1.0.0.18	1	1454045346	Standard	2.0.10.353	2.0.10.353	02-16-2016	2/16/2016 5:28:56 PM	12:28:56	2.0.10.248	55	Bar50-50.bmp	47	4	?	0r_4g.bmp	0r_4g.bmp	0r_2g.bmp	0r_2g.bmp				0r_2g.bmp	TrialProc	TrialList	0	cvbn	-999999	16	285690	0	n	131	285821	162	-183	-21	-18	-28	9	16	8	6	55	0	0	0	0	4	4	2	2	0	2
Hungry_Donkey_bar_English_2	132	1	<?xml version="1.0"?>\n<Clock xmlns:dt="urn:schemas-microsoft-com:datatypes"><Description dt:dt="string">E-Prime Primary Realtime Clock</Description><StartTime><Timestamp dt:dt="int">0</Timestamp><DateUtc dt:dt="string">2016-02-16T17:28:56Z</DateUtc></StartTime><FrequencyChanges><FrequencyChange><Frequency dt:dt="r8">3507724</Frequency><Timestamp dt:dt="r8">2956390863675</Timestamp><Current dt:dt="r8">0</Current><DateUtc dt:dt="string">2016-02-16T17:28:56Z</DateUtc></FrequencyChange></FrequencyChanges></Clock>\n	Hungry_Donkey_bar_English_2-132-1	60.018	-97	1.0.0.18	1	1454045346	Standard	2.0.10.353	2.0.10.353	02-16-2016	2/16/2016 5:28:56 PM	12:28:56	2.0.10.248	56	Bar50-50.bmp	47	4	?	0r_4g.bmp	0r_4g.bmp	0r_2g.bmp	0r_2g.bmp				0r_2g.bmp	TrialProc	TrialList	0	cvbn	-999999	16	287856	0	n	221	288077	164	-183	-19	-18	-28	9	18	7	6	56	0	0	0	0	4	4	2	2	0	2
Hungry_Donkey_bar_English_2	132	1	<?xml version="1.0"?>\n<Clock xmlns:dt="urn:schemas-microsoft-com:datatypes"><Description dt:dt="string">E-Prime Primary Realtime Clock</Description><StartTime><Timestamp dt:dt="int">0</Timestamp><DateUtc dt:dt="string">2016-02-16T17:28:56Z</DateUtc></StartTime><FrequencyChanges><FrequencyChange><Frequency dt:dt="r8">3507724</Frequency><Timestamp dt:dt="r8">2956390863675</Timestamp><Current dt:dt="r8">0</Current><DateUtc dt:dt="string">2016-02-16T17:28:56Z</DateUtc></FrequencyChange></FrequencyChanges></Clock>\n	Hungry_Donkey_bar_English_2-132-1	60.018	-97	1.0.0.18	1	1454045346	Standard	2.0.10.353	2.0.10.353	02-16-2016	2/16/2016 5:28:56 PM	12:28:56	2.0.10.248	57	Bar50-50.bmp	48	1	?	0r_4g.bmp	0r_4g.bmp	0r_2g.bmp	0r_2g.bmp	0r_4g.bmp				TrialProc	TrialList	0	cvbn	-999999	16	290105	0	c	2388	292493	168	-183	-15	-14	-28	9	18	6	6	57	0	0	0	0	4	4	2	2	0	4
Hungry_Donkey_bar_English_2	132	1	<?xml version="1.0"?>\n<Clock xmlns:dt="urn:schemas-microsoft-com:datatypes"><Description dt:dt="string">E-Prime Primary Realtime Clock</Description><StartTime><Timestamp dt:dt="int">0</Timestamp><DateUtc dt:dt="string">2016-02-16T17:28:56Z</DateUtc></StartTime><FrequencyChanges><FrequencyChange><Frequency dt:dt="r8">3507724</Frequency><Timestamp dt:dt="r8">2956390863675</Timestamp><Current dt:dt="r8">0</Current><DateUtc dt:dt="string">2016-02-16T17:28:56Z</DateUtc></FrequencyChange></FrequencyChanges></Clock>\n	Hungry_Donkey_bar_English_2-132-1	60.018	-97	1.0.0.18	1	1454045346	Standard	2.0.10.353	2.0.10.353	02-16-2016	2/16/2016 5:28:56 PM	12:28:56	2.0.10.248	58	Bar50-50.bmp	48	2	?	0r_4g.bmp	0r_4g.bmp	0r_2g.bmp	0r_2g.bmp		0r_4g.bmp			TrialProc	TrialList	0	cvbn	-999999	16	294521	0	v	500	295021	172	-183	-11	-14	-24	9	18	10	6	58	0	0	0	0	4	4	2	2	0	4
Hungry_Donkey_bar_English_2	132	1	<?xml version="1.0"?>\n<Clock xmlns:dt="urn:schemas-microsoft-com:datatypes"><Description dt:dt="string">E-Prime Primary Realtime Clock</Description><StartTime><Timestamp dt:dt="int">0</Timestamp><DateUtc dt:dt="string">2016-02-16T17:28:56Z</DateUtc></StartTime><FrequencyChanges><FrequencyChange><Frequency dt:dt="r8">3507724</Frequency><Timestamp dt:dt="r8">2956390863675</Timestamp><Current dt:dt="r8">0</Current><DateUtc dt:dt="string">2016-02-16T17:28:56Z</DateUtc></FrequencyChange></FrequencyChanges></Clock>\n	Hungry_Donkey_bar_English_2-132-1	60.018	-97	1.0.0.18	1	1454045346	Standard	2.0.10.353	2.0.10.353	02-16-2016	2/16/2016 5:28:56 PM	12:28:56	2.0.10.248	59	Bar50-50.bmp	48	3	?	12r_4g.bmp	0r_4g.bmp	3r_2g.bmp	0r_2g.bmp			3r_2g.bmp		TrialProc	TrialList	0	cvbn	-999999	16	297053	0	b	272	297325	174	-186	-12	-14	-24	8	18	5	6	59	-12	0	-3	0	4	4	2	2	-3	2
Hungry_Donkey_bar_English_2	132	1	<?xml version="1.0"?>\n<Clock xmlns:dt="urn:schemas-microsoft-com:datatypes"><Description dt:dt="string">E-Prime Primary Realtime Clock</Description><StartTime><Timestamp dt:dt="int">0</Timestamp><DateUtc dt:dt="string">2016-02-16T17:28:56Z</DateUtc></StartTime><FrequencyChanges><FrequencyChange><Frequency dt:dt="r8">3507724</Frequency><Timestamp dt:dt="r8">2956390863675</Timestamp><Current dt:dt="r8">0</Current><DateUtc dt:dt="string">2016-02-16T17:28:56Z</DateUtc></FrequencyChange></FrequencyChanges></Clock>\n	Hungry_Donkey_bar_English_2-132-1	60.018	-97	1.0.0.18	1	1454045346	Standard	2.0.10.353	2.0.10.353	02-16-2016	2/16/2016 5:28:56 PM	12:28:56	2.0.10.248	60	Bar50-50.bmp	49	2	?	10r_4g.bmp	0r_4g.bmp	2r_2g.bmp	0r_2g.bmp		0r_4g.bmp			TrialProc	TrialList	0	cvbn	-999999	16	299353	0	v	180	299533	178	-186	-8	-14	-20	8	18	3	6	60	-10	0	-2	0	4	4	2	2	0	4
Hungry_Donkey_bar_English_2	132	1	<?xml version="1.0"?>\n<Clock xmlns:dt="urn:schemas-microsoft-com:datatypes"><Description dt:dt="string">E-Prime Primary Realtime Clock</Description><StartTime><Timestamp dt:dt="int">0</Timestamp><DateUtc dt:dt="string">2016-02-16T17:28:56Z</DateUtc></StartTime><FrequencyChanges><FrequencyChange><Frequency dt:dt="r8">3507724</Frequency><Timestamp dt:dt="r8">2956390863675</Timestamp><Current dt:dt="r8">0</Current><DateUtc dt:dt="string">2016-02-16T17:28:56Z</DateUtc></FrequencyChange></FrequencyChanges></Clock>\n	Hungry_Donkey_bar_English_2-132-1	60.018	-97	1.0.0.18	1	1454045346	Standard	2.0.10.353	2.0.10.353	02-16-2016	2/16/2016 5:28:56 PM	12:28:56	2.0.10.248	61	Bar50-50.bmp	48	1	?	10r_4g.bmp	0r_4g.bmp	2r_2g.bmp	0r_2g.bmp	10r_4g.bmp				TrialProc	TrialList	0	cvbn	-999999	16	301569	0	c	187	301756	182	-196	-14	-20	-20	8	18	4	7	61	-10	0	-2	0	4	4	2	2	-10	4
Hungry_Donkey_bar_English_2	132	1	<?xml version="1.0"?>\n<Clock xmlns:dt="urn:schemas-microsoft-com:datatypes"><Description dt:dt="string">E-Prime Primary Realtime Clock</Description><StartTime><Timestamp dt:dt="int">0</Timestamp><DateUtc dt:dt="string">2016-02-16T17:28:56Z</DateUtc></StartTime><FrequencyChanges><FrequencyChange><Frequency dt:dt="r8">3507724</Frequency><Timestamp dt:dt="r8">2956390863675</Timestamp><Current dt:dt="r8">0</Current><DateUtc dt:dt="string">2016-02-16T17:28:56Z</DateUtc></FrequencyChange></FrequencyChanges></Clock>\n	Hungry_Donkey_bar_English_2-132-1	60.018	-97	1.0.0.18	1	1454045346	Standard	2.0.10.353	2.0.10.353	02-16-2016	2/16/2016 5:28:56 PM	12:28:56	2.0.10.248	62	Bar50-50.bmp	49	2	?	0r_4g.bmp	0r_4g.bmp	0r_2g.bmp	0r_2g.bmp		0r_4g.bmp			TrialProc	TrialList	0	cvbn	-999999	16	303785	0	v	19	303804	186	-196	-10	-20	-16	8	18	10	7	62	0	0	0	0	4	4	2	2	0	4
Hungry_Donkey_bar_English_2	132	1	<?xml version="1.0"?>\n<Clock xmlns:dt="urn:schemas-microsoft-com:datatypes"><Description dt:dt="string">E-Prime Primary Realtime Clock</Description><StartTime><Timestamp dt:dt="int">0</Timestamp><DateUtc dt:dt="string">2016-02-16T17:28:56Z</DateUtc></StartTime><FrequencyChanges><FrequencyChange><Frequency dt:dt="r8">3507724</Frequency><Timestamp dt:dt="r8">2956390863675</Timestamp><Current dt:dt="r8">0</Current><DateUtc dt:dt="string">2016-02-16T17:28:56Z</DateUtc></FrequencyChange></FrequencyChanges></Clock>\n	Hungry_Donkey_bar_English_2-132-1	60.018	-97	1.0.0.18	1	1454045346	Standard	2.0.10.353	2.0.10.353	02-16-2016	2/16/2016 5:28:56 PM	12:28:56	2.0.10.248	63	Bar50-50.bmp	49	3	?	0r_4g.bmp	0r_4g.bmp	0r_2g.bmp	0r_2g.bmp			0r_2g.bmp		TrialProc	TrialList	0	cvbn	-999999	16	305834	0	b	482	306316	188	-196	-8	-20	-16	10	18	7	7	63	0	0	0	0	4	4	2	2	0	2
Hungry_Donkey_bar_English_2	132	1	<?xml version="1.0"?>\n<Clock xmlns:dt="urn:schemas-microsoft-com:datatypes"><Description dt:dt="string">E-Prime Primary Realtime Clock</Description><StartTime><Timestamp dt:dt="int">0</Timestamp><DateUtc dt:dt="string">2016-02-16T17:28:56Z</DateUtc></StartTime><FrequencyChanges><FrequencyChange><Frequency dt:dt="r8">3507724</Frequency><Timestamp dt:dt="r8">2956390863675</Timestamp><Current dt:dt="r8">0</Current><DateUtc dt:dt="string">2016-02-16T17:28:56Z</DateUtc></FrequencyChange></FrequencyChanges></Clock>\n	Hungry_Donkey_bar_English_2-132-1	60.018	-97	1.0.0.18	1	1454045346	Standard	2.0.10.353	2.0.10.353	02-16-2016	2/16/2016 5:28:56 PM	12:28:56	2.0.10.248	64	Bar50-50.bmp	49	4	?	10r_4g.bmp	0r_4g.bmp	2r_2g.bmp	0r_2g.bmp				0r_2g.bmp	TrialProc	TrialList	0	cvbn	-999999	16	308350	0	n	334	308684	190	-196	-6	-20	-16	10	20	2	7	64	-10	0	-2	0	4	4	2	2	0	2
Hungry_Donkey_bar_English_2	132	1	<?xml version="1.0"?>\n<Clock xmlns:dt="urn:schemas-microsoft-com:datatypes"><Description dt:dt="string">E-Prime Primary Realtime Clock</Description><StartTime><Timestamp dt:dt="int">0</Timestamp><DateUtc dt:dt="string">2016-02-16T17:28:56Z</DateUtc></StartTime><FrequencyChanges><FrequencyChange><Frequency dt:dt="r8">3507724</Frequency><Timestamp dt:dt="r8">2956390863675</Timestamp><Current dt:dt="r8">0</Current><DateUtc dt:dt="string">2016-02-16T17:28:56Z</DateUtc></FrequencyChange></FrequencyChanges></Clock>\n	Hungry_Donkey_bar_English_2-132-1	60.018	-97	1.0.0.18	1	1454045346	Standard	2.0.10.353	2.0.10.353	02-16-2016	2/16/2016 5:28:56 PM	12:28:56	2.0.10.248	65	Bar50-50.bmp	48	1	?	12r_4g.bmp	0r_4g.bmp	3r_2g.bmp	0r_2g.bmp	12r_4g.bmp				TrialProc	TrialList	0	cvbn	-999999	16	310716	0	c	144	310860	194	-208	-14	-28	-16	10	20	5	7	65	-12	0	-3	0	4	4	2	2	-12	4
Hungry_Donkey_bar_English_2	132	1	<?xml version="1.0"?>\n<Clock xmlns:dt="urn:schemas-microsoft-com:datatypes"><Description dt:dt="string">E-Prime Primary Realtime Clock</Description><StartTime><Timestamp dt:dt="int">0</Timestamp><DateUtc dt:dt="string">2016-02-16T17:28:56Z</DateUtc></StartTime><FrequencyChanges><FrequencyChange><Frequency dt:dt="r8">3507724</Frequency><Timestamp dt:dt="r8">2956390863675</Timestamp><Current dt:dt="r8">0</Current><DateUtc dt:dt="string">2016-02-16T17:28:56Z</DateUtc></FrequencyChange></FrequencyChanges></Clock>\n	Hungry_Donkey_bar_English_2-132-1	60.018	-97	1.0.0.18	1	1454045346	Standard	2.0.10.353	2.0.10.353	02-16-2016	2/16/2016 5:28:56 PM	12:28:56	2.0.10.248	66	Bar50-50.bmp	49	3	?	0r_4g.bmp	0r_4g.bmp	0r_2g.bmp	0r_2g.bmp			0r_2g.bmp		TrialProc	TrialList	0	cvbn	-999999	17	312899	0	b	633	313532	196	-208	-12	-28	-16	12	20	9	7	66	0	0	0	0	4	4	2	2	0	2
Hungry_Donkey_bar_English_2	132	1	<?xml version="1.0"?>\n<Clock xmlns:dt="urn:schemas-microsoft-com:datatypes"><Description dt:dt="string">E-Prime Primary Realtime Clock</Description><StartTime><Timestamp dt:dt="int">0</Timestamp><DateUtc dt:dt="string">2016-02-16T17:28:56Z</DateUtc></StartTime><FrequencyChanges><FrequencyChange><Frequency dt:dt="r8">3507724</Frequency><Timestamp dt:dt="r8">2956390863675</Timestamp><Current dt:dt="r8">0</Current><DateUtc dt:dt="string">2016-02-16T17:28:56Z</DateUtc></FrequencyChange></FrequencyChanges></Clock>\n	Hungry_Donkey_bar_English_2-132-1	60.018	-97	1.0.0.18	1	1454045346	Standard	2.0.10.353	2.0.10.353	02-16-2016	2/16/2016 5:28:56 PM	12:28:56	2.0.10.248	67	Bar50-50.bmp	48	1	?	10r_4g.bmp	0r_4g.bmp	2r_2g.bmp	0r_2g.bmp	10r_4g.bmp				TrialProc	TrialList	0	cvbn	-999999	16	315564	0	c	736	316300	200	-218	-18	-34	-16	12	20	3	7	67	-10	0	-2	0	4	4	2	2	-10	4
Hungry_Donkey_bar_English_2	132	1	<?xml version="1.0"?>\n<Clock xmlns:dt="urn:schemas-microsoft-com:datatypes"><Description dt:dt="string">E-Prime Primary Realtime Clock</Description><StartTime><Timestamp dt:dt="int">0</Timestamp><DateUtc dt:dt="string">2016-02-16T17:28:56Z</DateUtc></StartTime><FrequencyChanges><FrequencyChange><Frequency dt:dt="r8">3507724</Frequency><Timestamp dt:dt="r8">2956390863675</Timestamp><Current dt:dt="r8">0</Current><DateUtc dt:dt="string">2016-02-16T17:28:56Z</DateUtc></FrequencyChange></FrequencyChanges></Clock>\n	Hungry_Donkey_bar_English_2-132-1	60.018	-97	1.0.0.18	1	1454045346	Standard	2.0.10.353	2.0.10.353	02-16-2016	2/16/2016 5:28:56 PM	12:28:56	2.0.10.248	68	Bar50-50.bmp	48	2	?	0r_4g.bmp	0r_4g.bmp	0r_2g.bmp	0r_2g.bmp		0r_4g.bmp			TrialProc	TrialList	0	cvbn	-999999	16	318330	0	v	417	318747	204	-218	-14	-34	-12	12	20	8	7	68	0	0	0	0	4	4	2	2	0	4
Hungry_Donkey_bar_English_2	132	1	<?xml version="1.0"?>\n<Clock xmlns:dt="urn:schemas-microsoft-com:datatypes"><Description dt:dt="string">E-Prime Primary Realtime Clock</Description><StartTime><Timestamp dt:dt="int">0</Timestamp><DateUtc dt:dt="string">2016-02-16T17:28:56Z</DateUtc></StartTime><FrequencyChanges><FrequencyChange><Frequency dt:dt="r8">3507724</Frequency><Timestamp dt:dt="r8">2956390863675</Timestamp><Current dt:dt="r8">0</Current><DateUtc dt:dt="string">2016-02-16T17:28:56Z</DateUtc></FrequencyChange></FrequencyChanges></Clock>\n	Hungry_Donkey_bar_English_2-132-1	60.018	-97	1.0.0.18	1	1454045346	Standard	2.0.10.353	2.0.10.353	02-16-2016	2/16/2016 5:28:56 PM	12:28:56	2.0.10.248	69	Bar50-50.bmp	49	3	?	0r_4g.bmp	0r_4g.bmp	0r_2g.bmp	0r_2g.bmp			0r_2g.bmp		TrialProc	TrialList	0	cvbn	-999999	16	320779	0	b	336	321115	206	-218	-12	-34	-12	14	20	6	7	69	0	0	0	0	4	4	2	2	0	2
Hungry_Donkey_bar_English_2	132	1	<?xml version="1.0"?>\n<Clock xmlns:dt="urn:schemas-microsoft-com:datatypes"><Description dt:dt="string">E-Prime Primary Realtime Clock</Description><StartTime><Timestamp dt:dt="int">0</Timestamp><DateUtc dt:dt="string">2016-02-16T17:28:56Z</DateUtc></StartTime><FrequencyChanges><FrequencyChange><Frequency dt:dt="r8">3507724</Frequency><Timestamp dt:dt="r8">2956390863675</Timestamp><Current dt:dt="r8">0</Current><DateUtc dt:dt="string">2016-02-16T17:28:56Z</DateUtc></FrequencyChange></FrequencyChanges></Clock>\n	Hungry_Donkey_bar_English_2-132-1	60.018	-97	1.0.0.18	1	1454045346	Standard	2.0.10.353	2.0.10.353	02-16-2016	2/16/2016 5:28:56 PM	12:28:56	2.0.10.248	70	Bar50-50.bmp	48	4	?	8r_4g.bmp	50r_4g.bmp	1r_2g.bmp	10r_2g.bmp				10r_2g.bmp	TrialProc	TrialList	0	cvbn	-999999	16	323145	0	n	130	323275	208	-228	-20	-34	-12	14	12	1	7	70	-8	-50	-1	-10	4	4	2	2	-10	2
Hungry_Donkey_bar_English_2	132	1	<?xml version="1.0"?>\n<Clock xmlns:dt="urn:schemas-microsoft-com:datatypes"><Description dt:dt="string">E-Prime Primary Realtime Clock</Description><StartTime><Timestamp dt:dt="int">0</Timestamp><DateUtc dt:dt="string">2016-02-16T17:28:56Z</DateUtc></StartTime><FrequencyChanges><FrequencyChange><Frequency dt:dt="r8">3507724</Frequency><Timestamp dt:dt="r8">2956390863675</Timestamp><Current dt:dt="r8">0</Current><DateUtc dt:dt="string">2016-02-16T17:28:56Z</DateUtc></FrequencyChange></FrequencyChanges></Clock>\n	Hungry_Donkey_bar_English_2-132-1	60.018	-97	1.0.0.18	1	1454045346	Standard	2.0.10.353	2.0.10.353	02-16-2016	2/16/2016 5:28:56 PM	12:28:56	2.0.10.248	71	Bar50-50.bmp	48	3	?	8r_4g.bmp	50r_4g.bmp	1r_2g.bmp	10r_2g.bmp			1r_2g.bmp		TrialProc	TrialList	0	cvbn	-999999	16	325311	0	b	1372	326683	210	-229	-19	-34	-12	15	12	1	8	71	-8	-50	-1	-10	4	4	2	2	-1	2
Hungry_Donkey_bar_English_2	132	1	<?xml version="1.0"?>\n<Clock xmlns:dt="urn:schemas-microsoft-com:datatypes"><Description dt:dt="string">E-Prime Primary Realtime Clock</Description><StartTime><Timestamp dt:dt="int">0</Timestamp><DateUtc dt:dt="string">2016-02-16T17:28:56Z</DateUtc></StartTime><FrequencyChanges><FrequencyChange><Frequency dt:dt="r8">3507724</Frequency><Timestamp dt:dt="r8">2956390863675</Timestamp><Current dt:dt="r8">0</Current><DateUtc dt:dt="string">2016-02-16T17:28:56Z</DateUtc></FrequencyChange></FrequencyChanges></Clock>\n	Hungry_Donkey_bar_English_2-132-1	60.018	-97	1.0.0.18	1	1454045346	Standard	2.0.10.353	2.0.10.353	02-16-2016	2/16/2016 5:28:56 PM	12:28:56	2.0.10.248	72	Bar50-50.bmp	48	2	?	0r_4g.bmp	0r_4g.bmp	0r_2g.bmp	0r_2g.bmp		0r_4g.bmp			TrialProc	TrialList	0	cvbn	-999999	16	328710	0	v	389	329099	214	-229	-15	-34	-8	15	12	9	8	72	0	0	0	0	4	4	2	2	0	4
Hungry_Donkey_bar_English_2	132	1	<?xml version="1.0"?>\n<Clock xmlns:dt="urn:schemas-microsoft-com:datatypes"><Description dt:dt="string">E-Prime Primary Realtime Clock</Description><StartTime><Timestamp dt:dt="int">0</Timestamp><DateUtc dt:dt="string">2016-02-16T17:28:56Z</DateUtc></StartTime><FrequencyChanges><FrequencyChange><Frequency dt:dt="r8">3507724</Frequency><Timestamp dt:dt="r8">2956390863675</Timestamp><Current dt:dt="r8">0</Current><DateUtc dt:dt="string">2016-02-16T17:28:56Z</DateUtc></FrequencyChange></FrequencyChanges></Clock>\n	Hungry_Donkey_bar_English_2-132-1	60.018	-97	1.0.0.18	1	1454045346	Standard	2.0.10.353	2.0.10.353	02-16-2016	2/16/2016 5:28:56 PM	12:28:56	2.0.10.248	73	Bar50-50.bmp	49	2	?	10r_4g.bmp	0r_4g.bmp	2r_2g.bmp	0r_2g.bmp		0r_4g.bmp			TrialProc	TrialList	0	cvbn	-999999	16	331126	0	v	1892	333018	218	-229	-11	-34	-4	15	12	4	8	73	-10	0	-2	0	4	4	2	2	0	4
Hungry_Donkey_bar_English_2	132	1	<?xml version="1.0"?>\n<Clock xmlns:dt="urn:schemas-microsoft-com:datatypes"><Description dt:dt="string">E-Prime Primary Realtime Clock</Description><StartTime><Timestamp dt:dt="int">0</Timestamp><DateUtc dt:dt="string">2016-02-16T17:28:56Z</DateUtc></StartTime><FrequencyChanges><FrequencyChange><Frequency dt:dt="r8">3507724</Frequency><Timestamp dt:dt="r8">2956390863675</Timestamp><Current dt:dt="r8">0</Current><DateUtc dt:dt="string">2016-02-16T17:28:56Z</DateUtc></FrequencyChange></FrequencyChanges></Clock>\n	Hungry_Donkey_bar_English_2-132-1	60.018	-97	1.0.0.18	1	1454045346	Standard	2.0.10.353	2.0.10.353	02-16-2016	2/16/2016 5:28:56 PM	12:28:56	2.0.10.248	74	Bar50-50.bmp	49	3	?	0r_4g.bmp	0r_4g.bmp	0r_2g.bmp	0r_2g.bmp			0r_2g.bmp		TrialProc	TrialList	0	cvbn	-999999	17	335059	0	b	1143	336202	220	-229	-9	-34	-4	17	12	10	8	74	0	0	0	0	4	4	2	2	0	2
Hungry_Donkey_bar_English_2	132	1	<?xml version="1.0"?>\n<Clock xmlns:dt="urn:schemas-microsoft-com:datatypes"><Description dt:dt="string">E-Prime Primary Realtime Clock</Description><StartTime><Timestamp dt:dt="int">0</Timestamp><DateUtc dt:dt="string">2016-02-16T17:28:56Z</DateUtc></StartTime><FrequencyChanges><FrequencyChange><Frequency dt:dt="r8">3507724</Frequency><Timestamp dt:dt="r8">2956390863675</Timestamp><Current dt:dt="r8">0</Current><DateUtc dt:dt="string">2016-02-16T17:28:56Z</DateUtc></FrequencyChange></FrequencyChanges></Clock>\n	Hungry_Donkey_bar_English_2-132-1	60.018	-97	1.0.0.18	1	1454045346	Standard	2.0.10.353	2.0.10.353	02-16-2016	2/16/2016 5:28:56 PM	12:28:56	2.0.10.248	75	Bar50-50.bmp	49	4	?	0r_4g.bmp	0r_4g.bmp	0r_2g.bmp	0r_2g.bmp				0r_2g.bmp	TrialProc	TrialList	0	cvbn	-999999	16	338241	0	n	5545	343786	222	-229	-7	-34	-4	17	14	8	8	75	0	0	0	0	4	4	2	2	0	2
Hungry_Donkey_bar_English_2	132	1	<?xml version="1.0"?>\n<Clock xmlns:dt="urn:schemas-microsoft-com:datatypes"><Description dt:dt="string">E-Prime Primary Realtime Clock</Description><StartTime><Timestamp dt:dt="int">0</Timestamp><DateUtc dt:dt="string">2016-02-16T17:28:56Z</DateUtc></StartTime><FrequencyChanges><FrequencyChange><Frequency dt:dt="r8">3507724</Frequency><Timestamp dt:dt="r8">2956390863675</Timestamp><Current dt:dt="r8">0</Current><DateUtc dt:dt="string">2016-02-16T17:28:56Z</DateUtc></FrequencyChange></FrequencyChanges></Clock>\n	Hungry_Donkey_bar_English_2-132-1	60.018	-97	1.0.0.18	1	1454045346	Standard	2.0.10.353	2.0.10.353	02-16-2016	2/16/2016 5:28:56 PM	12:28:56	2.0.10.248	76	Bar50-50.bmp	50	1	?	0r_4g.bmp	0r_4g.bmp	0r_2g.bmp	0r_2g.bmp	0r_4g.bmp				TrialProc	TrialList	0	cvbn	-999999	16	345822	0	c	444	346266	226	-229	-3	-30	-4	17	14	6	8	76	0	0	0	0	4	4	2	2	0	4
Hungry_Donkey_bar_English_2	132	1	<?xml version="1.0"?>\n<Clock xmlns:dt="urn:schemas-microsoft-com:datatypes"><Description dt:dt="string">E-Prime Primary Realtime Clock</Description><StartTime><Timestamp dt:dt="int">0</Timestamp><DateUtc dt:dt="string">2016-02-16T17:28:56Z</DateUtc></StartTime><FrequencyChanges><FrequencyChange><Frequency dt:dt="r8">3507724</Frequency><Timestamp dt:dt="r8">2956390863675</Timestamp><Current dt:dt="r8">0</Current><DateUtc dt:dt="string">2016-02-16T17:28:56Z</DateUtc></FrequencyChange></FrequencyChanges></Clock>\n	Hungry_Donkey_bar_English_2-132-1	60.018	-97	1.0.0.18	1	1454045346	Standard	2.0.10.353	2.0.10.353	02-16-2016	2/16/2016 5:28:56 PM	12:28:56	2.0.10.248	77	Bar50-50.bmp	50	2	?	0r_4g.bmp	0r_4g.bmp	0r_2g.bmp	0r_2g.bmp		0r_4g.bmp			TrialProc	TrialList	0	cvbn	-999999	16	348305	0	v	217	348522	230	-229	1	-30	0	17	14	7	8	77	0	0	0	0	4	4	2	2	0	4
Hungry_Donkey_bar_English_2	132	1	<?xml version="1.0"?>\n<Clock xmlns:dt="urn:schemas-microsoft-com:datatypes"><Description dt:dt="string">E-Prime Primary Realtime Clock</Description><StartTime><Timestamp dt:dt="int">0</Timestamp><DateUtc dt:dt="string">2016-02-16T17:28:56Z</DateUtc></StartTime><FrequencyChanges><FrequencyChange><Frequency dt:dt="r8">3507724</Frequency><Timestamp dt:dt="r8">2956390863675</Timestamp><Current dt:dt="r8">0</Current><DateUtc dt:dt="string">2016-02-16T17:28:56Z</DateUtc></FrequencyChange></FrequencyChanges></Clock>\n	Hungry_Donkey_bar_English_2-132-1	60.018	-97	1.0.0.18	1	1454045346	Standard	2.0.10.353	2.0.10.353	02-16-2016	2/16/2016 5:28:56 PM	12:28:56	2.0.10.248	78	Bar50-50.bmp	50	3	?	12r_4g.bmp	0r_4g.bmp	3r_2g.bmp	0r_2g.bmp			3r_2g.bmp		TrialProc	TrialList	0	cvbn	-999999	16	350554	0	b	319	350873	232	-232	0	-30	0	16	14	5	8	78	-12	0	-3	0	4	4	2	2	-3	2
Hungry_Donkey_bar_English_2	132	1	<?xml version="1.0"?>\n<Clock xmlns:dt="urn:schemas-microsoft-com:datatypes"><Description dt:dt="string">E-Prime Primary Realtime Clock</Description><StartTime><Timestamp dt:dt="int">0</Timestamp><DateUtc dt:dt="string">2016-02-16T17:28:56Z</DateUtc></StartTime><FrequencyChanges><FrequencyChange><Frequency dt:dt="r8">3507724</Frequency><Timestamp dt:dt="r8">2956390863675</Timestamp><Current dt:dt="r8">0</Current><DateUtc dt:dt="string">2016-02-16T17:28:56Z</DateUtc></FrequencyChange></FrequencyChanges></Clock>\n	Hungry_Donkey_bar_English_2-132-1	60.018	-97	1.0.0.18	1	1454045346	Standard	2.0.10.353	2.0.10.353	02-16-2016	2/16/2016 5:28:56 PM	12:28:56	2.0.10.248	79	Bar50-50.bmp	50	4	?	10r_4g.bmp	0r_4g.bmp	2r_2g.bmp	0r_2g.bmp				0r_2g.bmp	TrialProc	TrialList	0	cvbn	-999999	16	352903	0	n	274	353177	234	-232	2	-30	0	16	16	2	8	79	-10	0	-2	0	4	4	2	2	0	2
Hungry_Donkey_bar_English_2	132	1	<?xml version="1.0"?>\n<Clock xmlns:dt="urn:schemas-microsoft-com:datatypes"><Description dt:dt="string">E-Prime Primary Realtime Clock</Description><StartTime><Timestamp dt:dt="int">0</Timestamp><DateUtc dt:dt="string">2016-02-16T17:28:56Z</DateUtc></StartTime><FrequencyChanges><FrequencyChange><Frequency dt:dt="r8">3507724</Frequency><Timestamp dt:dt="r8">2956390863675</Timestamp><Current dt:dt="r8">0</Current><DateUtc dt:dt="string">2016-02-16T17:28:56Z</DateUtc></FrequencyChange></FrequencyChanges></Clock>\n	Hungry_Donkey_bar_English_2-132-1	60.018	-97	1.0.0.18	1	1454045346	Standard	2.0.10.353	2.0.10.353	02-16-2016	2/16/2016 5:28:56 PM	12:28:56	2.0.10.248	80	Bar50-50.bmp	50	4	?	10r_4g.bmp	0r_4g.bmp	2r_2g.bmp	0r_2g.bmp				0r_2g.bmp	TrialProc	TrialList	0	cvbn	-999999	16	355202	0	n	631	355833	236	-232	4	-30	0	16	18	3	8	80	-10	0	-2	0	4	4	2	2	0	2
Hungry_Donkey_bar_English_2	132	1	<?xml version="1.0"?>\n<Clock xmlns:dt="urn:schemas-microsoft-com:datatypes"><Description dt:dt="string">E-Prime Primary Realtime Clock</Description><StartTime><Timestamp dt:dt="int">0</Timestamp><DateUtc dt:dt="string">2016-02-16T17:28:56Z</DateUtc></StartTime><FrequencyChanges><FrequencyChange><Frequency dt:dt="r8">3507724</Frequency><Timestamp dt:dt="r8">2956390863675</Timestamp><Current dt:dt="r8">0</Current><DateUtc dt:dt="string">2016-02-16T17:28:56Z</DateUtc></FrequencyChange></FrequencyChanges></Clock>\n	Hungry_Donkey_bar_English_2-132-1	60.018	-97	1.0.0.18	1	1454045346	Standard	2.0.10.353	2.0.10.353	02-16-2016	2/16/2016 5:28:56 PM	12:28:56	2.0.10.248	81	Bar50-50.bmp	51	1	?	0r_4g.bmp	0r_4g.bmp	0r_2g.bmp	0r_2g.bmp	0r_4g.bmp				TrialProc	TrialList	0	cvbn	-999999	16	357868	0	c	5389	363257	240	-232	8	-26	0	16	18	8	9	81	0	0	0	0	4	4	2	2	0	4
Hungry_Donkey_bar_English_2	132	1	<?xml version="1.0"?>\n<Clock xmlns:dt="urn:schemas-microsoft-com:datatypes"><Description dt:dt="string">E-Prime Primary Realtime Clock</Description><StartTime><Timestamp dt:dt="int">0</Timestamp><DateUtc dt:dt="string">2016-02-16T17:28:56Z</DateUtc></StartTime><FrequencyChanges><FrequencyChange><Frequency dt:dt="r8">3507724</Frequency><Timestamp dt:dt="r8">2956390863675</Timestamp><Current dt:dt="r8">0</Current><DateUtc dt:dt="string">2016-02-16T17:28:56Z</DateUtc></FrequencyChange></FrequencyChanges></Clock>\n	Hungry_Donkey_bar_English_2-132-1	60.018	-97	1.0.0.18	1	1454045346	Standard	2.0.10.353	2.0.10.353	02-16-2016	2/16/2016 5:28:56 PM	12:28:56	2.0.10.248	82	Bar50-50.bmp	51	3	?	0r_4g.bmp	0r_4g.bmp	0r_2g.bmp	0r_2g.bmp			0r_2g.bmp		TrialProc	TrialList	0	cvbn	-999999	16	365283	0	b	693	365976	242	-232	10	-26	0	18	18	10	9	82	0	0	0	0	4	4	2	2	0	2
Hungry_Donkey_bar_English_2	132	1	<?xml version="1.0"?>\n<Clock xmlns:dt="urn:schemas-microsoft-com:datatypes"><Description dt:dt="string">E-Prime Primary Realtime Clock</Description><StartTime><Timestamp dt:dt="int">0</Timestamp><DateUtc dt:dt="string">2016-02-16T17:28:56Z</DateUtc></StartTime><FrequencyChanges><FrequencyChange><Frequency dt:dt="r8">3507724</Frequency><Timestamp dt:dt="r8">2956390863675</Timestamp><Current dt:dt="r8">0</Current><DateUtc dt:dt="string">2016-02-16T17:28:56Z</DateUtc></FrequencyChange></FrequencyChanges></Clock>\n	Hungry_Donkey_bar_English_2-132-1	60.018	-97	1.0.0.18	1	1454045346	Standard	2.0.10.353	2.0.10.353	02-16-2016	2/16/2016 5:28:56 PM	12:28:56	2.0.10.248	83	Bar50-50.bmp	51	4	?	10r_4g.bmp	0r_4g.bmp	2r_2g.bmp	0r_2g.bmp				0r_2g.bmp	TrialProc	TrialList	0	cvbn	-999999	16	368015	0	n	793	368808	244	-232	12	-26	0	18	20	3	9	83	-10	0	-2	0	4	4	2	2	0	2
Hungry_Donkey_bar_English_2	132	1	<?xml version="1.0"?>\n<Clock xmlns:dt="urn:schemas-microsoft-com:datatypes"><Description dt:dt="string">E-Prime Primary Realtime Clock</Description><StartTime><Timestamp dt:dt="int">0</Timestamp><DateUtc dt:dt="string">2016-02-16T17:28:56Z</DateUtc></StartTime><FrequencyChanges><FrequencyChange><Frequency dt:dt="r8">3507724</Frequency><Timestamp dt:dt="r8">2956390863675</Timestamp><Current dt:dt="r8">0</Current><DateUtc dt:dt="string">2016-02-16T17:28:56Z</DateUtc></FrequencyChange></FrequencyChanges></Clock>\n	Hungry_Donkey_bar_English_2-132-1	60.018	-97	1.0.0.18	1	1454045346	Standard	2.0.10.353	2.0.10.353	02-16-2016	2/16/2016 5:28:56 PM	12:28:56	2.0.10.248	84	Bar50-50.bmp	52	2	?	10r_4g.bmp	0r_4g.bmp	2r_2g.bmp	0r_2g.bmp		0r_4g.bmp			TrialProc	TrialList	0	cvbn	-999999	16	370848	0	v	120	370968	248	-232	16	-26	4	18	20	2	9	84	-10	0	-2	0	4	4	2	2	0	4
Hungry_Donkey_bar_English_2	132	1	<?xml version="1.0"?>\n<Clock xmlns:dt="urn:schemas-microsoft-com:datatypes"><Description dt:dt="string">E-Prime Primary Realtime Clock</Description><StartTime><Timestamp dt:dt="int">0</Timestamp><DateUtc dt:dt="string">2016-02-16T17:28:56Z</DateUtc></StartTime><FrequencyChanges><FrequencyChange><Frequency dt:dt="r8">3507724</Frequency><Timestamp dt:dt="r8">2956390863675</Timestamp><Current dt:dt="r8">0</Current><DateUtc dt:dt="string">2016-02-16T17:28:56Z</DateUtc></FrequencyChange></FrequencyChanges></Clock>\n	Hungry_Donkey_bar_English_2-132-1	60.018	-97	1.0.0.18	1	1454045346	Standard	2.0.10.353	2.0.10.353	02-16-2016	2/16/2016 5:28:56 PM	12:28:56	2.0.10.248	85	Bar50-50.bmp	52	3	?	10r_4g.bmp	0r_4g.bmp	2r_2g.bmp	0r_2g.bmp			2r_2g.bmp		TrialProc	TrialList	0	cvbn	-999999	16	372997	0	b	51	373048	250	-234	16	-26	4	18	20	4	9	85	-10	0	-2	0	4	4	2	2	-2	2
Hungry_Donkey_bar_English_2	132	1	<?xml version="1.0"?>\n<Clock xmlns:dt="urn:schemas-microsoft-com:datatypes"><Description dt:dt="string">E-Prime Primary Realtime Clock</Description><StartTime><Timestamp dt:dt="int">0</Timestamp><DateUtc dt:dt="string">2016-02-16T17:28:56Z</DateUtc></StartTime><FrequencyChanges><FrequencyChange><Frequency dt:dt="r8">3507724</Frequency><Timestamp dt:dt="r8">2956390863675</Timestamp><Current dt:dt="r8">0</Current><DateUtc dt:dt="string">2016-02-16T17:28:56Z</DateUtc></FrequencyChange></FrequencyChanges></Clock>\n	Hungry_Donkey_bar_English_2-132-1	60.018	-97	1.0.0.18	1	1454045346	Standard	2.0.10.353	2.0.10.353	02-16-2016	2/16/2016 5:28:56 PM	12:28:56	2.0.10.248	86	Bar50-50.bmp	52	1	?	0r_4g.bmp	0r_4g.bmp	0r_2g.bmp	0r_2g.bmp	0r_4g.bmp				TrialProc	TrialList	0	cvbn	-999999	16	375080	0	c	336	375416	254	-234	20	-22	4	18	20	9	9	86	0	0	0	0	4	4	2	2	0	4
Hungry_Donkey_bar_English_2	132	1	<?xml version="1.0"?>\n<Clock xmlns:dt="urn:schemas-microsoft-com:datatypes"><Description dt:dt="string">E-Prime Primary Realtime Clock</Description><StartTime><Timestamp dt:dt="int">0</Timestamp><DateUtc dt:dt="string">2016-02-16T17:28:56Z</DateUtc></StartTime><FrequencyChanges><FrequencyChange><Frequency dt:dt="r8">3507724</Frequency><Timestamp dt:dt="r8">2956390863675</Timestamp><Current dt:dt="r8">0</Current><DateUtc dt:dt="string">2016-02-16T17:28:56Z</DateUtc></FrequencyChange></FrequencyChanges></Clock>\n	Hungry_Donkey_bar_English_2-132-1	60.018	-97	1.0.0.18	1	1454045346	Standard	2.0.10.353	2.0.10.353	02-16-2016	2/16/2016 5:28:56 PM	12:28:56	2.0.10.248	87	Bar50-50.bmp	52	4	?	0r_4g.bmp	0r_4g.bmp	0r_2g.bmp	0r_2g.bmp				0r_2g.bmp	TrialProc	TrialList	0	cvbn	-999999	16	377446	0	n	2	377448	256	-234	22	-22	4	18	22	7	9	87	0	0	0	0	4	4	2	2	0	2
Hungry_Donkey_bar_English_2	132	1	<?xml version="1.0"?>\n<Clock xmlns:dt="urn:schemas-microsoft-com:datatypes"><Description dt:dt="string">E-Prime Primary Realtime Clock</Description><StartTime><Timestamp dt:dt="int">0</Timestamp><DateUtc dt:dt="string">2016-02-16T17:28:56Z</DateUtc></StartTime><FrequencyChanges><FrequencyChange><Frequency dt:dt="r8">3507724</Frequency><Timestamp dt:dt="r8">2956390863675</Timestamp><Current dt:dt="r8">0</Current><DateUtc dt:dt="string">2016-02-16T17:28:56Z</DateUtc></FrequencyChange></FrequencyChanges></Clock>\n	Hungry_Donkey_bar_English_2-132-1	60.018	-97	1.0.0.18	1	1454045346	Standard	2.0.10.353	2.0.10.353	02-16-2016	2/16/2016 5:28:56 PM	12:28:56	2.0.10.248	88	Bar50-50.bmp	52	3	?	12r_4g.bmp	0r_4g.bmp	3r_2g.bmp	0r_2g.bmp			3r_2g.bmp		TrialProc	TrialList	0	cvbn	-999999	17	379479	0	b	593	380072	258	-237	21	-22	4	17	22	5	9	88	-12	0	-3	0	4	4	2	2	-3	2
Hungry_Donkey_bar_English_2	132	1	<?xml version="1.0"?>\n<Clock xmlns:dt="urn:schemas-microsoft-com:datatypes"><Description dt:dt="string">E-Prime Primary Realtime Clock</Description><StartTime><Timestamp dt:dt="int">0</Timestamp><DateUtc dt:dt="string">2016-02-16T17:28:56Z</DateUtc></StartTime><FrequencyChanges><FrequencyChange><Frequency dt:dt="r8">3507724</Frequency><Timestamp dt:dt="r8">2956390863675</Timestamp><Current dt:dt="r8">0</Current><DateUtc dt:dt="string">2016-02-16T17:28:56Z</DateUtc></FrequencyChange></FrequencyChanges></Clock>\n	Hungry_Donkey_bar_English_2-132-1	60.018	-97	1.0.0.18	1	1454045346	Standard	2.0.10.353	2.0.10.353	02-16-2016	2/16/2016 5:28:56 PM	12:28:56	2.0.10.248	89	Bar50-50.bmp	48	2	?	8r_4g.bmp	50r_4g.bmp	1r_2g.bmp	10r_2g.bmp		50r_4g.bmp			TrialProc	TrialList	0	cvbn	-999999	16	382111	0	v	344	382455	262	-287	-25	-22	-42	17	22	1	9	89	-8	-50	-1	-10	4	4	2	2	-50	4
Hungry_Donkey_bar_English_2	132	1	<?xml version="1.0"?>\n<Clock xmlns:dt="urn:schemas-microsoft-com:datatypes"><Description dt:dt="string">E-Prime Primary Realtime Clock</Description><StartTime><Timestamp dt:dt="int">0</Timestamp><DateUtc dt:dt="string">2016-02-16T17:28:56Z</DateUtc></StartTime><FrequencyChanges><FrequencyChange><Frequency dt:dt="r8">3507724</Frequency><Timestamp dt:dt="r8">2956390863675</Timestamp><Current dt:dt="r8">0</Current><DateUtc dt:dt="string">2016-02-16T17:28:56Z</DateUtc></FrequencyChange></FrequencyChanges></Clock>\n	Hungry_Donkey_bar_English_2-132-1	60.018	-97	1.0.0.18	1	1454045346	Standard	2.0.10.353	2.0.10.353	02-16-2016	2/16/2016 5:28:56 PM	12:28:56	2.0.10.248	90	Bar50-50.bmp	48	2	?	0r_4g.bmp	0r_4g.bmp	0r_2g.bmp	0r_2g.bmp		0r_4g.bmp			TrialProc	TrialList	0	cvbn	-999999	16	384494	0	v	681	385175	266	-287	-21	-22	-38	17	22	6	9	90	0	0	0	0	4	4	2	2	0	4
Hungry_Donkey_bar_English_2	132	1	<?xml version="1.0"?>\n<Clock xmlns:dt="urn:schemas-microsoft-com:datatypes"><Description dt:dt="string">E-Prime Primary Realtime Clock</Description><StartTime><Timestamp dt:dt="int">0</Timestamp><DateUtc dt:dt="string">2016-02-16T17:28:56Z</DateUtc></StartTime><FrequencyChanges><FrequencyChange><Frequency dt:dt="r8">3507724</Frequency><Timestamp dt:dt="r8">2956390863675</Timestamp><Current dt:dt="r8">0</Current><DateUtc dt:dt="string">2016-02-16T17:28:56Z</DateUtc></FrequencyChange></FrequencyChanges></Clock>\n	Hungry_Donkey_bar_English_2-132-1	60.018	-97	1.0.0.18	1	1454045346	Standard	2.0.10.353	2.0.10.353	02-16-2016	2/16/2016 5:28:56 PM	12:28:56	2.0.10.248	91	Bar50-50.bmp	48	3	?	0r_4g.bmp	0r_4g.bmp	0r_2g.bmp	0r_2g.bmp			0r_2g.bmp		TrialProc	TrialList	0	cvbn	-999999	16	387210	0	b	205	387415	268	-287	-19	-22	-38	19	22	10	10	91	0	0	0	0	4	4	2	2	0	2
Hungry_Donkey_bar_English_2	132	1	<?xml version="1.0"?>\n<Clock xmlns:dt="urn:schemas-microsoft-com:datatypes"><Description dt:dt="string">E-Prime Primary Realtime Clock</Description><StartTime><Timestamp dt:dt="int">0</Timestamp><DateUtc dt:dt="string">2016-02-16T17:28:56Z</DateUtc></StartTime><FrequencyChanges><FrequencyChange><Frequency dt:dt="r8">3507724</Frequency><Timestamp dt:dt="r8">2956390863675</Timestamp><Current dt:dt="r8">0</Current><DateUtc dt:dt="string">2016-02-16T17:28:56Z</DateUtc></FrequencyChange></FrequencyChanges></Clock>\n	Hungry_Donkey_bar_English_2-132-1	60.018	-97	1.0.0.18	1	1454045346	Standard	2.0.10.353	2.0.10.353	02-16-2016	2/16/2016 5:28:56 PM	12:28:56	2.0.10.248	92	Bar50-50.bmp	49	1	?	0r_4g.bmp	0r_4g.bmp	0r_2g.bmp	0r_2g.bmp	0r_4g.bmp				TrialProc	TrialList	0	cvbn	-999999	16	389442	0	c	757	390199	272	-287	-15	-18	-38	19	22	6	10	92	0	0	0	0	4	4	2	2	0	4
Hungry_Donkey_bar_English_2	132	1	<?xml version="1.0"?>\n<Clock xmlns:dt="urn:schemas-microsoft-com:datatypes"><Description dt:dt="string">E-Prime Primary Realtime Clock</Description><StartTime><Timestamp dt:dt="int">0</Timestamp><DateUtc dt:dt="string">2016-02-16T17:28:56Z</DateUtc></StartTime><FrequencyChanges><FrequencyChange><Frequency dt:dt="r8">3507724</Frequency><Timestamp dt:dt="r8">2956390863675</Timestamp><Current dt:dt="r8">0</Current><DateUtc dt:dt="string">2016-02-16T17:28:56Z</DateUtc></FrequencyChange></FrequencyChanges></Clock>\n	Hungry_Donkey_bar_English_2-132-1	60.018	-97	1.0.0.18	1	1454045346	Standard	2.0.10.353	2.0.10.353	02-16-2016	2/16/2016 5:28:56 PM	12:28:56	2.0.10.248	93	Bar50-50.bmp	49	3	?	12r_4g.bmp	0r_4g.bmp	3r_2g.bmp	0r_2g.bmp			3r_2g.bmp		TrialProc	TrialList	0	cvbn	-999999	16	392225	0	b	582	392807	274	-290	-16	-18	-38	18	22	5	10	93	-12	0	-3	0	4	4	2	2	-3	2
Hungry_Donkey_bar_English_2	132	1	<?xml version="1.0"?>\n<Clock xmlns:dt="urn:schemas-microsoft-com:datatypes"><Description dt:dt="string">E-Prime Primary Realtime Clock</Description><StartTime><Timestamp dt:dt="int">0</Timestamp><DateUtc dt:dt="string">2016-02-16T17:28:56Z</DateUtc></StartTime><FrequencyChanges><FrequencyChange><Frequency dt:dt="r8">3507724</Frequency><Timestamp dt:dt="r8">2956390863675</Timestamp><Current dt:dt="r8">0</Current><DateUtc dt:dt="string">2016-02-16T17:28:56Z</DateUtc></FrequencyChange></FrequencyChanges></Clock>\n	Hungry_Donkey_bar_English_2-132-1	60.018	-97	1.0.0.18	1	1454045346	Standard	2.0.10.353	2.0.10.353	02-16-2016	2/16/2016 5:28:56 PM	12:28:56	2.0.10.248	94	Bar50-50.bmp	49	4	?	10r_4g.bmp	0r_4g.bmp	2r_2g.bmp	0r_2g.bmp				0r_2g.bmp	TrialProc	TrialList	0	cvbn	-999999	16	394841	0	n	638	395479	276	-290	-14	-18	-38	18	24	2	10	94	-10	0	-2	0	4	4	2	2	0	2
Hungry_Donkey_bar_English_2	132	1	<?xml version="1.0"?>\n<Clock xmlns:dt="urn:schemas-microsoft-com:datatypes"><Description dt:dt="string">E-Prime Primary Realtime Clock</Description><StartTime><Timestamp dt:dt="int">0</Timestamp><DateUtc dt:dt="string">2016-02-16T17:28:56Z</DateUtc></StartTime><FrequencyChanges><FrequencyChange><Frequency dt:dt="r8">3507724</Frequency><Timestamp dt:dt="r8">2956390863675</Timestamp><Current dt:dt="r8">0</Current><DateUtc dt:dt="string">2016-02-16T17:28:56Z</DateUtc></FrequencyChange></FrequencyChanges></Clock>\n	Hungry_Donkey_bar_English_2-132-1	60.018	-97	1.0.0.18	1	1454045346	Standard	2.0.10.353	2.0.10.353	02-16-2016	2/16/2016 5:28:56 PM	12:28:56	2.0.10.248	95	Bar50-50.bmp	49	3	?	10r_4g.bmp	0r_4g.bmp	2r_2g.bmp	0r_2g.bmp			2r_2g.bmp		TrialProc	TrialList	0	cvbn	-999999	16	397506	0	b	612	398118	278	-292	-14	-18	-38	18	24	4	10	95	-10	0	-2	0	4	4	2	2	-2	2
Hungry_Donkey_bar_English_2	132	1	<?xml version="1.0"?>\n<Clock xmlns:dt="urn:schemas-microsoft-com:datatypes"><Description dt:dt="string">E-Prime Primary Realtime Clock</Description><StartTime><Timestamp dt:dt="int">0</Timestamp><DateUtc dt:dt="string">2016-02-16T17:28:56Z</DateUtc></StartTime><FrequencyChanges><FrequencyChange><Frequency dt:dt="r8">3507724</Frequency><Timestamp dt:dt="r8">2956390863675</Timestamp><Current dt:dt="r8">0</Current><DateUtc dt:dt="string">2016-02-16T17:28:56Z</DateUtc></FrequencyChange></FrequencyChanges></Clock>\n	Hungry_Donkey_bar_English_2-132-1	60.018	-97	1.0.0.18	1	1454045346	Standard	2.0.10.353	2.0.10.353	02-16-2016	2/16/2016 5:28:56 PM	12:28:56	2.0.10.248	96	Bar50-50.bmp	49	4	?	0r_4g.bmp	0r_4g.bmp	0r_2g.bmp	0r_2g.bmp				0r_2g.bmp	TrialProc	TrialList	0	cvbn	-999999	16	400156	0	n	1738	401894	280	-292	-12	-18	-38	18	26	8	10	96	0	0	0	0	4	4	2	2	0	2
Hungry_Donkey_bar_English_2	132	1	<?xml version="1.0"?>\n<Clock xmlns:dt="urn:schemas-microsoft-com:datatypes"><Description dt:dt="string">E-Prime Primary Realtime Clock</Description><StartTime><Timestamp dt:dt="int">0</Timestamp><DateUtc dt:dt="string">2016-02-16T17:28:56Z</DateUtc></StartTime><FrequencyChanges><FrequencyChange><Frequency dt:dt="r8">3507724</Frequency><Timestamp dt:dt="r8">2956390863675</Timestamp><Current dt:dt="r8">0</Current><DateUtc dt:dt="string">2016-02-16T17:28:56Z</DateUtc></FrequencyChange></FrequencyChanges></Clock>\n	Hungry_Donkey_bar_English_2-132-1	60.018	-97	1.0.0.18	1	1454045346	Standard	2.0.10.353	2.0.10.353	02-16-2016	2/16/2016 5:28:56 PM	12:28:56	2.0.10.248	97	Bar50-50.bmp	45	2	?	8r_4g.bmp	50r_4g.bmp	1r_2g.bmp	10r_2g.bmp		50r_4g.bmp			TrialProc	TrialList	0	cvbn	-999999	16	403921	0	v	1109	405030	284	-342	-58	-18	-84	18	26	1	10	97	-8	-50	-1	-10	4	4	2	2	-50	4
Hungry_Donkey_bar_English_2	132	1	<?xml version="1.0"?>\n<Clock xmlns:dt="urn:schemas-microsoft-com:datatypes"><Description dt:dt="string">E-Prime Primary Realtime Clock</Description><StartTime><Timestamp dt:dt="int">0</Timestamp><DateUtc dt:dt="string">2016-02-16T17:28:56Z</DateUtc></StartTime><FrequencyChanges><FrequencyChange><Frequency dt:dt="r8">3507724</Frequency><Timestamp dt:dt="r8">2956390863675</Timestamp><Current dt:dt="r8">0</Current><DateUtc dt:dt="string">2016-02-16T17:28:56Z</DateUtc></FrequencyChange></FrequencyChanges></Clock>\n	Hungry_Donkey_bar_English_2-132-1	60.018	-97	1.0.0.18	1	1454045346	Standard	2.0.10.353	2.0.10.353	02-16-2016	2/16/2016 5:28:56 PM	12:28:56	2.0.10.248	98	Bar50-50.bmp	46	2	?	0r_4g.bmp	0r_4g.bmp	0r_2g.bmp	0r_2g.bmp		0r_4g.bmp			TrialProc	TrialList	0	cvbn	-999999	16	407054	0	v	1160	408214	288	-342	-54	-18	-80	18	26	9	10	98	0	0	0	0	4	4	2	2	0	4
Hungry_Donkey_bar_English_2	132	1	<?xml version="1.0"?>\n<Clock xmlns:dt="urn:schemas-microsoft-com:datatypes"><Description dt:dt="string">E-Prime Primary Realtime Clock</Description><StartTime><Timestamp dt:dt="int">0</Timestamp><DateUtc dt:dt="string">2016-02-16T17:28:56Z</DateUtc></StartTime><FrequencyChanges><FrequencyChange><Frequency dt:dt="r8">3507724</Frequency><Timestamp dt:dt="r8">2956390863675</Timestamp><Current dt:dt="r8">0</Current><DateUtc dt:dt="string">2016-02-16T17:28:56Z</DateUtc></FrequencyChange></FrequencyChanges></Clock>\n	Hungry_Donkey_bar_English_2-132-1	60.018	-97	1.0.0.18	1	1454045346	Standard	2.0.10.353	2.0.10.353	02-16-2016	2/16/2016 5:28:56 PM	12:28:56	2.0.10.248	99	Bar50-50.bmp	46	1	?	0r_4g.bmp	0r_4g.bmp	0r_2g.bmp	0r_2g.bmp	0r_4g.bmp				TrialProc	TrialList	0	cvbn	-999999	16	410253	0	c	969	411222	292	-342	-50	-14	-80	18	26	7	10	99	0	0	0	0	4	4	2	2	0	4
Hungry_Donkey_bar_English_2	132	1	<?xml version="1.0"?>\n<Clock xmlns:dt="urn:schemas-microsoft-com:datatypes"><Description dt:dt="string">E-Prime Primary Realtime Clock</Description><StartTime><Timestamp dt:dt="int">0</Timestamp><DateUtc dt:dt="string">2016-02-16T17:28:56Z</DateUtc></StartTime><FrequencyChanges><FrequencyChange><Frequency dt:dt="r8">3507724</Frequency><Timestamp dt:dt="r8">2956390863675</Timestamp><Current dt:dt="r8">0</Current><DateUtc dt:dt="string">2016-02-16T17:28:56Z</DateUtc></FrequencyChange></FrequencyChanges></Clock>\n	Hungry_Donkey_bar_English_2-132-1	60.018	-97	1.0.0.18	1	1454045346	Standard	2.0.10.353	2.0.10.353	02-16-2016	2/16/2016 5:28:56 PM	12:28:56	2.0.10.248	100	Bar50-50.bmp	46	3	?	10r_4g.bmp	0r_4g.bmp	2r_2g.bmp	0r_2g.bmp			2r_2g.bmp		TrialProc	TrialList	0	cvbn	-999999	16	413252	0	b	897	414149	294	-344	-50	-14	-80	18	26	3	10	100	-10	0	-2	0	4	4	2	2	-2	2
Hungry_Donkey_bar_English_2	132	1	<?xml version="1.0"?>\n<Clock xmlns:dt="urn:schemas-microsoft-com:datatypes"><Description dt:dt="string">E-Prime Primary Realtime Clock</Description><StartTime><Timestamp dt:dt="int">0</Timestamp><DateUtc dt:dt="string">2016-02-16T17:28:56Z</DateUtc></StartTime><FrequencyChanges><FrequencyChange><Frequency dt:dt="r8">3507724</Frequency><Timestamp dt:dt="r8">2956390863675</Timestamp><Current dt:dt="r8">0</Current><DateUtc dt:dt="string">2016-02-16T17:28:56Z</DateUtc></FrequencyChange></FrequencyChanges></Clock>\n	Hungry_Donkey_bar_English_2-132-1	60.018	-97	1.0.0.18	1	1454045346	Standard	2.0.10.353	2.0.10.353	02-16-2016	2/16/2016 5:28:56 PM	12:28:56	2.0.10.248	101	Bar50-50.bmp	46	2	?	0r_4g.bmp	0r_4g.bmp	0r_2g.bmp	0r_2g.bmp		0r_4g.bmp			TrialProc	TrialList	0	cvbn	-999999	16	416184	0	v	1261	417445	298	-344	-46	-14	-76	18	26	9	11	101	0	0	0	0	4	4	2	2	0	4
Hungry_Donkey_bar_English_2	132	1	<?xml version="1.0"?>\n<Clock xmlns:dt="urn:schemas-microsoft-com:datatypes"><Description dt:dt="string">E-Prime Primary Realtime Clock</Description><StartTime><Timestamp dt:dt="int">0</Timestamp><DateUtc dt:dt="string">2016-02-16T17:28:56Z</DateUtc></StartTime><FrequencyChanges><FrequencyChange><Frequency dt:dt="r8">3507724</Frequency><Timestamp dt:dt="r8">2956390863675</Timestamp><Current dt:dt="r8">0</Current><DateUtc dt:dt="string">2016-02-16T17:28:56Z</DateUtc></FrequencyChange></FrequencyChanges></Clock>\n	Hungry_Donkey_bar_English_2-132-1	60.018	-97	1.0.0.18	1	1454045346	Standard	2.0.10.353	2.0.10.353	02-16-2016	2/16/2016 5:28:56 PM	12:28:56	2.0.10.248	102	Bar50-50.bmp	47	4	?	0r_4g.bmp	0r_4g.bmp	0r_2g.bmp	0r_2g.bmp				0r_2g.bmp	TrialProc	TrialList	0	cvbn	-999999	16	419483	0	n	1114	420597	300	-344	-44	-14	-76	18	28	10	11	102	0	0	0	0	4	4	2	2	0	2
Hungry_Donkey_bar_English_2	132	1	<?xml version="1.0"?>\n<Clock xmlns:dt="urn:schemas-microsoft-com:datatypes"><Description dt:dt="string">E-Prime Primary Realtime Clock</Description><StartTime><Timestamp dt:dt="int">0</Timestamp><DateUtc dt:dt="string">2016-02-16T17:28:56Z</DateUtc></StartTime><FrequencyChanges><FrequencyChange><Frequency dt:dt="r8">3507724</Frequency><Timestamp dt:dt="r8">2956390863675</Timestamp><Current dt:dt="r8">0</Current><DateUtc dt:dt="string">2016-02-16T17:28:56Z</DateUtc></FrequencyChange></FrequencyChanges></Clock>\n	Hungry_Donkey_bar_English_2-132-1	60.018	-97	1.0.0.18	1	1454045346	Standard	2.0.10.353	2.0.10.353	02-16-2016	2/16/2016 5:28:56 PM	12:28:56	2.0.10.248	103	Bar50-50.bmp	46	1	?	8r_4g.bmp	50r_4g.bmp	1r_2g.bmp	10r_2g.bmp	8r_4g.bmp				TrialProc	TrialList	0	cvbn	-999999	16	422632	0	c	1069	423701	304	-352	-48	-18	-76	18	28	1	11	103	-8	-50	-1	-10	4	4	2	2	-8	4
Hungry_Donkey_bar_English_2	132	1	<?xml version="1.0"?>\n<Clock xmlns:dt="urn:schemas-microsoft-com:datatypes"><Description dt:dt="string">E-Prime Primary Realtime Clock</Description><StartTime><Timestamp dt:dt="int">0</Timestamp><DateUtc dt:dt="string">2016-02-16T17:28:56Z</DateUtc></StartTime><FrequencyChanges><FrequencyChange><Frequency dt:dt="r8">3507724</Frequency><Timestamp dt:dt="r8">2956390863675</Timestamp><Current dt:dt="r8">0</Current><DateUtc dt:dt="string">2016-02-16T17:28:56Z</DateUtc></FrequencyChange></FrequencyChanges></Clock>\n	Hungry_Donkey_bar_English_2-132-1	60.018	-97	1.0.0.18	1	1454045346	Standard	2.0.10.353	2.0.10.353	02-16-2016	2/16/2016 5:28:56 PM	12:28:56	2.0.10.248	104	Bar50-50.bmp	46	3	?	10r_4g.bmp	0r_4g.bmp	2r_2g.bmp	0r_2g.bmp			2r_2g.bmp		TrialProc	TrialList	0	cvbn	-999999	16	425748	0	b	1345	427093	306	-354	-48	-18	-76	18	28	4	11	104	-10	0	-2	0	4	4	2	2	-2	2
Hungry_Donkey_bar_English_2	132	1	<?xml version="1.0"?>\n<Clock xmlns:dt="urn:schemas-microsoft-com:datatypes"><Description dt:dt="string">E-Prime Primary Realtime Clock</Description><StartTime><Timestamp dt:dt="int">0</Timestamp><DateUtc dt:dt="string">2016-02-16T17:28:56Z</DateUtc></StartTime><FrequencyChanges><FrequencyChange><Frequency dt:dt="r8">3507724</Frequency><Timestamp dt:dt="r8">2956390863675</Timestamp><Current dt:dt="r8">0</Current><DateUtc dt:dt="string">2016-02-16T17:28:56Z</DateUtc></FrequencyChange></FrequencyChanges></Clock>\n	Hungry_Donkey_bar_English_2-132-1	60.018	-97	1.0.0.18	1	1454045346	Standard	2.0.10.353	2.0.10.353	02-16-2016	2/16/2016 5:28:56 PM	12:28:56	2.0.10.248	105	Bar50-50.bmp	47	2	?	0r_4g.bmp	0r_4g.bmp	0r_2g.bmp	0r_2g.bmp		0r_4g.bmp			TrialProc	TrialList	0	cvbn	-999999	16	429130	0	v	2954	432084	310	-354	-44	-18	-72	18	28	8	11	105	0	0	0	0	4	4	2	2	0	4
Hungry_Donkey_bar_English_2	132	1	<?xml version="1.0"?>\n<Clock xmlns:dt="urn:schemas-microsoft-com:datatypes"><Description dt:dt="string">E-Prime Primary Realtime Clock</Description><StartTime><Timestamp dt:dt="int">0</Timestamp><DateUtc dt:dt="string">2016-02-16T17:28:56Z</DateUtc></StartTime><FrequencyChanges><FrequencyChange><Frequency dt:dt="r8">3507724</Frequency><Timestamp dt:dt="r8">2956390863675</Timestamp><Current dt:dt="r8">0</Current><DateUtc dt:dt="string">2016-02-16T17:28:56Z</DateUtc></FrequencyChange></FrequencyChanges></Clock>\n	Hungry_Donkey_bar_English_2-132-1	60.018	-97	1.0.0.18	1	1454045346	Standard	2.0.10.353	2.0.10.353	02-16-2016	2/16/2016 5:28:56 PM	12:28:56	2.0.10.248	106	Bar50-50.bmp	46	1	?	10r_4g.bmp	0r_4g.bmp	2r_2g.bmp	0r_2g.bmp	10r_4g.bmp				TrialProc	TrialList	0	cvbn	-999999	16	434112	0	c	852	434964	314	-364	-50	-24	-72	18	28	3	11	106	-10	0	-2	0	4	4	2	2	-10	4
Hungry_Donkey_bar_English_2	132	1	<?xml version="1.0"?>\n<Clock xmlns:dt="urn:schemas-microsoft-com:datatypes"><Description dt:dt="string">E-Prime Primary Realtime Clock</Description><StartTime><Timestamp dt:dt="int">0</Timestamp><DateUtc dt:dt="string">2016-02-16T17:28:56Z</DateUtc></StartTime><FrequencyChanges><FrequencyChange><Frequency dt:dt="r8">3507724</Frequency><Timestamp dt:dt="r8">2956390863675</Timestamp><Current dt:dt="r8">0</Current><DateUtc dt:dt="string">2016-02-16T17:28:56Z</DateUtc></FrequencyChange></FrequencyChanges></Clock>\n	Hungry_Donkey_bar_English_2-132-1	60.018	-97	1.0.0.18	1	1454045346	Standard	2.0.10.353	2.0.10.353	02-16-2016	2/16/2016 5:28:56 PM	12:28:56	2.0.10.248	107	Bar50-50.bmp	46	3	?	10r_4g.bmp	0r_4g.bmp	2r_2g.bmp	0r_2g.bmp			2r_2g.bmp		TrialProc	TrialList	0	cvbn	-999999	16	436995	0	b	481	437476	316	-366	-50	-24	-72	18	28	2	11	107	-10	0	-2	0	4	4	2	2	-2	2
Hungry_Donkey_bar_English_2	132	1	<?xml version="1.0"?>\n<Clock xmlns:dt="urn:schemas-microsoft-com:datatypes"><Description dt:dt="string">E-Prime Primary Realtime Clock</Description><StartTime><Timestamp dt:dt="int">0</Timestamp><DateUtc dt:dt="string">2016-02-16T17:28:56Z</DateUtc></StartTime><FrequencyChanges><FrequencyChange><Frequency dt:dt="r8">3507724</Frequency><Timestamp dt:dt="r8">2956390863675</Timestamp><Current dt:dt="r8">0</Current><DateUtc dt:dt="string">2016-02-16T17:28:56Z</DateUtc></FrequencyChange></FrequencyChanges></Clock>\n	Hungry_Donkey_bar_English_2-132-1	60.018	-97	1.0.0.18	1	1454045346	Standard	2.0.10.353	2.0.10.353	02-16-2016	2/16/2016 5:28:56 PM	12:28:56	2.0.10.248	108	Bar50-50.bmp	46	4	?	0r_4g.bmp	0r_4g.bmp	0r_2g.bmp	0r_2g.bmp				0r_2g.bmp	TrialProc	TrialList	0	cvbn	-999999	17	439511	0	n	365	439876	318	-366	-48	-24	-72	18	30	6	11	108	0	0	0	0	4	4	2	2	0	2
Hungry_Donkey_bar_English_2	132	1	<?xml version="1.0"?>\n<Clock xmlns:dt="urn:schemas-microsoft-com:datatypes"><Description dt:dt="string">E-Prime Primary Realtime Clock</Description><StartTime><Timestamp dt:dt="int">0</Timestamp><DateUtc dt:dt="string">2016-02-16T17:28:56Z</DateUtc></StartTime><FrequencyChanges><FrequencyChange><Frequency dt:dt="r8">3507724</Frequency><Timestamp dt:dt="r8">2956390863675</Timestamp><Current dt:dt="r8">0</Current><DateUtc dt:dt="string">2016-02-16T17:28:56Z</DateUtc></FrequencyChange></FrequencyChanges></Clock>\n	Hungry_Donkey_bar_English_2-132-1	60.018	-97	1.0.0.18	1	1454045346	Standard	2.0.10.353	2.0.10.353	02-16-2016	2/16/2016 5:28:56 PM	12:28:56	2.0.10.248	109	Bar50-50.bmp	46	1	?	12r_4g.bmp	0r_4g.bmp	3r_2g.bmp	0r_2g.bmp	12r_4g.bmp				TrialProc	TrialList	0	cvbn	-999999	16	441910	0	c	238	442148	322	-378	-56	-32	-72	18	30	5	11	109	-12	0	-3	0	4	4	2	2	-12	4
Hungry_Donkey_bar_English_2	132	1	<?xml version="1.0"?>\n<Clock xmlns:dt="urn:schemas-microsoft-com:datatypes"><Description dt:dt="string">E-Prime Primary Realtime Clock</Description><StartTime><Timestamp dt:dt="int">0</Timestamp><DateUtc dt:dt="string">2016-02-16T17:28:56Z</DateUtc></StartTime><FrequencyChanges><FrequencyChange><Frequency dt:dt="r8">3507724</Frequency><Timestamp dt:dt="r8">2956390863675</Timestamp><Current dt:dt="r8">0</Current><DateUtc dt:dt="string">2016-02-16T17:28:56Z</DateUtc></FrequencyChange></FrequencyChanges></Clock>\n	Hungry_Donkey_bar_English_2-132-1	60.018	-97	1.0.0.18	1	1454045346	Standard	2.0.10.353	2.0.10.353	02-16-2016	2/16/2016 5:28:56 PM	12:28:56	2.0.10.248	110	Bar50-50.bmp	46	3	?	0r_4g.bmp	0r_4g.bmp	0r_2g.bmp	0r_2g.bmp			0r_2g.bmp		TrialProc	TrialList	0	cvbn	-999999	16	444176	0	b	740	444916	324	-378	-54	-32	-72	20	30	7	11	110	0	0	0	0	4	4	2	2	0	2
Hungry_Donkey_bar_English_2	132	1	<?xml version="1.0"?>\n<Clock xmlns:dt="urn:schemas-microsoft-com:datatypes"><Description dt:dt="string">E-Prime Primary Realtime Clock</Description><StartTime><Timestamp dt:dt="int">0</Timestamp><DateUtc dt:dt="string">2016-02-16T17:28:56Z</DateUtc></StartTime><FrequencyChanges><FrequencyChange><Frequency dt:dt="r8">3507724</Frequency><Timestamp dt:dt="r8">2956390863675</Timestamp><Current dt:dt="r8">0</Current><DateUtc dt:dt="string">2016-02-16T17:28:56Z</DateUtc></FrequencyChange></FrequencyChanges></Clock>\n	Hungry_Donkey_bar_English_2-132-1	60.018	-97	1.0.0.18	1	1454045346	Standard	2.0.10.353	2.0.10.353	02-16-2016	2/16/2016 5:28:56 PM	12:28:56	2.0.10.248	111	Bar50-50.bmp	46	2	?	10r_4g.bmp	0r_4g.bmp	2r_2g.bmp	0r_2g.bmp		0r_4g.bmp			TrialProc	TrialList	0	cvbn	-999999	16	446942	0	v	469	447411	328	-378	-50	-32	-68	20	30	2	12	111	-10	0	-2	0	4	4	2	2	0	4
