ExperimentName	Subject	Session	Clock.Information	DataFile.Basename	Display.RefreshRate	Eindtotaal[Session]	ExperimentVersion	Group	RandomSeed	RuntimeCapabilities	RuntimeVersion	RuntimeVersionExpected	SessionDate	SessionStartDateTimeUtc	SessionTime	StudioVersion	Block	BarImage	BarTotalWinst	DoorChoice	Eindtotaal[Block]	FBDoor1	FBDoor2	FBDoor3	FBDoor4	Image1	Image2	Image3	Image4	Procedure	Running	spel.ACC	spel.CRESP	spel.DurationError	spel.OnsetDelay	spel.OnsetTime	spel.OnsetToOnsetTime	spel.RESP	spel.RT	spel.RTTime	TotalGain	TotalLose	Totalsum	TotalsumD1	TotalsumD2	TotalsumD3	TotalsumD4	TrialList	TrialList.Cycle	TrialList.Sample	varV1	varV2	varV3	varV4	varW1	varW2	varW3	varW4	Verliesbedrag	Winstbedrag
Hungry_Donkey_bar_English_2	124	1	<?xml version="1.0"?>\n<Clock xmlns:dt="urn:schemas-microsoft-com:datatypes"><Description dt:dt="string">E-Prime Primary Realtime Clock</Description><StartTime><Timestamp dt:dt="int">0</Timestamp><DateUtc dt:dt="string">2015-09-03T23:04:46Z</DateUtc></StartTime><FrequencyChanges><FrequencyChange><Frequency dt:dt="r8">3507734</Frequency><Timestamp dt:dt="r8">2820928408000</Timestamp><Current dt:dt="r8">0</Current><DateUtc dt:dt="string">2015-09-03T23:04:46Z</DateUtc></FrequencyChange></FrequencyChanges></Clock>\n	Hungry_Donkey_bar_English_2-124-1	60.018	-9	1.0.0.18	1	-864430688	Standard	2.0.10.353	2.0.10.353	09-03-2015		19:04:46	2.0.10.248	1	Bar25-75.bmp	29	1	?	10r_4g.bmp	0r_4g.bmp	2r_2g.bmp	0r_2g.bmp	10r_4g.bmp				TrialProc	TrialList	0	cvbn	-999999	15	7292	0	c	59949	67241	4	-10	-6	-6	0	0	0	3	1	1	-10	0	-2	0	4	4	2	2	-10	4
Hungry_Donkey_bar_English_2	124	1	<?xml version="1.0"?>\n<Clock xmlns:dt="urn:schemas-microsoft-com:datatypes"><Description dt:dt="string">E-Prime Primary Realtime Clock</Description><StartTime><Timestamp dt:dt="int">0</Timestamp><DateUtc dt:dt="string">2015-09-03T23:04:46Z</DateUtc></StartTime><FrequencyChanges><FrequencyChange><Frequency dt:dt="r8">3507734</Frequency><Timestamp dt:dt="r8">2820928408000</Timestamp><Current dt:dt="r8">0</Current><DateUtc dt:dt="string">2015-09-03T23:04:46Z</DateUtc></FrequencyChange></FrequencyChanges></Clock>\n	Hungry_Donkey_bar_English_2-124-1	60.018	-9	1.0.0.18	1	-864430688	Standard	2.0.10.353	2.0.10.353	09-03-2015		19:04:46	2.0.10.248	2	Bar50-50.bmp	44	2	?	0r_4g.bmp	0r_4g.bmp	0r_2g.bmp	0r_2g.bmp		0r_4g.bmp			TrialProc	TrialList	0	cvbn	-999999	16	69273	0	v	1648	70921	8	-10	-2	-6	4	0	0	9	1	2	0	0	0	0	4	4	2	2	0	4
Hungry_Donkey_bar_English_2	124	1	<?xml version="1.0"?>\n<Clock xmlns:dt="urn:schemas-microsoft-com:datatypes"><Description dt:dt="string">E-Prime Primary Realtime Clock</Description><StartTime><Timestamp dt:dt="int">0</Timestamp><DateUtc dt:dt="string">2015-09-03T23:04:46Z</DateUtc></StartTime><FrequencyChanges><FrequencyChange><Frequency dt:dt="r8">3507734</Frequency><Timestamp dt:dt="r8">2820928408000</Timestamp><Current dt:dt="r8">0</Current><DateUtc dt:dt="string">2015-09-03T23:04:46Z</DateUtc></FrequencyChange></FrequencyChanges></Clock>\n	Hungry_Donkey_bar_English_2-124-1	60.018	-9	1.0.0.18	1	-864430688	Standard	2.0.10.353	2.0.10.353	09-03-2015		19:04:46	2.0.10.248	3	Bar37-63.bmp	43	3	?	12r_4g.bmp	0r_4g.bmp	3r_2g.bmp	0r_2g.bmp			3r_2g.bmp		TrialProc	TrialList	0	cvbn	-999999	16	72955	0	b	622	73577	10	-13	-3	-6	4	-1	0	5	1	3	-12	0	-3	0	4	4	2	2	-3	2
Hungry_Donkey_bar_English_2	124	1	<?xml version="1.0"?>\n<Clock xmlns:dt="urn:schemas-microsoft-com:datatypes"><Description dt:dt="string">E-Prime Primary Realtime Clock</Description><StartTime><Timestamp dt:dt="int">0</Timestamp><DateUtc dt:dt="string">2015-09-03T23:04:46Z</DateUtc></StartTime><FrequencyChanges><FrequencyChange><Frequency dt:dt="r8">3507734</Frequency><Timestamp dt:dt="r8">2820928408000</Timestamp><Current dt:dt="r8">0</Current><DateUtc dt:dt="string">2015-09-03T23:04:46Z</DateUtc></FrequencyChange></FrequencyChanges></Clock>\n	Hungry_Donkey_bar_English_2-124-1	60.018	-9	1.0.0.18	1	-864430688	Standard	2.0.10.353	2.0.10.353	09-03-2015		19:04:46	2.0.10.248	4	Bar37-63.bmp	38	1	?	10r_4g.bmp	0r_4g.bmp	2r_2g.bmp	0r_2g.bmp	10r_4g.bmp				TrialProc	TrialList	0	cvbn	-999999	16	75604	0	c	1237	76841	14	-23	-9	-12	4	-1	0	2	1	4	-10	0	-2	0	4	4	2	2	-10	4
Hungry_Donkey_bar_English_2	124	1	<?xml version="1.0"?>\n<Clock xmlns:dt="urn:schemas-microsoft-com:datatypes"><Description dt:dt="string">E-Prime Primary Realtime Clock</Description><StartTime><Timestamp dt:dt="int">0</Timestamp><DateUtc dt:dt="string">2015-09-03T23:04:46Z</DateUtc></StartTime><FrequencyChanges><FrequencyChange><Frequency dt:dt="r8">3507734</Frequency><Timestamp dt:dt="r8">2820928408000</Timestamp><Current dt:dt="r8">0</Current><DateUtc dt:dt="string">2015-09-03T23:04:46Z</DateUtc></FrequencyChange></FrequencyChanges></Clock>\n	Hungry_Donkey_bar_English_2-124-1	60.018	-9	1.0.0.18	1	-864430688	Standard	2.0.10.353	2.0.10.353	09-03-2015		19:04:46	2.0.10.248	5	Bar37-63.bmp	41	4	?	0r_4g.bmp	0r_4g.bmp	0r_2g.bmp	0r_2g.bmp				0r_2g.bmp	TrialProc	TrialList	0	cvbn	-999999	16	78870	0	n	3538	82408	16	-23	-7	-12	4	-1	2	10	1	5	0	0	0	0	4	4	2	2	0	2
Hungry_Donkey_bar_English_2	124	1	<?xml version="1.0"?>\n<Clock xmlns:dt="urn:schemas-microsoft-com:datatypes"><Description dt:dt="string">E-Prime Primary Realtime Clock</Description><StartTime><Timestamp dt:dt="int">0</Timestamp><DateUtc dt:dt="string">2015-09-03T23:04:46Z</DateUtc></StartTime><FrequencyChanges><FrequencyChange><Frequency dt:dt="r8">3507734</Frequency><Timestamp dt:dt="r8">2820928408000</Timestamp><Current dt:dt="r8">0</Current><DateUtc dt:dt="string">2015-09-03T23:04:46Z</DateUtc></FrequencyChange></FrequencyChanges></Clock>\n	Hungry_Donkey_bar_English_2-124-1	60.018	-9	1.0.0.18	1	-864430688	Standard	2.0.10.353	2.0.10.353	09-03-2015		19:04:46	2.0.10.248	6	Bar50-50.bmp	44	3	?	0r_4g.bmp	0r_4g.bmp	0r_2g.bmp	0r_2g.bmp			0r_2g.bmp		TrialProc	TrialList	0	cvbn	-999999	16	84435	0	b	789	85224	18	-23	-5	-12	4	1	2	7	1	6	0	0	0	0	4	4	2	2	0	2
Hungry_Donkey_bar_English_2	124	1	<?xml version="1.0"?>\n<Clock xmlns:dt="urn:schemas-microsoft-com:datatypes"><Description dt:dt="string">E-Prime Primary Realtime Clock</Description><StartTime><Timestamp dt:dt="int">0</Timestamp><DateUtc dt:dt="string">2015-09-03T23:04:46Z</DateUtc></StartTime><FrequencyChanges><FrequencyChange><Frequency dt:dt="r8">3507734</Frequency><Timestamp dt:dt="r8">2820928408000</Timestamp><Current dt:dt="r8">0</Current><DateUtc dt:dt="string">2015-09-03T23:04:46Z</DateUtc></FrequencyChange></FrequencyChanges></Clock>\n	Hungry_Donkey_bar_English_2-124-1	60.018	-9	1.0.0.18	1	-864430688	Standard	2.0.10.353	2.0.10.353	09-03-2015		19:04:46	2.0.10.248	7	Bar50-50.bmp	49	2	?	10r_4g.bmp	0r_4g.bmp	2r_2g.bmp	0r_2g.bmp		0r_4g.bmp			TrialProc	TrialList	0	cvbn	-999999	16	87251	0	v	1493	88744	22	-23	-1	-12	8	1	2	4	1	7	-10	0	-2	0	4	4	2	2	0	4
Hungry_Donkey_bar_English_2	124	1	<?xml version="1.0"?>\n<Clock xmlns:dt="urn:schemas-microsoft-com:datatypes"><Description dt:dt="string">E-Prime Primary Realtime Clock</Description><StartTime><Timestamp dt:dt="int">0</Timestamp><DateUtc dt:dt="string">2015-09-03T23:04:46Z</DateUtc></StartTime><FrequencyChanges><FrequencyChange><Frequency dt:dt="r8">3507734</Frequency><Timestamp dt:dt="r8">2820928408000</Timestamp><Current dt:dt="r8">0</Current><DateUtc dt:dt="string">2015-09-03T23:04:46Z</DateUtc></FrequencyChange></FrequencyChanges></Clock>\n	Hungry_Donkey_bar_English_2-124-1	60.018	-9	1.0.0.18	1	-864430688	Standard	2.0.10.353	2.0.10.353	09-03-2015		19:04:46	2.0.10.248	8	Bar50-50.bmp	51	4	?	0r_4g.bmp	0r_4g.bmp	0r_2g.bmp	0r_2g.bmp				0r_2g.bmp	TrialProc	TrialList	0	cvbn	-999999	16	90783	0	n	1545	92328	24	-23	1	-12	8	1	4	6	1	8	0	0	0	0	4	4	2	2	0	2
Hungry_Donkey_bar_English_2	124	1	<?xml version="1.0"?>\n<Clock xmlns:dt="urn:schemas-microsoft-com:datatypes"><Description dt:dt="string">E-Prime Primary Realtime Clock</Description><StartTime><Timestamp dt:dt="int">0</Timestamp><DateUtc dt:dt="string">2015-09-03T23:04:46Z</DateUtc></StartTime><FrequencyChanges><FrequencyChange><Frequency dt:dt="r8">3507734</Frequency><Timestamp dt:dt="r8">2820928408000</Timestamp><Current dt:dt="r8">0</Current><DateUtc dt:dt="string">2015-09-03T23:04:46Z</DateUtc></FrequencyChange></FrequencyChanges></Clock>\n	Hungry_Donkey_bar_English_2-124-1	60.018	-9	1.0.0.18	1	-864430688	Standard	2.0.10.353	2.0.10.353	09-03-2015		19:04:46	2.0.10.248	9	Bar50-50.bmp	52	3	?	8r_4g.bmp	50r_4g.bmp	1r_2g.bmp	10r_2g.bmp			1r_2g.bmp		TrialProc	TrialList	0	cvbn	-999999	16	94365	0	b	618	94983	26	-24	2	-12	8	2	4	1	1	9	-8	-50	-1	-10	4	4	2	2	-1	2
Hungry_Donkey_bar_English_2	124	1	<?xml version="1.0"?>\n<Clock xmlns:dt="urn:schemas-microsoft-com:datatypes"><Description dt:dt="string">E-Prime Primary Realtime Clock</Description><StartTime><Timestamp dt:dt="int">0</Timestamp><DateUtc dt:dt="string">2015-09-03T23:04:46Z</DateUtc></StartTime><FrequencyChanges><FrequencyChange><Frequency dt:dt="r8">3507734</Frequency><Timestamp dt:dt="r8">2820928408000</Timestamp><Current dt:dt="r8">0</Current><DateUtc dt:dt="string">2015-09-03T23:04:46Z</DateUtc></FrequencyChange></FrequencyChanges></Clock>\n	Hungry_Donkey_bar_English_2-124-1	60.018	-9	1.0.0.18	1	-864430688	Standard	2.0.10.353	2.0.10.353	09-03-2015		19:04:46	2.0.10.248	10	Bar50-50.bmp	56	2	?	0r_4g.bmp	0r_4g.bmp	0r_2g.bmp	0r_2g.bmp		0r_4g.bmp			TrialProc	TrialList	0	cvbn	-999999	16	97014	0	v	513	97527	30	-24	6	-12	12	2	4	8	1	10	0	0	0	0	4	4	2	2	0	4
Hungry_Donkey_bar_English_2	124	1	<?xml version="1.0"?>\n<Clock xmlns:dt="urn:schemas-microsoft-com:datatypes"><Description dt:dt="string">E-Prime Primary Realtime Clock</Description><StartTime><Timestamp dt:dt="int">0</Timestamp><DateUtc dt:dt="string">2015-09-03T23:04:46Z</DateUtc></StartTime><FrequencyChanges><FrequencyChange><Frequency dt:dt="r8">3507734</Frequency><Timestamp dt:dt="r8">2820928408000</Timestamp><Current dt:dt="r8">0</Current><DateUtc dt:dt="string">2015-09-03T23:04:46Z</DateUtc></FrequencyChange></FrequencyChanges></Clock>\n	Hungry_Donkey_bar_English_2-124-1	60.018	-9	1.0.0.18	1	-864430688	Standard	2.0.10.353	2.0.10.353	09-03-2015		19:04:46	2.0.10.248	11	Bar50-50.bmp	49	1	?	12r_4g.bmp	0r_4g.bmp	3r_2g.bmp	0r_2g.bmp	12r_4g.bmp				TrialProc	TrialList	0	cvbn	-999999	16	99564	0	c	635	100199	34	-36	-2	-20	12	2	4	5	2	11	-12	0	-3	0	4	4	2	2	-12	4
Hungry_Donkey_bar_English_2	124	1	<?xml version="1.0"?>\n<Clock xmlns:dt="urn:schemas-microsoft-com:datatypes"><Description dt:dt="string">E-Prime Primary Realtime Clock</Description><StartTime><Timestamp dt:dt="int">0</Timestamp><DateUtc dt:dt="string">2015-09-03T23:04:46Z</DateUtc></StartTime><FrequencyChanges><FrequencyChange><Frequency dt:dt="r8">3507734</Frequency><Timestamp dt:dt="r8">2820928408000</Timestamp><Current dt:dt="r8">0</Current><DateUtc dt:dt="string">2015-09-03T23:04:46Z</DateUtc></FrequencyChange></FrequencyChanges></Clock>\n	Hungry_Donkey_bar_English_2-124-1	60.018	-9	1.0.0.18	1	-864430688	Standard	2.0.10.353	2.0.10.353	09-03-2015		19:04:46	2.0.10.248	12	Bar50-50.bmp	50	4	?	10r_4g.bmp	0r_4g.bmp	2r_2g.bmp	0r_2g.bmp				0r_2g.bmp	TrialProc	TrialList	0	cvbn	-999999	16	102229	0	n	354	102583	36	-36	0	-20	12	2	6	2	2	12	-10	0	-2	0	4	4	2	2	0	2
Hungry_Donkey_bar_English_2	124	1	<?xml version="1.0"?>\n<Clock xmlns:dt="urn:schemas-microsoft-com:datatypes"><Description dt:dt="string">E-Prime Primary Realtime Clock</Description><StartTime><Timestamp dt:dt="int">0</Timestamp><DateUtc dt:dt="string">2015-09-03T23:04:46Z</DateUtc></StartTime><FrequencyChanges><FrequencyChange><Frequency dt:dt="r8">3507734</Frequency><Timestamp dt:dt="r8">2820928408000</Timestamp><Current dt:dt="r8">0</Current><DateUtc dt:dt="string">2015-09-03T23:04:46Z</DateUtc></FrequencyChange></FrequencyChanges></Clock>\n	Hungry_Donkey_bar_English_2-124-1	60.018	-9	1.0.0.18	1	-864430688	Standard	2.0.10.353	2.0.10.353	09-03-2015		19:04:46	2.0.10.248	13	Bar50-50.bmp	51	3	?	0r_4g.bmp	0r_4g.bmp	0r_2g.bmp	0r_2g.bmp			0r_2g.bmp		TrialProc	TrialList	0	cvbn	-999999	16	104612	0	b	1347	105959	38	-36	2	-20	12	4	6	9	2	13	0	0	0	0	4	4	2	2	0	2
Hungry_Donkey_bar_English_2	124	1	<?xml version="1.0"?>\n<Clock xmlns:dt="urn:schemas-microsoft-com:datatypes"><Description dt:dt="string">E-Prime Primary Realtime Clock</Description><StartTime><Timestamp dt:dt="int">0</Timestamp><DateUtc dt:dt="string">2015-09-03T23:04:46Z</DateUtc></StartTime><FrequencyChanges><FrequencyChange><Frequency dt:dt="r8">3507734</Frequency><Timestamp dt:dt="r8">2820928408000</Timestamp><Current dt:dt="r8">0</Current><DateUtc dt:dt="string">2015-09-03T23:04:46Z</DateUtc></FrequencyChange></FrequencyChanges></Clock>\n	Hungry_Donkey_bar_English_2-124-1	60.018	-9	1.0.0.18	1	-864430688	Standard	2.0.10.353	2.0.10.353	09-03-2015		19:04:46	2.0.10.248	14	Bar50-50.bmp	53	4	?	0r_4g.bmp	0r_4g.bmp	0r_2g.bmp	0r_2g.bmp				0r_2g.bmp	TrialProc	TrialList	0	cvbn	-999999	16	107994	0	n	1469	109463	40	-36	4	-20	12	4	8	10	2	14	0	0	0	0	4	4	2	2	0	2
Hungry_Donkey_bar_English_2	124	1	<?xml version="1.0"?>\n<Clock xmlns:dt="urn:schemas-microsoft-com:datatypes"><Description dt:dt="string">E-Prime Primary Realtime Clock</Description><StartTime><Timestamp dt:dt="int">0</Timestamp><DateUtc dt:dt="string">2015-09-03T23:04:46Z</DateUtc></StartTime><FrequencyChanges><FrequencyChange><Frequency dt:dt="r8">3507734</Frequency><Timestamp dt:dt="r8">2820928408000</Timestamp><Current dt:dt="r8">0</Current><DateUtc dt:dt="string">2015-09-03T23:04:46Z</DateUtc></FrequencyChange></FrequencyChanges></Clock>\n	Hungry_Donkey_bar_English_2-124-1	60.018	-9	1.0.0.18	1	-864430688	Standard	2.0.10.353	2.0.10.353	09-03-2015		19:04:46	2.0.10.248	15	Bar50-50.bmp	52	3	?	10r_4g.bmp	0r_4g.bmp	2r_2g.bmp	0r_2g.bmp			2r_2g.bmp		TrialProc	TrialList	0	cvbn	-999999	16	111493	0	b	561	112054	42	-38	4	-20	12	4	8	4	2	15	-10	0	-2	0	4	4	2	2	-2	2
Hungry_Donkey_bar_English_2	124	1	<?xml version="1.0"?>\n<Clock xmlns:dt="urn:schemas-microsoft-com:datatypes"><Description dt:dt="string">E-Prime Primary Realtime Clock</Description><StartTime><Timestamp dt:dt="int">0</Timestamp><DateUtc dt:dt="string">2015-09-03T23:04:46Z</DateUtc></StartTime><FrequencyChanges><FrequencyChange><Frequency dt:dt="r8">3507734</Frequency><Timestamp dt:dt="r8">2820928408000</Timestamp><Current dt:dt="r8">0</Current><DateUtc dt:dt="string">2015-09-03T23:04:46Z</DateUtc></FrequencyChange></FrequencyChanges></Clock>\n	Hungry_Donkey_bar_English_2-124-1	60.018	-9	1.0.0.18	1	-864430688	Standard	2.0.10.353	2.0.10.353	09-03-2015		19:04:46	2.0.10.248	16	Bar50-50.bmp	55	2	?	10r_4g.bmp	0r_4g.bmp	2r_2g.bmp	0r_2g.bmp		0r_4g.bmp			TrialProc	TrialList	0	cvbn	-999999	17	114093	0	v	297	114390	46	-38	8	-20	16	4	8	3	2	16	-10	0	-2	0	4	4	2	2	0	4
Hungry_Donkey_bar_English_2	124	1	<?xml version="1.0"?>\n<Clock xmlns:dt="urn:schemas-microsoft-com:datatypes"><Description dt:dt="string">E-Prime Primary Realtime Clock</Description><StartTime><Timestamp dt:dt="int">0</Timestamp><DateUtc dt:dt="string">2015-09-03T23:04:46Z</DateUtc></StartTime><FrequencyChanges><FrequencyChange><Frequency dt:dt="r8">3507734</Frequency><Timestamp dt:dt="r8">2820928408000</Timestamp><Current dt:dt="r8">0</Current><DateUtc dt:dt="string">2015-09-03T23:04:46Z</DateUtc></FrequencyChange></FrequencyChanges></Clock>\n	Hungry_Donkey_bar_English_2-124-1	60.018	-9	1.0.0.18	1	-864430688	Standard	2.0.10.353	2.0.10.353	09-03-2015		19:04:46	2.0.10.248	17	Bar50-50.bmp	56	4	?	0r_4g.bmp	0r_4g.bmp	0r_2g.bmp	0r_2g.bmp				0r_2g.bmp	TrialProc	TrialList	0	cvbn	-999999	16	116425	0	n	1869	118294	48	-38	10	-20	16	4	10	7	2	17	0	0	0	0	4	4	2	2	0	2
Hungry_Donkey_bar_English_2	124	1	<?xml version="1.0"?>\n<Clock xmlns:dt="urn:schemas-microsoft-com:datatypes"><Description dt:dt="string">E-Prime Primary Realtime Clock</Description><StartTime><Timestamp dt:dt="int">0</Timestamp><DateUtc dt:dt="string">2015-09-03T23:04:46Z</DateUtc></StartTime><FrequencyChanges><FrequencyChange><Frequency dt:dt="r8">3507734</Frequency><Timestamp dt:dt="r8">2820928408000</Timestamp><Current dt:dt="r8">0</Current><DateUtc dt:dt="string">2015-09-03T23:04:46Z</DateUtc></FrequencyChange></FrequencyChanges></Clock>\n	Hungry_Donkey_bar_English_2-124-1	60.018	-9	1.0.0.18	1	-864430688	Standard	2.0.10.353	2.0.10.353	09-03-2015		19:04:46	2.0.10.248	18	Bar63-37.bmp	58	2	?	0r_4g.bmp	0r_4g.bmp	0r_2g.bmp	0r_2g.bmp		0r_4g.bmp			TrialProc	TrialList	0	cvbn	-999999	16	120324	0	v	450	120774	52	-38	14	-20	20	4	10	8	2	18	0	0	0	0	4	4	2	2	0	4
Hungry_Donkey_bar_English_2	124	1	<?xml version="1.0"?>\n<Clock xmlns:dt="urn:schemas-microsoft-com:datatypes"><Description dt:dt="string">E-Prime Primary Realtime Clock</Description><StartTime><Timestamp dt:dt="int">0</Timestamp><DateUtc dt:dt="string">2015-09-03T23:04:46Z</DateUtc></StartTime><FrequencyChanges><FrequencyChange><Frequency dt:dt="r8">3507734</Frequency><Timestamp dt:dt="r8">2820928408000</Timestamp><Current dt:dt="r8">0</Current><DateUtc dt:dt="string">2015-09-03T23:04:46Z</DateUtc></FrequencyChange></FrequencyChanges></Clock>\n	Hungry_Donkey_bar_English_2-124-1	60.018	-9	1.0.0.18	1	-864430688	Standard	2.0.10.353	2.0.10.353	09-03-2015		19:04:46	2.0.10.248	19	Bar63-37.bmp	58	3	?	8r_4g.bmp	50r_4g.bmp	1r_2g.bmp	10r_2g.bmp			1r_2g.bmp		TrialProc	TrialList	0	cvbn	-999999	17	122807	0	b	1983	124790	54	-39	15	-20	20	5	10	1	2	19	-8	-50	-1	-10	4	4	2	2	-1	2
Hungry_Donkey_bar_English_2	124	1	<?xml version="1.0"?>\n<Clock xmlns:dt="urn:schemas-microsoft-com:datatypes"><Description dt:dt="string">E-Prime Primary Realtime Clock</Description><StartTime><Timestamp dt:dt="int">0</Timestamp><DateUtc dt:dt="string">2015-09-03T23:04:46Z</DateUtc></StartTime><FrequencyChanges><FrequencyChange><Frequency dt:dt="r8">3507734</Frequency><Timestamp dt:dt="r8">2820928408000</Timestamp><Current dt:dt="r8">0</Current><DateUtc dt:dt="string">2015-09-03T23:04:46Z</DateUtc></FrequencyChange></FrequencyChanges></Clock>\n	Hungry_Donkey_bar_English_2-124-1	60.018	-9	1.0.0.18	1	-864430688	Standard	2.0.10.353	2.0.10.353	09-03-2015		19:04:46	2.0.10.248	20	Bar63-37.bmp	60	2	?	0r_4g.bmp	0r_4g.bmp	0r_2g.bmp	0r_2g.bmp		0r_4g.bmp			TrialProc	TrialList	0	cvbn	-999999	16	126822	0	v	383	127205	58	-39	19	-20	24	5	10	6	2	20	0	0	0	0	4	4	2	2	0	4
Hungry_Donkey_bar_English_2	124	1	<?xml version="1.0"?>\n<Clock xmlns:dt="urn:schemas-microsoft-com:datatypes"><Description dt:dt="string">E-Prime Primary Realtime Clock</Description><StartTime><Timestamp dt:dt="int">0</Timestamp><DateUtc dt:dt="string">2015-09-03T23:04:46Z</DateUtc></StartTime><FrequencyChanges><FrequencyChange><Frequency dt:dt="r8">3507734</Frequency><Timestamp dt:dt="r8">2820928408000</Timestamp><Current dt:dt="r8">0</Current><DateUtc dt:dt="string">2015-09-03T23:04:46Z</DateUtc></FrequencyChange></FrequencyChanges></Clock>\n	Hungry_Donkey_bar_English_2-124-1	60.018	-9	1.0.0.18	1	-864430688	Standard	2.0.10.353	2.0.10.353	09-03-2015		19:04:46	2.0.10.248	21	Bar63-37.bmp	61	4	?	0r_4g.bmp	0r_4g.bmp	0r_2g.bmp	0r_2g.bmp				0r_2g.bmp	TrialProc	TrialList	0	cvbn	-999999	16	129238	0	n	3103	132341	60	-39	21	-20	24	5	12	9	3	21	0	0	0	0	4	4	2	2	0	2
Hungry_Donkey_bar_English_2	124	1	<?xml version="1.0"?>\n<Clock xmlns:dt="urn:schemas-microsoft-com:datatypes"><Description dt:dt="string">E-Prime Primary Realtime Clock</Description><StartTime><Timestamp dt:dt="int">0</Timestamp><DateUtc dt:dt="string">2015-09-03T23:04:46Z</DateUtc></StartTime><FrequencyChanges><FrequencyChange><Frequency dt:dt="r8">3507734</Frequency><Timestamp dt:dt="r8">2820928408000</Timestamp><Current dt:dt="r8">0</Current><DateUtc dt:dt="string">2015-09-03T23:04:46Z</DateUtc></FrequencyChange></FrequencyChanges></Clock>\n	Hungry_Donkey_bar_English_2-124-1	60.018	-9	1.0.0.18	1	-864430688	Standard	2.0.10.353	2.0.10.353	09-03-2015		19:04:46	2.0.10.248	22	Bar63-37.bmp	57	1	?	10r_4g.bmp	0r_4g.bmp	2r_2g.bmp	0r_2g.bmp	10r_4g.bmp				TrialProc	TrialList	0	cvbn	-999999	16	134370	0	c	531	134901	64	-49	15	-26	24	5	12	3	3	22	-10	0	-2	0	4	4	2	2	-10	4
Hungry_Donkey_bar_English_2	124	1	<?xml version="1.0"?>\n<Clock xmlns:dt="urn:schemas-microsoft-com:datatypes"><Description dt:dt="string">E-Prime Primary Realtime Clock</Description><StartTime><Timestamp dt:dt="int">0</Timestamp><DateUtc dt:dt="string">2015-09-03T23:04:46Z</DateUtc></StartTime><FrequencyChanges><FrequencyChange><Frequency dt:dt="r8">3507734</Frequency><Timestamp dt:dt="r8">2820928408000</Timestamp><Current dt:dt="r8">0</Current><DateUtc dt:dt="string">2015-09-03T23:04:46Z</DateUtc></FrequencyChange></FrequencyChanges></Clock>\n	Hungry_Donkey_bar_English_2-124-1	60.018	-9	1.0.0.18	1	-864430688	Standard	2.0.10.353	2.0.10.353	09-03-2015		19:04:46	2.0.10.248	23	Bar63-37.bmp	57	3	?	0r_4g.bmp	0r_4g.bmp	0r_2g.bmp	0r_2g.bmp			0r_2g.bmp		TrialProc	TrialList	0	cvbn	-999999	16	136936	0	b	1437	138373	66	-49	17	-26	24	7	12	7	3	23	0	0	0	0	4	4	2	2	0	2
Hungry_Donkey_bar_English_2	124	1	<?xml version="1.0"?>\n<Clock xmlns:dt="urn:schemas-microsoft-com:datatypes"><Description dt:dt="string">E-Prime Primary Realtime Clock</Description><StartTime><Timestamp dt:dt="int">0</Timestamp><DateUtc dt:dt="string">2015-09-03T23:04:46Z</DateUtc></StartTime><FrequencyChanges><FrequencyChange><Frequency dt:dt="r8">3507734</Frequency><Timestamp dt:dt="r8">2820928408000</Timestamp><Current dt:dt="r8">0</Current><DateUtc dt:dt="string">2015-09-03T23:04:46Z</DateUtc></FrequencyChange></FrequencyChanges></Clock>\n	Hungry_Donkey_bar_English_2-124-1	60.018	-9	1.0.0.18	1	-864430688	Standard	2.0.10.353	2.0.10.353	09-03-2015		19:04:46	2.0.10.248	24	Bar63-37.bmp	59	2	?	0r_4g.bmp	0r_4g.bmp	0r_2g.bmp	0r_2g.bmp		0r_4g.bmp			TrialProc	TrialList	0	cvbn	-999999	16	140401	0	v	643	141044	70	-49	21	-26	28	7	12	6	3	24	0	0	0	0	4	4	2	2	0	4
Hungry_Donkey_bar_English_2	124	1	<?xml version="1.0"?>\n<Clock xmlns:dt="urn:schemas-microsoft-com:datatypes"><Description dt:dt="string">E-Prime Primary Realtime Clock</Description><StartTime><Timestamp dt:dt="int">0</Timestamp><DateUtc dt:dt="string">2015-09-03T23:04:46Z</DateUtc></StartTime><FrequencyChanges><FrequencyChange><Frequency dt:dt="r8">3507734</Frequency><Timestamp dt:dt="r8">2820928408000</Timestamp><Current dt:dt="r8">0</Current><DateUtc dt:dt="string">2015-09-03T23:04:46Z</DateUtc></FrequencyChange></FrequencyChanges></Clock>\n	Hungry_Donkey_bar_English_2-124-1	60.018	-9	1.0.0.18	1	-864430688	Standard	2.0.10.353	2.0.10.353	09-03-2015		19:04:46	2.0.10.248	25	Bar63-37.bmp	60	4	?	12r_4g.bmp	0r_4g.bmp	3r_2g.bmp	0r_2g.bmp				0r_2g.bmp	TrialProc	TrialList	0	cvbn	-999999	16	143084	0	n	1160	144244	72	-49	23	-26	28	7	14	5	3	25	-12	0	-3	0	4	4	2	2	0	2
Hungry_Donkey_bar_English_2	124	1	<?xml version="1.0"?>\n<Clock xmlns:dt="urn:schemas-microsoft-com:datatypes"><Description dt:dt="string">E-Prime Primary Realtime Clock</Description><StartTime><Timestamp dt:dt="int">0</Timestamp><DateUtc dt:dt="string">2015-09-03T23:04:46Z</DateUtc></StartTime><FrequencyChanges><FrequencyChange><Frequency dt:dt="r8">3507734</Frequency><Timestamp dt:dt="r8">2820928408000</Timestamp><Current dt:dt="r8">0</Current><DateUtc dt:dt="string">2015-09-03T23:04:46Z</DateUtc></FrequencyChange></FrequencyChanges></Clock>\n	Hungry_Donkey_bar_English_2-124-1	60.018	-9	1.0.0.18	1	-864430688	Standard	2.0.10.353	2.0.10.353	09-03-2015		19:04:46	2.0.10.248	26	Bar63-37.bmp	60	3	?	0r_4g.bmp	0r_4g.bmp	0r_2g.bmp	0r_2g.bmp			0r_2g.bmp		TrialProc	TrialList	0	cvbn	-999999	16	146283	0	b	313	146596	74	-49	25	-26	28	9	14	8	3	26	0	0	0	0	4	4	2	2	0	2
Hungry_Donkey_bar_English_2	124	1	<?xml version="1.0"?>\n<Clock xmlns:dt="urn:schemas-microsoft-com:datatypes"><Description dt:dt="string">E-Prime Primary Realtime Clock</Description><StartTime><Timestamp dt:dt="int">0</Timestamp><DateUtc dt:dt="string">2015-09-03T23:04:46Z</DateUtc></StartTime><FrequencyChanges><FrequencyChange><Frequency dt:dt="r8">3507734</Frequency><Timestamp dt:dt="r8">2820928408000</Timestamp><Current dt:dt="r8">0</Current><DateUtc dt:dt="string">2015-09-03T23:04:46Z</DateUtc></FrequencyChange></FrequencyChanges></Clock>\n	Hungry_Donkey_bar_English_2-124-1	60.018	-9	1.0.0.18	1	-864430688	Standard	2.0.10.353	2.0.10.353	09-03-2015		19:04:46	2.0.10.248	27	Bar50-50.bmp	44	2	?	8r_4g.bmp	50r_4g.bmp	1r_2g.bmp	10r_2g.bmp		50r_4g.bmp			TrialProc	TrialList	0	cvbn	-999999	16	148632	0	v	28	148660	78	-99	-21	-26	-18	9	14	1	3	27	-8	-50	-1	-10	4	4	2	2	-50	4
Hungry_Donkey_bar_English_2	124	1	<?xml version="1.0"?>\n<Clock xmlns:dt="urn:schemas-microsoft-com:datatypes"><Description dt:dt="string">E-Prime Primary Realtime Clock</Description><StartTime><Timestamp dt:dt="int">0</Timestamp><DateUtc dt:dt="string">2015-09-03T23:04:46Z</DateUtc></StartTime><FrequencyChanges><FrequencyChange><Frequency dt:dt="r8">3507734</Frequency><Timestamp dt:dt="r8">2820928408000</Timestamp><Current dt:dt="r8">0</Current><DateUtc dt:dt="string">2015-09-03T23:04:46Z</DateUtc></FrequencyChange></FrequencyChanges></Clock>\n	Hungry_Donkey_bar_English_2-124-1	60.018	-9	1.0.0.18	1	-864430688	Standard	2.0.10.353	2.0.10.353	09-03-2015		19:04:46	2.0.10.248	28	Bar37-63.bmp	43	1	?	10r_4g.bmp	0r_4g.bmp	2r_2g.bmp	0r_2g.bmp	10r_4g.bmp				TrialProc	TrialList	0	cvbn	-999999	16	150698	0	c	442	151140	82	-109	-27	-32	-18	9	14	2	3	28	-10	0	-2	0	4	4	2	2	-10	4
Hungry_Donkey_bar_English_2	124	1	<?xml version="1.0"?>\n<Clock xmlns:dt="urn:schemas-microsoft-com:datatypes"><Description dt:dt="string">E-Prime Primary Realtime Clock</Description><StartTime><Timestamp dt:dt="int">0</Timestamp><DateUtc dt:dt="string">2015-09-03T23:04:46Z</DateUtc></StartTime><FrequencyChanges><FrequencyChange><Frequency dt:dt="r8">3507734</Frequency><Timestamp dt:dt="r8">2820928408000</Timestamp><Current dt:dt="r8">0</Current><DateUtc dt:dt="string">2015-09-03T23:04:46Z</DateUtc></FrequencyChange></FrequencyChanges></Clock>\n	Hungry_Donkey_bar_English_2-124-1	60.018	-9	1.0.0.18	1	-864430688	Standard	2.0.10.353	2.0.10.353	09-03-2015		19:04:46	2.0.10.248	29	Bar50-50.bmp	44	2	?	10r_4g.bmp	0r_4g.bmp	2r_2g.bmp	0r_2g.bmp		0r_4g.bmp			TrialProc	TrialList	0	cvbn	-999999	16	153164	0	v	2248	155412	86	-109	-23	-32	-14	9	14	4	3	29	-10	0	-2	0	4	4	2	2	0	4
Hungry_Donkey_bar_English_2	124	1	<?xml version="1.0"?>\n<Clock xmlns:dt="urn:schemas-microsoft-com:datatypes"><Description dt:dt="string">E-Prime Primary Realtime Clock</Description><StartTime><Timestamp dt:dt="int">0</Timestamp><DateUtc dt:dt="string">2015-09-03T23:04:46Z</DateUtc></StartTime><FrequencyChanges><FrequencyChange><Frequency dt:dt="r8">3507734</Frequency><Timestamp dt:dt="r8">2820928408000</Timestamp><Current dt:dt="r8">0</Current><DateUtc dt:dt="string">2015-09-03T23:04:46Z</DateUtc></FrequencyChange></FrequencyChanges></Clock>\n	Hungry_Donkey_bar_English_2-124-1	60.018	-9	1.0.0.18	1	-864430688	Standard	2.0.10.353	2.0.10.353	09-03-2015		19:04:46	2.0.10.248	30	Bar50-50.bmp	45	4	?	0r_4g.bmp	0r_4g.bmp	0r_2g.bmp	0r_2g.bmp				0r_2g.bmp	TrialProc	TrialList	0	cvbn	-999999	16	157446	0	n	669	158115	88	-109	-21	-32	-14	9	16	10	3	30	0	0	0	0	4	4	2	2	0	2
Hungry_Donkey_bar_English_2	124	1	<?xml version="1.0"?>\n<Clock xmlns:dt="urn:schemas-microsoft-com:datatypes"><Description dt:dt="string">E-Prime Primary Realtime Clock</Description><StartTime><Timestamp dt:dt="int">0</Timestamp><DateUtc dt:dt="string">2015-09-03T23:04:46Z</DateUtc></StartTime><FrequencyChanges><FrequencyChange><Frequency dt:dt="r8">3507734</Frequency><Timestamp dt:dt="r8">2820928408000</Timestamp><Current dt:dt="r8">0</Current><DateUtc dt:dt="string">2015-09-03T23:04:46Z</DateUtc></FrequencyChange></FrequencyChanges></Clock>\n	Hungry_Donkey_bar_English_2-124-1	60.018	-9	1.0.0.18	1	-864430688	Standard	2.0.10.353	2.0.10.353	09-03-2015		19:04:46	2.0.10.248	31	Bar50-50.bmp	46	2	?	0r_4g.bmp	0r_4g.bmp	0r_2g.bmp	0r_2g.bmp		0r_4g.bmp			TrialProc	TrialList	0	cvbn	-999999	16	160145	0	v	978	161123	92	-109	-17	-32	-10	9	16	10	4	31	0	0	0	0	4	4	2	2	0	4
Hungry_Donkey_bar_English_2	124	1	<?xml version="1.0"?>\n<Clock xmlns:dt="urn:schemas-microsoft-com:datatypes"><Description dt:dt="string">E-Prime Primary Realtime Clock</Description><StartTime><Timestamp dt:dt="int">0</Timestamp><DateUtc dt:dt="string">2015-09-03T23:04:46Z</DateUtc></StartTime><FrequencyChanges><FrequencyChange><Frequency dt:dt="r8">3507734</Frequency><Timestamp dt:dt="r8">2820928408000</Timestamp><Current dt:dt="r8">0</Current><DateUtc dt:dt="string">2015-09-03T23:04:46Z</DateUtc></FrequencyChange></FrequencyChanges></Clock>\n	Hungry_Donkey_bar_English_2-124-1	60.018	-9	1.0.0.18	1	-864430688	Standard	2.0.10.353	2.0.10.353	09-03-2015		19:04:46	2.0.10.248	32	Bar50-50.bmp	46	4	?	0r_4g.bmp	0r_4g.bmp	0r_2g.bmp	0r_2g.bmp				0r_2g.bmp	TrialProc	TrialList	0	cvbn	-999999	16	163161	0	n	650	163811	94	-109	-15	-32	-10	9	18	6	4	32	0	0	0	0	4	4	2	2	0	2
Hungry_Donkey_bar_English_2	124	1	<?xml version="1.0"?>\n<Clock xmlns:dt="urn:schemas-microsoft-com:datatypes"><Description dt:dt="string">E-Prime Primary Realtime Clock</Description><StartTime><Timestamp dt:dt="int">0</Timestamp><DateUtc dt:dt="string">2015-09-03T23:04:46Z</DateUtc></StartTime><FrequencyChanges><FrequencyChange><Frequency dt:dt="r8">3507734</Frequency><Timestamp dt:dt="r8">2820928408000</Timestamp><Current dt:dt="r8">0</Current><DateUtc dt:dt="string">2015-09-03T23:04:46Z</DateUtc></FrequencyChange></FrequencyChanges></Clock>\n	Hungry_Donkey_bar_English_2-124-1	60.018	-9	1.0.0.18	1	-864430688	Standard	2.0.10.353	2.0.10.353	09-03-2015		19:04:46	2.0.10.248	33	Bar50-50.bmp	46	3	?	10r_4g.bmp	0r_4g.bmp	2r_2g.bmp	0r_2g.bmp			2r_2g.bmp		TrialProc	TrialList	0	cvbn	-999999	17	165844	0	b	479	166323	96	-111	-15	-32	-10	9	18	2	4	33	-10	0	-2	0	4	4	2	2	-2	2
Hungry_Donkey_bar_English_2	124	1	<?xml version="1.0"?>\n<Clock xmlns:dt="urn:schemas-microsoft-com:datatypes"><Description dt:dt="string">E-Prime Primary Realtime Clock</Description><StartTime><Timestamp dt:dt="int">0</Timestamp><DateUtc dt:dt="string">2015-09-03T23:04:46Z</DateUtc></StartTime><FrequencyChanges><FrequencyChange><Frequency dt:dt="r8">3507734</Frequency><Timestamp dt:dt="r8">2820928408000</Timestamp><Current dt:dt="r8">0</Current><DateUtc dt:dt="string">2015-09-03T23:04:46Z</DateUtc></FrequencyChange></FrequencyChanges></Clock>\n	Hungry_Donkey_bar_English_2-124-1	60.018	-9	1.0.0.18	1	-864430688	Standard	2.0.10.353	2.0.10.353	09-03-2015		19:04:46	2.0.10.248	34	Bar50-50.bmp	47	2	?	10r_4g.bmp	0r_4g.bmp	2r_2g.bmp	0r_2g.bmp		0r_4g.bmp			TrialProc	TrialList	0	cvbn	-999999	16	168359	0	v	428	168787	100	-111	-11	-32	-6	9	18	3	4	34	-10	0	-2	0	4	4	2	2	0	4
Hungry_Donkey_bar_English_2	124	1	<?xml version="1.0"?>\n<Clock xmlns:dt="urn:schemas-microsoft-com:datatypes"><Description dt:dt="string">E-Prime Primary Realtime Clock</Description><StartTime><Timestamp dt:dt="int">0</Timestamp><DateUtc dt:dt="string">2015-09-03T23:04:46Z</DateUtc></StartTime><FrequencyChanges><FrequencyChange><Frequency dt:dt="r8">3507734</Frequency><Timestamp dt:dt="r8">2820928408000</Timestamp><Current dt:dt="r8">0</Current><DateUtc dt:dt="string">2015-09-03T23:04:46Z</DateUtc></FrequencyChange></FrequencyChanges></Clock>\n	Hungry_Donkey_bar_English_2-124-1	60.018	-9	1.0.0.18	1	-864430688	Standard	2.0.10.353	2.0.10.353	09-03-2015		19:04:46	2.0.10.248	35	Bar50-50.bmp	46	4	?	8r_4g.bmp	50r_4g.bmp	1r_2g.bmp	10r_2g.bmp				10r_2g.bmp	TrialProc	TrialList	0	cvbn	-999999	16	170825	0	n	729	171554	102	-121	-19	-32	-6	9	10	1	4	35	-8	-50	-1	-10	4	4	2	2	-10	2
Hungry_Donkey_bar_English_2	124	1	<?xml version="1.0"?>\n<Clock xmlns:dt="urn:schemas-microsoft-com:datatypes"><Description dt:dt="string">E-Prime Primary Realtime Clock</Description><StartTime><Timestamp dt:dt="int">0</Timestamp><DateUtc dt:dt="string">2015-09-03T23:04:46Z</DateUtc></StartTime><FrequencyChanges><FrequencyChange><Frequency dt:dt="r8">3507734</Frequency><Timestamp dt:dt="r8">2820928408000</Timestamp><Current dt:dt="r8">0</Current><DateUtc dt:dt="string">2015-09-03T23:04:46Z</DateUtc></FrequencyChange></FrequencyChanges></Clock>\n	Hungry_Donkey_bar_English_2-124-1	60.018	-9	1.0.0.18	1	-864430688	Standard	2.0.10.353	2.0.10.353	09-03-2015		19:04:46	2.0.10.248	36	Bar50-50.bmp	47	2	?	0r_4g.bmp	0r_4g.bmp	0r_2g.bmp	0r_2g.bmp		0r_4g.bmp			TrialProc	TrialList	0	cvbn	-999999	16	173591	0	v	651	174242	106	-121	-15	-32	-2	9	10	7	4	36	0	0	0	0	4	4	2	2	0	4
Hungry_Donkey_bar_English_2	124	1	<?xml version="1.0"?>\n<Clock xmlns:dt="urn:schemas-microsoft-com:datatypes"><Description dt:dt="string">E-Prime Primary Realtime Clock</Description><StartTime><Timestamp dt:dt="int">0</Timestamp><DateUtc dt:dt="string">2015-09-03T23:04:46Z</DateUtc></StartTime><FrequencyChanges><FrequencyChange><Frequency dt:dt="r8">3507734</Frequency><Timestamp dt:dt="r8">2820928408000</Timestamp><Current dt:dt="r8">0</Current><DateUtc dt:dt="string">2015-09-03T23:04:46Z</DateUtc></FrequencyChange></FrequencyChanges></Clock>\n	Hungry_Donkey_bar_English_2-124-1	60.018	-9	1.0.0.18	1	-864430688	Standard	2.0.10.353	2.0.10.353	09-03-2015		19:04:46	2.0.10.248	37	Bar50-50.bmp	45	1	?	12r_4g.bmp	0r_4g.bmp	3r_2g.bmp	0r_2g.bmp	12r_4g.bmp				TrialProc	TrialList	0	cvbn	-999999	16	176274	0	c	1152	177426	110	-133	-23	-40	-2	9	10	5	4	37	-12	0	-3	0	4	4	2	2	-12	4
Hungry_Donkey_bar_English_2	124	1	<?xml version="1.0"?>\n<Clock xmlns:dt="urn:schemas-microsoft-com:datatypes"><Description dt:dt="string">E-Prime Primary Realtime Clock</Description><StartTime><Timestamp dt:dt="int">0</Timestamp><DateUtc dt:dt="string">2015-09-03T23:04:46Z</DateUtc></StartTime><FrequencyChanges><FrequencyChange><Frequency dt:dt="r8">3507734</Frequency><Timestamp dt:dt="r8">2820928408000</Timestamp><Current dt:dt="r8">0</Current><DateUtc dt:dt="string">2015-09-03T23:04:46Z</DateUtc></FrequencyChange></FrequencyChanges></Clock>\n	Hungry_Donkey_bar_English_2-124-1	60.018	-9	1.0.0.18	1	-864430688	Standard	2.0.10.353	2.0.10.353	09-03-2015		19:04:46	2.0.10.248	38	Bar50-50.bmp	46	4	?	0r_4g.bmp	0r_4g.bmp	0r_2g.bmp	0r_2g.bmp				0r_2g.bmp	TrialProc	TrialList	0	cvbn	-999999	16	179456	0	n	530	179986	112	-133	-21	-40	-2	9	12	9	4	38	0	0	0	0	4	4	2	2	0	2
Hungry_Donkey_bar_English_2	124	1	<?xml version="1.0"?>\n<Clock xmlns:dt="urn:schemas-microsoft-com:datatypes"><Description dt:dt="string">E-Prime Primary Realtime Clock</Description><StartTime><Timestamp dt:dt="int">0</Timestamp><DateUtc dt:dt="string">2015-09-03T23:04:46Z</DateUtc></StartTime><FrequencyChanges><FrequencyChange><Frequency dt:dt="r8">3507734</Frequency><Timestamp dt:dt="r8">2820928408000</Timestamp><Current dt:dt="r8">0</Current><DateUtc dt:dt="string">2015-09-03T23:04:46Z</DateUtc></FrequencyChange></FrequencyChanges></Clock>\n	Hungry_Donkey_bar_English_2-124-1	60.018	-9	1.0.0.18	1	-864430688	Standard	2.0.10.353	2.0.10.353	09-03-2015		19:04:46	2.0.10.248	39	Bar50-50.bmp	47	2	?	10r_4g.bmp	0r_4g.bmp	2r_2g.bmp	0r_2g.bmp		0r_4g.bmp			TrialProc	TrialList	0	cvbn	-999999	16	182022	0	v	1148	183170	116	-133	-17	-40	2	9	12	4	4	39	-10	0	-2	0	4	4	2	2	0	4
Hungry_Donkey_bar_English_2	124	1	<?xml version="1.0"?>\n<Clock xmlns:dt="urn:schemas-microsoft-com:datatypes"><Description dt:dt="string">E-Prime Primary Realtime Clock</Description><StartTime><Timestamp dt:dt="int">0</Timestamp><DateUtc dt:dt="string">2015-09-03T23:04:46Z</DateUtc></StartTime><FrequencyChanges><FrequencyChange><Frequency dt:dt="r8">3507734</Frequency><Timestamp dt:dt="r8">2820928408000</Timestamp><Current dt:dt="r8">0</Current><DateUtc dt:dt="string">2015-09-03T23:04:46Z</DateUtc></FrequencyChange></FrequencyChanges></Clock>\n	Hungry_Donkey_bar_English_2-124-1	60.018	-9	1.0.0.18	1	-864430688	Standard	2.0.10.353	2.0.10.353	09-03-2015		19:04:46	2.0.10.248	40	Bar50-50.bmp	47	3	?	0r_4g.bmp	0r_4g.bmp	0r_2g.bmp	0r_2g.bmp			0r_2g.bmp		TrialProc	TrialList	0	cvbn	-999999	16	185204	0	b	1278	186482	118	-133	-15	-40	2	11	12	8	4	40	0	0	0	0	4	4	2	2	0	2
Hungry_Donkey_bar_English_2	124	1	<?xml version="1.0"?>\n<Clock xmlns:dt="urn:schemas-microsoft-com:datatypes"><Description dt:dt="string">E-Prime Primary Realtime Clock</Description><StartTime><Timestamp dt:dt="int">0</Timestamp><DateUtc dt:dt="string">2015-09-03T23:04:46Z</DateUtc></StartTime><FrequencyChanges><FrequencyChange><Frequency dt:dt="r8">3507734</Frequency><Timestamp dt:dt="r8">2820928408000</Timestamp><Current dt:dt="r8">0</Current><DateUtc dt:dt="string">2015-09-03T23:04:46Z</DateUtc></FrequencyChange></FrequencyChanges></Clock>\n	Hungry_Donkey_bar_English_2-124-1	60.018	-9	1.0.0.18	1	-864430688	Standard	2.0.10.353	2.0.10.353	09-03-2015		19:04:46	2.0.10.248	41	Bar50-50.bmp	48	1	?	0r_4g.bmp	0r_4g.bmp	0r_2g.bmp	0r_2g.bmp	0r_4g.bmp				TrialProc	TrialList	0	cvbn	-999999	16	188520	0	c	665	189185	122	-133	-11	-36	2	11	12	7	5	41	0	0	0	0	4	4	2	2	0	4
Hungry_Donkey_bar_English_2	124	1	<?xml version="1.0"?>\n<Clock xmlns:dt="urn:schemas-microsoft-com:datatypes"><Description dt:dt="string">E-Prime Primary Realtime Clock</Description><StartTime><Timestamp dt:dt="int">0</Timestamp><DateUtc dt:dt="string">2015-09-03T23:04:46Z</DateUtc></StartTime><FrequencyChanges><FrequencyChange><Frequency dt:dt="r8">3507734</Frequency><Timestamp dt:dt="r8">2820928408000</Timestamp><Current dt:dt="r8">0</Current><DateUtc dt:dt="string">2015-09-03T23:04:46Z</DateUtc></FrequencyChange></FrequencyChanges></Clock>\n	Hungry_Donkey_bar_English_2-124-1	60.018	-9	1.0.0.18	1	-864430688	Standard	2.0.10.353	2.0.10.353	09-03-2015		19:04:46	2.0.10.248	42	Bar50-50.bmp	48	4	?	0r_4g.bmp	0r_4g.bmp	0r_2g.bmp	0r_2g.bmp				0r_2g.bmp	TrialProc	TrialList	0	cvbn	-999999	16	191219	0	n	1678	192897	124	-133	-9	-36	2	11	14	6	5	42	0	0	0	0	4	4	2	2	0	2
Hungry_Donkey_bar_English_2	124	1	<?xml version="1.0"?>\n<Clock xmlns:dt="urn:schemas-microsoft-com:datatypes"><Description dt:dt="string">E-Prime Primary Realtime Clock</Description><StartTime><Timestamp dt:dt="int">0</Timestamp><DateUtc dt:dt="string">2015-09-03T23:04:46Z</DateUtc></StartTime><FrequencyChanges><FrequencyChange><Frequency dt:dt="r8">3507734</Frequency><Timestamp dt:dt="r8">2820928408000</Timestamp><Current dt:dt="r8">0</Current><DateUtc dt:dt="string">2015-09-03T23:04:46Z</DateUtc></FrequencyChange></FrequencyChanges></Clock>\n	Hungry_Donkey_bar_English_2-124-1	60.018	-9	1.0.0.18	1	-864430688	Standard	2.0.10.353	2.0.10.353	09-03-2015		19:04:46	2.0.10.248	43	Bar50-50.bmp	48	3	?	10r_4g.bmp	0r_4g.bmp	2r_2g.bmp	0r_2g.bmp			2r_2g.bmp		TrialProc	TrialList	0	cvbn	-999999	16	194935	0	b	362	195297	126	-135	-9	-36	2	11	14	3	5	43	-10	0	-2	0	4	4	2	2	-2	2
Hungry_Donkey_bar_English_2	124	1	<?xml version="1.0"?>\n<Clock xmlns:dt="urn:schemas-microsoft-com:datatypes"><Description dt:dt="string">E-Prime Primary Realtime Clock</Description><StartTime><Timestamp dt:dt="int">0</Timestamp><DateUtc dt:dt="string">2015-09-03T23:04:46Z</DateUtc></StartTime><FrequencyChanges><FrequencyChange><Frequency dt:dt="r8">3507734</Frequency><Timestamp dt:dt="r8">2820928408000</Timestamp><Current dt:dt="r8">0</Current><DateUtc dt:dt="string">2015-09-03T23:04:46Z</DateUtc></FrequencyChange></FrequencyChanges></Clock>\n	Hungry_Donkey_bar_English_2-124-1	60.018	-9	1.0.0.18	1	-864430688	Standard	2.0.10.353	2.0.10.353	09-03-2015		19:04:46	2.0.10.248	44	Bar50-50.bmp	49	1	?	0r_4g.bmp	0r_4g.bmp	0r_2g.bmp	0r_2g.bmp	0r_4g.bmp				TrialProc	TrialList	0	cvbn	-999999	16	197334	0	c	475	197809	130	-135	-5	-32	2	11	14	8	5	44	0	0	0	0	4	4	2	2	0	4
Hungry_Donkey_bar_English_2	124	1	<?xml version="1.0"?>\n<Clock xmlns:dt="urn:schemas-microsoft-com:datatypes"><Description dt:dt="string">E-Prime Primary Realtime Clock</Description><StartTime><Timestamp dt:dt="int">0</Timestamp><DateUtc dt:dt="string">2015-09-03T23:04:46Z</DateUtc></StartTime><FrequencyChanges><FrequencyChange><Frequency dt:dt="r8">3507734</Frequency><Timestamp dt:dt="r8">2820928408000</Timestamp><Current dt:dt="r8">0</Current><DateUtc dt:dt="string">2015-09-03T23:04:46Z</DateUtc></FrequencyChange></FrequencyChanges></Clock>\n	Hungry_Donkey_bar_English_2-124-1	60.018	-9	1.0.0.18	1	-864430688	Standard	2.0.10.353	2.0.10.353	09-03-2015		19:04:46	2.0.10.248	45	Bar50-50.bmp	48	4	?	8r_4g.bmp	50r_4g.bmp	1r_2g.bmp	10r_2g.bmp				10r_2g.bmp	TrialProc	TrialList	0	cvbn	-999999	16	199833	0	n	1368	201201	132	-145	-13	-32	2	11	6	1	5	45	-8	-50	-1	-10	4	4	2	2	-10	2
Hungry_Donkey_bar_English_2	124	1	<?xml version="1.0"?>\n<Clock xmlns:dt="urn:schemas-microsoft-com:datatypes"><Description dt:dt="string">E-Prime Primary Realtime Clock</Description><StartTime><Timestamp dt:dt="int">0</Timestamp><DateUtc dt:dt="string">2015-09-03T23:04:46Z</DateUtc></StartTime><FrequencyChanges><FrequencyChange><Frequency dt:dt="r8">3507734</Frequency><Timestamp dt:dt="r8">2820928408000</Timestamp><Current dt:dt="r8">0</Current><DateUtc dt:dt="string">2015-09-03T23:04:46Z</DateUtc></FrequencyChange></FrequencyChanges></Clock>\n	Hungry_Donkey_bar_English_2-124-1	60.018	-9	1.0.0.18	1	-864430688	Standard	2.0.10.353	2.0.10.353	09-03-2015		19:04:46	2.0.10.248	46	Bar50-50.bmp	46	1	?	12r_4g.bmp	0r_4g.bmp	3r_2g.bmp	0r_2g.bmp	12r_4g.bmp				TrialProc	TrialList	0	cvbn	-999999	16	203232	0	c	368	203600	136	-157	-21	-40	2	11	6	5	5	46	-12	0	-3	0	4	4	2	2	-12	4
Hungry_Donkey_bar_English_2	124	1	<?xml version="1.0"?>\n<Clock xmlns:dt="urn:schemas-microsoft-com:datatypes"><Description dt:dt="string">E-Prime Primary Realtime Clock</Description><StartTime><Timestamp dt:dt="int">0</Timestamp><DateUtc dt:dt="string">2015-09-03T23:04:46Z</DateUtc></StartTime><FrequencyChanges><FrequencyChange><Frequency dt:dt="r8">3507734</Frequency><Timestamp dt:dt="r8">2820928408000</Timestamp><Current dt:dt="r8">0</Current><DateUtc dt:dt="string">2015-09-03T23:04:46Z</DateUtc></FrequencyChange></FrequencyChanges></Clock>\n	Hungry_Donkey_bar_English_2-124-1	60.018	-9	1.0.0.18	1	-864430688	Standard	2.0.10.353	2.0.10.353	09-03-2015		19:04:46	2.0.10.248	47	Bar50-50.bmp	47	2	?	0r_4g.bmp	0r_4g.bmp	0r_2g.bmp	0r_2g.bmp		0r_4g.bmp			TrialProc	TrialList	0	cvbn	-999999	16	205631	0	v	529	206160	140	-157	-17	-40	6	11	6	9	5	47	0	0	0	0	4	4	2	2	0	4
Hungry_Donkey_bar_English_2	124	1	<?xml version="1.0"?>\n<Clock xmlns:dt="urn:schemas-microsoft-com:datatypes"><Description dt:dt="string">E-Prime Primary Realtime Clock</Description><StartTime><Timestamp dt:dt="int">0</Timestamp><DateUtc dt:dt="string">2015-09-03T23:04:46Z</DateUtc></StartTime><FrequencyChanges><FrequencyChange><Frequency dt:dt="r8">3507734</Frequency><Timestamp dt:dt="r8">2820928408000</Timestamp><Current dt:dt="r8">0</Current><DateUtc dt:dt="string">2015-09-03T23:04:46Z</DateUtc></FrequencyChange></FrequencyChanges></Clock>\n	Hungry_Donkey_bar_English_2-124-1	60.018	-9	1.0.0.18	1	-864430688	Standard	2.0.10.353	2.0.10.353	09-03-2015		19:04:46	2.0.10.248	48	Bar50-50.bmp	47	3	?	0r_4g.bmp	0r_4g.bmp	0r_2g.bmp	0r_2g.bmp			0r_2g.bmp		TrialProc	TrialList	0	cvbn	-999999	16	208197	0	b	4331	212528	142	-157	-15	-40	6	13	6	10	5	48	0	0	0	0	4	4	2	2	0	2
Hungry_Donkey_bar_English_2	124	1	<?xml version="1.0"?>\n<Clock xmlns:dt="urn:schemas-microsoft-com:datatypes"><Description dt:dt="string">E-Prime Primary Realtime Clock</Description><StartTime><Timestamp dt:dt="int">0</Timestamp><DateUtc dt:dt="string">2015-09-03T23:04:46Z</DateUtc></StartTime><FrequencyChanges><FrequencyChange><Frequency dt:dt="r8">3507734</Frequency><Timestamp dt:dt="r8">2820928408000</Timestamp><Current dt:dt="r8">0</Current><DateUtc dt:dt="string">2015-09-03T23:04:46Z</DateUtc></FrequencyChange></FrequencyChanges></Clock>\n	Hungry_Donkey_bar_English_2-124-1	60.018	-9	1.0.0.18	1	-864430688	Standard	2.0.10.353	2.0.10.353	09-03-2015		19:04:46	2.0.10.248	49	Bar50-50.bmp	48	4	?	10r_4g.bmp	0r_4g.bmp	2r_2g.bmp	0r_2g.bmp				0r_2g.bmp	TrialProc	TrialList	0	cvbn	-999999	16	214562	0	n	78	214640	144	-157	-13	-40	6	13	8	2	5	49	-10	0	-2	0	4	4	2	2	0	2
Hungry_Donkey_bar_English_2	124	1	<?xml version="1.0"?>\n<Clock xmlns:dt="urn:schemas-microsoft-com:datatypes"><Description dt:dt="string">E-Prime Primary Realtime Clock</Description><StartTime><Timestamp dt:dt="int">0</Timestamp><DateUtc dt:dt="string">2015-09-03T23:04:46Z</DateUtc></StartTime><FrequencyChanges><FrequencyChange><Frequency dt:dt="r8">3507734</Frequency><Timestamp dt:dt="r8">2820928408000</Timestamp><Current dt:dt="r8">0</Current><DateUtc dt:dt="string">2015-09-03T23:04:46Z</DateUtc></FrequencyChange></FrequencyChanges></Clock>\n	Hungry_Donkey_bar_English_2-124-1	60.018	-9	1.0.0.18	1	-864430688	Standard	2.0.10.353	2.0.10.353	09-03-2015		19:04:46	2.0.10.248	50	Bar50-50.bmp	49	2	?	10r_4g.bmp	0r_4g.bmp	2r_2g.bmp	0r_2g.bmp		0r_4g.bmp			TrialProc	TrialList	0	cvbn	-999999	16	216678	0	v	1273	217951	148	-157	-9	-40	10	13	8	4	5	50	-10	0	-2	0	4	4	2	2	0	4
Hungry_Donkey_bar_English_2	124	1	<?xml version="1.0"?>\n<Clock xmlns:dt="urn:schemas-microsoft-com:datatypes"><Description dt:dt="string">E-Prime Primary Realtime Clock</Description><StartTime><Timestamp dt:dt="int">0</Timestamp><DateUtc dt:dt="string">2015-09-03T23:04:46Z</DateUtc></StartTime><FrequencyChanges><FrequencyChange><Frequency dt:dt="r8">3507734</Frequency><Timestamp dt:dt="r8">2820928408000</Timestamp><Current dt:dt="r8">0</Current><DateUtc dt:dt="string">2015-09-03T23:04:46Z</DateUtc></FrequencyChange></FrequencyChanges></Clock>\n	Hungry_Donkey_bar_English_2-124-1	60.018	-9	1.0.0.18	1	-864430688	Standard	2.0.10.353	2.0.10.353	09-03-2015		19:04:46	2.0.10.248	51	Bar50-50.bmp	49	3	?	0r_4g.bmp	0r_4g.bmp	0r_2g.bmp	0r_2g.bmp			0r_2g.bmp		TrialProc	TrialList	0	cvbn	-999999	16	219977	0	b	454	220431	150	-157	-7	-40	10	15	8	10	6	51	0	0	0	0	4	4	2	2	0	2
Hungry_Donkey_bar_English_2	124	1	<?xml version="1.0"?>\n<Clock xmlns:dt="urn:schemas-microsoft-com:datatypes"><Description dt:dt="string">E-Prime Primary Realtime Clock</Description><StartTime><Timestamp dt:dt="int">0</Timestamp><DateUtc dt:dt="string">2015-09-03T23:04:46Z</DateUtc></StartTime><FrequencyChanges><FrequencyChange><Frequency dt:dt="r8">3507734</Frequency><Timestamp dt:dt="r8">2820928408000</Timestamp><Current dt:dt="r8">0</Current><DateUtc dt:dt="string">2015-09-03T23:04:46Z</DateUtc></FrequencyChange></FrequencyChanges></Clock>\n	Hungry_Donkey_bar_English_2-124-1	60.018	-9	1.0.0.18	1	-864430688	Standard	2.0.10.353	2.0.10.353	09-03-2015		19:04:46	2.0.10.248	52	Bar50-50.bmp	49	3	?	10r_4g.bmp	0r_4g.bmp	2r_2g.bmp	0r_2g.bmp			2r_2g.bmp		TrialProc	TrialList	0	cvbn	-999999	16	222460	0	b	3619	226079	152	-159	-7	-40	10	15	8	4	6	52	-10	0	-2	0	4	4	2	2	-2	2
Hungry_Donkey_bar_English_2	124	1	<?xml version="1.0"?>\n<Clock xmlns:dt="urn:schemas-microsoft-com:datatypes"><Description dt:dt="string">E-Prime Primary Realtime Clock</Description><StartTime><Timestamp dt:dt="int">0</Timestamp><DateUtc dt:dt="string">2015-09-03T23:04:46Z</DateUtc></StartTime><FrequencyChanges><FrequencyChange><Frequency dt:dt="r8">3507734</Frequency><Timestamp dt:dt="r8">2820928408000</Timestamp><Current dt:dt="r8">0</Current><DateUtc dt:dt="string">2015-09-03T23:04:46Z</DateUtc></FrequencyChange></FrequencyChanges></Clock>\n	Hungry_Donkey_bar_English_2-124-1	60.018	-9	1.0.0.18	1	-864430688	Standard	2.0.10.353	2.0.10.353	09-03-2015		19:04:46	2.0.10.248	53	Bar50-50.bmp	50	1	?	0r_4g.bmp	0r_4g.bmp	0r_2g.bmp	0r_2g.bmp	0r_4g.bmp				TrialProc	TrialList	0	cvbn	-999999	16	228108	0	c	4115	232223	156	-159	-3	-36	10	15	8	6	6	53	0	0	0	0	4	4	2	2	0	4
Hungry_Donkey_bar_English_2	124	1	<?xml version="1.0"?>\n<Clock xmlns:dt="urn:schemas-microsoft-com:datatypes"><Description dt:dt="string">E-Prime Primary Realtime Clock</Description><StartTime><Timestamp dt:dt="int">0</Timestamp><DateUtc dt:dt="string">2015-09-03T23:04:46Z</DateUtc></StartTime><FrequencyChanges><FrequencyChange><Frequency dt:dt="r8">3507734</Frequency><Timestamp dt:dt="r8">2820928408000</Timestamp><Current dt:dt="r8">0</Current><DateUtc dt:dt="string">2015-09-03T23:04:46Z</DateUtc></FrequencyChange></FrequencyChanges></Clock>\n	Hungry_Donkey_bar_English_2-124-1	60.018	-9	1.0.0.18	1	-864430688	Standard	2.0.10.353	2.0.10.353	09-03-2015		19:04:46	2.0.10.248	54	Bar50-50.bmp	50	4	?	0r_4g.bmp	0r_4g.bmp	0r_2g.bmp	0r_2g.bmp				0r_2g.bmp	TrialProc	TrialList	0	cvbn	-999999	16	234256	0	n	526	234782	158	-159	-1	-36	10	15	10	7	6	54	0	0	0	0	4	4	2	2	0	2
Hungry_Donkey_bar_English_2	124	1	<?xml version="1.0"?>\n<Clock xmlns:dt="urn:schemas-microsoft-com:datatypes"><Description dt:dt="string">E-Prime Primary Realtime Clock</Description><StartTime><Timestamp dt:dt="int">0</Timestamp><DateUtc dt:dt="string">2015-09-03T23:04:46Z</DateUtc></StartTime><FrequencyChanges><FrequencyChange><Frequency dt:dt="r8">3507734</Frequency><Timestamp dt:dt="r8">2820928408000</Timestamp><Current dt:dt="r8">0</Current><DateUtc dt:dt="string">2015-09-03T23:04:46Z</DateUtc></FrequencyChange></FrequencyChanges></Clock>\n	Hungry_Donkey_bar_English_2-124-1	60.018	-9	1.0.0.18	1	-864430688	Standard	2.0.10.353	2.0.10.353	09-03-2015		19:04:46	2.0.10.248	55	Bar50-50.bmp	50	2	?	10r_4g.bmp	0r_4g.bmp	2r_2g.bmp	0r_2g.bmp		0r_4g.bmp			TrialProc	TrialList	0	cvbn	-999999	16	236822	0	v	952	237774	162	-159	3	-36	14	15	10	3	6	55	-10	0	-2	0	4	4	2	2	0	4
Hungry_Donkey_bar_English_2	124	1	<?xml version="1.0"?>\n<Clock xmlns:dt="urn:schemas-microsoft-com:datatypes"><Description dt:dt="string">E-Prime Primary Realtime Clock</Description><StartTime><Timestamp dt:dt="int">0</Timestamp><DateUtc dt:dt="string">2015-09-03T23:04:46Z</DateUtc></StartTime><FrequencyChanges><FrequencyChange><Frequency dt:dt="r8">3507734</Frequency><Timestamp dt:dt="r8">2820928408000</Timestamp><Current dt:dt="r8">0</Current><DateUtc dt:dt="string">2015-09-03T23:04:46Z</DateUtc></FrequencyChange></FrequencyChanges></Clock>\n	Hungry_Donkey_bar_English_2-124-1	60.018	-9	1.0.0.18	1	-864430688	Standard	2.0.10.353	2.0.10.353	09-03-2015		19:04:46	2.0.10.248	56	Bar50-50.bmp	51	4	?	0r_4g.bmp	0r_4g.bmp	0r_2g.bmp	0r_2g.bmp				0r_2g.bmp	TrialProc	TrialList	0	cvbn	-999999	16	239804	0	n	946	240750	164	-159	5	-36	14	15	12	9	6	56	0	0	0	0	4	4	2	2	0	2
Hungry_Donkey_bar_English_2	124	1	<?xml version="1.0"?>\n<Clock xmlns:dt="urn:schemas-microsoft-com:datatypes"><Description dt:dt="string">E-Prime Primary Realtime Clock</Description><StartTime><Timestamp dt:dt="int">0</Timestamp><DateUtc dt:dt="string">2015-09-03T23:04:46Z</DateUtc></StartTime><FrequencyChanges><FrequencyChange><Frequency dt:dt="r8">3507734</Frequency><Timestamp dt:dt="r8">2820928408000</Timestamp><Current dt:dt="r8">0</Current><DateUtc dt:dt="string">2015-09-03T23:04:46Z</DateUtc></FrequencyChange></FrequencyChanges></Clock>\n	Hungry_Donkey_bar_English_2-124-1	60.018	-9	1.0.0.18	1	-864430688	Standard	2.0.10.353	2.0.10.353	09-03-2015		19:04:46	2.0.10.248	57	Bar50-50.bmp	50	4	?	8r_4g.bmp	50r_4g.bmp	1r_2g.bmp	10r_2g.bmp				10r_2g.bmp	TrialProc	TrialList	0	cvbn	-999999	16	242787	0	n	779	243566	166	-169	-3	-36	14	15	4	1	6	57	-8	-50	-1	-10	4	4	2	2	-10	2
Hungry_Donkey_bar_English_2	124	1	<?xml version="1.0"?>\n<Clock xmlns:dt="urn:schemas-microsoft-com:datatypes"><Description dt:dt="string">E-Prime Primary Realtime Clock</Description><StartTime><Timestamp dt:dt="int">0</Timestamp><DateUtc dt:dt="string">2015-09-03T23:04:46Z</DateUtc></StartTime><FrequencyChanges><FrequencyChange><Frequency dt:dt="r8">3507734</Frequency><Timestamp dt:dt="r8">2820928408000</Timestamp><Current dt:dt="r8">0</Current><DateUtc dt:dt="string">2015-09-03T23:04:46Z</DateUtc></FrequencyChange></FrequencyChanges></Clock>\n	Hungry_Donkey_bar_English_2-124-1	60.018	-9	1.0.0.18	1	-864430688	Standard	2.0.10.353	2.0.10.353	09-03-2015		19:04:46	2.0.10.248	58	Bar50-50.bmp	50	3	?	10r_4g.bmp	0r_4g.bmp	2r_2g.bmp	0r_2g.bmp			2r_2g.bmp		TrialProc	TrialList	0	cvbn	-999999	16	245603	0	b	763	246366	168	-171	-3	-36	14	15	4	2	6	58	-10	0	-2	0	4	4	2	2	-2	2
Hungry_Donkey_bar_English_2	124	1	<?xml version="1.0"?>\n<Clock xmlns:dt="urn:schemas-microsoft-com:datatypes"><Description dt:dt="string">E-Prime Primary Realtime Clock</Description><StartTime><Timestamp dt:dt="int">0</Timestamp><DateUtc dt:dt="string">2015-09-03T23:04:46Z</DateUtc></StartTime><FrequencyChanges><FrequencyChange><Frequency dt:dt="r8">3507734</Frequency><Timestamp dt:dt="r8">2820928408000</Timestamp><Current dt:dt="r8">0</Current><DateUtc dt:dt="string">2015-09-03T23:04:46Z</DateUtc></FrequencyChange></FrequencyChanges></Clock>\n	Hungry_Donkey_bar_English_2-124-1	60.018	-9	1.0.0.18	1	-864430688	Standard	2.0.10.353	2.0.10.353	09-03-2015		19:04:46	2.0.10.248	59	Bar50-50.bmp	50	2	?	12r_4g.bmp	0r_4g.bmp	3r_2g.bmp	0r_2g.bmp		0r_4g.bmp			TrialProc	TrialList	0	cvbn	-999999	16	248402	0	v	124	248526	172	-171	1	-36	18	15	4	5	6	59	-12	0	-3	0	4	4	2	2	0	4
Hungry_Donkey_bar_English_2	124	1	<?xml version="1.0"?>\n<Clock xmlns:dt="urn:schemas-microsoft-com:datatypes"><Description dt:dt="string">E-Prime Primary Realtime Clock</Description><StartTime><Timestamp dt:dt="int">0</Timestamp><DateUtc dt:dt="string">2015-09-03T23:04:46Z</DateUtc></StartTime><FrequencyChanges><FrequencyChange><Frequency dt:dt="r8">3507734</Frequency><Timestamp dt:dt="r8">2820928408000</Timestamp><Current dt:dt="r8">0</Current><DateUtc dt:dt="string">2015-09-03T23:04:46Z</DateUtc></FrequencyChange></FrequencyChanges></Clock>\n	Hungry_Donkey_bar_English_2-124-1	60.018	-9	1.0.0.18	1	-864430688	Standard	2.0.10.353	2.0.10.353	09-03-2015		19:04:46	2.0.10.248	60	Bar50-50.bmp	50	4	?	0r_4g.bmp	0r_4g.bmp	0r_2g.bmp	0r_2g.bmp				0r_2g.bmp	TrialProc	TrialList	0	cvbn	-999999	16	250551	0	n	2230	252781	174	-171	3	-36	18	15	6	8	6	60	0	0	0	0	4	4	2	2	0	2
Hungry_Donkey_bar_English_2	124	1	<?xml version="1.0"?>\n<Clock xmlns:dt="urn:schemas-microsoft-com:datatypes"><Description dt:dt="string">E-Prime Primary Realtime Clock</Description><StartTime><Timestamp dt:dt="int">0</Timestamp><DateUtc dt:dt="string">2015-09-03T23:04:46Z</DateUtc></StartTime><FrequencyChanges><FrequencyChange><Frequency dt:dt="r8">3507734</Frequency><Timestamp dt:dt="r8">2820928408000</Timestamp><Current dt:dt="r8">0</Current><DateUtc dt:dt="string">2015-09-03T23:04:46Z</DateUtc></FrequencyChange></FrequencyChanges></Clock>\n	Hungry_Donkey_bar_English_2-124-1	60.018	-9	1.0.0.18	1	-864430688	Standard	2.0.10.353	2.0.10.353	09-03-2015		19:04:46	2.0.10.248	61	Bar50-50.bmp	51	4	?	10r_4g.bmp	0r_4g.bmp	2r_2g.bmp	0r_2g.bmp				0r_2g.bmp	TrialProc	TrialList	0	cvbn	-999999	16	254817	0	n	492	255309	176	-171	5	-36	18	15	8	2	7	61	-10	0	-2	0	4	4	2	2	0	2
Hungry_Donkey_bar_English_2	124	1	<?xml version="1.0"?>\n<Clock xmlns:dt="urn:schemas-microsoft-com:datatypes"><Description dt:dt="string">E-Prime Primary Realtime Clock</Description><StartTime><Timestamp dt:dt="int">0</Timestamp><DateUtc dt:dt="string">2015-09-03T23:04:46Z</DateUtc></StartTime><FrequencyChanges><FrequencyChange><Frequency dt:dt="r8">3507734</Frequency><Timestamp dt:dt="r8">2820928408000</Timestamp><Current dt:dt="r8">0</Current><DateUtc dt:dt="string">2015-09-03T23:04:46Z</DateUtc></FrequencyChange></FrequencyChanges></Clock>\n	Hungry_Donkey_bar_English_2-124-1	60.018	-9	1.0.0.18	1	-864430688	Standard	2.0.10.353	2.0.10.353	09-03-2015		19:04:46	2.0.10.248	62	Bar50-50.bmp	51	4	?	0r_4g.bmp	0r_4g.bmp	0r_2g.bmp	0r_2g.bmp				0r_2g.bmp	TrialProc	TrialList	0	cvbn	-999999	16	257349	0	n	360	257709	178	-171	7	-36	18	15	10	8	7	62	0	0	0	0	4	4	2	2	0	2
Hungry_Donkey_bar_English_2	124	1	<?xml version="1.0"?>\n<Clock xmlns:dt="urn:schemas-microsoft-com:datatypes"><Description dt:dt="string">E-Prime Primary Realtime Clock</Description><StartTime><Timestamp dt:dt="int">0</Timestamp><DateUtc dt:dt="string">2015-09-03T23:04:46Z</DateUtc></StartTime><FrequencyChanges><FrequencyChange><Frequency dt:dt="r8">3507734</Frequency><Timestamp dt:dt="r8">2820928408000</Timestamp><Current dt:dt="r8">0</Current><DateUtc dt:dt="string">2015-09-03T23:04:46Z</DateUtc></FrequencyChange></FrequencyChanges></Clock>\n	Hungry_Donkey_bar_English_2-124-1	60.018	-9	1.0.0.18	1	-864430688	Standard	2.0.10.353	2.0.10.353	09-03-2015		19:04:46	2.0.10.248	63	Bar50-50.bmp	51	4	?	0r_4g.bmp	0r_4g.bmp	0r_2g.bmp	0r_2g.bmp				0r_2g.bmp	TrialProc	TrialList	0	cvbn	-999999	16	259732	0	n	345	260077	180	-171	9	-36	18	15	12	9	7	63	0	0	0	0	4	4	2	2	0	2
Hungry_Donkey_bar_English_2	124	1	<?xml version="1.0"?>\n<Clock xmlns:dt="urn:schemas-microsoft-com:datatypes"><Description dt:dt="string">E-Prime Primary Realtime Clock</Description><StartTime><Timestamp dt:dt="int">0</Timestamp><DateUtc dt:dt="string">2015-09-03T23:04:46Z</DateUtc></StartTime><FrequencyChanges><FrequencyChange><Frequency dt:dt="r8">3507734</Frequency><Timestamp dt:dt="r8">2820928408000</Timestamp><Current dt:dt="r8">0</Current><DateUtc dt:dt="string">2015-09-03T23:04:46Z</DateUtc></FrequencyChange></FrequencyChanges></Clock>\n	Hungry_Donkey_bar_English_2-124-1	60.018	-9	1.0.0.18	1	-864430688	Standard	2.0.10.353	2.0.10.353	09-03-2015		19:04:46	2.0.10.248	64	Bar50-50.bmp	52	4	?	0r_4g.bmp	0r_4g.bmp	0r_2g.bmp	0r_2g.bmp				0r_2g.bmp	TrialProc	TrialList	0	cvbn	-999999	16	262114	0	n	427	262541	182	-171	11	-36	18	15	14	10	7	64	0	0	0	0	4	4	2	2	0	2
Hungry_Donkey_bar_English_2	124	1	<?xml version="1.0"?>\n<Clock xmlns:dt="urn:schemas-microsoft-com:datatypes"><Description dt:dt="string">E-Prime Primary Realtime Clock</Description><StartTime><Timestamp dt:dt="int">0</Timestamp><DateUtc dt:dt="string">2015-09-03T23:04:46Z</DateUtc></StartTime><FrequencyChanges><FrequencyChange><Frequency dt:dt="r8">3507734</Frequency><Timestamp dt:dt="r8">2820928408000</Timestamp><Current dt:dt="r8">0</Current><DateUtc dt:dt="string">2015-09-03T23:04:46Z</DateUtc></FrequencyChange></FrequencyChanges></Clock>\n	Hungry_Donkey_bar_English_2-124-1	60.018	-9	1.0.0.18	1	-864430688	Standard	2.0.10.353	2.0.10.353	09-03-2015		19:04:46	2.0.10.248	65	Bar50-50.bmp	52	4	?	0r_4g.bmp	0r_4g.bmp	0r_2g.bmp	0r_2g.bmp				0r_2g.bmp	TrialProc	TrialList	0	cvbn	-999999	16	264564	0	n	744	265308	184	-171	13	-36	18	15	16	6	7	65	0	0	0	0	4	4	2	2	0	2
Hungry_Donkey_bar_English_2	124	1	<?xml version="1.0"?>\n<Clock xmlns:dt="urn:schemas-microsoft-com:datatypes"><Description dt:dt="string">E-Prime Primary Realtime Clock</Description><StartTime><Timestamp dt:dt="int">0</Timestamp><DateUtc dt:dt="string">2015-09-03T23:04:46Z</DateUtc></StartTime><FrequencyChanges><FrequencyChange><Frequency dt:dt="r8">3507734</Frequency><Timestamp dt:dt="r8">2820928408000</Timestamp><Current dt:dt="r8">0</Current><DateUtc dt:dt="string">2015-09-03T23:04:46Z</DateUtc></FrequencyChange></FrequencyChanges></Clock>\n	Hungry_Donkey_bar_English_2-124-1	60.018	-9	1.0.0.18	1	-864430688	Standard	2.0.10.353	2.0.10.353	09-03-2015		19:04:46	2.0.10.248	66	Bar50-50.bmp	52	4	?	10r_4g.bmp	0r_4g.bmp	2r_2g.bmp	0r_2g.bmp				0r_2g.bmp	TrialProc	TrialList	0	cvbn	-999999	16	267346	0	n	474	267820	186	-171	15	-36	18	15	18	4	7	66	-10	0	-2	0	4	4	2	2	0	2
Hungry_Donkey_bar_English_2	124	1	<?xml version="1.0"?>\n<Clock xmlns:dt="urn:schemas-microsoft-com:datatypes"><Description dt:dt="string">E-Prime Primary Realtime Clock</Description><StartTime><Timestamp dt:dt="int">0</Timestamp><DateUtc dt:dt="string">2015-09-03T23:04:46Z</DateUtc></StartTime><FrequencyChanges><FrequencyChange><Frequency dt:dt="r8">3507734</Frequency><Timestamp dt:dt="r8">2820928408000</Timestamp><Current dt:dt="r8">0</Current><DateUtc dt:dt="string">2015-09-03T23:04:46Z</DateUtc></FrequencyChange></FrequencyChanges></Clock>\n	Hungry_Donkey_bar_English_2-124-1	60.018	-9	1.0.0.18	1	-864430688	Standard	2.0.10.353	2.0.10.353	09-03-2015		19:04:46	2.0.10.248	67	Bar50-50.bmp	52	4	?	0r_4g.bmp	0r_4g.bmp	0r_2g.bmp	0r_2g.bmp				0r_2g.bmp	TrialProc	TrialList	0	cvbn	-999999	16	269845	0	n	439	270284	188	-171	17	-36	18	15	20	7	7	67	0	0	0	0	4	4	2	2	0	2
Hungry_Donkey_bar_English_2	124	1	<?xml version="1.0"?>\n<Clock xmlns:dt="urn:schemas-microsoft-com:datatypes"><Description dt:dt="string">E-Prime Primary Realtime Clock</Description><StartTime><Timestamp dt:dt="int">0</Timestamp><DateUtc dt:dt="string">2015-09-03T23:04:46Z</DateUtc></StartTime><FrequencyChanges><FrequencyChange><Frequency dt:dt="r8">3507734</Frequency><Timestamp dt:dt="r8">2820928408000</Timestamp><Current dt:dt="r8">0</Current><DateUtc dt:dt="string">2015-09-03T23:04:46Z</DateUtc></FrequencyChange></FrequencyChanges></Clock>\n	Hungry_Donkey_bar_English_2-124-1	60.018	-9	1.0.0.18	1	-864430688	Standard	2.0.10.353	2.0.10.353	09-03-2015		19:04:46	2.0.10.248	68	Bar50-50.bmp	53	4	?	12r_4g.bmp	0r_4g.bmp	3r_2g.bmp	0r_2g.bmp				0r_2g.bmp	TrialProc	TrialList	0	cvbn	-999999	16	272311	0	n	773	273084	190	-171	19	-36	18	15	22	5	7	68	-12	0	-3	0	4	4	2	2	0	2
Hungry_Donkey_bar_English_2	124	1	<?xml version="1.0"?>\n<Clock xmlns:dt="urn:schemas-microsoft-com:datatypes"><Description dt:dt="string">E-Prime Primary Realtime Clock</Description><StartTime><Timestamp dt:dt="int">0</Timestamp><DateUtc dt:dt="string">2015-09-03T23:04:46Z</DateUtc></StartTime><FrequencyChanges><FrequencyChange><Frequency dt:dt="r8">3507734</Frequency><Timestamp dt:dt="r8">2820928408000</Timestamp><Current dt:dt="r8">0</Current><DateUtc dt:dt="string">2015-09-03T23:04:46Z</DateUtc></FrequencyChange></FrequencyChanges></Clock>\n	Hungry_Donkey_bar_English_2-124-1	60.018	-9	1.0.0.18	1	-864430688	Standard	2.0.10.353	2.0.10.353	09-03-2015		19:04:46	2.0.10.248	69	Bar50-50.bmp	51	4	?	8r_4g.bmp	50r_4g.bmp	1r_2g.bmp	10r_2g.bmp				10r_2g.bmp	TrialProc	TrialList	0	cvbn	-999999	16	275110	0	n	486	275596	192	-181	11	-36	18	15	14	1	7	69	-8	-50	-1	-10	4	4	2	2	-10	2
Hungry_Donkey_bar_English_2	124	1	<?xml version="1.0"?>\n<Clock xmlns:dt="urn:schemas-microsoft-com:datatypes"><Description dt:dt="string">E-Prime Primary Realtime Clock</Description><StartTime><Timestamp dt:dt="int">0</Timestamp><DateUtc dt:dt="string">2015-09-03T23:04:46Z</DateUtc></StartTime><FrequencyChanges><FrequencyChange><Frequency dt:dt="r8">3507734</Frequency><Timestamp dt:dt="r8">2820928408000</Timestamp><Current dt:dt="r8">0</Current><DateUtc dt:dt="string">2015-09-03T23:04:46Z</DateUtc></FrequencyChange></FrequencyChanges></Clock>\n	Hungry_Donkey_bar_English_2-124-1	60.018	-9	1.0.0.18	1	-864430688	Standard	2.0.10.353	2.0.10.353	09-03-2015		19:04:46	2.0.10.248	70	Bar50-50.bmp	51	1	?	10r_4g.bmp	0r_4g.bmp	2r_2g.bmp	0r_2g.bmp	10r_4g.bmp				TrialProc	TrialList	0	cvbn	-999999	16	277626	0	c	482	278108	196	-191	5	-42	18	15	14	3	7	70	-10	0	-2	0	4	4	2	2	-10	4
Hungry_Donkey_bar_English_2	124	1	<?xml version="1.0"?>\n<Clock xmlns:dt="urn:schemas-microsoft-com:datatypes"><Description dt:dt="string">E-Prime Primary Realtime Clock</Description><StartTime><Timestamp dt:dt="int">0</Timestamp><DateUtc dt:dt="string">2015-09-03T23:04:46Z</DateUtc></StartTime><FrequencyChanges><FrequencyChange><Frequency dt:dt="r8">3507734</Frequency><Timestamp dt:dt="r8">2820928408000</Timestamp><Current dt:dt="r8">0</Current><DateUtc dt:dt="string">2015-09-03T23:04:46Z</DateUtc></FrequencyChange></FrequencyChanges></Clock>\n	Hungry_Donkey_bar_English_2-124-1	60.018	-9	1.0.0.18	1	-864430688	Standard	2.0.10.353	2.0.10.353	09-03-2015		19:04:46	2.0.10.248	71	Bar50-50.bmp	51	3	?	12r_4g.bmp	0r_4g.bmp	3r_2g.bmp	0r_2g.bmp			3r_2g.bmp		TrialProc	TrialList	0	cvbn	-999999	16	280142	0	b	1549	281691	198	-194	4	-42	18	14	14	5	8	71	-12	0	-3	0	4	4	2	2	-3	2
Hungry_Donkey_bar_English_2	124	1	<?xml version="1.0"?>\n<Clock xmlns:dt="urn:schemas-microsoft-com:datatypes"><Description dt:dt="string">E-Prime Primary Realtime Clock</Description><StartTime><Timestamp dt:dt="int">0</Timestamp><DateUtc dt:dt="string">2015-09-03T23:04:46Z</DateUtc></StartTime><FrequencyChanges><FrequencyChange><Frequency dt:dt="r8">3507734</Frequency><Timestamp dt:dt="r8">2820928408000</Timestamp><Current dt:dt="r8">0</Current><DateUtc dt:dt="string">2015-09-03T23:04:46Z</DateUtc></FrequencyChange></FrequencyChanges></Clock>\n	Hungry_Donkey_bar_English_2-124-1	60.018	-9	1.0.0.18	1	-864430688	Standard	2.0.10.353	2.0.10.353	09-03-2015		19:04:46	2.0.10.248	72	Bar50-50.bmp	51	2	?	0r_4g.bmp	0r_4g.bmp	0r_2g.bmp	0r_2g.bmp		0r_4g.bmp			TrialProc	TrialList	0	cvbn	-999999	16	283724	0	v	623	284347	202	-194	8	-42	22	14	14	9	8	72	0	0	0	0	4	4	2	2	0	4
Hungry_Donkey_bar_English_2	124	1	<?xml version="1.0"?>\n<Clock xmlns:dt="urn:schemas-microsoft-com:datatypes"><Description dt:dt="string">E-Prime Primary Realtime Clock</Description><StartTime><Timestamp dt:dt="int">0</Timestamp><DateUtc dt:dt="string">2015-09-03T23:04:46Z</DateUtc></StartTime><FrequencyChanges><FrequencyChange><Frequency dt:dt="r8">3507734</Frequency><Timestamp dt:dt="r8">2820928408000</Timestamp><Current dt:dt="r8">0</Current><DateUtc dt:dt="string">2015-09-03T23:04:46Z</DateUtc></FrequencyChange></FrequencyChanges></Clock>\n	Hungry_Donkey_bar_English_2-124-1	60.018	-9	1.0.0.18	1	-864430688	Standard	2.0.10.353	2.0.10.353	09-03-2015		19:04:46	2.0.10.248	73	Bar50-50.bmp	52	2	?	10r_4g.bmp	0r_4g.bmp	2r_2g.bmp	0r_2g.bmp		0r_4g.bmp			TrialProc	TrialList	0	cvbn	-999999	16	286374	0	v	261	286635	206	-194	12	-42	26	14	14	2	8	73	-10	0	-2	0	4	4	2	2	0	4
Hungry_Donkey_bar_English_2	124	1	<?xml version="1.0"?>\n<Clock xmlns:dt="urn:schemas-microsoft-com:datatypes"><Description dt:dt="string">E-Prime Primary Realtime Clock</Description><StartTime><Timestamp dt:dt="int">0</Timestamp><DateUtc dt:dt="string">2015-09-03T23:04:46Z</DateUtc></StartTime><FrequencyChanges><FrequencyChange><Frequency dt:dt="r8">3507734</Frequency><Timestamp dt:dt="r8">2820928408000</Timestamp><Current dt:dt="r8">0</Current><DateUtc dt:dt="string">2015-09-03T23:04:46Z</DateUtc></FrequencyChange></FrequencyChanges></Clock>\n	Hungry_Donkey_bar_English_2-124-1	60.018	-9	1.0.0.18	1	-864430688	Standard	2.0.10.353	2.0.10.353	09-03-2015		19:04:46	2.0.10.248	74	Bar50-50.bmp	52	2	?	0r_4g.bmp	0r_4g.bmp	0r_2g.bmp	0r_2g.bmp		0r_4g.bmp			TrialProc	TrialList	0	cvbn	-999999	16	288673	0	v	298	288971	210	-194	16	-42	30	14	14	10	8	74	0	0	0	0	4	4	2	2	0	4
Hungry_Donkey_bar_English_2	124	1	<?xml version="1.0"?>\n<Clock xmlns:dt="urn:schemas-microsoft-com:datatypes"><Description dt:dt="string">E-Prime Primary Realtime Clock</Description><StartTime><Timestamp dt:dt="int">0</Timestamp><DateUtc dt:dt="string">2015-09-03T23:04:46Z</DateUtc></StartTime><FrequencyChanges><FrequencyChange><Frequency dt:dt="r8">3507734</Frequency><Timestamp dt:dt="r8">2820928408000</Timestamp><Current dt:dt="r8">0</Current><DateUtc dt:dt="string">2015-09-03T23:04:46Z</DateUtc></FrequencyChange></FrequencyChanges></Clock>\n	Hungry_Donkey_bar_English_2-124-1	60.018	-9	1.0.0.18	1	-864430688	Standard	2.0.10.353	2.0.10.353	09-03-2015		19:04:46	2.0.10.248	75	Bar50-50.bmp	52	2	?	0r_4g.bmp	0r_4g.bmp	0r_2g.bmp	0r_2g.bmp		0r_4g.bmp			TrialProc	TrialList	0	cvbn	-999999	16	291006	0	v	285	291291	214	-194	20	-42	34	14	14	8	8	75	0	0	0	0	4	4	2	2	0	4
Hungry_Donkey_bar_English_2	124	1	<?xml version="1.0"?>\n<Clock xmlns:dt="urn:schemas-microsoft-com:datatypes"><Description dt:dt="string">E-Prime Primary Realtime Clock</Description><StartTime><Timestamp dt:dt="int">0</Timestamp><DateUtc dt:dt="string">2015-09-03T23:04:46Z</DateUtc></StartTime><FrequencyChanges><FrequencyChange><Frequency dt:dt="r8">3507734</Frequency><Timestamp dt:dt="r8">2820928408000</Timestamp><Current dt:dt="r8">0</Current><DateUtc dt:dt="string">2015-09-03T23:04:46Z</DateUtc></FrequencyChange></FrequencyChanges></Clock>\n	Hungry_Donkey_bar_English_2-124-1	60.018	-9	1.0.0.18	1	-864430688	Standard	2.0.10.353	2.0.10.353	09-03-2015		19:04:46	2.0.10.248	76	Bar50-50.bmp	53	2	?	0r_4g.bmp	0r_4g.bmp	0r_2g.bmp	0r_2g.bmp		0r_4g.bmp			TrialProc	TrialList	0	cvbn	-999999	16	293322	0	v	449	293771	218	-194	24	-42	38	14	14	7	8	76	0	0	0	0	4	4	2	2	0	4
Hungry_Donkey_bar_English_2	124	1	<?xml version="1.0"?>\n<Clock xmlns:dt="urn:schemas-microsoft-com:datatypes"><Description dt:dt="string">E-Prime Primary Realtime Clock</Description><StartTime><Timestamp dt:dt="int">0</Timestamp><DateUtc dt:dt="string">2015-09-03T23:04:46Z</DateUtc></StartTime><FrequencyChanges><FrequencyChange><Frequency dt:dt="r8">3507734</Frequency><Timestamp dt:dt="r8">2820928408000</Timestamp><Current dt:dt="r8">0</Current><DateUtc dt:dt="string">2015-09-03T23:04:46Z</DateUtc></FrequencyChange></FrequencyChanges></Clock>\n	Hungry_Donkey_bar_English_2-124-1	60.018	-9	1.0.0.18	1	-864430688	Standard	2.0.10.353	2.0.10.353	09-03-2015		19:04:46	2.0.10.248	77	Bar50-50.bmp	53	2	?	10r_4g.bmp	0r_4g.bmp	2r_2g.bmp	0r_2g.bmp		0r_4g.bmp			TrialProc	TrialList	0	cvbn	-999999	16	295804	0	v	574	296378	222	-194	28	-42	42	14	14	3	8	77	-10	0	-2	0	4	4	2	2	0	4
Hungry_Donkey_bar_English_2	124	1	<?xml version="1.0"?>\n<Clock xmlns:dt="urn:schemas-microsoft-com:datatypes"><Description dt:dt="string">E-Prime Primary Realtime Clock</Description><StartTime><Timestamp dt:dt="int">0</Timestamp><DateUtc dt:dt="string">2015-09-03T23:04:46Z</DateUtc></StartTime><FrequencyChanges><FrequencyChange><Frequency dt:dt="r8">3507734</Frequency><Timestamp dt:dt="r8">2820928408000</Timestamp><Current dt:dt="r8">0</Current><DateUtc dt:dt="string">2015-09-03T23:04:46Z</DateUtc></FrequencyChange></FrequencyChanges></Clock>\n	Hungry_Donkey_bar_English_2-124-1	60.018	-9	1.0.0.18	1	-864430688	Standard	2.0.10.353	2.0.10.353	09-03-2015		19:04:46	2.0.10.248	78	Bar50-50.bmp	52	4	?	8r_4g.bmp	50r_4g.bmp	1r_2g.bmp	10r_2g.bmp				10r_2g.bmp	TrialProc	TrialList	0	cvbn	-999999	16	298403	0	n	919	299322	224	-204	20	-42	42	14	6	1	8	78	-8	-50	-1	-10	4	4	2	2	-10	2
Hungry_Donkey_bar_English_2	124	1	<?xml version="1.0"?>\n<Clock xmlns:dt="urn:schemas-microsoft-com:datatypes"><Description dt:dt="string">E-Prime Primary Realtime Clock</Description><StartTime><Timestamp dt:dt="int">0</Timestamp><DateUtc dt:dt="string">2015-09-03T23:04:46Z</DateUtc></StartTime><FrequencyChanges><FrequencyChange><Frequency dt:dt="r8">3507734</Frequency><Timestamp dt:dt="r8">2820928408000</Timestamp><Current dt:dt="r8">0</Current><DateUtc dt:dt="string">2015-09-03T23:04:46Z</DateUtc></FrequencyChange></FrequencyChanges></Clock>\n	Hungry_Donkey_bar_English_2-124-1	60.018	-9	1.0.0.18	1	-864430688	Standard	2.0.10.353	2.0.10.353	09-03-2015		19:04:46	2.0.10.248	79	Bar50-50.bmp	52	3	?	10r_4g.bmp	0r_4g.bmp	2r_2g.bmp	0r_2g.bmp			2r_2g.bmp		TrialProc	TrialList	0	cvbn	-999999	16	301352	0	b	194	301546	226	-206	20	-42	42	14	6	4	8	79	-10	0	-2	0	4	4	2	2	-2	2
Hungry_Donkey_bar_English_2	124	1	<?xml version="1.0"?>\n<Clock xmlns:dt="urn:schemas-microsoft-com:datatypes"><Description dt:dt="string">E-Prime Primary Realtime Clock</Description><StartTime><Timestamp dt:dt="int">0</Timestamp><DateUtc dt:dt="string">2015-09-03T23:04:46Z</DateUtc></StartTime><FrequencyChanges><FrequencyChange><Frequency dt:dt="r8">3507734</Frequency><Timestamp dt:dt="r8">2820928408000</Timestamp><Current dt:dt="r8">0</Current><DateUtc dt:dt="string">2015-09-03T23:04:46Z</DateUtc></FrequencyChange></FrequencyChanges></Clock>\n	Hungry_Donkey_bar_English_2-124-1	60.018	-9	1.0.0.18	1	-864430688	Standard	2.0.10.353	2.0.10.353	09-03-2015		19:04:46	2.0.10.248	80	Bar50-50.bmp	53	2	?	0r_4g.bmp	0r_4g.bmp	0r_2g.bmp	0r_2g.bmp		0r_4g.bmp			TrialProc	TrialList	0	cvbn	-999999	16	303585	0	v	441	304026	230	-206	24	-42	46	14	6	6	8	80	0	0	0	0	4	4	2	2	0	4
Hungry_Donkey_bar_English_2	124	1	<?xml version="1.0"?>\n<Clock xmlns:dt="urn:schemas-microsoft-com:datatypes"><Description dt:dt="string">E-Prime Primary Realtime Clock</Description><StartTime><Timestamp dt:dt="int">0</Timestamp><DateUtc dt:dt="string">2015-09-03T23:04:46Z</DateUtc></StartTime><FrequencyChanges><FrequencyChange><Frequency dt:dt="r8">3507734</Frequency><Timestamp dt:dt="r8">2820928408000</Timestamp><Current dt:dt="r8">0</Current><DateUtc dt:dt="string">2015-09-03T23:04:46Z</DateUtc></FrequencyChange></FrequencyChanges></Clock>\n	Hungry_Donkey_bar_English_2-124-1	60.018	-9	1.0.0.18	1	-864430688	Standard	2.0.10.353	2.0.10.353	09-03-2015		19:04:46	2.0.10.248	81	Bar50-50.bmp	53	2	?	12r_4g.bmp	0r_4g.bmp	3r_2g.bmp	0r_2g.bmp		0r_4g.bmp			TrialProc	TrialList	0	cvbn	-999999	16	306051	0	v	407	306458	234	-206	28	-42	50	14	6	5	9	81	-12	0	-3	0	4	4	2	2	0	4
Hungry_Donkey_bar_English_2	124	1	<?xml version="1.0"?>\n<Clock xmlns:dt="urn:schemas-microsoft-com:datatypes"><Description dt:dt="string">E-Prime Primary Realtime Clock</Description><StartTime><Timestamp dt:dt="int">0</Timestamp><DateUtc dt:dt="string">2015-09-03T23:04:46Z</DateUtc></StartTime><FrequencyChanges><FrequencyChange><Frequency dt:dt="r8">3507734</Frequency><Timestamp dt:dt="r8">2820928408000</Timestamp><Current dt:dt="r8">0</Current><DateUtc dt:dt="string">2015-09-03T23:04:46Z</DateUtc></FrequencyChange></FrequencyChanges></Clock>\n	Hungry_Donkey_bar_English_2-124-1	60.018	-9	1.0.0.18	1	-864430688	Standard	2.0.10.353	2.0.10.353	09-03-2015		19:04:46	2.0.10.248	82	Bar50-50.bmp	54	2	?	0r_4g.bmp	0r_4g.bmp	0r_2g.bmp	0r_2g.bmp		0r_4g.bmp			TrialProc	TrialList	0	cvbn	-999999	16	308484	0	v	246	308730	238	-206	32	-42	54	14	6	8	9	82	0	0	0	0	4	4	2	2	0	4
Hungry_Donkey_bar_English_2	124	1	<?xml version="1.0"?>\n<Clock xmlns:dt="urn:schemas-microsoft-com:datatypes"><Description dt:dt="string">E-Prime Primary Realtime Clock</Description><StartTime><Timestamp dt:dt="int">0</Timestamp><DateUtc dt:dt="string">2015-09-03T23:04:46Z</DateUtc></StartTime><FrequencyChanges><FrequencyChange><Frequency dt:dt="r8">3507734</Frequency><Timestamp dt:dt="r8">2820928408000</Timestamp><Current dt:dt="r8">0</Current><DateUtc dt:dt="string">2015-09-03T23:04:46Z</DateUtc></FrequencyChange></FrequencyChanges></Clock>\n	Hungry_Donkey_bar_English_2-124-1	60.018	-9	1.0.0.18	1	-864430688	Standard	2.0.10.353	2.0.10.353	09-03-2015		19:04:46	2.0.10.248	83	Bar50-50.bmp	49	2	?	8r_4g.bmp	50r_4g.bmp	1r_2g.bmp	10r_2g.bmp		50r_4g.bmp			TrialProc	TrialList	0	cvbn	-999999	16	310766	0	v	475	311241	242	-256	-14	-42	8	14	6	1	9	83	-8	-50	-1	-10	4	4	2	2	-50	4
Hungry_Donkey_bar_English_2	124	1	<?xml version="1.0"?>\n<Clock xmlns:dt="urn:schemas-microsoft-com:datatypes"><Description dt:dt="string">E-Prime Primary Realtime Clock</Description><StartTime><Timestamp dt:dt="int">0</Timestamp><DateUtc dt:dt="string">2015-09-03T23:04:46Z</DateUtc></StartTime><FrequencyChanges><FrequencyChange><Frequency dt:dt="r8">3507734</Frequency><Timestamp dt:dt="r8">2820928408000</Timestamp><Current dt:dt="r8">0</Current><DateUtc dt:dt="string">2015-09-03T23:04:46Z</DateUtc></FrequencyChange></FrequencyChanges></Clock>\n	Hungry_Donkey_bar_English_2-124-1	60.018	-9	1.0.0.18	1	-864430688	Standard	2.0.10.353	2.0.10.353	09-03-2015		19:04:46	2.0.10.248	84	Bar50-50.bmp	49	1	?	0r_4g.bmp	0r_4g.bmp	0r_2g.bmp	0r_2g.bmp	0r_4g.bmp				TrialProc	TrialList	0	cvbn	-999999	16	313282	0	c	967	314249	246	-256	-10	-38	8	14	6	9	9	84	0	0	0	0	4	4	2	2	0	4
Hungry_Donkey_bar_English_2	124	1	<?xml version="1.0"?>\n<Clock xmlns:dt="urn:schemas-microsoft-com:datatypes"><Description dt:dt="string">E-Prime Primary Realtime Clock</Description><StartTime><Timestamp dt:dt="int">0</Timestamp><DateUtc dt:dt="string">2015-09-03T23:04:46Z</DateUtc></StartTime><FrequencyChanges><FrequencyChange><Frequency dt:dt="r8">3507734</Frequency><Timestamp dt:dt="r8">2820928408000</Timestamp><Current dt:dt="r8">0</Current><DateUtc dt:dt="string">2015-09-03T23:04:46Z</DateUtc></FrequencyChange></FrequencyChanges></Clock>\n	Hungry_Donkey_bar_English_2-124-1	60.018	-9	1.0.0.18	1	-864430688	Standard	2.0.10.353	2.0.10.353	09-03-2015		19:04:46	2.0.10.248	85	Bar50-50.bmp	48	1	?	10r_4g.bmp	0r_4g.bmp	2r_2g.bmp	0r_2g.bmp	10r_4g.bmp				TrialProc	TrialList	0	cvbn	-999999	16	316281	0	c	336	316617	250	-266	-16	-44	8	14	6	2	9	85	-10	0	-2	0	4	4	2	2	-10	4
Hungry_Donkey_bar_English_2	124	1	<?xml version="1.0"?>\n<Clock xmlns:dt="urn:schemas-microsoft-com:datatypes"><Description dt:dt="string">E-Prime Primary Realtime Clock</Description><StartTime><Timestamp dt:dt="int">0</Timestamp><DateUtc dt:dt="string">2015-09-03T23:04:46Z</DateUtc></StartTime><FrequencyChanges><FrequencyChange><Frequency dt:dt="r8">3507734</Frequency><Timestamp dt:dt="r8">2820928408000</Timestamp><Current dt:dt="r8">0</Current><DateUtc dt:dt="string">2015-09-03T23:04:46Z</DateUtc></FrequencyChange></FrequencyChanges></Clock>\n	Hungry_Donkey_bar_English_2-124-1	60.018	-9	1.0.0.18	1	-864430688	Standard	2.0.10.353	2.0.10.353	09-03-2015		19:04:46	2.0.10.248	86	Bar50-50.bmp	49	3	?	0r_4g.bmp	0r_4g.bmp	0r_2g.bmp	0r_2g.bmp			0r_2g.bmp		TrialProc	TrialList	0	cvbn	-999999	16	318647	0	b	1010	319657	252	-266	-14	-44	8	16	6	10	9	86	0	0	0	0	4	4	2	2	0	2
Hungry_Donkey_bar_English_2	124	1	<?xml version="1.0"?>\n<Clock xmlns:dt="urn:schemas-microsoft-com:datatypes"><Description dt:dt="string">E-Prime Primary Realtime Clock</Description><StartTime><Timestamp dt:dt="int">0</Timestamp><DateUtc dt:dt="string">2015-09-03T23:04:46Z</DateUtc></StartTime><FrequencyChanges><FrequencyChange><Frequency dt:dt="r8">3507734</Frequency><Timestamp dt:dt="r8">2820928408000</Timestamp><Current dt:dt="r8">0</Current><DateUtc dt:dt="string">2015-09-03T23:04:46Z</DateUtc></FrequencyChange></FrequencyChanges></Clock>\n	Hungry_Donkey_bar_English_2-124-1	60.018	-9	1.0.0.18	1	-864430688	Standard	2.0.10.353	2.0.10.353	09-03-2015		19:04:46	2.0.10.248	87	Bar50-50.bmp	49	2	?	10r_4g.bmp	0r_4g.bmp	2r_2g.bmp	0r_2g.bmp		0r_4g.bmp			TrialProc	TrialList	0	cvbn	-999999	16	321680	0	v	3960	325640	256	-266	-10	-44	12	16	6	4	9	87	-10	0	-2	0	4	4	2	2	0	4
Hungry_Donkey_bar_English_2	124	1	<?xml version="1.0"?>\n<Clock xmlns:dt="urn:schemas-microsoft-com:datatypes"><Description dt:dt="string">E-Prime Primary Realtime Clock</Description><StartTime><Timestamp dt:dt="int">0</Timestamp><DateUtc dt:dt="string">2015-09-03T23:04:46Z</DateUtc></StartTime><FrequencyChanges><FrequencyChange><Frequency dt:dt="r8">3507734</Frequency><Timestamp dt:dt="r8">2820928408000</Timestamp><Current dt:dt="r8">0</Current><DateUtc dt:dt="string">2015-09-03T23:04:46Z</DateUtc></FrequencyChange></FrequencyChanges></Clock>\n	Hungry_Donkey_bar_English_2-124-1	60.018	-9	1.0.0.18	1	-864430688	Standard	2.0.10.353	2.0.10.353	09-03-2015		19:04:46	2.0.10.248	88	Bar50-50.bmp	49	4	?	0r_4g.bmp	0r_4g.bmp	0r_2g.bmp	0r_2g.bmp				0r_2g.bmp	TrialProc	TrialList	0	cvbn	-999999	16	327678	0	n	1242	328920	258	-266	-8	-44	12	16	8	7	9	88	0	0	0	0	4	4	2	2	0	2
Hungry_Donkey_bar_English_2	124	1	<?xml version="1.0"?>\n<Clock xmlns:dt="urn:schemas-microsoft-com:datatypes"><Description dt:dt="string">E-Prime Primary Realtime Clock</Description><StartTime><Timestamp dt:dt="int">0</Timestamp><DateUtc dt:dt="string">2015-09-03T23:04:46Z</DateUtc></StartTime><FrequencyChanges><FrequencyChange><Frequency dt:dt="r8">3507734</Frequency><Timestamp dt:dt="r8">2820928408000</Timestamp><Current dt:dt="r8">0</Current><DateUtc dt:dt="string">2015-09-03T23:04:46Z</DateUtc></FrequencyChange></FrequencyChanges></Clock>\n	Hungry_Donkey_bar_English_2-124-1	60.018	-9	1.0.0.18	1	-864430688	Standard	2.0.10.353	2.0.10.353	09-03-2015		19:04:46	2.0.10.248	89	Bar50-50.bmp	49	3	?	10r_4g.bmp	0r_4g.bmp	2r_2g.bmp	0r_2g.bmp			2r_2g.bmp		TrialProc	TrialList	0	cvbn	-999999	16	330960	0	b	424	331384	260	-268	-8	-44	12	16	8	3	9	89	-10	0	-2	0	4	4	2	2	-2	2
Hungry_Donkey_bar_English_2	124	1	<?xml version="1.0"?>\n<Clock xmlns:dt="urn:schemas-microsoft-com:datatypes"><Description dt:dt="string">E-Prime Primary Realtime Clock</Description><StartTime><Timestamp dt:dt="int">0</Timestamp><DateUtc dt:dt="string">2015-09-03T23:04:46Z</DateUtc></StartTime><FrequencyChanges><FrequencyChange><Frequency dt:dt="r8">3507734</Frequency><Timestamp dt:dt="r8">2820928408000</Timestamp><Current dt:dt="r8">0</Current><DateUtc dt:dt="string">2015-09-03T23:04:46Z</DateUtc></FrequencyChange></FrequencyChanges></Clock>\n	Hungry_Donkey_bar_English_2-124-1	60.018	-9	1.0.0.18	1	-864430688	Standard	2.0.10.353	2.0.10.353	09-03-2015		19:04:46	2.0.10.248	90	Bar50-50.bmp	50	2	?	0r_4g.bmp	0r_4g.bmp	0r_2g.bmp	0r_2g.bmp		0r_4g.bmp			TrialProc	TrialList	0	cvbn	-999999	16	333409	0	v	679	334088	264	-268	-4	-44	16	16	8	6	9	90	0	0	0	0	4	4	2	2	0	4
Hungry_Donkey_bar_English_2	124	1	<?xml version="1.0"?>\n<Clock xmlns:dt="urn:schemas-microsoft-com:datatypes"><Description dt:dt="string">E-Prime Primary Realtime Clock</Description><StartTime><Timestamp dt:dt="int">0</Timestamp><DateUtc dt:dt="string">2015-09-03T23:04:46Z</DateUtc></StartTime><FrequencyChanges><FrequencyChange><Frequency dt:dt="r8">3507734</Frequency><Timestamp dt:dt="r8">2820928408000</Timestamp><Current dt:dt="r8">0</Current><DateUtc dt:dt="string">2015-09-03T23:04:46Z</DateUtc></FrequencyChange></FrequencyChanges></Clock>\n	Hungry_Donkey_bar_English_2-124-1	60.018	-9	1.0.0.18	1	-864430688	Standard	2.0.10.353	2.0.10.353	09-03-2015		19:04:46	2.0.10.248	91	Bar50-50.bmp	50	4	?	0r_4g.bmp	0r_4g.bmp	0r_2g.bmp	0r_2g.bmp				0r_2g.bmp	TrialProc	TrialList	0	cvbn	-999999	16	336125	0	n	2683	338808	266	-268	-2	-44	16	16	10	6	10	91	0	0	0	0	4	4	2	2	0	2
Hungry_Donkey_bar_English_2	124	1	<?xml version="1.0"?>\n<Clock xmlns:dt="urn:schemas-microsoft-com:datatypes"><Description dt:dt="string">E-Prime Primary Realtime Clock</Description><StartTime><Timestamp dt:dt="int">0</Timestamp><DateUtc dt:dt="string">2015-09-03T23:04:46Z</DateUtc></StartTime><FrequencyChanges><FrequencyChange><Frequency dt:dt="r8">3507734</Frequency><Timestamp dt:dt="r8">2820928408000</Timestamp><Current dt:dt="r8">0</Current><DateUtc dt:dt="string">2015-09-03T23:04:46Z</DateUtc></FrequencyChange></FrequencyChanges></Clock>\n	Hungry_Donkey_bar_English_2-124-1	60.018	-9	1.0.0.18	1	-864430688	Standard	2.0.10.353	2.0.10.353	09-03-2015		19:04:46	2.0.10.248	92	Bar50-50.bmp	50	4	?	0r_4g.bmp	0r_4g.bmp	0r_2g.bmp	0r_2g.bmp				0r_2g.bmp	TrialProc	TrialList	0	cvbn	-999999	17	340841	0	n	702	341543	268	-268	0	-44	16	16	12	8	10	92	0	0	0	0	4	4	2	2	0	2
Hungry_Donkey_bar_English_2	124	1	<?xml version="1.0"?>\n<Clock xmlns:dt="urn:schemas-microsoft-com:datatypes"><Description dt:dt="string">E-Prime Primary Realtime Clock</Description><StartTime><Timestamp dt:dt="int">0</Timestamp><DateUtc dt:dt="string">2015-09-03T23:04:46Z</DateUtc></StartTime><FrequencyChanges><FrequencyChange><Frequency dt:dt="r8">3507734</Frequency><Timestamp dt:dt="r8">2820928408000</Timestamp><Current dt:dt="r8">0</Current><DateUtc dt:dt="string">2015-09-03T23:04:46Z</DateUtc></FrequencyChange></FrequencyChanges></Clock>\n	Hungry_Donkey_bar_English_2-124-1	60.018	-9	1.0.0.18	1	-864430688	Standard	2.0.10.353	2.0.10.353	09-03-2015		19:04:46	2.0.10.248	93	Bar50-50.bmp	50	4	?	0r_4g.bmp	0r_4g.bmp	0r_2g.bmp	0r_2g.bmp				0r_2g.bmp	TrialProc	TrialList	0	cvbn	-999999	16	343573	0	n	338	343911	270	-268	2	-44	16	16	14	7	10	93	0	0	0	0	4	4	2	2	0	2
Hungry_Donkey_bar_English_2	124	1	<?xml version="1.0"?>\n<Clock xmlns:dt="urn:schemas-microsoft-com:datatypes"><Description dt:dt="string">E-Prime Primary Realtime Clock</Description><StartTime><Timestamp dt:dt="int">0</Timestamp><DateUtc dt:dt="string">2015-09-03T23:04:46Z</DateUtc></StartTime><FrequencyChanges><FrequencyChange><Frequency dt:dt="r8">3507734</Frequency><Timestamp dt:dt="r8">2820928408000</Timestamp><Current dt:dt="r8">0</Current><DateUtc dt:dt="string">2015-09-03T23:04:46Z</DateUtc></FrequencyChange></FrequencyChanges></Clock>\n	Hungry_Donkey_bar_English_2-124-1	60.018	-9	1.0.0.18	1	-864430688	Standard	2.0.10.353	2.0.10.353	09-03-2015		19:04:46	2.0.10.248	94	Bar50-50.bmp	49	4	?	8r_4g.bmp	50r_4g.bmp	1r_2g.bmp	10r_2g.bmp				10r_2g.bmp	TrialProc	TrialList	0	cvbn	-999999	16	345939	0	n	388	346327	272	-278	-6	-44	16	16	6	1	10	94	-8	-50	-1	-10	4	4	2	2	-10	2
Hungry_Donkey_bar_English_2	124	1	<?xml version="1.0"?>\n<Clock xmlns:dt="urn:schemas-microsoft-com:datatypes"><Description dt:dt="string">E-Prime Primary Realtime Clock</Description><StartTime><Timestamp dt:dt="int">0</Timestamp><DateUtc dt:dt="string">2015-09-03T23:04:46Z</DateUtc></StartTime><FrequencyChanges><FrequencyChange><Frequency dt:dt="r8">3507734</Frequency><Timestamp dt:dt="r8">2820928408000</Timestamp><Current dt:dt="r8">0</Current><DateUtc dt:dt="string">2015-09-03T23:04:46Z</DateUtc></FrequencyChange></FrequencyChanges></Clock>\n	Hungry_Donkey_bar_English_2-124-1	60.018	-9	1.0.0.18	1	-864430688	Standard	2.0.10.353	2.0.10.353	09-03-2015		19:04:46	2.0.10.248	95	Bar50-50.bmp	49	3	?	10r_4g.bmp	0r_4g.bmp	2r_2g.bmp	0r_2g.bmp			2r_2g.bmp		TrialProc	TrialList	0	cvbn	-999999	16	348355	0	b	916	349271	274	-280	-6	-44	16	16	6	3	10	95	-10	0	-2	0	4	4	2	2	-2	2
Hungry_Donkey_bar_English_2	124	1	<?xml version="1.0"?>\n<Clock xmlns:dt="urn:schemas-microsoft-com:datatypes"><Description dt:dt="string">E-Prime Primary Realtime Clock</Description><StartTime><Timestamp dt:dt="int">0</Timestamp><DateUtc dt:dt="string">2015-09-03T23:04:46Z</DateUtc></StartTime><FrequencyChanges><FrequencyChange><Frequency dt:dt="r8">3507734</Frequency><Timestamp dt:dt="r8">2820928408000</Timestamp><Current dt:dt="r8">0</Current><DateUtc dt:dt="string">2015-09-03T23:04:46Z</DateUtc></FrequencyChange></FrequencyChanges></Clock>\n	Hungry_Donkey_bar_English_2-124-1	60.018	-9	1.0.0.18	1	-864430688	Standard	2.0.10.353	2.0.10.353	09-03-2015		19:04:46	2.0.10.248	96	Bar50-50.bmp	50	3	?	0r_4g.bmp	0r_4g.bmp	0r_2g.bmp	0r_2g.bmp			0r_2g.bmp		TrialProc	TrialList	0	cvbn	-999999	16	351304	0	b	575	351879	276	-280	-4	-44	16	18	6	10	10	96	0	0	0	0	4	4	2	2	0	2
Hungry_Donkey_bar_English_2	124	1	<?xml version="1.0"?>\n<Clock xmlns:dt="urn:schemas-microsoft-com:datatypes"><Description dt:dt="string">E-Prime Primary Realtime Clock</Description><StartTime><Timestamp dt:dt="int">0</Timestamp><DateUtc dt:dt="string">2015-09-03T23:04:46Z</DateUtc></StartTime><FrequencyChanges><FrequencyChange><Frequency dt:dt="r8">3507734</Frequency><Timestamp dt:dt="r8">2820928408000</Timestamp><Current dt:dt="r8">0</Current><DateUtc dt:dt="string">2015-09-03T23:04:46Z</DateUtc></FrequencyChange></FrequencyChanges></Clock>\n	Hungry_Donkey_bar_English_2-124-1	60.018	-9	1.0.0.18	1	-864430688	Standard	2.0.10.353	2.0.10.353	09-03-2015		19:04:46	2.0.10.248	97	Bar50-50.bmp	50	3	?	10r_4g.bmp	0r_4g.bmp	2r_2g.bmp	0r_2g.bmp			2r_2g.bmp		TrialProc	TrialList	0	cvbn	-999999	16	353903	0	b	472	354375	278	-282	-4	-44	16	18	6	4	10	97	-10	0	-2	0	4	4	2	2	-2	2
Hungry_Donkey_bar_English_2	124	1	<?xml version="1.0"?>\n<Clock xmlns:dt="urn:schemas-microsoft-com:datatypes"><Description dt:dt="string">E-Prime Primary Realtime Clock</Description><StartTime><Timestamp dt:dt="int">0</Timestamp><DateUtc dt:dt="string">2015-09-03T23:04:46Z</DateUtc></StartTime><FrequencyChanges><FrequencyChange><Frequency dt:dt="r8">3507734</Frequency><Timestamp dt:dt="r8">2820928408000</Timestamp><Current dt:dt="r8">0</Current><DateUtc dt:dt="string">2015-09-03T23:04:46Z</DateUtc></FrequencyChange></FrequencyChanges></Clock>\n	Hungry_Donkey_bar_English_2-124-1	60.018	-9	1.0.0.18	1	-864430688	Standard	2.0.10.353	2.0.10.353	09-03-2015		19:04:46	2.0.10.248	98	Bar50-50.bmp	50	2	?	0r_4g.bmp	0r_4g.bmp	0r_2g.bmp	0r_2g.bmp		0r_4g.bmp			TrialProc	TrialList	0	cvbn	-999999	16	356402	0	v	1140	357542	282	-282	0	-44	20	18	6	9	10	98	0	0	0	0	4	4	2	2	0	4
Hungry_Donkey_bar_English_2	124	1	<?xml version="1.0"?>\n<Clock xmlns:dt="urn:schemas-microsoft-com:datatypes"><Description dt:dt="string">E-Prime Primary Realtime Clock</Description><StartTime><Timestamp dt:dt="int">0</Timestamp><DateUtc dt:dt="string">2015-09-03T23:04:46Z</DateUtc></StartTime><FrequencyChanges><FrequencyChange><Frequency dt:dt="r8">3507734</Frequency><Timestamp dt:dt="r8">2820928408000</Timestamp><Current dt:dt="r8">0</Current><DateUtc dt:dt="string">2015-09-03T23:04:46Z</DateUtc></FrequencyChange></FrequencyChanges></Clock>\n	Hungry_Donkey_bar_English_2-124-1	60.018	-9	1.0.0.18	1	-864430688	Standard	2.0.10.353	2.0.10.353	09-03-2015		19:04:46	2.0.10.248	99	Bar50-50.bmp	50	2	?	10r_4g.bmp	0r_4g.bmp	2r_2g.bmp	0r_2g.bmp		0r_4g.bmp			TrialProc	TrialList	0	cvbn	-999999	16	359568	0	v	838	360406	286	-282	4	-44	24	18	6	2	10	99	-10	0	-2	0	4	4	2	2	0	4
Hungry_Donkey_bar_English_2	124	1	<?xml version="1.0"?>\n<Clock xmlns:dt="urn:schemas-microsoft-com:datatypes"><Description dt:dt="string">E-Prime Primary Realtime Clock</Description><StartTime><Timestamp dt:dt="int">0</Timestamp><DateUtc dt:dt="string">2015-09-03T23:04:46Z</DateUtc></StartTime><FrequencyChanges><FrequencyChange><Frequency dt:dt="r8">3507734</Frequency><Timestamp dt:dt="r8">2820928408000</Timestamp><Current dt:dt="r8">0</Current><DateUtc dt:dt="string">2015-09-03T23:04:46Z</DateUtc></FrequencyChange></FrequencyChanges></Clock>\n	Hungry_Donkey_bar_English_2-124-1	60.018	-9	1.0.0.18	1	-864430688	Standard	2.0.10.353	2.0.10.353	09-03-2015		19:04:46	2.0.10.248	100	Bar50-50.bmp	51	2	?	12r_4g.bmp	0r_4g.bmp	3r_2g.bmp	0r_2g.bmp		0r_4g.bmp			TrialProc	TrialList	0	cvbn	-999999	16	362434	0	v	916	363350	290	-282	8	-44	28	18	6	5	10	100	-12	0	-3	0	4	4	2	2	0	4
Hungry_Donkey_bar_English_2	124	1	<?xml version="1.0"?>\n<Clock xmlns:dt="urn:schemas-microsoft-com:datatypes"><Description dt:dt="string">E-Prime Primary Realtime Clock</Description><StartTime><Timestamp dt:dt="int">0</Timestamp><DateUtc dt:dt="string">2015-09-03T23:04:46Z</DateUtc></StartTime><FrequencyChanges><FrequencyChange><Frequency dt:dt="r8">3507734</Frequency><Timestamp dt:dt="r8">2820928408000</Timestamp><Current dt:dt="r8">0</Current><DateUtc dt:dt="string">2015-09-03T23:04:46Z</DateUtc></FrequencyChange></FrequencyChanges></Clock>\n	Hungry_Donkey_bar_English_2-124-1	60.018	-9	1.0.0.18	1	-864430688	Standard	2.0.10.353	2.0.10.353	09-03-2015		19:04:46	2.0.10.248	101	Bar50-50.bmp	51	2	?	0r_4g.bmp	0r_4g.bmp	0r_2g.bmp	0r_2g.bmp		0r_4g.bmp			TrialProc	TrialList	0	cvbn	-999999	16	365383	0	v	639	366022	294	-282	12	-44	32	18	6	9	11	101	0	0	0	0	4	4	2	2	0	4
Hungry_Donkey_bar_English_2	124	1	<?xml version="1.0"?>\n<Clock xmlns:dt="urn:schemas-microsoft-com:datatypes"><Description dt:dt="string">E-Prime Primary Realtime Clock</Description><StartTime><Timestamp dt:dt="int">0</Timestamp><DateUtc dt:dt="string">2015-09-03T23:04:46Z</DateUtc></StartTime><FrequencyChanges><FrequencyChange><Frequency dt:dt="r8">3507734</Frequency><Timestamp dt:dt="r8">2820928408000</Timestamp><Current dt:dt="r8">0</Current><DateUtc dt:dt="string">2015-09-03T23:04:46Z</DateUtc></FrequencyChange></FrequencyChanges></Clock>\n	Hungry_Donkey_bar_English_2-124-1	60.018	-9	1.0.0.18	1	-864430688	Standard	2.0.10.353	2.0.10.353	09-03-2015		19:04:46	2.0.10.248	102	Bar50-50.bmp	51	2	?	0r_4g.bmp	0r_4g.bmp	0r_2g.bmp	0r_2g.bmp		0r_4g.bmp			TrialProc	TrialList	0	cvbn	-999999	16	368049	0	v	389	368438	298	-282	16	-44	36	18	6	8	11	102	0	0	0	0	4	4	2	2	0	4
Hungry_Donkey_bar_English_2	124	1	<?xml version="1.0"?>\n<Clock xmlns:dt="urn:schemas-microsoft-com:datatypes"><Description dt:dt="string">E-Prime Primary Realtime Clock</Description><StartTime><Timestamp dt:dt="int">0</Timestamp><DateUtc dt:dt="string">2015-09-03T23:04:46Z</DateUtc></StartTime><FrequencyChanges><FrequencyChange><Frequency dt:dt="r8">3507734</Frequency><Timestamp dt:dt="r8">2820928408000</Timestamp><Current dt:dt="r8">0</Current><DateUtc dt:dt="string">2015-09-03T23:04:46Z</DateUtc></FrequencyChange></FrequencyChanges></Clock>\n	Hungry_Donkey_bar_English_2-124-1	60.018	-9	1.0.0.18	1	-864430688	Standard	2.0.10.353	2.0.10.353	09-03-2015		19:04:46	2.0.10.248	103	Bar50-50.bmp	52	2	?	10r_4g.bmp	0r_4g.bmp	2r_2g.bmp	0r_2g.bmp		0r_4g.bmp			TrialProc	TrialList	0	cvbn	-999999	16	370465	0	v	693	371158	302	-282	20	-44	40	18	6	3	11	103	-10	0	-2	0	4	4	2	2	0	4
Hungry_Donkey_bar_English_2	124	1	<?xml version="1.0"?>\n<Clock xmlns:dt="urn:schemas-microsoft-com:datatypes"><Description dt:dt="string">E-Prime Primary Realtime Clock</Description><StartTime><Timestamp dt:dt="int">0</Timestamp><DateUtc dt:dt="string">2015-09-03T23:04:46Z</DateUtc></StartTime><FrequencyChanges><FrequencyChange><Frequency dt:dt="r8">3507734</Frequency><Timestamp dt:dt="r8">2820928408000</Timestamp><Current dt:dt="r8">0</Current><DateUtc dt:dt="string">2015-09-03T23:04:46Z</DateUtc></FrequencyChange></FrequencyChanges></Clock>\n	Hungry_Donkey_bar_English_2-124-1	60.018	-9	1.0.0.18	1	-864430688	Standard	2.0.10.353	2.0.10.353	09-03-2015		19:04:46	2.0.10.248	104	Bar50-50.bmp	52	2	?	0r_4g.bmp	0r_4g.bmp	0r_2g.bmp	0r_2g.bmp		0r_4g.bmp			TrialProc	TrialList	0	cvbn	-999999	16	373181	0	v	440	373621	306	-282	24	-44	44	18	6	7	11	104	0	0	0	0	4	4	2	2	0	4
Hungry_Donkey_bar_English_2	124	1	<?xml version="1.0"?>\n<Clock xmlns:dt="urn:schemas-microsoft-com:datatypes"><Description dt:dt="string">E-Prime Primary Realtime Clock</Description><StartTime><Timestamp dt:dt="int">0</Timestamp><DateUtc dt:dt="string">2015-09-03T23:04:46Z</DateUtc></StartTime><FrequencyChanges><FrequencyChange><Frequency dt:dt="r8">3507734</Frequency><Timestamp dt:dt="r8">2820928408000</Timestamp><Current dt:dt="r8">0</Current><DateUtc dt:dt="string">2015-09-03T23:04:46Z</DateUtc></FrequencyChange></FrequencyChanges></Clock>\n	Hungry_Donkey_bar_English_2-124-1	60.018	-9	1.0.0.18	1	-864430688	Standard	2.0.10.353	2.0.10.353	09-03-2015		19:04:46	2.0.10.248	105	Bar50-50.bmp	52	2	?	0r_4g.bmp	0r_4g.bmp	0r_2g.bmp	0r_2g.bmp		0r_4g.bmp			TrialProc	TrialList	0	cvbn	-999999	16	375647	0	v	1094	376741	310	-282	28	-44	48	18	6	10	11	105	0	0	0	0	4	4	2	2	0	4
Hungry_Donkey_bar_English_2	124	1	<?xml version="1.0"?>\n<Clock xmlns:dt="urn:schemas-microsoft-com:datatypes"><Description dt:dt="string">E-Prime Primary Realtime Clock</Description><StartTime><Timestamp dt:dt="int">0</Timestamp><DateUtc dt:dt="string">2015-09-03T23:04:46Z</DateUtc></StartTime><FrequencyChanges><FrequencyChange><Frequency dt:dt="r8">3507734</Frequency><Timestamp dt:dt="r8">2820928408000</Timestamp><Current dt:dt="r8">0</Current><DateUtc dt:dt="string">2015-09-03T23:04:46Z</DateUtc></FrequencyChange></FrequencyChanges></Clock>\n	Hungry_Donkey_bar_English_2-124-1	60.018	-9	1.0.0.18	1	-864430688	Standard	2.0.10.353	2.0.10.353	09-03-2015		19:04:46	2.0.10.248	106	Bar50-50.bmp	49	2	?	8r_4g.bmp	50r_4g.bmp	1r_2g.bmp	10r_2g.bmp		50r_4g.bmp			TrialProc	TrialList	0	cvbn	-999999	16	378779	0	v	650	379429	314	-332	-18	-44	2	18	6	1	11	106	-8	-50	-1	-10	4	4	2	2	-50	4
Hungry_Donkey_bar_English_2	124	1	<?xml version="1.0"?>\n<Clock xmlns:dt="urn:schemas-microsoft-com:datatypes"><Description dt:dt="string">E-Prime Primary Realtime Clock</Description><StartTime><Timestamp dt:dt="int">0</Timestamp><DateUtc dt:dt="string">2015-09-03T23:04:46Z</DateUtc></StartTime><FrequencyChanges><FrequencyChange><Frequency dt:dt="r8">3507734</Frequency><Timestamp dt:dt="r8">2820928408000</Timestamp><Current dt:dt="r8">0</Current><DateUtc dt:dt="string">2015-09-03T23:04:46Z</DateUtc></FrequencyChange></FrequencyChanges></Clock>\n	Hungry_Donkey_bar_English_2-124-1	60.018	-9	1.0.0.18	1	-864430688	Standard	2.0.10.353	2.0.10.353	09-03-2015		19:04:46	2.0.10.248	107	Bar50-50.bmp	49	4	?	12r_4g.bmp	0r_4g.bmp	3r_2g.bmp	0r_2g.bmp				0r_2g.bmp	TrialProc	TrialList	0	cvbn	-999999	16	381462	0	n	63	381525	316	-332	-16	-44	2	18	8	5	11	107	-12	0	-3	0	4	4	2	2	0	2
Hungry_Donkey_bar_English_2	124	1	<?xml version="1.0"?>\n<Clock xmlns:dt="urn:schemas-microsoft-com:datatypes"><Description dt:dt="string">E-Prime Primary Realtime Clock</Description><StartTime><Timestamp dt:dt="int">0</Timestamp><DateUtc dt:dt="string">2015-09-03T23:04:46Z</DateUtc></StartTime><FrequencyChanges><FrequencyChange><Frequency dt:dt="r8">3507734</Frequency><Timestamp dt:dt="r8">2820928408000</Timestamp><Current dt:dt="r8">0</Current><DateUtc dt:dt="string">2015-09-03T23:04:46Z</DateUtc></FrequencyChange></FrequencyChanges></Clock>\n	Hungry_Donkey_bar_English_2-124-1	60.018	-9	1.0.0.18	1	-864430688	Standard	2.0.10.353	2.0.10.353	09-03-2015		19:04:46	2.0.10.248	108	Bar50-50.bmp	49	4	?	0r_4g.bmp	0r_4g.bmp	0r_2g.bmp	0r_2g.bmp				0r_2g.bmp	TrialProc	TrialList	0	cvbn	-999999	16	383561	0	n	1116	384677	318	-332	-14	-44	2	18	10	6	11	108	0	0	0	0	4	4	2	2	0	2
Hungry_Donkey_bar_English_2	124	1	<?xml version="1.0"?>\n<Clock xmlns:dt="urn:schemas-microsoft-com:datatypes"><Description dt:dt="string">E-Prime Primary Realtime Clock</Description><StartTime><Timestamp dt:dt="int">0</Timestamp><DateUtc dt:dt="string">2015-09-03T23:04:46Z</DateUtc></StartTime><FrequencyChanges><FrequencyChange><Frequency dt:dt="r8">3507734</Frequency><Timestamp dt:dt="r8">2820928408000</Timestamp><Current dt:dt="r8">0</Current><DateUtc dt:dt="string">2015-09-03T23:04:46Z</DateUtc></FrequencyChange></FrequencyChanges></Clock>\n	Hungry_Donkey_bar_English_2-124-1	60.018	-9	1.0.0.18	1	-864430688	Standard	2.0.10.353	2.0.10.353	09-03-2015		19:04:46	2.0.10.248	109	Bar50-50.bmp	49	4	?	10r_4g.bmp	0r_4g.bmp	2r_2g.bmp	0r_2g.bmp				0r_2g.bmp	TrialProc	TrialList	0	cvbn	-999999	16	386710	0	n	478	387188	320	-332	-12	-44	2	18	12	4	11	109	-10	0	-2	0	4	4	2	2	0	2
Hungry_Donkey_bar_English_2	124	1	<?xml version="1.0"?>\n<Clock xmlns:dt="urn:schemas-microsoft-com:datatypes"><Description dt:dt="string">E-Prime Primary Realtime Clock</Description><StartTime><Timestamp dt:dt="int">0</Timestamp><DateUtc dt:dt="string">2015-09-03T23:04:46Z</DateUtc></StartTime><FrequencyChanges><FrequencyChange><Frequency dt:dt="r8">3507734</Frequency><Timestamp dt:dt="r8">2820928408000</Timestamp><Current dt:dt="r8">0</Current><DateUtc dt:dt="string">2015-09-03T23:04:46Z</DateUtc></FrequencyChange></FrequencyChanges></Clock>\n	Hungry_Donkey_bar_English_2-124-1	60.018	-9	1.0.0.18	1	-864430688	Standard	2.0.10.353	2.0.10.353	09-03-2015		19:04:46	2.0.10.248	110	Bar50-50.bmp	49	4	?	10r_4g.bmp	0r_4g.bmp	2r_2g.bmp	0r_2g.bmp				0r_2g.bmp	TrialProc	TrialList	0	cvbn	-999999	16	389226	0	n	1210	390436	322	-332	-10	-44	2	18	14	2	11	110	-10	0	-2	0	4	4	2	2	0	2
Hungry_Donkey_bar_English_2	124	1	<?xml version="1.0"?>\n<Clock xmlns:dt="urn:schemas-microsoft-com:datatypes"><Description dt:dt="string">E-Prime Primary Realtime Clock</Description><StartTime><Timestamp dt:dt="int">0</Timestamp><DateUtc dt:dt="string">2015-09-03T23:04:46Z</DateUtc></StartTime><FrequencyChanges><FrequencyChange><Frequency dt:dt="r8">3507734</Frequency><Timestamp dt:dt="r8">2820928408000</Timestamp><Current dt:dt="r8">0</Current><DateUtc dt:dt="string">2015-09-03T23:04:46Z</DateUtc></FrequencyChange></FrequencyChanges></Clock>\n	Hungry_Donkey_bar_English_2-124-1	60.018	-9	1.0.0.18	1	-864430688	Standard	2.0.10.353	2.0.10.353	09-03-2015		19:04:46	2.0.10.248	111	Bar50-50.bmp	49	4	?	10r_4g.bmp	0r_4g.bmp	2r_2g.bmp	0r_2g.bmp				0r_2g.bmp	TrialProc	TrialList	0	cvbn	-999999	16	392475	0	n	537	393012	324	-332	-8	-44	2	18	16	2	12	111	-10	0	-2	0	4	4	2	2	0	2
Hungry_Donkey_bar_English_2	124	1	<?xml version="1.0"?>\n<Clock xmlns:dt="urn:schemas-microsoft-com:datatypes"><Description dt:dt="string">E-Prime Primary Realtime Clock</Description><StartTime><Timestamp dt:dt="int">0</Timestamp><DateUtc dt:dt="string">2015-09-03T23:04:46Z</DateUtc></StartTime><FrequencyChanges><FrequencyChange><Frequency dt:dt="r8">3507734</Frequency><Timestamp dt:dt="r8">2820928408000</Timestamp><Current dt:dt="r8">0</Current><DateUtc dt:dt="string">2015-09-03T23:04:46Z</DateUtc></FrequencyChange></FrequencyChanges></Clock>\n	Hungry_Donkey_bar_English_2-124-1	60.018	-9	1.0.0.18	1	-864430688	Standard	2.0.10.353	2.0.10.353	09-03-2015		19:04:46	2.0.10.248	112	Bar50-50.bmp	49	4	?	8r_4g.bmp	50r_4g.bmp	1r_2g.bmp	10r_2g.bmp				10r_2g.bmp	TrialProc	TrialList	0	cvbn	-999999	16	395041	0	n	147	395188	326	-342	-16	-44	2	18	8	1	12	112	-8	-50	-1	-10	4	4	2	2	-10	2
Hungry_Donkey_bar_English_2	124	1	<?xml version="1.0"?>\n<Clock xmlns:dt="urn:schemas-microsoft-com:datatypes"><Description dt:dt="string">E-Prime Primary Realtime Clock</Description><StartTime><Timestamp dt:dt="int">0</Timestamp><DateUtc dt:dt="string">2015-09-03T23:04:46Z</DateUtc></StartTime><FrequencyChanges><FrequencyChange><Frequency dt:dt="r8">3507734</Frequency><Timestamp dt:dt="r8">2820928408000</Timestamp><Current dt:dt="r8">0</Current><DateUtc dt:dt="string">2015-09-03T23:04:46Z</DateUtc></FrequencyChange></FrequencyChanges></Clock>\n	Hungry_Donkey_bar_English_2-124-1	60.018	-9	1.0.0.18	1	-864430688	Standard	2.0.10.353	2.0.10.353	09-03-2015		19:04:46	2.0.10.248	113	Bar50-50.bmp	49	3	?	0r_4g.bmp	0r_4g.bmp	0r_2g.bmp	0r_2g.bmp			0r_2g.bmp		TrialProc	TrialList	0	cvbn	-999999	16	397223	0	b	637	397860	328	-342	-14	-44	2	20	8	8	12	113	0	0	0	0	4	4	2	2	0	2
