ExperimentName	Subject	Session	Clock.Information	DataFile.Basename	Display.RefreshRate	Eindtotaal[Session]	ExperimentVersion	Group	RandomSeed	RuntimeCapabilities	RuntimeVersion	RuntimeVersionExpected	SessionDate	SessionStartDateTimeUtc	SessionTime	StudioVersion	Block	BarImage	BarTotalWinst	DoorChoice	Eindtotaal[Block]	FBDoor1	FBDoor2	FBDoor3	FBDoor4	Image1	Image2	Image3	Image4	Procedure	Running	spel.ACC	spel.CRESP	spel.DurationError	spel.OnsetDelay	spel.OnsetTime	spel.OnsetToOnsetTime	spel.RESP	spel.RT	spel.RTTime	TotalGain	TotalLose	Totalsum	TotalsumD1	TotalsumD2	TotalsumD3	TotalsumD4	TrialList	TrialList.Cycle	TrialList.Sample	varV1	varV2	varV3	varV4	varW1	varW2	varW3	varW4	Verliesbedrag	Winstbedrag
Hungry_Donkey_bar_English_2	110	1	<?xml version="1.0"?>\n<Clock xmlns:dt="urn:schemas-microsoft-com:datatypes"><Description dt:dt="string">E-Prime Primary Realtime Clock</Description><StartTime><Timestamp dt:dt="int">0</Timestamp><DateUtc dt:dt="string">2015-06-17T20:50:52Z</DateUtc></StartTime><FrequencyChanges><FrequencyChange><Frequency dt:dt="r8">3507685</Frequency><Timestamp dt:dt="r8">53664923883</Timestamp><Current dt:dt="r8">0</Current><DateUtc dt:dt="string">2015-06-17T20:50:52Z</DateUtc></FrequencyChange></FrequencyChanges></Clock>\n	Hungry_Donkey_bar_English_2-110-1	60.017	-144	1.0.0.18	1	2125542250	Standard	2.0.10.353	2.0.10.353	06-17-2015	6/17/2015 8:50:52 PM	16:50:52	2.0.10.248	1	Bar100-0.bmp	100	2	?	0r_4g.bmp	0r_4g.bmp	0r_2g.bmp	0r_2g.bmp		0r_4g.bmp			TrialProc	TrialList	0	cvbn	-999999	17	72591	0	v	6415	79006	4	0	4	0	4	0	0	10	1	1	0	0	0	0	4	4	2	2	0	4
Hungry_Donkey_bar_English_2	110	1	<?xml version="1.0"?>\n<Clock xmlns:dt="urn:schemas-microsoft-com:datatypes"><Description dt:dt="string">E-Prime Primary Realtime Clock</Description><StartTime><Timestamp dt:dt="int">0</Timestamp><DateUtc dt:dt="string">2015-06-17T20:50:52Z</DateUtc></StartTime><FrequencyChanges><FrequencyChange><Frequency dt:dt="r8">3507685</Frequency><Timestamp dt:dt="r8">53664923883</Timestamp><Current dt:dt="r8">0</Current><DateUtc dt:dt="string">2015-06-17T20:50:52Z</DateUtc></FrequencyChange></FrequencyChanges></Clock>\n	Hungry_Donkey_bar_English_2-110-1	60.017	-144	1.0.0.18	1	2125542250	Standard	2.0.10.353	2.0.10.353	06-17-2015	6/17/2015 8:50:52 PM	16:50:52	2.0.10.248	2	Bar100-0.bmp	100	4	?	12r_4g.bmp	0r_4g.bmp	3r_2g.bmp	0r_2g.bmp				0r_2g.bmp	TrialProc	TrialList	0	cvbn	-999999	16	81038	0	n	5008	86046	6	0	6	0	4	0	2	5	1	2	-12	0	-3	0	4	4	2	2	0	2
Hungry_Donkey_bar_English_2	110	1	<?xml version="1.0"?>\n<Clock xmlns:dt="urn:schemas-microsoft-com:datatypes"><Description dt:dt="string">E-Prime Primary Realtime Clock</Description><StartTime><Timestamp dt:dt="int">0</Timestamp><DateUtc dt:dt="string">2015-06-17T20:50:52Z</DateUtc></StartTime><FrequencyChanges><FrequencyChange><Frequency dt:dt="r8">3507685</Frequency><Timestamp dt:dt="r8">53664923883</Timestamp><Current dt:dt="r8">0</Current><DateUtc dt:dt="string">2015-06-17T20:50:52Z</DateUtc></FrequencyChange></FrequencyChanges></Clock>\n	Hungry_Donkey_bar_English_2-110-1	60.017	-144	1.0.0.18	1	2125542250	Standard	2.0.10.353	2.0.10.353	06-17-2015	6/17/2015 8:50:52 PM	16:50:52	2.0.10.248	3	Bar50-50.bmp	50	1	?	10r_4g.bmp	0r_4g.bmp	2r_2g.bmp	0r_2g.bmp	10r_4g.bmp				TrialProc	TrialList	0	cvbn	-999999	16	88070	0	c	3879	91949	10	-10	0	-6	4	0	2	3	1	3	-10	0	-2	0	4	4	2	2	-10	4
Hungry_Donkey_bar_English_2	110	1	<?xml version="1.0"?>\n<Clock xmlns:dt="urn:schemas-microsoft-com:datatypes"><Description dt:dt="string">E-Prime Primary Realtime Clock</Description><StartTime><Timestamp dt:dt="int">0</Timestamp><DateUtc dt:dt="string">2015-06-17T20:50:52Z</DateUtc></StartTime><FrequencyChanges><FrequencyChange><Frequency dt:dt="r8">3507685</Frequency><Timestamp dt:dt="r8">53664923883</Timestamp><Current dt:dt="r8">0</Current><DateUtc dt:dt="string">2015-06-17T20:50:52Z</DateUtc></FrequencyChange></FrequencyChanges></Clock>\n	Hungry_Donkey_bar_English_2-110-1	60.017	-144	1.0.0.18	1	2125542250	Standard	2.0.10.353	2.0.10.353	06-17-2015	6/17/2015 8:50:52 PM	16:50:52	2.0.10.248	4	Bar50-50.bmp	50	3	?	10r_4g.bmp	0r_4g.bmp	2r_2g.bmp	0r_2g.bmp			2r_2g.bmp		TrialProc	TrialList	0	cvbn	-999999	16	93985	0	b	2076	96061	12	-12	0	-6	4	0	2	2	1	4	-10	0	-2	0	4	4	2	2	-2	2
Hungry_Donkey_bar_English_2	110	1	<?xml version="1.0"?>\n<Clock xmlns:dt="urn:schemas-microsoft-com:datatypes"><Description dt:dt="string">E-Prime Primary Realtime Clock</Description><StartTime><Timestamp dt:dt="int">0</Timestamp><DateUtc dt:dt="string">2015-06-17T20:50:52Z</DateUtc></StartTime><FrequencyChanges><FrequencyChange><Frequency dt:dt="r8">3507685</Frequency><Timestamp dt:dt="r8">53664923883</Timestamp><Current dt:dt="r8">0</Current><DateUtc dt:dt="string">2015-06-17T20:50:52Z</DateUtc></FrequencyChange></FrequencyChanges></Clock>\n	Hungry_Donkey_bar_English_2-110-1	60.017	-144	1.0.0.18	1	2125542250	Standard	2.0.10.353	2.0.10.353	06-17-2015	6/17/2015 8:50:52 PM	16:50:52	2.0.10.248	5	Bar50-50.bmp	54	4	?	10r_4g.bmp	0r_4g.bmp	2r_2g.bmp	0r_2g.bmp				0r_2g.bmp	TrialProc	TrialList	0	cvbn	-999999	16	98100	0	n	4713	102813	14	-12	2	-6	4	0	4	4	1	5	-10	0	-2	0	4	4	2	2	0	2
Hungry_Donkey_bar_English_2	110	1	<?xml version="1.0"?>\n<Clock xmlns:dt="urn:schemas-microsoft-com:datatypes"><Description dt:dt="string">E-Prime Primary Realtime Clock</Description><StartTime><Timestamp dt:dt="int">0</Timestamp><DateUtc dt:dt="string">2015-06-17T20:50:52Z</DateUtc></StartTime><FrequencyChanges><FrequencyChange><Frequency dt:dt="r8">3507685</Frequency><Timestamp dt:dt="r8">53664923883</Timestamp><Current dt:dt="r8">0</Current><DateUtc dt:dt="string">2015-06-17T20:50:52Z</DateUtc></FrequencyChange></FrequencyChanges></Clock>\n	Hungry_Donkey_bar_English_2-110-1	60.017	-144	1.0.0.18	1	2125542250	Standard	2.0.10.353	2.0.10.353	06-17-2015	6/17/2015 8:50:52 PM	16:50:52	2.0.10.248	6	Bar63-37.bmp	60	2	?	0r_4g.bmp	0r_4g.bmp	0r_2g.bmp	0r_2g.bmp		0r_4g.bmp			TrialProc	TrialList	0	cvbn	-999999	16	104848	0	v	1996	106844	18	-12	6	-6	8	0	4	7	1	6	0	0	0	0	4	4	2	2	0	4
Hungry_Donkey_bar_English_2	110	1	<?xml version="1.0"?>\n<Clock xmlns:dt="urn:schemas-microsoft-com:datatypes"><Description dt:dt="string">E-Prime Primary Realtime Clock</Description><StartTime><Timestamp dt:dt="int">0</Timestamp><DateUtc dt:dt="string">2015-06-17T20:50:52Z</DateUtc></StartTime><FrequencyChanges><FrequencyChange><Frequency dt:dt="r8">3507685</Frequency><Timestamp dt:dt="r8">53664923883</Timestamp><Current dt:dt="r8">0</Current><DateUtc dt:dt="string">2015-06-17T20:50:52Z</DateUtc></FrequencyChange></FrequencyChanges></Clock>\n	Hungry_Donkey_bar_English_2-110-1	60.017	-144	1.0.0.18	1	2125542250	Standard	2.0.10.353	2.0.10.353	06-17-2015	6/17/2015 8:50:52 PM	16:50:52	2.0.10.248	7	Bar63-37.bmp	62	3	?	0r_4g.bmp	0r_4g.bmp	0r_2g.bmp	0r_2g.bmp			0r_2g.bmp		TrialProc	TrialList	0	cvbn	-999999	16	108880	0	b	3692	112572	20	-12	8	-6	8	2	4	6	1	7	0	0	0	0	4	4	2	2	0	2
Hungry_Donkey_bar_English_2	110	1	<?xml version="1.0"?>\n<Clock xmlns:dt="urn:schemas-microsoft-com:datatypes"><Description dt:dt="string">E-Prime Primary Realtime Clock</Description><StartTime><Timestamp dt:dt="int">0</Timestamp><DateUtc dt:dt="string">2015-06-17T20:50:52Z</DateUtc></StartTime><FrequencyChanges><FrequencyChange><Frequency dt:dt="r8">3507685</Frequency><Timestamp dt:dt="r8">53664923883</Timestamp><Current dt:dt="r8">0</Current><DateUtc dt:dt="string">2015-06-17T20:50:52Z</DateUtc></FrequencyChange></FrequencyChanges></Clock>\n	Hungry_Donkey_bar_English_2-110-1	60.017	-144	1.0.0.18	1	2125542250	Standard	2.0.10.353	2.0.10.353	06-17-2015	6/17/2015 8:50:52 PM	16:50:52	2.0.10.248	8	Bar50-50.bmp	50	4	?	8r_4g.bmp	50r_4g.bmp	1r_2g.bmp	10r_2g.bmp				10r_2g.bmp	TrialProc	TrialList	0	cvbn	-999999	16	114612	0	n	2168	116780	22	-22	0	-6	8	2	-4	1	1	8	-8	-50	-1	-10	4	4	2	2	-10	2
Hungry_Donkey_bar_English_2	110	1	<?xml version="1.0"?>\n<Clock xmlns:dt="urn:schemas-microsoft-com:datatypes"><Description dt:dt="string">E-Prime Primary Realtime Clock</Description><StartTime><Timestamp dt:dt="int">0</Timestamp><DateUtc dt:dt="string">2015-06-17T20:50:52Z</DateUtc></StartTime><FrequencyChanges><FrequencyChange><Frequency dt:dt="r8">3507685</Frequency><Timestamp dt:dt="r8">53664923883</Timestamp><Current dt:dt="r8">0</Current><DateUtc dt:dt="string">2015-06-17T20:50:52Z</DateUtc></FrequencyChange></FrequencyChanges></Clock>\n	Hungry_Donkey_bar_English_2-110-1	60.017	-144	1.0.0.18	1	2125542250	Standard	2.0.10.353	2.0.10.353	06-17-2015	6/17/2015 8:50:52 PM	16:50:52	2.0.10.248	9	Bar50-50.bmp	54	1	?	0r_4g.bmp	0r_4g.bmp	0r_2g.bmp	0r_2g.bmp	0r_4g.bmp				TrialProc	TrialList	0	cvbn	-999999	16	118811	0	c	1809	120620	26	-22	4	-2	8	2	-4	9	1	9	0	0	0	0	4	4	2	2	0	4
Hungry_Donkey_bar_English_2	110	1	<?xml version="1.0"?>\n<Clock xmlns:dt="urn:schemas-microsoft-com:datatypes"><Description dt:dt="string">E-Prime Primary Realtime Clock</Description><StartTime><Timestamp dt:dt="int">0</Timestamp><DateUtc dt:dt="string">2015-06-17T20:50:52Z</DateUtc></StartTime><FrequencyChanges><FrequencyChange><Frequency dt:dt="r8">3507685</Frequency><Timestamp dt:dt="r8">53664923883</Timestamp><Current dt:dt="r8">0</Current><DateUtc dt:dt="string">2015-06-17T20:50:52Z</DateUtc></FrequencyChange></FrequencyChanges></Clock>\n	Hungry_Donkey_bar_English_2-110-1	60.017	-144	1.0.0.18	1	2125542250	Standard	2.0.10.353	2.0.10.353	06-17-2015	6/17/2015 8:50:52 PM	16:50:52	2.0.10.248	10	Bar50-50.bmp	56	3	?	0r_4g.bmp	0r_4g.bmp	0r_2g.bmp	0r_2g.bmp			0r_2g.bmp		TrialProc	TrialList	0	cvbn	-999999	16	122660	0	b	1352	124012	28	-22	6	-2	8	4	-4	8	1	10	0	0	0	0	4	4	2	2	0	2
Hungry_Donkey_bar_English_2	110	1	<?xml version="1.0"?>\n<Clock xmlns:dt="urn:schemas-microsoft-com:datatypes"><Description dt:dt="string">E-Prime Primary Realtime Clock</Description><StartTime><Timestamp dt:dt="int">0</Timestamp><DateUtc dt:dt="string">2015-06-17T20:50:52Z</DateUtc></StartTime><FrequencyChanges><FrequencyChange><Frequency dt:dt="r8">3507685</Frequency><Timestamp dt:dt="r8">53664923883</Timestamp><Current dt:dt="r8">0</Current><DateUtc dt:dt="string">2015-06-17T20:50:52Z</DateUtc></FrequencyChange></FrequencyChanges></Clock>\n	Hungry_Donkey_bar_English_2-110-1	60.017	-144	1.0.0.18	1	2125542250	Standard	2.0.10.353	2.0.10.353	06-17-2015	6/17/2015 8:50:52 PM	16:50:52	2.0.10.248	11	Bar63-37.bmp	58	4	?	12r_4g.bmp	0r_4g.bmp	3r_2g.bmp	0r_2g.bmp				0r_2g.bmp	TrialProc	TrialList	0	cvbn	-999999	16	126042	0	n	2481	128523	30	-22	8	-2	8	4	-2	5	2	11	-12	0	-3	0	4	4	2	2	0	2
Hungry_Donkey_bar_English_2	110	1	<?xml version="1.0"?>\n<Clock xmlns:dt="urn:schemas-microsoft-com:datatypes"><Description dt:dt="string">E-Prime Primary Realtime Clock</Description><StartTime><Timestamp dt:dt="int">0</Timestamp><DateUtc dt:dt="string">2015-06-17T20:50:52Z</DateUtc></StartTime><FrequencyChanges><FrequencyChange><Frequency dt:dt="r8">3507685</Frequency><Timestamp dt:dt="r8">53664923883</Timestamp><Current dt:dt="r8">0</Current><DateUtc dt:dt="string">2015-06-17T20:50:52Z</DateUtc></FrequencyChange></FrequencyChanges></Clock>\n	Hungry_Donkey_bar_English_2-110-1	60.017	-144	1.0.0.18	1	2125542250	Standard	2.0.10.353	2.0.10.353	06-17-2015	6/17/2015 8:50:52 PM	16:50:52	2.0.10.248	12	Bar63-37.bmp	61	2	?	0r_4g.bmp	0r_4g.bmp	0r_2g.bmp	0r_2g.bmp		0r_4g.bmp			TrialProc	TrialList	0	cvbn	-999999	16	130557	0	v	1438	131995	34	-22	12	-2	12	4	-2	10	2	12	0	0	0	0	4	4	2	2	0	4
Hungry_Donkey_bar_English_2	110	1	<?xml version="1.0"?>\n<Clock xmlns:dt="urn:schemas-microsoft-com:datatypes"><Description dt:dt="string">E-Prime Primary Realtime Clock</Description><StartTime><Timestamp dt:dt="int">0</Timestamp><DateUtc dt:dt="string">2015-06-17T20:50:52Z</DateUtc></StartTime><FrequencyChanges><FrequencyChange><Frequency dt:dt="r8">3507685</Frequency><Timestamp dt:dt="r8">53664923883</Timestamp><Current dt:dt="r8">0</Current><DateUtc dt:dt="string">2015-06-17T20:50:52Z</DateUtc></FrequencyChange></FrequencyChanges></Clock>\n	Hungry_Donkey_bar_English_2-110-1	60.017	-144	1.0.0.18	1	2125542250	Standard	2.0.10.353	2.0.10.353	06-17-2015	6/17/2015 8:50:52 PM	16:50:52	2.0.10.248	13	Bar63-37.bmp	60	3	?	10r_4g.bmp	0r_4g.bmp	2r_2g.bmp	0r_2g.bmp			2r_2g.bmp		TrialProc	TrialList	0	cvbn	-999999	16	134023	0	b	3172	137195	36	-24	12	-2	12	4	-2	2	2	13	-10	0	-2	0	4	4	2	2	-2	2
Hungry_Donkey_bar_English_2	110	1	<?xml version="1.0"?>\n<Clock xmlns:dt="urn:schemas-microsoft-com:datatypes"><Description dt:dt="string">E-Prime Primary Realtime Clock</Description><StartTime><Timestamp dt:dt="int">0</Timestamp><DateUtc dt:dt="string">2015-06-17T20:50:52Z</DateUtc></StartTime><FrequencyChanges><FrequencyChange><Frequency dt:dt="r8">3507685</Frequency><Timestamp dt:dt="r8">53664923883</Timestamp><Current dt:dt="r8">0</Current><DateUtc dt:dt="string">2015-06-17T20:50:52Z</DateUtc></FrequencyChange></FrequencyChanges></Clock>\n	Hungry_Donkey_bar_English_2-110-1	60.017	-144	1.0.0.18	1	2125542250	Standard	2.0.10.353	2.0.10.353	06-17-2015	6/17/2015 8:50:52 PM	16:50:52	2.0.10.248	14	Bar63-37.bmp	62	1	?	0r_4g.bmp	0r_4g.bmp	0r_2g.bmp	0r_2g.bmp	0r_4g.bmp				TrialProc	TrialList	0	cvbn	-999999	16	139222	0	c	773	139995	40	-24	16	2	12	4	-2	6	2	14	0	0	0	0	4	4	2	2	0	4
Hungry_Donkey_bar_English_2	110	1	<?xml version="1.0"?>\n<Clock xmlns:dt="urn:schemas-microsoft-com:datatypes"><Description dt:dt="string">E-Prime Primary Realtime Clock</Description><StartTime><Timestamp dt:dt="int">0</Timestamp><DateUtc dt:dt="string">2015-06-17T20:50:52Z</DateUtc></StartTime><FrequencyChanges><FrequencyChange><Frequency dt:dt="r8">3507685</Frequency><Timestamp dt:dt="r8">53664923883</Timestamp><Current dt:dt="r8">0</Current><DateUtc dt:dt="string">2015-06-17T20:50:52Z</DateUtc></FrequencyChange></FrequencyChanges></Clock>\n	Hungry_Donkey_bar_English_2-110-1	60.017	-144	1.0.0.18	1	2125542250	Standard	2.0.10.353	2.0.10.353	06-17-2015	6/17/2015 8:50:52 PM	16:50:52	2.0.10.248	15	Bar63-37.bmp	64	4	?	10r_4g.bmp	0r_4g.bmp	2r_2g.bmp	0r_2g.bmp				0r_2g.bmp	TrialProc	TrialList	0	cvbn	-999999	16	142021	0	n	630	142651	42	-24	18	2	12	4	0	4	2	15	-10	0	-2	0	4	4	2	2	0	2
Hungry_Donkey_bar_English_2	110	1	<?xml version="1.0"?>\n<Clock xmlns:dt="urn:schemas-microsoft-com:datatypes"><Description dt:dt="string">E-Prime Primary Realtime Clock</Description><StartTime><Timestamp dt:dt="int">0</Timestamp><DateUtc dt:dt="string">2015-06-17T20:50:52Z</DateUtc></StartTime><FrequencyChanges><FrequencyChange><Frequency dt:dt="r8">3507685</Frequency><Timestamp dt:dt="r8">53664923883</Timestamp><Current dt:dt="r8">0</Current><DateUtc dt:dt="string">2015-06-17T20:50:52Z</DateUtc></FrequencyChange></FrequencyChanges></Clock>\n	Hungry_Donkey_bar_English_2-110-1	60.017	-144	1.0.0.18	1	2125542250	Standard	2.0.10.353	2.0.10.353	06-17-2015	6/17/2015 8:50:52 PM	16:50:52	2.0.10.248	16	Bar63-37.bmp	66	2	?	0r_4g.bmp	0r_4g.bmp	0r_2g.bmp	0r_2g.bmp		0r_4g.bmp			TrialProc	TrialList	0	cvbn	-999999	16	144687	0	v	332	145019	46	-24	22	2	16	4	0	7	2	16	0	0	0	0	4	4	2	2	0	4
Hungry_Donkey_bar_English_2	110	1	<?xml version="1.0"?>\n<Clock xmlns:dt="urn:schemas-microsoft-com:datatypes"><Description dt:dt="string">E-Prime Primary Realtime Clock</Description><StartTime><Timestamp dt:dt="int">0</Timestamp><DateUtc dt:dt="string">2015-06-17T20:50:52Z</DateUtc></StartTime><FrequencyChanges><FrequencyChange><Frequency dt:dt="r8">3507685</Frequency><Timestamp dt:dt="r8">53664923883</Timestamp><Current dt:dt="r8">0</Current><DateUtc dt:dt="string">2015-06-17T20:50:52Z</DateUtc></FrequencyChange></FrequencyChanges></Clock>\n	Hungry_Donkey_bar_English_2-110-1	60.017	-144	1.0.0.18	1	2125542250	Standard	2.0.10.353	2.0.10.353	06-17-2015	6/17/2015 8:50:52 PM	16:50:52	2.0.10.248	17	Bar63-37.bmp	67	4	?	0r_4g.bmp	0r_4g.bmp	0r_2g.bmp	0r_2g.bmp				0r_2g.bmp	TrialProc	TrialList	0	cvbn	-999999	16	147053	0	n	477	147530	48	-24	24	2	16	4	2	9	2	17	0	0	0	0	4	4	2	2	0	2
Hungry_Donkey_bar_English_2	110	1	<?xml version="1.0"?>\n<Clock xmlns:dt="urn:schemas-microsoft-com:datatypes"><Description dt:dt="string">E-Prime Primary Realtime Clock</Description><StartTime><Timestamp dt:dt="int">0</Timestamp><DateUtc dt:dt="string">2015-06-17T20:50:52Z</DateUtc></StartTime><FrequencyChanges><FrequencyChange><Frequency dt:dt="r8">3507685</Frequency><Timestamp dt:dt="r8">53664923883</Timestamp><Current dt:dt="r8">0</Current><DateUtc dt:dt="string">2015-06-17T20:50:52Z</DateUtc></FrequencyChange></FrequencyChanges></Clock>\n	Hungry_Donkey_bar_English_2-110-1	60.017	-144	1.0.0.18	1	2125542250	Standard	2.0.10.353	2.0.10.353	06-17-2015	6/17/2015 8:50:52 PM	16:50:52	2.0.10.248	18	Bar63-37.bmp	60	1	?	10r_4g.bmp	0r_4g.bmp	2r_2g.bmp	0r_2g.bmp	10r_4g.bmp				TrialProc	TrialList	0	cvbn	-999999	16	149569	0	c	489	150058	52	-34	18	-4	16	4	2	3	2	18	-10	0	-2	0	4	4	2	2	-10	4
Hungry_Donkey_bar_English_2	110	1	<?xml version="1.0"?>\n<Clock xmlns:dt="urn:schemas-microsoft-com:datatypes"><Description dt:dt="string">E-Prime Primary Realtime Clock</Description><StartTime><Timestamp dt:dt="int">0</Timestamp><DateUtc dt:dt="string">2015-06-17T20:50:52Z</DateUtc></StartTime><FrequencyChanges><FrequencyChange><Frequency dt:dt="r8">3507685</Frequency><Timestamp dt:dt="r8">53664923883</Timestamp><Current dt:dt="r8">0</Current><DateUtc dt:dt="string">2015-06-17T20:50:52Z</DateUtc></FrequencyChange></FrequencyChanges></Clock>\n	Hungry_Donkey_bar_English_2-110-1	60.017	-144	1.0.0.18	1	2125542250	Standard	2.0.10.353	2.0.10.353	06-17-2015	6/17/2015 8:50:52 PM	16:50:52	2.0.10.248	19	Bar63-37.bmp	61	3	?	0r_4g.bmp	0r_4g.bmp	0r_2g.bmp	0r_2g.bmp			0r_2g.bmp		TrialProc	TrialList	0	cvbn	-999999	17	152085	0	b	965	153050	54	-34	20	-4	16	6	2	8	2	19	0	0	0	0	4	4	2	2	0	2
Hungry_Donkey_bar_English_2	110	1	<?xml version="1.0"?>\n<Clock xmlns:dt="urn:schemas-microsoft-com:datatypes"><Description dt:dt="string">E-Prime Primary Realtime Clock</Description><StartTime><Timestamp dt:dt="int">0</Timestamp><DateUtc dt:dt="string">2015-06-17T20:50:52Z</DateUtc></StartTime><FrequencyChanges><FrequencyChange><Frequency dt:dt="r8">3507685</Frequency><Timestamp dt:dt="r8">53664923883</Timestamp><Current dt:dt="r8">0</Current><DateUtc dt:dt="string">2015-06-17T20:50:52Z</DateUtc></FrequencyChange></FrequencyChanges></Clock>\n	Hungry_Donkey_bar_English_2-110-1	60.017	-144	1.0.0.18	1	2125542250	Standard	2.0.10.353	2.0.10.353	06-17-2015	6/17/2015 8:50:52 PM	16:50:52	2.0.10.248	20	Bar37-63.bmp	41	2	?	8r_4g.bmp	50r_4g.bmp	1r_2g.bmp	10r_2g.bmp		50r_4g.bmp			TrialProc	TrialList	0	cvbn	-999999	16	155084	0	v	94	155178	58	-84	-26	-4	-30	6	2	1	2	20	-8	-50	-1	-10	4	4	2	2	-50	4
Hungry_Donkey_bar_English_2	110	1	<?xml version="1.0"?>\n<Clock xmlns:dt="urn:schemas-microsoft-com:datatypes"><Description dt:dt="string">E-Prime Primary Realtime Clock</Description><StartTime><Timestamp dt:dt="int">0</Timestamp><DateUtc dt:dt="string">2015-06-17T20:50:52Z</DateUtc></StartTime><FrequencyChanges><FrequencyChange><Frequency dt:dt="r8">3507685</Frequency><Timestamp dt:dt="r8">53664923883</Timestamp><Current dt:dt="r8">0</Current><DateUtc dt:dt="string">2015-06-17T20:50:52Z</DateUtc></FrequencyChange></FrequencyChanges></Clock>\n	Hungry_Donkey_bar_English_2-110-1	60.017	-144	1.0.0.18	1	2125542250	Standard	2.0.10.353	2.0.10.353	06-17-2015	6/17/2015 8:50:52 PM	16:50:52	2.0.10.248	21	Bar37-63.bmp	42	4	?	0r_4g.bmp	0r_4g.bmp	0r_2g.bmp	0r_2g.bmp				0r_2g.bmp	TrialProc	TrialList	0	cvbn	-999999	16	157216	0	n	970	158186	60	-84	-24	-4	-30	6	4	7	3	21	0	0	0	0	4	4	2	2	0	2
Hungry_Donkey_bar_English_2	110	1	<?xml version="1.0"?>\n<Clock xmlns:dt="urn:schemas-microsoft-com:datatypes"><Description dt:dt="string">E-Prime Primary Realtime Clock</Description><StartTime><Timestamp dt:dt="int">0</Timestamp><DateUtc dt:dt="string">2015-06-17T20:50:52Z</DateUtc></StartTime><FrequencyChanges><FrequencyChange><Frequency dt:dt="r8">3507685</Frequency><Timestamp dt:dt="r8">53664923883</Timestamp><Current dt:dt="r8">0</Current><DateUtc dt:dt="string">2015-06-17T20:50:52Z</DateUtc></FrequencyChange></FrequencyChanges></Clock>\n	Hungry_Donkey_bar_English_2-110-1	60.017	-144	1.0.0.18	1	2125542250	Standard	2.0.10.353	2.0.10.353	06-17-2015	6/17/2015 8:50:52 PM	16:50:52	2.0.10.248	22	Bar37-63.bmp	43	2	?	0r_4g.bmp	0r_4g.bmp	0r_2g.bmp	0r_2g.bmp		0r_4g.bmp			TrialProc	TrialList	0	cvbn	-999999	17	160216	0	v	370	160586	64	-84	-20	-4	-26	6	4	6	3	22	0	0	0	0	4	4	2	2	0	4
Hungry_Donkey_bar_English_2	110	1	<?xml version="1.0"?>\n<Clock xmlns:dt="urn:schemas-microsoft-com:datatypes"><Description dt:dt="string">E-Prime Primary Realtime Clock</Description><StartTime><Timestamp dt:dt="int">0</Timestamp><DateUtc dt:dt="string">2015-06-17T20:50:52Z</DateUtc></StartTime><FrequencyChanges><FrequencyChange><Frequency dt:dt="r8">3507685</Frequency><Timestamp dt:dt="r8">53664923883</Timestamp><Current dt:dt="r8">0</Current><DateUtc dt:dt="string">2015-06-17T20:50:52Z</DateUtc></FrequencyChange></FrequencyChanges></Clock>\n	Hungry_Donkey_bar_English_2-110-1	60.017	-144	1.0.0.18	1	2125542250	Standard	2.0.10.353	2.0.10.353	06-17-2015	6/17/2015 8:50:52 PM	16:50:52	2.0.10.248	23	Bar37-63.bmp	43	3	?	10r_4g.bmp	0r_4g.bmp	2r_2g.bmp	0r_2g.bmp			2r_2g.bmp		TrialProc	TrialList	0	cvbn	-999999	16	162615	0	b	355	162970	66	-86	-20	-4	-26	6	4	4	3	23	-10	0	-2	0	4	4	2	2	-2	2
Hungry_Donkey_bar_English_2	110	1	<?xml version="1.0"?>\n<Clock xmlns:dt="urn:schemas-microsoft-com:datatypes"><Description dt:dt="string">E-Prime Primary Realtime Clock</Description><StartTime><Timestamp dt:dt="int">0</Timestamp><DateUtc dt:dt="string">2015-06-17T20:50:52Z</DateUtc></StartTime><FrequencyChanges><FrequencyChange><Frequency dt:dt="r8">3507685</Frequency><Timestamp dt:dt="r8">53664923883</Timestamp><Current dt:dt="r8">0</Current><DateUtc dt:dt="string">2015-06-17T20:50:52Z</DateUtc></FrequencyChange></FrequencyChanges></Clock>\n	Hungry_Donkey_bar_English_2-110-1	60.017	-144	1.0.0.18	1	2125542250	Standard	2.0.10.353	2.0.10.353	06-17-2015	6/17/2015 8:50:52 PM	16:50:52	2.0.10.248	24	Bar37-63.bmp	43	1	?	8r_4g.bmp	50r_4g.bmp	1r_2g.bmp	10r_2g.bmp	8r_4g.bmp				TrialProc	TrialList	0	cvbn	-999999	17	164998	0	c	436	165434	70	-94	-24	-8	-26	6	4	1	3	24	-8	-50	-1	-10	4	4	2	2	-8	4
Hungry_Donkey_bar_English_2	110	1	<?xml version="1.0"?>\n<Clock xmlns:dt="urn:schemas-microsoft-com:datatypes"><Description dt:dt="string">E-Prime Primary Realtime Clock</Description><StartTime><Timestamp dt:dt="int">0</Timestamp><DateUtc dt:dt="string">2015-06-17T20:50:52Z</DateUtc></StartTime><FrequencyChanges><FrequencyChange><Frequency dt:dt="r8">3507685</Frequency><Timestamp dt:dt="r8">53664923883</Timestamp><Current dt:dt="r8">0</Current><DateUtc dt:dt="string">2015-06-17T20:50:52Z</DateUtc></FrequencyChange></FrequencyChanges></Clock>\n	Hungry_Donkey_bar_English_2-110-1	60.017	-144	1.0.0.18	1	2125542250	Standard	2.0.10.353	2.0.10.353	06-17-2015	6/17/2015 8:50:52 PM	16:50:52	2.0.10.248	25	Bar50-50.bmp	44	2	?	0r_4g.bmp	0r_4g.bmp	0r_2g.bmp	0r_2g.bmp		0r_4g.bmp			TrialProc	TrialList	0	cvbn	-999999	16	167463	0	v	418	167881	74	-94	-20	-8	-22	6	4	10	3	25	0	0	0	0	4	4	2	2	0	4
Hungry_Donkey_bar_English_2	110	1	<?xml version="1.0"?>\n<Clock xmlns:dt="urn:schemas-microsoft-com:datatypes"><Description dt:dt="string">E-Prime Primary Realtime Clock</Description><StartTime><Timestamp dt:dt="int">0</Timestamp><DateUtc dt:dt="string">2015-06-17T20:50:52Z</DateUtc></StartTime><FrequencyChanges><FrequencyChange><Frequency dt:dt="r8">3507685</Frequency><Timestamp dt:dt="r8">53664923883</Timestamp><Current dt:dt="r8">0</Current><DateUtc dt:dt="string">2015-06-17T20:50:52Z</DateUtc></FrequencyChange></FrequencyChanges></Clock>\n	Hungry_Donkey_bar_English_2-110-1	60.017	-144	1.0.0.18	1	2125542250	Standard	2.0.10.353	2.0.10.353	06-17-2015	6/17/2015 8:50:52 PM	16:50:52	2.0.10.248	26	Bar50-50.bmp	45	4	?	0r_4g.bmp	0r_4g.bmp	0r_2g.bmp	0r_2g.bmp				0r_2g.bmp	TrialProc	TrialList	0	cvbn	-999999	16	169913	0	n	1264	171177	76	-94	-18	-8	-22	6	6	9	3	26	0	0	0	0	4	4	2	2	0	2
Hungry_Donkey_bar_English_2	110	1	<?xml version="1.0"?>\n<Clock xmlns:dt="urn:schemas-microsoft-com:datatypes"><Description dt:dt="string">E-Prime Primary Realtime Clock</Description><StartTime><Timestamp dt:dt="int">0</Timestamp><DateUtc dt:dt="string">2015-06-17T20:50:52Z</DateUtc></StartTime><FrequencyChanges><FrequencyChange><Frequency dt:dt="r8">3507685</Frequency><Timestamp dt:dt="r8">53664923883</Timestamp><Current dt:dt="r8">0</Current><DateUtc dt:dt="string">2015-06-17T20:50:52Z</DateUtc></FrequencyChange></FrequencyChanges></Clock>\n	Hungry_Donkey_bar_English_2-110-1	60.017	-144	1.0.0.18	1	2125542250	Standard	2.0.10.353	2.0.10.353	06-17-2015	6/17/2015 8:50:52 PM	16:50:52	2.0.10.248	27	Bar50-50.bmp	46	1	?	0r_4g.bmp	0r_4g.bmp	0r_2g.bmp	0r_2g.bmp	0r_4g.bmp				TrialProc	TrialList	0	cvbn	-999999	16	173212	0	c	381	173593	80	-94	-14	-4	-22	6	6	8	3	27	0	0	0	0	4	4	2	2	0	4
Hungry_Donkey_bar_English_2	110	1	<?xml version="1.0"?>\n<Clock xmlns:dt="urn:schemas-microsoft-com:datatypes"><Description dt:dt="string">E-Prime Primary Realtime Clock</Description><StartTime><Timestamp dt:dt="int">0</Timestamp><DateUtc dt:dt="string">2015-06-17T20:50:52Z</DateUtc></StartTime><FrequencyChanges><FrequencyChange><Frequency dt:dt="r8">3507685</Frequency><Timestamp dt:dt="r8">53664923883</Timestamp><Current dt:dt="r8">0</Current><DateUtc dt:dt="string">2015-06-17T20:50:52Z</DateUtc></FrequencyChange></FrequencyChanges></Clock>\n	Hungry_Donkey_bar_English_2-110-1	60.017	-144	1.0.0.18	1	2125542250	Standard	2.0.10.353	2.0.10.353	06-17-2015	6/17/2015 8:50:52 PM	16:50:52	2.0.10.248	28	Bar50-50.bmp	46	3	?	10r_4g.bmp	0r_4g.bmp	2r_2g.bmp	0r_2g.bmp			2r_2g.bmp		TrialProc	TrialList	0	cvbn	-999999	16	175628	0	b	29	175657	82	-96	-14	-4	-22	6	6	2	3	28	-10	0	-2	0	4	4	2	2	-2	2
Hungry_Donkey_bar_English_2	110	1	<?xml version="1.0"?>\n<Clock xmlns:dt="urn:schemas-microsoft-com:datatypes"><Description dt:dt="string">E-Prime Primary Realtime Clock</Description><StartTime><Timestamp dt:dt="int">0</Timestamp><DateUtc dt:dt="string">2015-06-17T20:50:52Z</DateUtc></StartTime><FrequencyChanges><FrequencyChange><Frequency dt:dt="r8">3507685</Frequency><Timestamp dt:dt="r8">53664923883</Timestamp><Current dt:dt="r8">0</Current><DateUtc dt:dt="string">2015-06-17T20:50:52Z</DateUtc></FrequencyChange></FrequencyChanges></Clock>\n	Hungry_Donkey_bar_English_2-110-1	60.017	-144	1.0.0.18	1	2125542250	Standard	2.0.10.353	2.0.10.353	06-17-2015	6/17/2015 8:50:52 PM	16:50:52	2.0.10.248	29	Bar50-50.bmp	47	2	?	10r_4g.bmp	0r_4g.bmp	2r_2g.bmp	0r_2g.bmp		0r_4g.bmp			TrialProc	TrialList	0	cvbn	-999999	16	177694	0	v	315	178009	86	-96	-10	-4	-18	6	6	3	3	29	-10	0	-2	0	4	4	2	2	0	4
Hungry_Donkey_bar_English_2	110	1	<?xml version="1.0"?>\n<Clock xmlns:dt="urn:schemas-microsoft-com:datatypes"><Description dt:dt="string">E-Prime Primary Realtime Clock</Description><StartTime><Timestamp dt:dt="int">0</Timestamp><DateUtc dt:dt="string">2015-06-17T20:50:52Z</DateUtc></StartTime><FrequencyChanges><FrequencyChange><Frequency dt:dt="r8">3507685</Frequency><Timestamp dt:dt="r8">53664923883</Timestamp><Current dt:dt="r8">0</Current><DateUtc dt:dt="string">2015-06-17T20:50:52Z</DateUtc></FrequencyChange></FrequencyChanges></Clock>\n	Hungry_Donkey_bar_English_2-110-1	60.017	-144	1.0.0.18	1	2125542250	Standard	2.0.10.353	2.0.10.353	06-17-2015	6/17/2015 8:50:52 PM	16:50:52	2.0.10.248	30	Bar50-50.bmp	45	1	?	12r_4g.bmp	0r_4g.bmp	3r_2g.bmp	0r_2g.bmp	12r_4g.bmp				TrialProc	TrialList	0	cvbn	-999999	16	180043	0	c	590	180633	90	-108	-18	-12	-18	6	6	5	3	30	-12	0	-3	0	4	4	2	2	-12	4
Hungry_Donkey_bar_English_2	110	1	<?xml version="1.0"?>\n<Clock xmlns:dt="urn:schemas-microsoft-com:datatypes"><Description dt:dt="string">E-Prime Primary Realtime Clock</Description><StartTime><Timestamp dt:dt="int">0</Timestamp><DateUtc dt:dt="string">2015-06-17T20:50:52Z</DateUtc></StartTime><FrequencyChanges><FrequencyChange><Frequency dt:dt="r8">3507685</Frequency><Timestamp dt:dt="r8">53664923883</Timestamp><Current dt:dt="r8">0</Current><DateUtc dt:dt="string">2015-06-17T20:50:52Z</DateUtc></FrequencyChange></FrequencyChanges></Clock>\n	Hungry_Donkey_bar_English_2-110-1	60.017	-144	1.0.0.18	1	2125542250	Standard	2.0.10.353	2.0.10.353	06-17-2015	6/17/2015 8:50:52 PM	16:50:52	2.0.10.248	31	Bar50-50.bmp	47	2	?	0r_4g.bmp	0r_4g.bmp	0r_2g.bmp	0r_2g.bmp		0r_4g.bmp			TrialProc	TrialList	0	cvbn	-999999	16	182659	0	v	342	183001	94	-108	-14	-12	-14	6	6	6	4	31	0	0	0	0	4	4	2	2	0	4
Hungry_Donkey_bar_English_2	110	1	<?xml version="1.0"?>\n<Clock xmlns:dt="urn:schemas-microsoft-com:datatypes"><Description dt:dt="string">E-Prime Primary Realtime Clock</Description><StartTime><Timestamp dt:dt="int">0</Timestamp><DateUtc dt:dt="string">2015-06-17T20:50:52Z</DateUtc></StartTime><FrequencyChanges><FrequencyChange><Frequency dt:dt="r8">3507685</Frequency><Timestamp dt:dt="r8">53664923883</Timestamp><Current dt:dt="r8">0</Current><DateUtc dt:dt="string">2015-06-17T20:50:52Z</DateUtc></FrequencyChange></FrequencyChanges></Clock>\n	Hungry_Donkey_bar_English_2-110-1	60.017	-144	1.0.0.18	1	2125542250	Standard	2.0.10.353	2.0.10.353	06-17-2015	6/17/2015 8:50:52 PM	16:50:52	2.0.10.248	32	Bar50-50.bmp	47	3	?	10r_4g.bmp	0r_4g.bmp	2r_2g.bmp	0r_2g.bmp			2r_2g.bmp		TrialProc	TrialList	0	cvbn	-999999	16	185025	0	b	631	185656	96	-110	-14	-12	-14	6	6	3	4	32	-10	0	-2	0	4	4	2	2	-2	2
Hungry_Donkey_bar_English_2	110	1	<?xml version="1.0"?>\n<Clock xmlns:dt="urn:schemas-microsoft-com:datatypes"><Description dt:dt="string">E-Prime Primary Realtime Clock</Description><StartTime><Timestamp dt:dt="int">0</Timestamp><DateUtc dt:dt="string">2015-06-17T20:50:52Z</DateUtc></StartTime><FrequencyChanges><FrequencyChange><Frequency dt:dt="r8">3507685</Frequency><Timestamp dt:dt="r8">53664923883</Timestamp><Current dt:dt="r8">0</Current><DateUtc dt:dt="string">2015-06-17T20:50:52Z</DateUtc></FrequencyChange></FrequencyChanges></Clock>\n	Hungry_Donkey_bar_English_2-110-1	60.017	-144	1.0.0.18	1	2125542250	Standard	2.0.10.353	2.0.10.353	06-17-2015	6/17/2015 8:50:52 PM	16:50:52	2.0.10.248	33	Bar50-50.bmp	47	4	?	12r_4g.bmp	0r_4g.bmp	3r_2g.bmp	0r_2g.bmp				0r_2g.bmp	TrialProc	TrialList	0	cvbn	-999999	16	187691	0	n	429	188120	98	-110	-12	-12	-14	6	8	5	4	33	-12	0	-3	0	4	4	2	2	0	2
Hungry_Donkey_bar_English_2	110	1	<?xml version="1.0"?>\n<Clock xmlns:dt="urn:schemas-microsoft-com:datatypes"><Description dt:dt="string">E-Prime Primary Realtime Clock</Description><StartTime><Timestamp dt:dt="int">0</Timestamp><DateUtc dt:dt="string">2015-06-17T20:50:52Z</DateUtc></StartTime><FrequencyChanges><FrequencyChange><Frequency dt:dt="r8">3507685</Frequency><Timestamp dt:dt="r8">53664923883</Timestamp><Current dt:dt="r8">0</Current><DateUtc dt:dt="string">2015-06-17T20:50:52Z</DateUtc></FrequencyChange></FrequencyChanges></Clock>\n	Hungry_Donkey_bar_English_2-110-1	60.017	-144	1.0.0.18	1	2125542250	Standard	2.0.10.353	2.0.10.353	06-17-2015	6/17/2015 8:50:52 PM	16:50:52	2.0.10.248	34	Bar50-50.bmp	48	2	?	0r_4g.bmp	0r_4g.bmp	0r_2g.bmp	0r_2g.bmp		0r_4g.bmp			TrialProc	TrialList	0	cvbn	-999999	16	190157	0	v	443	190600	102	-110	-8	-12	-10	6	8	10	4	34	0	0	0	0	4	4	2	2	0	4
Hungry_Donkey_bar_English_2	110	1	<?xml version="1.0"?>\n<Clock xmlns:dt="urn:schemas-microsoft-com:datatypes"><Description dt:dt="string">E-Prime Primary Realtime Clock</Description><StartTime><Timestamp dt:dt="int">0</Timestamp><DateUtc dt:dt="string">2015-06-17T20:50:52Z</DateUtc></StartTime><FrequencyChanges><FrequencyChange><Frequency dt:dt="r8">3507685</Frequency><Timestamp dt:dt="r8">53664923883</Timestamp><Current dt:dt="r8">0</Current><DateUtc dt:dt="string">2015-06-17T20:50:52Z</DateUtc></FrequencyChange></FrequencyChanges></Clock>\n	Hungry_Donkey_bar_English_2-110-1	60.017	-144	1.0.0.18	1	2125542250	Standard	2.0.10.353	2.0.10.353	06-17-2015	6/17/2015 8:50:52 PM	16:50:52	2.0.10.248	35	Bar50-50.bmp	49	4	?	0r_4g.bmp	0r_4g.bmp	0r_2g.bmp	0r_2g.bmp				0r_2g.bmp	TrialProc	TrialList	0	cvbn	-999999	17	192640	0	n	104	192744	104	-110	-6	-12	-10	6	10	9	4	35	0	0	0	0	4	4	2	2	0	2
Hungry_Donkey_bar_English_2	110	1	<?xml version="1.0"?>\n<Clock xmlns:dt="urn:schemas-microsoft-com:datatypes"><Description dt:dt="string">E-Prime Primary Realtime Clock</Description><StartTime><Timestamp dt:dt="int">0</Timestamp><DateUtc dt:dt="string">2015-06-17T20:50:52Z</DateUtc></StartTime><FrequencyChanges><FrequencyChange><Frequency dt:dt="r8">3507685</Frequency><Timestamp dt:dt="r8">53664923883</Timestamp><Current dt:dt="r8">0</Current><DateUtc dt:dt="string">2015-06-17T20:50:52Z</DateUtc></FrequencyChange></FrequencyChanges></Clock>\n	Hungry_Donkey_bar_English_2-110-1	60.017	-144	1.0.0.18	1	2125542250	Standard	2.0.10.353	2.0.10.353	06-17-2015	6/17/2015 8:50:52 PM	16:50:52	2.0.10.248	36	Bar50-50.bmp	50	2	?	0r_4g.bmp	0r_4g.bmp	0r_2g.bmp	0r_2g.bmp		0r_4g.bmp			TrialProc	TrialList	0	cvbn	-999999	16	194772	0	v	228	195000	108	-110	-2	-12	-6	6	10	8	4	36	0	0	0	0	4	4	2	2	0	4
Hungry_Donkey_bar_English_2	110	1	<?xml version="1.0"?>\n<Clock xmlns:dt="urn:schemas-microsoft-com:datatypes"><Description dt:dt="string">E-Prime Primary Realtime Clock</Description><StartTime><Timestamp dt:dt="int">0</Timestamp><DateUtc dt:dt="string">2015-06-17T20:50:52Z</DateUtc></StartTime><FrequencyChanges><FrequencyChange><Frequency dt:dt="r8">3507685</Frequency><Timestamp dt:dt="r8">53664923883</Timestamp><Current dt:dt="r8">0</Current><DateUtc dt:dt="string">2015-06-17T20:50:52Z</DateUtc></FrequencyChange></FrequencyChanges></Clock>\n	Hungry_Donkey_bar_English_2-110-1	60.017	-144	1.0.0.18	1	2125542250	Standard	2.0.10.353	2.0.10.353	06-17-2015	6/17/2015 8:50:52 PM	16:50:52	2.0.10.248	37	Bar50-50.bmp	50	4	?	10r_4g.bmp	0r_4g.bmp	2r_2g.bmp	0r_2g.bmp				0r_2g.bmp	TrialProc	TrialList	0	cvbn	-999999	16	197038	0	n	282	197320	110	-110	0	-12	-6	6	12	2	4	37	-10	0	-2	0	4	4	2	2	0	2
Hungry_Donkey_bar_English_2	110	1	<?xml version="1.0"?>\n<Clock xmlns:dt="urn:schemas-microsoft-com:datatypes"><Description dt:dt="string">E-Prime Primary Realtime Clock</Description><StartTime><Timestamp dt:dt="int">0</Timestamp><DateUtc dt:dt="string">2015-06-17T20:50:52Z</DateUtc></StartTime><FrequencyChanges><FrequencyChange><Frequency dt:dt="r8">3507685</Frequency><Timestamp dt:dt="r8">53664923883</Timestamp><Current dt:dt="r8">0</Current><DateUtc dt:dt="string">2015-06-17T20:50:52Z</DateUtc></FrequencyChange></FrequencyChanges></Clock>\n	Hungry_Donkey_bar_English_2-110-1	60.017	-144	1.0.0.18	1	2125542250	Standard	2.0.10.353	2.0.10.353	06-17-2015	6/17/2015 8:50:52 PM	16:50:52	2.0.10.248	38	Bar50-50.bmp	51	2	?	0r_4g.bmp	0r_4g.bmp	0r_2g.bmp	0r_2g.bmp		0r_4g.bmp			TrialProc	TrialList	0	cvbn	-999999	16	199354	0	v	286	199640	114	-110	4	-12	-2	6	12	7	4	38	0	0	0	0	4	4	2	2	0	4
Hungry_Donkey_bar_English_2	110	1	<?xml version="1.0"?>\n<Clock xmlns:dt="urn:schemas-microsoft-com:datatypes"><Description dt:dt="string">E-Prime Primary Realtime Clock</Description><StartTime><Timestamp dt:dt="int">0</Timestamp><DateUtc dt:dt="string">2015-06-17T20:50:52Z</DateUtc></StartTime><FrequencyChanges><FrequencyChange><Frequency dt:dt="r8">3507685</Frequency><Timestamp dt:dt="r8">53664923883</Timestamp><Current dt:dt="r8">0</Current><DateUtc dt:dt="string">2015-06-17T20:50:52Z</DateUtc></FrequencyChange></FrequencyChanges></Clock>\n	Hungry_Donkey_bar_English_2-110-1	60.017	-144	1.0.0.18	1	2125542250	Standard	2.0.10.353	2.0.10.353	06-17-2015	6/17/2015 8:50:52 PM	16:50:52	2.0.10.248	39	Bar50-50.bmp	51	4	?	10r_4g.bmp	0r_4g.bmp	2r_2g.bmp	0r_2g.bmp				0r_2g.bmp	TrialProc	TrialList	0	cvbn	-999999	16	201670	0	n	290	201960	116	-110	6	-12	-2	6	14	4	4	39	-10	0	-2	0	4	4	2	2	0	2
Hungry_Donkey_bar_English_2	110	1	<?xml version="1.0"?>\n<Clock xmlns:dt="urn:schemas-microsoft-com:datatypes"><Description dt:dt="string">E-Prime Primary Realtime Clock</Description><StartTime><Timestamp dt:dt="int">0</Timestamp><DateUtc dt:dt="string">2015-06-17T20:50:52Z</DateUtc></StartTime><FrequencyChanges><FrequencyChange><Frequency dt:dt="r8">3507685</Frequency><Timestamp dt:dt="r8">53664923883</Timestamp><Current dt:dt="r8">0</Current><DateUtc dt:dt="string">2015-06-17T20:50:52Z</DateUtc></FrequencyChange></FrequencyChanges></Clock>\n	Hungry_Donkey_bar_English_2-110-1	60.017	-144	1.0.0.18	1	2125542250	Standard	2.0.10.353	2.0.10.353	06-17-2015	6/17/2015 8:50:52 PM	16:50:52	2.0.10.248	40	Bar37-63.bmp	43	2	?	8r_4g.bmp	50r_4g.bmp	1r_2g.bmp	10r_2g.bmp		50r_4g.bmp			TrialProc	TrialList	0	cvbn	-999999	16	203986	0	v	22	204008	120	-160	-40	-12	-48	6	14	1	4	40	-8	-50	-1	-10	4	4	2	2	-50	4
Hungry_Donkey_bar_English_2	110	1	<?xml version="1.0"?>\n<Clock xmlns:dt="urn:schemas-microsoft-com:datatypes"><Description dt:dt="string">E-Prime Primary Realtime Clock</Description><StartTime><Timestamp dt:dt="int">0</Timestamp><DateUtc dt:dt="string">2015-06-17T20:50:52Z</DateUtc></StartTime><FrequencyChanges><FrequencyChange><Frequency dt:dt="r8">3507685</Frequency><Timestamp dt:dt="r8">53664923883</Timestamp><Current dt:dt="r8">0</Current><DateUtc dt:dt="string">2015-06-17T20:50:52Z</DateUtc></FrequencyChange></FrequencyChanges></Clock>\n	Hungry_Donkey_bar_English_2-110-1	60.017	-144	1.0.0.18	1	2125542250	Standard	2.0.10.353	2.0.10.353	06-17-2015	6/17/2015 8:50:52 PM	16:50:52	2.0.10.248	41	Bar37-63.bmp	42	1	?	10r_4g.bmp	0r_4g.bmp	2r_2g.bmp	0r_2g.bmp	10r_4g.bmp				TrialProc	TrialList	0	cvbn	-999999	16	206036	0	c	1091	207127	124	-170	-46	-18	-48	6	14	4	5	41	-10	0	-2	0	4	4	2	2	-10	4
Hungry_Donkey_bar_English_2	110	1	<?xml version="1.0"?>\n<Clock xmlns:dt="urn:schemas-microsoft-com:datatypes"><Description dt:dt="string">E-Prime Primary Realtime Clock</Description><StartTime><Timestamp dt:dt="int">0</Timestamp><DateUtc dt:dt="string">2015-06-17T20:50:52Z</DateUtc></StartTime><FrequencyChanges><FrequencyChange><Frequency dt:dt="r8">3507685</Frequency><Timestamp dt:dt="r8">53664923883</Timestamp><Current dt:dt="r8">0</Current><DateUtc dt:dt="string">2015-06-17T20:50:52Z</DateUtc></FrequencyChange></FrequencyChanges></Clock>\n	Hungry_Donkey_bar_English_2-110-1	60.017	-144	1.0.0.18	1	2125542250	Standard	2.0.10.353	2.0.10.353	06-17-2015	6/17/2015 8:50:52 PM	16:50:52	2.0.10.248	42	Bar37-63.bmp	42	3	?	10r_4g.bmp	0r_4g.bmp	2r_2g.bmp	0r_2g.bmp			2r_2g.bmp		TrialProc	TrialList	0	cvbn	-999999	16	209151	0	b	88	209239	126	-172	-46	-18	-48	6	14	3	5	42	-10	0	-2	0	4	4	2	2	-2	2
Hungry_Donkey_bar_English_2	110	1	<?xml version="1.0"?>\n<Clock xmlns:dt="urn:schemas-microsoft-com:datatypes"><Description dt:dt="string">E-Prime Primary Realtime Clock</Description><StartTime><Timestamp dt:dt="int">0</Timestamp><DateUtc dt:dt="string">2015-06-17T20:50:52Z</DateUtc></StartTime><FrequencyChanges><FrequencyChange><Frequency dt:dt="r8">3507685</Frequency><Timestamp dt:dt="r8">53664923883</Timestamp><Current dt:dt="r8">0</Current><DateUtc dt:dt="string">2015-06-17T20:50:52Z</DateUtc></FrequencyChange></FrequencyChanges></Clock>\n	Hungry_Donkey_bar_English_2-110-1	60.017	-144	1.0.0.18	1	2125542250	Standard	2.0.10.353	2.0.10.353	06-17-2015	6/17/2015 8:50:52 PM	16:50:52	2.0.10.248	43	Bar37-63.bmp	43	4	?	0r_4g.bmp	0r_4g.bmp	0r_2g.bmp	0r_2g.bmp				0r_2g.bmp	TrialProc	TrialList	0	cvbn	-999999	16	211267	0	n	676	211943	128	-172	-44	-18	-48	6	16	10	5	43	0	0	0	0	4	4	2	2	0	2
Hungry_Donkey_bar_English_2	110	1	<?xml version="1.0"?>\n<Clock xmlns:dt="urn:schemas-microsoft-com:datatypes"><Description dt:dt="string">E-Prime Primary Realtime Clock</Description><StartTime><Timestamp dt:dt="int">0</Timestamp><DateUtc dt:dt="string">2015-06-17T20:50:52Z</DateUtc></StartTime><FrequencyChanges><FrequencyChange><Frequency dt:dt="r8">3507685</Frequency><Timestamp dt:dt="r8">53664923883</Timestamp><Current dt:dt="r8">0</Current><DateUtc dt:dt="string">2015-06-17T20:50:52Z</DateUtc></FrequencyChange></FrequencyChanges></Clock>\n	Hungry_Donkey_bar_English_2-110-1	60.017	-144	1.0.0.18	1	2125542250	Standard	2.0.10.353	2.0.10.353	06-17-2015	6/17/2015 8:50:52 PM	16:50:52	2.0.10.248	44	Bar37-63.bmp	43	2	?	0r_4g.bmp	0r_4g.bmp	0r_2g.bmp	0r_2g.bmp		0r_4g.bmp			TrialProc	TrialList	0	cvbn	-999999	16	213983	0	v	344	214327	132	-172	-40	-18	-44	6	16	8	5	44	0	0	0	0	4	4	2	2	0	4
Hungry_Donkey_bar_English_2	110	1	<?xml version="1.0"?>\n<Clock xmlns:dt="urn:schemas-microsoft-com:datatypes"><Description dt:dt="string">E-Prime Primary Realtime Clock</Description><StartTime><Timestamp dt:dt="int">0</Timestamp><DateUtc dt:dt="string">2015-06-17T20:50:52Z</DateUtc></StartTime><FrequencyChanges><FrequencyChange><Frequency dt:dt="r8">3507685</Frequency><Timestamp dt:dt="r8">53664923883</Timestamp><Current dt:dt="r8">0</Current><DateUtc dt:dt="string">2015-06-17T20:50:52Z</DateUtc></FrequencyChange></FrequencyChanges></Clock>\n	Hungry_Donkey_bar_English_2-110-1	60.017	-144	1.0.0.18	1	2125542250	Standard	2.0.10.353	2.0.10.353	06-17-2015	6/17/2015 8:50:52 PM	16:50:52	2.0.10.248	45	Bar50-50.bmp	44	4	?	0r_4g.bmp	0r_4g.bmp	0r_2g.bmp	0r_2g.bmp				0r_2g.bmp	TrialProc	TrialList	0	cvbn	-999999	16	216366	0	n	265	216631	134	-172	-38	-18	-44	6	18	6	5	45	0	0	0	0	4	4	2	2	0	2
Hungry_Donkey_bar_English_2	110	1	<?xml version="1.0"?>\n<Clock xmlns:dt="urn:schemas-microsoft-com:datatypes"><Description dt:dt="string">E-Prime Primary Realtime Clock</Description><StartTime><Timestamp dt:dt="int">0</Timestamp><DateUtc dt:dt="string">2015-06-17T20:50:52Z</DateUtc></StartTime><FrequencyChanges><FrequencyChange><Frequency dt:dt="r8">3507685</Frequency><Timestamp dt:dt="r8">53664923883</Timestamp><Current dt:dt="r8">0</Current><DateUtc dt:dt="string">2015-06-17T20:50:52Z</DateUtc></FrequencyChange></FrequencyChanges></Clock>\n	Hungry_Donkey_bar_English_2-110-1	60.017	-144	1.0.0.18	1	2125542250	Standard	2.0.10.353	2.0.10.353	06-17-2015	6/17/2015 8:50:52 PM	16:50:52	2.0.10.248	46	Bar50-50.bmp	45	2	?	0r_4g.bmp	0r_4g.bmp	0r_2g.bmp	0r_2g.bmp		0r_4g.bmp			TrialProc	TrialList	0	cvbn	-999999	16	218665	0	v	462	219127	138	-172	-34	-18	-40	6	18	7	5	46	0	0	0	0	4	4	2	2	0	4
Hungry_Donkey_bar_English_2	110	1	<?xml version="1.0"?>\n<Clock xmlns:dt="urn:schemas-microsoft-com:datatypes"><Description dt:dt="string">E-Prime Primary Realtime Clock</Description><StartTime><Timestamp dt:dt="int">0</Timestamp><DateUtc dt:dt="string">2015-06-17T20:50:52Z</DateUtc></StartTime><FrequencyChanges><FrequencyChange><Frequency dt:dt="r8">3507685</Frequency><Timestamp dt:dt="r8">53664923883</Timestamp><Current dt:dt="r8">0</Current><DateUtc dt:dt="string">2015-06-17T20:50:52Z</DateUtc></FrequencyChange></FrequencyChanges></Clock>\n	Hungry_Donkey_bar_English_2-110-1	60.017	-144	1.0.0.18	1	2125542250	Standard	2.0.10.353	2.0.10.353	06-17-2015	6/17/2015 8:50:52 PM	16:50:52	2.0.10.248	47	Bar50-50.bmp	45	2	?	0r_4g.bmp	0r_4g.bmp	0r_2g.bmp	0r_2g.bmp		0r_4g.bmp			TrialProc	TrialList	0	cvbn	-999999	16	221165	0	v	58	221223	142	-172	-30	-18	-36	6	18	9	5	47	0	0	0	0	4	4	2	2	0	4
Hungry_Donkey_bar_English_2	110	1	<?xml version="1.0"?>\n<Clock xmlns:dt="urn:schemas-microsoft-com:datatypes"><Description dt:dt="string">E-Prime Primary Realtime Clock</Description><StartTime><Timestamp dt:dt="int">0</Timestamp><DateUtc dt:dt="string">2015-06-17T20:50:52Z</DateUtc></StartTime><FrequencyChanges><FrequencyChange><Frequency dt:dt="r8">3507685</Frequency><Timestamp dt:dt="r8">53664923883</Timestamp><Current dt:dt="r8">0</Current><DateUtc dt:dt="string">2015-06-17T20:50:52Z</DateUtc></FrequencyChange></FrequencyChanges></Clock>\n	Hungry_Donkey_bar_English_2-110-1	60.017	-144	1.0.0.18	1	2125542250	Standard	2.0.10.353	2.0.10.353	06-17-2015	6/17/2015 8:50:52 PM	16:50:52	2.0.10.248	48	Bar37-63.bmp	40	2	?	8r_4g.bmp	50r_4g.bmp	1r_2g.bmp	10r_2g.bmp		50r_4g.bmp			TrialProc	TrialList	0	cvbn	-999999	16	223247	0	v	968	224215	146	-222	-76	-18	-82	6	18	1	5	48	-8	-50	-1	-10	4	4	2	2	-50	4
Hungry_Donkey_bar_English_2	110	1	<?xml version="1.0"?>\n<Clock xmlns:dt="urn:schemas-microsoft-com:datatypes"><Description dt:dt="string">E-Prime Primary Realtime Clock</Description><StartTime><Timestamp dt:dt="int">0</Timestamp><DateUtc dt:dt="string">2015-06-17T20:50:52Z</DateUtc></StartTime><FrequencyChanges><FrequencyChange><Frequency dt:dt="r8">3507685</Frequency><Timestamp dt:dt="r8">53664923883</Timestamp><Current dt:dt="r8">0</Current><DateUtc dt:dt="string">2015-06-17T20:50:52Z</DateUtc></FrequencyChange></FrequencyChanges></Clock>\n	Hungry_Donkey_bar_English_2-110-1	60.017	-144	1.0.0.18	1	2125542250	Standard	2.0.10.353	2.0.10.353	06-17-2015	6/17/2015 8:50:52 PM	16:50:52	2.0.10.248	49	Bar37-63.bmp	40	3	?	10r_4g.bmp	0r_4g.bmp	2r_2g.bmp	0r_2g.bmp			2r_2g.bmp		TrialProc	TrialList	0	cvbn	-999999	16	226246	0	b	400	226646	148	-224	-76	-18	-82	6	18	2	5	49	-10	0	-2	0	4	4	2	2	-2	2
Hungry_Donkey_bar_English_2	110	1	<?xml version="1.0"?>\n<Clock xmlns:dt="urn:schemas-microsoft-com:datatypes"><Description dt:dt="string">E-Prime Primary Realtime Clock</Description><StartTime><Timestamp dt:dt="int">0</Timestamp><DateUtc dt:dt="string">2015-06-17T20:50:52Z</DateUtc></StartTime><FrequencyChanges><FrequencyChange><Frequency dt:dt="r8">3507685</Frequency><Timestamp dt:dt="r8">53664923883</Timestamp><Current dt:dt="r8">0</Current><DateUtc dt:dt="string">2015-06-17T20:50:52Z</DateUtc></FrequencyChange></FrequencyChanges></Clock>\n	Hungry_Donkey_bar_English_2-110-1	60.017	-144	1.0.0.18	1	2125542250	Standard	2.0.10.353	2.0.10.353	06-17-2015	6/17/2015 8:50:52 PM	16:50:52	2.0.10.248	50	Bar37-63.bmp	39	1	?	12r_4g.bmp	0r_4g.bmp	3r_2g.bmp	0r_2g.bmp	12r_4g.bmp				TrialProc	TrialList	0	cvbn	-999999	16	228679	0	c	431	229110	152	-236	-84	-26	-82	6	18	5	5	50	-12	0	-3	0	4	4	2	2	-12	4
Hungry_Donkey_bar_English_2	110	1	<?xml version="1.0"?>\n<Clock xmlns:dt="urn:schemas-microsoft-com:datatypes"><Description dt:dt="string">E-Prime Primary Realtime Clock</Description><StartTime><Timestamp dt:dt="int">0</Timestamp><DateUtc dt:dt="string">2015-06-17T20:50:52Z</DateUtc></StartTime><FrequencyChanges><FrequencyChange><Frequency dt:dt="r8">3507685</Frequency><Timestamp dt:dt="r8">53664923883</Timestamp><Current dt:dt="r8">0</Current><DateUtc dt:dt="string">2015-06-17T20:50:52Z</DateUtc></FrequencyChange></FrequencyChanges></Clock>\n	Hungry_Donkey_bar_English_2-110-1	60.017	-144	1.0.0.18	1	2125542250	Standard	2.0.10.353	2.0.10.353	06-17-2015	6/17/2015 8:50:52 PM	16:50:52	2.0.10.248	51	Bar37-63.bmp	39	4	?	10r_4g.bmp	0r_4g.bmp	2r_2g.bmp	0r_2g.bmp				0r_2g.bmp	TrialProc	TrialList	0	cvbn	-999999	16	231145	0	n	221	231366	154	-236	-82	-26	-82	6	20	3	6	51	-10	0	-2	0	4	4	2	2	0	2
Hungry_Donkey_bar_English_2	110	1	<?xml version="1.0"?>\n<Clock xmlns:dt="urn:schemas-microsoft-com:datatypes"><Description dt:dt="string">E-Prime Primary Realtime Clock</Description><StartTime><Timestamp dt:dt="int">0</Timestamp><DateUtc dt:dt="string">2015-06-17T20:50:52Z</DateUtc></StartTime><FrequencyChanges><FrequencyChange><Frequency dt:dt="r8">3507685</Frequency><Timestamp dt:dt="r8">53664923883</Timestamp><Current dt:dt="r8">0</Current><DateUtc dt:dt="string">2015-06-17T20:50:52Z</DateUtc></FrequencyChange></FrequencyChanges></Clock>\n	Hungry_Donkey_bar_English_2-110-1	60.017	-144	1.0.0.18	1	2125542250	Standard	2.0.10.353	2.0.10.353	06-17-2015	6/17/2015 8:50:52 PM	16:50:52	2.0.10.248	52	Bar37-63.bmp	39	3	?	12r_4g.bmp	0r_4g.bmp	3r_2g.bmp	0r_2g.bmp			3r_2g.bmp		TrialProc	TrialList	0	cvbn	-999999	16	233394	0	b	660	234054	156	-239	-83	-26	-82	5	20	5	6	52	-12	0	-3	0	4	4	2	2	-3	2
Hungry_Donkey_bar_English_2	110	1	<?xml version="1.0"?>\n<Clock xmlns:dt="urn:schemas-microsoft-com:datatypes"><Description dt:dt="string">E-Prime Primary Realtime Clock</Description><StartTime><Timestamp dt:dt="int">0</Timestamp><DateUtc dt:dt="string">2015-06-17T20:50:52Z</DateUtc></StartTime><FrequencyChanges><FrequencyChange><Frequency dt:dt="r8">3507685</Frequency><Timestamp dt:dt="r8">53664923883</Timestamp><Current dt:dt="r8">0</Current><DateUtc dt:dt="string">2015-06-17T20:50:52Z</DateUtc></FrequencyChange></FrequencyChanges></Clock>\n	Hungry_Donkey_bar_English_2-110-1	60.017	-144	1.0.0.18	1	2125542250	Standard	2.0.10.353	2.0.10.353	06-17-2015	6/17/2015 8:50:52 PM	16:50:52	2.0.10.248	53	Bar37-63.bmp	40	2	?	0r_4g.bmp	0r_4g.bmp	0r_2g.bmp	0r_2g.bmp		0r_4g.bmp			TrialProc	TrialList	0	cvbn	-999999	16	236077	0	v	265	236342	160	-239	-79	-26	-78	5	20	9	6	53	0	0	0	0	4	4	2	2	0	4
Hungry_Donkey_bar_English_2	110	1	<?xml version="1.0"?>\n<Clock xmlns:dt="urn:schemas-microsoft-com:datatypes"><Description dt:dt="string">E-Prime Primary Realtime Clock</Description><StartTime><Timestamp dt:dt="int">0</Timestamp><DateUtc dt:dt="string">2015-06-17T20:50:52Z</DateUtc></StartTime><FrequencyChanges><FrequencyChange><Frequency dt:dt="r8">3507685</Frequency><Timestamp dt:dt="r8">53664923883</Timestamp><Current dt:dt="r8">0</Current><DateUtc dt:dt="string">2015-06-17T20:50:52Z</DateUtc></FrequencyChange></FrequencyChanges></Clock>\n	Hungry_Donkey_bar_English_2-110-1	60.017	-144	1.0.0.18	1	2125542250	Standard	2.0.10.353	2.0.10.353	06-17-2015	6/17/2015 8:50:52 PM	16:50:52	2.0.10.248	54	Bar37-63.bmp	41	1	?	0r_4g.bmp	0r_4g.bmp	0r_2g.bmp	0r_2g.bmp	0r_4g.bmp				TrialProc	TrialList	0	cvbn	-999999	16	238376	0	c	190	238566	164	-239	-75	-22	-78	5	20	7	6	54	0	0	0	0	4	4	2	2	0	4
Hungry_Donkey_bar_English_2	110	1	<?xml version="1.0"?>\n<Clock xmlns:dt="urn:schemas-microsoft-com:datatypes"><Description dt:dt="string">E-Prime Primary Realtime Clock</Description><StartTime><Timestamp dt:dt="int">0</Timestamp><DateUtc dt:dt="string">2015-06-17T20:50:52Z</DateUtc></StartTime><FrequencyChanges><FrequencyChange><Frequency dt:dt="r8">3507685</Frequency><Timestamp dt:dt="r8">53664923883</Timestamp><Current dt:dt="r8">0</Current><DateUtc dt:dt="string">2015-06-17T20:50:52Z</DateUtc></FrequencyChange></FrequencyChanges></Clock>\n	Hungry_Donkey_bar_English_2-110-1	60.017	-144	1.0.0.18	1	2125542250	Standard	2.0.10.353	2.0.10.353	06-17-2015	6/17/2015 8:50:52 PM	16:50:52	2.0.10.248	55	Bar37-63.bmp	40	4	?	8r_4g.bmp	50r_4g.bmp	1r_2g.bmp	10r_2g.bmp				10r_2g.bmp	TrialProc	TrialList	0	cvbn	-999999	16	240592	0	n	310	240902	166	-249	-83	-22	-78	5	12	1	6	55	-8	-50	-1	-10	4	4	2	2	-10	2
Hungry_Donkey_bar_English_2	110	1	<?xml version="1.0"?>\n<Clock xmlns:dt="urn:schemas-microsoft-com:datatypes"><Description dt:dt="string">E-Prime Primary Realtime Clock</Description><StartTime><Timestamp dt:dt="int">0</Timestamp><DateUtc dt:dt="string">2015-06-17T20:50:52Z</DateUtc></StartTime><FrequencyChanges><FrequencyChange><Frequency dt:dt="r8">3507685</Frequency><Timestamp dt:dt="r8">53664923883</Timestamp><Current dt:dt="r8">0</Current><DateUtc dt:dt="string">2015-06-17T20:50:52Z</DateUtc></FrequencyChange></FrequencyChanges></Clock>\n	Hungry_Donkey_bar_English_2-110-1	60.017	-144	1.0.0.18	1	2125542250	Standard	2.0.10.353	2.0.10.353	06-17-2015	6/17/2015 8:50:52 PM	16:50:52	2.0.10.248	56	Bar37-63.bmp	40	3	?	0r_4g.bmp	0r_4g.bmp	0r_2g.bmp	0r_2g.bmp			0r_2g.bmp		TrialProc	TrialList	0	cvbn	-999999	16	242925	0	b	41	242966	168	-249	-81	-22	-78	7	12	8	6	56	0	0	0	0	4	4	2	2	0	2
Hungry_Donkey_bar_English_2	110	1	<?xml version="1.0"?>\n<Clock xmlns:dt="urn:schemas-microsoft-com:datatypes"><Description dt:dt="string">E-Prime Primary Realtime Clock</Description><StartTime><Timestamp dt:dt="int">0</Timestamp><DateUtc dt:dt="string">2015-06-17T20:50:52Z</DateUtc></StartTime><FrequencyChanges><FrequencyChange><Frequency dt:dt="r8">3507685</Frequency><Timestamp dt:dt="r8">53664923883</Timestamp><Current dt:dt="r8">0</Current><DateUtc dt:dt="string">2015-06-17T20:50:52Z</DateUtc></FrequencyChange></FrequencyChanges></Clock>\n	Hungry_Donkey_bar_English_2-110-1	60.017	-144	1.0.0.18	1	2125542250	Standard	2.0.10.353	2.0.10.353	06-17-2015	6/17/2015 8:50:52 PM	16:50:52	2.0.10.248	57	Bar37-63.bmp	41	2	?	10r_4g.bmp	0r_4g.bmp	2r_2g.bmp	0r_2g.bmp		0r_4g.bmp			TrialProc	TrialList	0	cvbn	-999999	16	244991	0	v	358	245349	172	-249	-77	-22	-74	7	12	4	6	57	-10	0	-2	0	4	4	2	2	0	4
Hungry_Donkey_bar_English_2	110	1	<?xml version="1.0"?>\n<Clock xmlns:dt="urn:schemas-microsoft-com:datatypes"><Description dt:dt="string">E-Prime Primary Realtime Clock</Description><StartTime><Timestamp dt:dt="int">0</Timestamp><DateUtc dt:dt="string">2015-06-17T20:50:52Z</DateUtc></StartTime><FrequencyChanges><FrequencyChange><Frequency dt:dt="r8">3507685</Frequency><Timestamp dt:dt="r8">53664923883</Timestamp><Current dt:dt="r8">0</Current><DateUtc dt:dt="string">2015-06-17T20:50:52Z</DateUtc></FrequencyChange></FrequencyChanges></Clock>\n	Hungry_Donkey_bar_English_2-110-1	60.017	-144	1.0.0.18	1	2125542250	Standard	2.0.10.353	2.0.10.353	06-17-2015	6/17/2015 8:50:52 PM	16:50:52	2.0.10.248	58	Bar37-63.bmp	41	1	?	0r_4g.bmp	0r_4g.bmp	0r_2g.bmp	0r_2g.bmp	0r_4g.bmp				TrialProc	TrialList	0	cvbn	-999999	16	247374	0	c	1511	248885	176	-249	-73	-18	-74	7	12	6	6	58	0	0	0	0	4	4	2	2	0	4
Hungry_Donkey_bar_English_2	110	1	<?xml version="1.0"?>\n<Clock xmlns:dt="urn:schemas-microsoft-com:datatypes"><Description dt:dt="string">E-Prime Primary Realtime Clock</Description><StartTime><Timestamp dt:dt="int">0</Timestamp><DateUtc dt:dt="string">2015-06-17T20:50:52Z</DateUtc></StartTime><FrequencyChanges><FrequencyChange><Frequency dt:dt="r8">3507685</Frequency><Timestamp dt:dt="r8">53664923883</Timestamp><Current dt:dt="r8">0</Current><DateUtc dt:dt="string">2015-06-17T20:50:52Z</DateUtc></FrequencyChange></FrequencyChanges></Clock>\n	Hungry_Donkey_bar_English_2-110-1	60.017	-144	1.0.0.18	1	2125542250	Standard	2.0.10.353	2.0.10.353	06-17-2015	6/17/2015 8:50:52 PM	16:50:52	2.0.10.248	59	Bar37-63.bmp	41	3	?	10r_4g.bmp	0r_4g.bmp	2r_2g.bmp	0r_2g.bmp			2r_2g.bmp		TrialProc	TrialList	0	cvbn	-999999	16	250923	0	b	122	251045	178	-251	-73	-18	-74	7	12	2	6	59	-10	0	-2	0	4	4	2	2	-2	2
Hungry_Donkey_bar_English_2	110	1	<?xml version="1.0"?>\n<Clock xmlns:dt="urn:schemas-microsoft-com:datatypes"><Description dt:dt="string">E-Prime Primary Realtime Clock</Description><StartTime><Timestamp dt:dt="int">0</Timestamp><DateUtc dt:dt="string">2015-06-17T20:50:52Z</DateUtc></StartTime><FrequencyChanges><FrequencyChange><Frequency dt:dt="r8">3507685</Frequency><Timestamp dt:dt="r8">53664923883</Timestamp><Current dt:dt="r8">0</Current><DateUtc dt:dt="string">2015-06-17T20:50:52Z</DateUtc></FrequencyChange></FrequencyChanges></Clock>\n	Hungry_Donkey_bar_English_2-110-1	60.017	-144	1.0.0.18	1	2125542250	Standard	2.0.10.353	2.0.10.353	06-17-2015	6/17/2015 8:50:52 PM	16:50:52	2.0.10.248	60	Bar37-63.bmp	42	2	?	0r_4g.bmp	0r_4g.bmp	0r_2g.bmp	0r_2g.bmp		0r_4g.bmp			TrialProc	TrialList	0	cvbn	-999999	16	253072	0	v	389	253461	182	-251	-69	-18	-70	7	12	10	6	60	0	0	0	0	4	4	2	2	0	4
Hungry_Donkey_bar_English_2	110	1	<?xml version="1.0"?>\n<Clock xmlns:dt="urn:schemas-microsoft-com:datatypes"><Description dt:dt="string">E-Prime Primary Realtime Clock</Description><StartTime><Timestamp dt:dt="int">0</Timestamp><DateUtc dt:dt="string">2015-06-17T20:50:52Z</DateUtc></StartTime><FrequencyChanges><FrequencyChange><Frequency dt:dt="r8">3507685</Frequency><Timestamp dt:dt="r8">53664923883</Timestamp><Current dt:dt="r8">0</Current><DateUtc dt:dt="string">2015-06-17T20:50:52Z</DateUtc></FrequencyChange></FrequencyChanges></Clock>\n	Hungry_Donkey_bar_English_2-110-1	60.017	-144	1.0.0.18	1	2125542250	Standard	2.0.10.353	2.0.10.353	06-17-2015	6/17/2015 8:50:52 PM	16:50:52	2.0.10.248	61	Bar37-63.bmp	42	4	?	0r_4g.bmp	0r_4g.bmp	0r_2g.bmp	0r_2g.bmp				0r_2g.bmp	TrialProc	TrialList	0	cvbn	-999999	16	255488	0	n	357	255845	184	-251	-67	-18	-70	7	14	7	7	61	0	0	0	0	4	4	2	2	0	2
Hungry_Donkey_bar_English_2	110	1	<?xml version="1.0"?>\n<Clock xmlns:dt="urn:schemas-microsoft-com:datatypes"><Description dt:dt="string">E-Prime Primary Realtime Clock</Description><StartTime><Timestamp dt:dt="int">0</Timestamp><DateUtc dt:dt="string">2015-06-17T20:50:52Z</DateUtc></StartTime><FrequencyChanges><FrequencyChange><Frequency dt:dt="r8">3507685</Frequency><Timestamp dt:dt="r8">53664923883</Timestamp><Current dt:dt="r8">0</Current><DateUtc dt:dt="string">2015-06-17T20:50:52Z</DateUtc></FrequencyChange></FrequencyChanges></Clock>\n	Hungry_Donkey_bar_English_2-110-1	60.017	-144	1.0.0.18	1	2125542250	Standard	2.0.10.353	2.0.10.353	06-17-2015	6/17/2015 8:50:52 PM	16:50:52	2.0.10.248	62	Bar37-63.bmp	42	1	?	10r_4g.bmp	0r_4g.bmp	2r_2g.bmp	0r_2g.bmp	10r_4g.bmp				TrialProc	TrialList	0	cvbn	-999999	16	257871	0	c	70	257941	188	-261	-73	-24	-70	7	14	2	7	62	-10	0	-2	0	4	4	2	2	-10	4
Hungry_Donkey_bar_English_2	110	1	<?xml version="1.0"?>\n<Clock xmlns:dt="urn:schemas-microsoft-com:datatypes"><Description dt:dt="string">E-Prime Primary Realtime Clock</Description><StartTime><Timestamp dt:dt="int">0</Timestamp><DateUtc dt:dt="string">2015-06-17T20:50:52Z</DateUtc></StartTime><FrequencyChanges><FrequencyChange><Frequency dt:dt="r8">3507685</Frequency><Timestamp dt:dt="r8">53664923883</Timestamp><Current dt:dt="r8">0</Current><DateUtc dt:dt="string">2015-06-17T20:50:52Z</DateUtc></FrequencyChange></FrequencyChanges></Clock>\n	Hungry_Donkey_bar_English_2-110-1	60.017	-144	1.0.0.18	1	2125542250	Standard	2.0.10.353	2.0.10.353	06-17-2015	6/17/2015 8:50:52 PM	16:50:52	2.0.10.248	63	Bar37-63.bmp	42	2	?	0r_4g.bmp	0r_4g.bmp	0r_2g.bmp	0r_2g.bmp		0r_4g.bmp			TrialProc	TrialList	0	cvbn	-999999	16	259970	0	v	195	260165	192	-261	-69	-24	-66	7	14	8	7	63	0	0	0	0	4	4	2	2	0	4
Hungry_Donkey_bar_English_2	110	1	<?xml version="1.0"?>\n<Clock xmlns:dt="urn:schemas-microsoft-com:datatypes"><Description dt:dt="string">E-Prime Primary Realtime Clock</Description><StartTime><Timestamp dt:dt="int">0</Timestamp><DateUtc dt:dt="string">2015-06-17T20:50:52Z</DateUtc></StartTime><FrequencyChanges><FrequencyChange><Frequency dt:dt="r8">3507685</Frequency><Timestamp dt:dt="r8">53664923883</Timestamp><Current dt:dt="r8">0</Current><DateUtc dt:dt="string">2015-06-17T20:50:52Z</DateUtc></FrequencyChange></FrequencyChanges></Clock>\n	Hungry_Donkey_bar_English_2-110-1	60.017	-144	1.0.0.18	1	2125542250	Standard	2.0.10.353	2.0.10.353	06-17-2015	6/17/2015 8:50:52 PM	16:50:52	2.0.10.248	64	Bar37-63.bmp	43	4	?	10r_4g.bmp	0r_4g.bmp	2r_2g.bmp	0r_2g.bmp				0r_2g.bmp	TrialProc	TrialList	0	cvbn	-999999	16	262203	0	n	314	262517	194	-261	-67	-24	-66	7	16	4	7	64	-10	0	-2	0	4	4	2	2	0	2
Hungry_Donkey_bar_English_2	110	1	<?xml version="1.0"?>\n<Clock xmlns:dt="urn:schemas-microsoft-com:datatypes"><Description dt:dt="string">E-Prime Primary Realtime Clock</Description><StartTime><Timestamp dt:dt="int">0</Timestamp><DateUtc dt:dt="string">2015-06-17T20:50:52Z</DateUtc></StartTime><FrequencyChanges><FrequencyChange><Frequency dt:dt="r8">3507685</Frequency><Timestamp dt:dt="r8">53664923883</Timestamp><Current dt:dt="r8">0</Current><DateUtc dt:dt="string">2015-06-17T20:50:52Z</DateUtc></FrequencyChange></FrequencyChanges></Clock>\n	Hungry_Donkey_bar_English_2-110-1	60.017	-144	1.0.0.18	1	2125542250	Standard	2.0.10.353	2.0.10.353	06-17-2015	6/17/2015 8:50:52 PM	16:50:52	2.0.10.248	65	Bar37-63.bmp	43	3	?	10r_4g.bmp	0r_4g.bmp	2r_2g.bmp	0r_2g.bmp			2r_2g.bmp		TrialProc	TrialList	0	cvbn	-999999	16	264552	0	b	12	264564	196	-263	-67	-24	-66	7	16	3	7	65	-10	0	-2	0	4	4	2	2	-2	2
Hungry_Donkey_bar_English_2	110	1	<?xml version="1.0"?>\n<Clock xmlns:dt="urn:schemas-microsoft-com:datatypes"><Description dt:dt="string">E-Prime Primary Realtime Clock</Description><StartTime><Timestamp dt:dt="int">0</Timestamp><DateUtc dt:dt="string">2015-06-17T20:50:52Z</DateUtc></StartTime><FrequencyChanges><FrequencyChange><Frequency dt:dt="r8">3507685</Frequency><Timestamp dt:dt="r8">53664923883</Timestamp><Current dt:dt="r8">0</Current><DateUtc dt:dt="string">2015-06-17T20:50:52Z</DateUtc></FrequencyChange></FrequencyChanges></Clock>\n	Hungry_Donkey_bar_English_2-110-1	60.017	-144	1.0.0.18	1	2125542250	Standard	2.0.10.353	2.0.10.353	06-17-2015	6/17/2015 8:50:52 PM	16:50:52	2.0.10.248	66	Bar37-63.bmp	43	2	?	0r_4g.bmp	0r_4g.bmp	0r_2g.bmp	0r_2g.bmp		0r_4g.bmp			TrialProc	TrialList	0	cvbn	-999999	17	266602	0	v	26	266628	200	-263	-63	-24	-62	7	16	6	7	66	0	0	0	0	4	4	2	2	0	4
Hungry_Donkey_bar_English_2	110	1	<?xml version="1.0"?>\n<Clock xmlns:dt="urn:schemas-microsoft-com:datatypes"><Description dt:dt="string">E-Prime Primary Realtime Clock</Description><StartTime><Timestamp dt:dt="int">0</Timestamp><DateUtc dt:dt="string">2015-06-17T20:50:52Z</DateUtc></StartTime><FrequencyChanges><FrequencyChange><Frequency dt:dt="r8">3507685</Frequency><Timestamp dt:dt="r8">53664923883</Timestamp><Current dt:dt="r8">0</Current><DateUtc dt:dt="string">2015-06-17T20:50:52Z</DateUtc></FrequencyChange></FrequencyChanges></Clock>\n	Hungry_Donkey_bar_English_2-110-1	60.017	-144	1.0.0.18	1	2125542250	Standard	2.0.10.353	2.0.10.353	06-17-2015	6/17/2015 8:50:52 PM	16:50:52	2.0.10.248	67	Bar50-50.bmp	44	2	?	12r_4g.bmp	0r_4g.bmp	3r_2g.bmp	0r_2g.bmp		0r_4g.bmp			TrialProc	TrialList	0	cvbn	-999999	15	268651	0	v	169	268820	204	-263	-59	-24	-58	7	16	5	7	67	-12	0	-3	0	4	4	2	2	0	4
Hungry_Donkey_bar_English_2	110	1	<?xml version="1.0"?>\n<Clock xmlns:dt="urn:schemas-microsoft-com:datatypes"><Description dt:dt="string">E-Prime Primary Realtime Clock</Description><StartTime><Timestamp dt:dt="int">0</Timestamp><DateUtc dt:dt="string">2015-06-17T20:50:52Z</DateUtc></StartTime><FrequencyChanges><FrequencyChange><Frequency dt:dt="r8">3507685</Frequency><Timestamp dt:dt="r8">53664923883</Timestamp><Current dt:dt="r8">0</Current><DateUtc dt:dt="string">2015-06-17T20:50:52Z</DateUtc></FrequencyChange></FrequencyChanges></Clock>\n	Hungry_Donkey_bar_English_2-110-1	60.017	-144	1.0.0.18	1	2125542250	Standard	2.0.10.353	2.0.10.353	06-17-2015	6/17/2015 8:50:52 PM	16:50:52	2.0.10.248	68	Bar37-63.bmp	43	4	?	8r_4g.bmp	50r_4g.bmp	1r_2g.bmp	10r_2g.bmp				10r_2g.bmp	TrialProc	TrialList	0	cvbn	-999999	16	270850	0	n	18	270868	206	-273	-67	-24	-58	7	8	1	7	68	-8	-50	-1	-10	4	4	2	2	-10	2
Hungry_Donkey_bar_English_2	110	1	<?xml version="1.0"?>\n<Clock xmlns:dt="urn:schemas-microsoft-com:datatypes"><Description dt:dt="string">E-Prime Primary Realtime Clock</Description><StartTime><Timestamp dt:dt="int">0</Timestamp><DateUtc dt:dt="string">2015-06-17T20:50:52Z</DateUtc></StartTime><FrequencyChanges><FrequencyChange><Frequency dt:dt="r8">3507685</Frequency><Timestamp dt:dt="r8">53664923883</Timestamp><Current dt:dt="r8">0</Current><DateUtc dt:dt="string">2015-06-17T20:50:52Z</DateUtc></FrequencyChange></FrequencyChanges></Clock>\n	Hungry_Donkey_bar_English_2-110-1	60.017	-144	1.0.0.18	1	2125542250	Standard	2.0.10.353	2.0.10.353	06-17-2015	6/17/2015 8:50:52 PM	16:50:52	2.0.10.248	69	Bar37-63.bmp	43	2	?	0r_4g.bmp	0r_4g.bmp	0r_2g.bmp	0r_2g.bmp		0r_4g.bmp			TrialProc	TrialList	0	cvbn	-999999	16	272900	0	v	48	272948	210	-273	-63	-24	-54	7	8	9	7	69	0	0	0	0	4	4	2	2	0	4
Hungry_Donkey_bar_English_2	110	1	<?xml version="1.0"?>\n<Clock xmlns:dt="urn:schemas-microsoft-com:datatypes"><Description dt:dt="string">E-Prime Primary Realtime Clock</Description><StartTime><Timestamp dt:dt="int">0</Timestamp><DateUtc dt:dt="string">2015-06-17T20:50:52Z</DateUtc></StartTime><FrequencyChanges><FrequencyChange><Frequency dt:dt="r8">3507685</Frequency><Timestamp dt:dt="r8">53664923883</Timestamp><Current dt:dt="r8">0</Current><DateUtc dt:dt="string">2015-06-17T20:50:52Z</DateUtc></FrequencyChange></FrequencyChanges></Clock>\n	Hungry_Donkey_bar_English_2-110-1	60.017	-144	1.0.0.18	1	2125542250	Standard	2.0.10.353	2.0.10.353	06-17-2015	6/17/2015 8:50:52 PM	16:50:52	2.0.10.248	70	Bar50-50.bmp	44	1	?	0r_4g.bmp	0r_4g.bmp	0r_2g.bmp	0r_2g.bmp	0r_4g.bmp				TrialProc	TrialList	0	cvbn	-999999	16	274982	0	c	110	275092	214	-273	-59	-20	-54	7	8	10	7	70	0	0	0	0	4	4	2	2	0	4
Hungry_Donkey_bar_English_2	110	1	<?xml version="1.0"?>\n<Clock xmlns:dt="urn:schemas-microsoft-com:datatypes"><Description dt:dt="string">E-Prime Primary Realtime Clock</Description><StartTime><Timestamp dt:dt="int">0</Timestamp><DateUtc dt:dt="string">2015-06-17T20:50:52Z</DateUtc></StartTime><FrequencyChanges><FrequencyChange><Frequency dt:dt="r8">3507685</Frequency><Timestamp dt:dt="r8">53664923883</Timestamp><Current dt:dt="r8">0</Current><DateUtc dt:dt="string">2015-06-17T20:50:52Z</DateUtc></FrequencyChange></FrequencyChanges></Clock>\n	Hungry_Donkey_bar_English_2-110-1	60.017	-144	1.0.0.18	1	2125542250	Standard	2.0.10.353	2.0.10.353	06-17-2015	6/17/2015 8:50:52 PM	16:50:52	2.0.10.248	71	Bar50-50.bmp	44	2	?	0r_4g.bmp	0r_4g.bmp	0r_2g.bmp	0r_2g.bmp		0r_4g.bmp			TrialProc	TrialList	0	cvbn	-999999	16	277115	0	v	73	277188	218	-273	-55	-20	-50	7	8	10	8	71	0	0	0	0	4	4	2	2	0	4
Hungry_Donkey_bar_English_2	110	1	<?xml version="1.0"?>\n<Clock xmlns:dt="urn:schemas-microsoft-com:datatypes"><Description dt:dt="string">E-Prime Primary Realtime Clock</Description><StartTime><Timestamp dt:dt="int">0</Timestamp><DateUtc dt:dt="string">2015-06-17T20:50:52Z</DateUtc></StartTime><FrequencyChanges><FrequencyChange><Frequency dt:dt="r8">3507685</Frequency><Timestamp dt:dt="r8">53664923883</Timestamp><Current dt:dt="r8">0</Current><DateUtc dt:dt="string">2015-06-17T20:50:52Z</DateUtc></FrequencyChange></FrequencyChanges></Clock>\n	Hungry_Donkey_bar_English_2-110-1	60.017	-144	1.0.0.18	1	2125542250	Standard	2.0.10.353	2.0.10.353	06-17-2015	6/17/2015 8:50:52 PM	16:50:52	2.0.10.248	72	Bar50-50.bmp	45	1	?	0r_4g.bmp	0r_4g.bmp	0r_2g.bmp	0r_2g.bmp	0r_4g.bmp				TrialProc	TrialList	0	cvbn	-999999	17	279215	0	c	341	279556	222	-273	-51	-16	-50	7	8	7	8	72	0	0	0	0	4	4	2	2	0	4
Hungry_Donkey_bar_English_2	110	1	<?xml version="1.0"?>\n<Clock xmlns:dt="urn:schemas-microsoft-com:datatypes"><Description dt:dt="string">E-Prime Primary Realtime Clock</Description><StartTime><Timestamp dt:dt="int">0</Timestamp><DateUtc dt:dt="string">2015-06-17T20:50:52Z</DateUtc></StartTime><FrequencyChanges><FrequencyChange><Frequency dt:dt="r8">3507685</Frequency><Timestamp dt:dt="r8">53664923883</Timestamp><Current dt:dt="r8">0</Current><DateUtc dt:dt="string">2015-06-17T20:50:52Z</DateUtc></FrequencyChange></FrequencyChanges></Clock>\n	Hungry_Donkey_bar_English_2-110-1	60.017	-144	1.0.0.18	1	2125542250	Standard	2.0.10.353	2.0.10.353	06-17-2015	6/17/2015 8:50:52 PM	16:50:52	2.0.10.248	73	Bar50-50.bmp	45	4	?	10r_4g.bmp	0r_4g.bmp	2r_2g.bmp	0r_2g.bmp				0r_2g.bmp	TrialProc	TrialList	0	cvbn	-999999	17	281581	0	n	951	282532	224	-273	-49	-16	-50	7	10	4	8	73	-10	0	-2	0	4	4	2	2	0	2
Hungry_Donkey_bar_English_2	110	1	<?xml version="1.0"?>\n<Clock xmlns:dt="urn:schemas-microsoft-com:datatypes"><Description dt:dt="string">E-Prime Primary Realtime Clock</Description><StartTime><Timestamp dt:dt="int">0</Timestamp><DateUtc dt:dt="string">2015-06-17T20:50:52Z</DateUtc></StartTime><FrequencyChanges><FrequencyChange><Frequency dt:dt="r8">3507685</Frequency><Timestamp dt:dt="r8">53664923883</Timestamp><Current dt:dt="r8">0</Current><DateUtc dt:dt="string">2015-06-17T20:50:52Z</DateUtc></FrequencyChange></FrequencyChanges></Clock>\n	Hungry_Donkey_bar_English_2-110-1	60.017	-144	1.0.0.18	1	2125542250	Standard	2.0.10.353	2.0.10.353	06-17-2015	6/17/2015 8:50:52 PM	16:50:52	2.0.10.248	74	Bar50-50.bmp	46	2	?	0r_4g.bmp	0r_4g.bmp	0r_2g.bmp	0r_2g.bmp		0r_4g.bmp			TrialProc	TrialList	0	cvbn	-999999	16	284563	0	v	16	284579	228	-273	-45	-16	-46	7	10	8	8	74	0	0	0	0	4	4	2	2	0	4
Hungry_Donkey_bar_English_2	110	1	<?xml version="1.0"?>\n<Clock xmlns:dt="urn:schemas-microsoft-com:datatypes"><Description dt:dt="string">E-Prime Primary Realtime Clock</Description><StartTime><Timestamp dt:dt="int">0</Timestamp><DateUtc dt:dt="string">2015-06-17T20:50:52Z</DateUtc></StartTime><FrequencyChanges><FrequencyChange><Frequency dt:dt="r8">3507685</Frequency><Timestamp dt:dt="r8">53664923883</Timestamp><Current dt:dt="r8">0</Current><DateUtc dt:dt="string">2015-06-17T20:50:52Z</DateUtc></FrequencyChange></FrequencyChanges></Clock>\n	Hungry_Donkey_bar_English_2-110-1	60.017	-144	1.0.0.18	1	2125542250	Standard	2.0.10.353	2.0.10.353	06-17-2015	6/17/2015 8:50:52 PM	16:50:52	2.0.10.248	75	Bar50-50.bmp	46	1	?	0r_4g.bmp	0r_4g.bmp	0r_2g.bmp	0r_2g.bmp	0r_4g.bmp				TrialProc	TrialList	0	cvbn	-999999	16	286612	0	c	655	287267	232	-273	-41	-12	-46	7	10	6	8	75	0	0	0	0	4	4	2	2	0	4
Hungry_Donkey_bar_English_2	110	1	<?xml version="1.0"?>\n<Clock xmlns:dt="urn:schemas-microsoft-com:datatypes"><Description dt:dt="string">E-Prime Primary Realtime Clock</Description><StartTime><Timestamp dt:dt="int">0</Timestamp><DateUtc dt:dt="string">2015-06-17T20:50:52Z</DateUtc></StartTime><FrequencyChanges><FrequencyChange><Frequency dt:dt="r8">3507685</Frequency><Timestamp dt:dt="r8">53664923883</Timestamp><Current dt:dt="r8">0</Current><DateUtc dt:dt="string">2015-06-17T20:50:52Z</DateUtc></FrequencyChange></FrequencyChanges></Clock>\n	Hungry_Donkey_bar_English_2-110-1	60.017	-144	1.0.0.18	1	2125542250	Standard	2.0.10.353	2.0.10.353	06-17-2015	6/17/2015 8:50:52 PM	16:50:52	2.0.10.248	76	Bar50-50.bmp	46	2	?	10r_4g.bmp	0r_4g.bmp	2r_2g.bmp	0r_2g.bmp		0r_4g.bmp			TrialProc	TrialList	0	cvbn	-999999	16	289295	0	v	276	289571	236	-273	-37	-12	-42	7	10	2	8	76	-10	0	-2	0	4	4	2	2	0	4
Hungry_Donkey_bar_English_2	110	1	<?xml version="1.0"?>\n<Clock xmlns:dt="urn:schemas-microsoft-com:datatypes"><Description dt:dt="string">E-Prime Primary Realtime Clock</Description><StartTime><Timestamp dt:dt="int">0</Timestamp><DateUtc dt:dt="string">2015-06-17T20:50:52Z</DateUtc></StartTime><FrequencyChanges><FrequencyChange><Frequency dt:dt="r8">3507685</Frequency><Timestamp dt:dt="r8">53664923883</Timestamp><Current dt:dt="r8">0</Current><DateUtc dt:dt="string">2015-06-17T20:50:52Z</DateUtc></FrequencyChange></FrequencyChanges></Clock>\n	Hungry_Donkey_bar_English_2-110-1	60.017	-144	1.0.0.18	1	2125542250	Standard	2.0.10.353	2.0.10.353	06-17-2015	6/17/2015 8:50:52 PM	16:50:52	2.0.10.248	77	Bar50-50.bmp	46	4	?	8r_4g.bmp	50r_4g.bmp	1r_2g.bmp	10r_2g.bmp				10r_2g.bmp	TrialProc	TrialList	0	cvbn	-999999	16	291594	0	n	185	291779	238	-283	-45	-12	-42	7	2	1	8	77	-8	-50	-1	-10	4	4	2	2	-10	2
Hungry_Donkey_bar_English_2	110	1	<?xml version="1.0"?>\n<Clock xmlns:dt="urn:schemas-microsoft-com:datatypes"><Description dt:dt="string">E-Prime Primary Realtime Clock</Description><StartTime><Timestamp dt:dt="int">0</Timestamp><DateUtc dt:dt="string">2015-06-17T20:50:52Z</DateUtc></StartTime><FrequencyChanges><FrequencyChange><Frequency dt:dt="r8">3507685</Frequency><Timestamp dt:dt="r8">53664923883</Timestamp><Current dt:dt="r8">0</Current><DateUtc dt:dt="string">2015-06-17T20:50:52Z</DateUtc></FrequencyChange></FrequencyChanges></Clock>\n	Hungry_Donkey_bar_English_2-110-1	60.017	-144	1.0.0.18	1	2125542250	Standard	2.0.10.353	2.0.10.353	06-17-2015	6/17/2015 8:50:52 PM	16:50:52	2.0.10.248	78	Bar50-50.bmp	46	1	?	0r_4g.bmp	0r_4g.bmp	0r_2g.bmp	0r_2g.bmp	0r_4g.bmp				TrialProc	TrialList	0	cvbn	-999999	16	293810	0	c	97	293907	242	-283	-41	-8	-42	7	2	9	8	78	0	0	0	0	4	4	2	2	0	4
Hungry_Donkey_bar_English_2	110	1	<?xml version="1.0"?>\n<Clock xmlns:dt="urn:schemas-microsoft-com:datatypes"><Description dt:dt="string">E-Prime Primary Realtime Clock</Description><StartTime><Timestamp dt:dt="int">0</Timestamp><DateUtc dt:dt="string">2015-06-17T20:50:52Z</DateUtc></StartTime><FrequencyChanges><FrequencyChange><Frequency dt:dt="r8">3507685</Frequency><Timestamp dt:dt="r8">53664923883</Timestamp><Current dt:dt="r8">0</Current><DateUtc dt:dt="string">2015-06-17T20:50:52Z</DateUtc></FrequencyChange></FrequencyChanges></Clock>\n	Hungry_Donkey_bar_English_2-110-1	60.017	-144	1.0.0.18	1	2125542250	Standard	2.0.10.353	2.0.10.353	06-17-2015	6/17/2015 8:50:52 PM	16:50:52	2.0.10.248	79	Bar50-50.bmp	47	2	?	12r_4g.bmp	0r_4g.bmp	3r_2g.bmp	0r_2g.bmp		0r_4g.bmp			TrialProc	TrialList	0	cvbn	-999999	16	295943	0	v	44	295987	246	-283	-37	-8	-38	7	2	5	8	79	-12	0	-3	0	4	4	2	2	0	4
Hungry_Donkey_bar_English_2	110	1	<?xml version="1.0"?>\n<Clock xmlns:dt="urn:schemas-microsoft-com:datatypes"><Description dt:dt="string">E-Prime Primary Realtime Clock</Description><StartTime><Timestamp dt:dt="int">0</Timestamp><DateUtc dt:dt="string">2015-06-17T20:50:52Z</DateUtc></StartTime><FrequencyChanges><FrequencyChange><Frequency dt:dt="r8">3507685</Frequency><Timestamp dt:dt="r8">53664923883</Timestamp><Current dt:dt="r8">0</Current><DateUtc dt:dt="string">2015-06-17T20:50:52Z</DateUtc></FrequencyChange></FrequencyChanges></Clock>\n	Hungry_Donkey_bar_English_2-110-1	60.017	-144	1.0.0.18	1	2125542250	Standard	2.0.10.353	2.0.10.353	06-17-2015	6/17/2015 8:50:52 PM	16:50:52	2.0.10.248	80	Bar50-50.bmp	46	1	?	10r_4g.bmp	0r_4g.bmp	2r_2g.bmp	0r_2g.bmp	10r_4g.bmp				TrialProc	TrialList	0	cvbn	-999999	16	298026	0	c	409	298435	250	-293	-43	-14	-38	7	2	3	8	80	-10	0	-2	0	4	4	2	2	-10	4
Hungry_Donkey_bar_English_2	110	1	<?xml version="1.0"?>\n<Clock xmlns:dt="urn:schemas-microsoft-com:datatypes"><Description dt:dt="string">E-Prime Primary Realtime Clock</Description><StartTime><Timestamp dt:dt="int">0</Timestamp><DateUtc dt:dt="string">2015-06-17T20:50:52Z</DateUtc></StartTime><FrequencyChanges><FrequencyChange><Frequency dt:dt="r8">3507685</Frequency><Timestamp dt:dt="r8">53664923883</Timestamp><Current dt:dt="r8">0</Current><DateUtc dt:dt="string">2015-06-17T20:50:52Z</DateUtc></FrequencyChange></FrequencyChanges></Clock>\n	Hungry_Donkey_bar_English_2-110-1	60.017	-144	1.0.0.18	1	2125542250	Standard	2.0.10.353	2.0.10.353	06-17-2015	6/17/2015 8:50:52 PM	16:50:52	2.0.10.248	81	Bar50-50.bmp	46	2	?	12r_4g.bmp	0r_4g.bmp	3r_2g.bmp	0r_2g.bmp		0r_4g.bmp			TrialProc	TrialList	0	cvbn	-999999	16	300458	0	v	393	300851	254	-293	-39	-14	-34	7	2	5	9	81	-12	0	-3	0	4	4	2	2	0	4
Hungry_Donkey_bar_English_2	110	1	<?xml version="1.0"?>\n<Clock xmlns:dt="urn:schemas-microsoft-com:datatypes"><Description dt:dt="string">E-Prime Primary Realtime Clock</Description><StartTime><Timestamp dt:dt="int">0</Timestamp><DateUtc dt:dt="string">2015-06-17T20:50:52Z</DateUtc></StartTime><FrequencyChanges><FrequencyChange><Frequency dt:dt="r8">3507685</Frequency><Timestamp dt:dt="r8">53664923883</Timestamp><Current dt:dt="r8">0</Current><DateUtc dt:dt="string">2015-06-17T20:50:52Z</DateUtc></FrequencyChange></FrequencyChanges></Clock>\n	Hungry_Donkey_bar_English_2-110-1	60.017	-144	1.0.0.18	1	2125542250	Standard	2.0.10.353	2.0.10.353	06-17-2015	6/17/2015 8:50:52 PM	16:50:52	2.0.10.248	82	Bar50-50.bmp	47	4	?	0r_4g.bmp	0r_4g.bmp	0r_2g.bmp	0r_2g.bmp				0r_2g.bmp	TrialProc	TrialList	0	cvbn	-999999	15	302874	0	n	328	303202	256	-293	-37	-14	-34	7	4	7	9	82	0	0	0	0	4	4	2	2	0	2
Hungry_Donkey_bar_English_2	110	1	<?xml version="1.0"?>\n<Clock xmlns:dt="urn:schemas-microsoft-com:datatypes"><Description dt:dt="string">E-Prime Primary Realtime Clock</Description><StartTime><Timestamp dt:dt="int">0</Timestamp><DateUtc dt:dt="string">2015-06-17T20:50:52Z</DateUtc></StartTime><FrequencyChanges><FrequencyChange><Frequency dt:dt="r8">3507685</Frequency><Timestamp dt:dt="r8">53664923883</Timestamp><Current dt:dt="r8">0</Current><DateUtc dt:dt="string">2015-06-17T20:50:52Z</DateUtc></FrequencyChange></FrequencyChanges></Clock>\n	Hungry_Donkey_bar_English_2-110-1	60.017	-144	1.0.0.18	1	2125542250	Standard	2.0.10.353	2.0.10.353	06-17-2015	6/17/2015 8:50:52 PM	16:50:52	2.0.10.248	83	Bar50-50.bmp	47	2	?	0r_4g.bmp	0r_4g.bmp	0r_2g.bmp	0r_2g.bmp		0r_4g.bmp			TrialProc	TrialList	0	cvbn	-999999	16	305240	0	v	42	305282	260	-293	-33	-14	-30	7	4	8	9	83	0	0	0	0	4	4	2	2	0	4
Hungry_Donkey_bar_English_2	110	1	<?xml version="1.0"?>\n<Clock xmlns:dt="urn:schemas-microsoft-com:datatypes"><Description dt:dt="string">E-Prime Primary Realtime Clock</Description><StartTime><Timestamp dt:dt="int">0</Timestamp><DateUtc dt:dt="string">2015-06-17T20:50:52Z</DateUtc></StartTime><FrequencyChanges><FrequencyChange><Frequency dt:dt="r8">3507685</Frequency><Timestamp dt:dt="r8">53664923883</Timestamp><Current dt:dt="r8">0</Current><DateUtc dt:dt="string">2015-06-17T20:50:52Z</DateUtc></FrequencyChange></FrequencyChanges></Clock>\n	Hungry_Donkey_bar_English_2-110-1	60.017	-144	1.0.0.18	1	2125542250	Standard	2.0.10.353	2.0.10.353	06-17-2015	6/17/2015 8:50:52 PM	16:50:52	2.0.10.248	84	Bar50-50.bmp	47	1	?	0r_4g.bmp	0r_4g.bmp	0r_2g.bmp	0r_2g.bmp	0r_4g.bmp				TrialProc	TrialList	0	cvbn	-999999	15	307306	0	c	88	307394	264	-293	-29	-10	-30	7	4	10	9	84	0	0	0	0	4	4	2	2	0	4
Hungry_Donkey_bar_English_2	110	1	<?xml version="1.0"?>\n<Clock xmlns:dt="urn:schemas-microsoft-com:datatypes"><Description dt:dt="string">E-Prime Primary Realtime Clock</Description><StartTime><Timestamp dt:dt="int">0</Timestamp><DateUtc dt:dt="string">2015-06-17T20:50:52Z</DateUtc></StartTime><FrequencyChanges><FrequencyChange><Frequency dt:dt="r8">3507685</Frequency><Timestamp dt:dt="r8">53664923883</Timestamp><Current dt:dt="r8">0</Current><DateUtc dt:dt="string">2015-06-17T20:50:52Z</DateUtc></FrequencyChange></FrequencyChanges></Clock>\n	Hungry_Donkey_bar_English_2-110-1	60.017	-144	1.0.0.18	1	2125542250	Standard	2.0.10.353	2.0.10.353	06-17-2015	6/17/2015 8:50:52 PM	16:50:52	2.0.10.248	85	Bar50-50.bmp	47	4	?	8r_4g.bmp	50r_4g.bmp	1r_2g.bmp	10r_2g.bmp				10r_2g.bmp	TrialProc	TrialList	0	cvbn	-999999	16	309422	0	n	148	309570	266	-303	-37	-10	-30	7	-4	1	9	85	-8	-50	-1	-10	4	4	2	2	-10	2
Hungry_Donkey_bar_English_2	110	1	<?xml version="1.0"?>\n<Clock xmlns:dt="urn:schemas-microsoft-com:datatypes"><Description dt:dt="string">E-Prime Primary Realtime Clock</Description><StartTime><Timestamp dt:dt="int">0</Timestamp><DateUtc dt:dt="string">2015-06-17T20:50:52Z</DateUtc></StartTime><FrequencyChanges><FrequencyChange><Frequency dt:dt="r8">3507685</Frequency><Timestamp dt:dt="r8">53664923883</Timestamp><Current dt:dt="r8">0</Current><DateUtc dt:dt="string">2015-06-17T20:50:52Z</DateUtc></FrequencyChange></FrequencyChanges></Clock>\n	Hungry_Donkey_bar_English_2-110-1	60.017	-144	1.0.0.18	1	2125542250	Standard	2.0.10.353	2.0.10.353	06-17-2015	6/17/2015 8:50:52 PM	16:50:52	2.0.10.248	86	Bar50-50.bmp	47	2	?	10r_4g.bmp	0r_4g.bmp	2r_2g.bmp	0r_2g.bmp		0r_4g.bmp			TrialProc	TrialList	0	cvbn	-999999	16	311605	0	v	285	311890	270	-303	-33	-10	-26	7	-4	4	9	86	-10	0	-2	0	4	4	2	2	0	4
Hungry_Donkey_bar_English_2	110	1	<?xml version="1.0"?>\n<Clock xmlns:dt="urn:schemas-microsoft-com:datatypes"><Description dt:dt="string">E-Prime Primary Realtime Clock</Description><StartTime><Timestamp dt:dt="int">0</Timestamp><DateUtc dt:dt="string">2015-06-17T20:50:52Z</DateUtc></StartTime><FrequencyChanges><FrequencyChange><Frequency dt:dt="r8">3507685</Frequency><Timestamp dt:dt="r8">53664923883</Timestamp><Current dt:dt="r8">0</Current><DateUtc dt:dt="string">2015-06-17T20:50:52Z</DateUtc></FrequencyChange></FrequencyChanges></Clock>\n	Hungry_Donkey_bar_English_2-110-1	60.017	-144	1.0.0.18	1	2125542250	Standard	2.0.10.353	2.0.10.353	06-17-2015	6/17/2015 8:50:52 PM	16:50:52	2.0.10.248	87	Bar50-50.bmp	47	1	?	0r_4g.bmp	0r_4g.bmp	0r_2g.bmp	0r_2g.bmp	0r_4g.bmp				TrialProc	TrialList	0	cvbn	-999999	16	313921	0	c	81	314002	274	-303	-29	-6	-26	7	-4	9	9	87	0	0	0	0	4	4	2	2	0	4
Hungry_Donkey_bar_English_2	110	1	<?xml version="1.0"?>\n<Clock xmlns:dt="urn:schemas-microsoft-com:datatypes"><Description dt:dt="string">E-Prime Primary Realtime Clock</Description><StartTime><Timestamp dt:dt="int">0</Timestamp><DateUtc dt:dt="string">2015-06-17T20:50:52Z</DateUtc></StartTime><FrequencyChanges><FrequencyChange><Frequency dt:dt="r8">3507685</Frequency><Timestamp dt:dt="r8">53664923883</Timestamp><Current dt:dt="r8">0</Current><DateUtc dt:dt="string">2015-06-17T20:50:52Z</DateUtc></FrequencyChange></FrequencyChanges></Clock>\n	Hungry_Donkey_bar_English_2-110-1	60.017	-144	1.0.0.18	1	2125542250	Standard	2.0.10.353	2.0.10.353	06-17-2015	6/17/2015 8:50:52 PM	16:50:52	2.0.10.248	88	Bar50-50.bmp	48	4	?	10r_4g.bmp	0r_4g.bmp	2r_2g.bmp	0r_2g.bmp				0r_2g.bmp	TrialProc	TrialList	0	cvbn	-999999	16	316037	0	n	141	316178	276	-303	-27	-6	-26	7	-2	2	9	88	-10	0	-2	0	4	4	2	2	0	2
Hungry_Donkey_bar_English_2	110	1	<?xml version="1.0"?>\n<Clock xmlns:dt="urn:schemas-microsoft-com:datatypes"><Description dt:dt="string">E-Prime Primary Realtime Clock</Description><StartTime><Timestamp dt:dt="int">0</Timestamp><DateUtc dt:dt="string">2015-06-17T20:50:52Z</DateUtc></StartTime><FrequencyChanges><FrequencyChange><Frequency dt:dt="r8">3507685</Frequency><Timestamp dt:dt="r8">53664923883</Timestamp><Current dt:dt="r8">0</Current><DateUtc dt:dt="string">2015-06-17T20:50:52Z</DateUtc></FrequencyChange></FrequencyChanges></Clock>\n	Hungry_Donkey_bar_English_2-110-1	60.017	-144	1.0.0.18	1	2125542250	Standard	2.0.10.353	2.0.10.353	06-17-2015	6/17/2015 8:50:52 PM	16:50:52	2.0.10.248	89	Bar50-50.bmp	48	2	?	0r_4g.bmp	0r_4g.bmp	0r_2g.bmp	0r_2g.bmp		0r_4g.bmp			TrialProc	TrialList	0	cvbn	-999999	16	318203	0	v	279	318482	280	-303	-23	-6	-22	7	-2	6	9	89	0	0	0	0	4	4	2	2	0	4
Hungry_Donkey_bar_English_2	110	1	<?xml version="1.0"?>\n<Clock xmlns:dt="urn:schemas-microsoft-com:datatypes"><Description dt:dt="string">E-Prime Primary Realtime Clock</Description><StartTime><Timestamp dt:dt="int">0</Timestamp><DateUtc dt:dt="string">2015-06-17T20:50:52Z</DateUtc></StartTime><FrequencyChanges><FrequencyChange><Frequency dt:dt="r8">3507685</Frequency><Timestamp dt:dt="r8">53664923883</Timestamp><Current dt:dt="r8">0</Current><DateUtc dt:dt="string">2015-06-17T20:50:52Z</DateUtc></FrequencyChange></FrequencyChanges></Clock>\n	Hungry_Donkey_bar_English_2-110-1	60.017	-144	1.0.0.18	1	2125542250	Standard	2.0.10.353	2.0.10.353	06-17-2015	6/17/2015 8:50:52 PM	16:50:52	2.0.10.248	90	Bar50-50.bmp	48	1	?	10r_4g.bmp	0r_4g.bmp	2r_2g.bmp	0r_2g.bmp	10r_4g.bmp				TrialProc	TrialList	0	cvbn	-999999	16	320519	0	c	347	320866	284	-313	-29	-12	-22	7	-2	3	9	90	-10	0	-2	0	4	4	2	2	-10	4
Hungry_Donkey_bar_English_2	110	1	<?xml version="1.0"?>\n<Clock xmlns:dt="urn:schemas-microsoft-com:datatypes"><Description dt:dt="string">E-Prime Primary Realtime Clock</Description><StartTime><Timestamp dt:dt="int">0</Timestamp><DateUtc dt:dt="string">2015-06-17T20:50:52Z</DateUtc></StartTime><FrequencyChanges><FrequencyChange><Frequency dt:dt="r8">3507685</Frequency><Timestamp dt:dt="r8">53664923883</Timestamp><Current dt:dt="r8">0</Current><DateUtc dt:dt="string">2015-06-17T20:50:52Z</DateUtc></FrequencyChange></FrequencyChanges></Clock>\n	Hungry_Donkey_bar_English_2-110-1	60.017	-144	1.0.0.18	1	2125542250	Standard	2.0.10.353	2.0.10.353	06-17-2015	6/17/2015 8:50:52 PM	16:50:52	2.0.10.248	91	Bar50-50.bmp	48	2	?	0r_4g.bmp	0r_4g.bmp	0r_2g.bmp	0r_2g.bmp		0r_4g.bmp			TrialProc	TrialList	0	cvbn	-999999	16	322902	0	v	379	323281	288	-313	-25	-12	-18	7	-2	6	10	91	0	0	0	0	4	4	2	2	0	4
Hungry_Donkey_bar_English_2	110	1	<?xml version="1.0"?>\n<Clock xmlns:dt="urn:schemas-microsoft-com:datatypes"><Description dt:dt="string">E-Prime Primary Realtime Clock</Description><StartTime><Timestamp dt:dt="int">0</Timestamp><DateUtc dt:dt="string">2015-06-17T20:50:52Z</DateUtc></StartTime><FrequencyChanges><FrequencyChange><Frequency dt:dt="r8">3507685</Frequency><Timestamp dt:dt="r8">53664923883</Timestamp><Current dt:dt="r8">0</Current><DateUtc dt:dt="string">2015-06-17T20:50:52Z</DateUtc></FrequencyChange></FrequencyChanges></Clock>\n	Hungry_Donkey_bar_English_2-110-1	60.017	-144	1.0.0.18	1	2125542250	Standard	2.0.10.353	2.0.10.353	06-17-2015	6/17/2015 8:50:52 PM	16:50:52	2.0.10.248	92	Bar50-50.bmp	48	4	?	0r_4g.bmp	0r_4g.bmp	0r_2g.bmp	0r_2g.bmp				0r_2g.bmp	TrialProc	TrialList	0	cvbn	-999999	16	325318	0	n	27	325345	290	-313	-23	-12	-18	7	0	9	10	92	0	0	0	0	4	4	2	2	0	2
Hungry_Donkey_bar_English_2	110	1	<?xml version="1.0"?>\n<Clock xmlns:dt="urn:schemas-microsoft-com:datatypes"><Description dt:dt="string">E-Prime Primary Realtime Clock</Description><StartTime><Timestamp dt:dt="int">0</Timestamp><DateUtc dt:dt="string">2015-06-17T20:50:52Z</DateUtc></StartTime><FrequencyChanges><FrequencyChange><Frequency dt:dt="r8">3507685</Frequency><Timestamp dt:dt="r8">53664923883</Timestamp><Current dt:dt="r8">0</Current><DateUtc dt:dt="string">2015-06-17T20:50:52Z</DateUtc></FrequencyChange></FrequencyChanges></Clock>\n	Hungry_Donkey_bar_English_2-110-1	60.017	-144	1.0.0.18	1	2125542250	Standard	2.0.10.353	2.0.10.353	06-17-2015	6/17/2015 8:50:52 PM	16:50:52	2.0.10.248	93	Bar50-50.bmp	48	2	?	10r_4g.bmp	0r_4g.bmp	2r_2g.bmp	0r_2g.bmp		0r_4g.bmp			TrialProc	TrialList	0	cvbn	-999999	16	327384	0	v	505	327889	294	-313	-19	-12	-14	7	0	3	10	93	-10	0	-2	0	4	4	2	2	0	4
Hungry_Donkey_bar_English_2	110	1	<?xml version="1.0"?>\n<Clock xmlns:dt="urn:schemas-microsoft-com:datatypes"><Description dt:dt="string">E-Prime Primary Realtime Clock</Description><StartTime><Timestamp dt:dt="int">0</Timestamp><DateUtc dt:dt="string">2015-06-17T20:50:52Z</DateUtc></StartTime><FrequencyChanges><FrequencyChange><Frequency dt:dt="r8">3507685</Frequency><Timestamp dt:dt="r8">53664923883</Timestamp><Current dt:dt="r8">0</Current><DateUtc dt:dt="string">2015-06-17T20:50:52Z</DateUtc></FrequencyChange></FrequencyChanges></Clock>\n	Hungry_Donkey_bar_English_2-110-1	60.017	-144	1.0.0.18	1	2125542250	Standard	2.0.10.353	2.0.10.353	06-17-2015	6/17/2015 8:50:52 PM	16:50:52	2.0.10.248	94	Bar50-50.bmp	48	1	?	10r_4g.bmp	0r_4g.bmp	2r_2g.bmp	0r_2g.bmp	10r_4g.bmp				TrialProc	TrialList	0	cvbn	-999999	17	329917	0	c	308	330225	298	-323	-25	-18	-14	7	0	2	10	94	-10	0	-2	0	4	4	2	2	-10	4
Hungry_Donkey_bar_English_2	110	1	<?xml version="1.0"?>\n<Clock xmlns:dt="urn:schemas-microsoft-com:datatypes"><Description dt:dt="string">E-Prime Primary Realtime Clock</Description><StartTime><Timestamp dt:dt="int">0</Timestamp><DateUtc dt:dt="string">2015-06-17T20:50:52Z</DateUtc></StartTime><FrequencyChanges><FrequencyChange><Frequency dt:dt="r8">3507685</Frequency><Timestamp dt:dt="r8">53664923883</Timestamp><Current dt:dt="r8">0</Current><DateUtc dt:dt="string">2015-06-17T20:50:52Z</DateUtc></FrequencyChange></FrequencyChanges></Clock>\n	Hungry_Donkey_bar_English_2-110-1	60.017	-144	1.0.0.18	1	2125542250	Standard	2.0.10.353	2.0.10.353	06-17-2015	6/17/2015 8:50:52 PM	16:50:52	2.0.10.248	95	Bar50-50.bmp	48	2	?	0r_4g.bmp	0r_4g.bmp	0r_2g.bmp	0r_2g.bmp		0r_4g.bmp			TrialProc	TrialList	0	cvbn	-999999	16	332266	0	v	279	332545	302	-323	-21	-18	-10	7	0	8	10	95	0	0	0	0	4	4	2	2	0	4
Hungry_Donkey_bar_English_2	110	1	<?xml version="1.0"?>\n<Clock xmlns:dt="urn:schemas-microsoft-com:datatypes"><Description dt:dt="string">E-Prime Primary Realtime Clock</Description><StartTime><Timestamp dt:dt="int">0</Timestamp><DateUtc dt:dt="string">2015-06-17T20:50:52Z</DateUtc></StartTime><FrequencyChanges><FrequencyChange><Frequency dt:dt="r8">3507685</Frequency><Timestamp dt:dt="r8">53664923883</Timestamp><Current dt:dt="r8">0</Current><DateUtc dt:dt="string">2015-06-17T20:50:52Z</DateUtc></FrequencyChange></FrequencyChanges></Clock>\n	Hungry_Donkey_bar_English_2-110-1	60.017	-144	1.0.0.18	1	2125542250	Standard	2.0.10.353	2.0.10.353	06-17-2015	6/17/2015 8:50:52 PM	16:50:52	2.0.10.248	96	Bar50-50.bmp	48	4	?	8r_4g.bmp	50r_4g.bmp	1r_2g.bmp	10r_2g.bmp				10r_2g.bmp	TrialProc	TrialList	0	cvbn	-999999	16	334582	0	n	331	334913	304	-333	-29	-18	-10	7	-8	1	10	96	-8	-50	-1	-10	4	4	2	2	-10	2
Hungry_Donkey_bar_English_2	110	1	<?xml version="1.0"?>\n<Clock xmlns:dt="urn:schemas-microsoft-com:datatypes"><Description dt:dt="string">E-Prime Primary Realtime Clock</Description><StartTime><Timestamp dt:dt="int">0</Timestamp><DateUtc dt:dt="string">2015-06-17T20:50:52Z</DateUtc></StartTime><FrequencyChanges><FrequencyChange><Frequency dt:dt="r8">3507685</Frequency><Timestamp dt:dt="r8">53664923883</Timestamp><Current dt:dt="r8">0</Current><DateUtc dt:dt="string">2015-06-17T20:50:52Z</DateUtc></FrequencyChange></FrequencyChanges></Clock>\n	Hungry_Donkey_bar_English_2-110-1	60.017	-144	1.0.0.18	1	2125542250	Standard	2.0.10.353	2.0.10.353	06-17-2015	6/17/2015 8:50:52 PM	16:50:52	2.0.10.248	97	Bar50-50.bmp	48	2	?	0r_4g.bmp	0r_4g.bmp	0r_2g.bmp	0r_2g.bmp		0r_4g.bmp			TrialProc	TrialList	0	cvbn	-999999	16	336948	0	v	173	337121	308	-333	-25	-18	-6	7	-8	10	10	97	0	0	0	0	4	4	2	2	0	4
Hungry_Donkey_bar_English_2	110	1	<?xml version="1.0"?>\n<Clock xmlns:dt="urn:schemas-microsoft-com:datatypes"><Description dt:dt="string">E-Prime Primary Realtime Clock</Description><StartTime><Timestamp dt:dt="int">0</Timestamp><DateUtc dt:dt="string">2015-06-17T20:50:52Z</DateUtc></StartTime><FrequencyChanges><FrequencyChange><Frequency dt:dt="r8">3507685</Frequency><Timestamp dt:dt="r8">53664923883</Timestamp><Current dt:dt="r8">0</Current><DateUtc dt:dt="string">2015-06-17T20:50:52Z</DateUtc></FrequencyChange></FrequencyChanges></Clock>\n	Hungry_Donkey_bar_English_2-110-1	60.017	-144	1.0.0.18	1	2125542250	Standard	2.0.10.353	2.0.10.353	06-17-2015	6/17/2015 8:50:52 PM	16:50:52	2.0.10.248	98	Bar50-50.bmp	48	2	?	0r_4g.bmp	0r_4g.bmp	0r_2g.bmp	0r_2g.bmp		0r_4g.bmp			TrialProc	TrialList	0	cvbn	-999999	16	339147	0	v	294	339441	312	-333	-21	-18	-2	7	-8	7	10	98	0	0	0	0	4	4	2	2	0	4
Hungry_Donkey_bar_English_2	110	1	<?xml version="1.0"?>\n<Clock xmlns:dt="urn:schemas-microsoft-com:datatypes"><Description dt:dt="string">E-Prime Primary Realtime Clock</Description><StartTime><Timestamp dt:dt="int">0</Timestamp><DateUtc dt:dt="string">2015-06-17T20:50:52Z</DateUtc></StartTime><FrequencyChanges><FrequencyChange><Frequency dt:dt="r8">3507685</Frequency><Timestamp dt:dt="r8">53664923883</Timestamp><Current dt:dt="r8">0</Current><DateUtc dt:dt="string">2015-06-17T20:50:52Z</DateUtc></FrequencyChange></FrequencyChanges></Clock>\n	Hungry_Donkey_bar_English_2-110-1	60.017	-144	1.0.0.18	1	2125542250	Standard	2.0.10.353	2.0.10.353	06-17-2015	6/17/2015 8:50:52 PM	16:50:52	2.0.10.248	99	Bar50-50.bmp	48	1	?	10r_4g.bmp	0r_4g.bmp	2r_2g.bmp	0r_2g.bmp	10r_4g.bmp				TrialProc	TrialList	0	cvbn	-999999	16	341480	0	c	377	341857	316	-343	-27	-24	-2	7	-8	4	10	99	-10	0	-2	0	4	4	2	2	-10	4
Hungry_Donkey_bar_English_2	110	1	<?xml version="1.0"?>\n<Clock xmlns:dt="urn:schemas-microsoft-com:datatypes"><Description dt:dt="string">E-Prime Primary Realtime Clock</Description><StartTime><Timestamp dt:dt="int">0</Timestamp><DateUtc dt:dt="string">2015-06-17T20:50:52Z</DateUtc></StartTime><FrequencyChanges><FrequencyChange><Frequency dt:dt="r8">3507685</Frequency><Timestamp dt:dt="r8">53664923883</Timestamp><Current dt:dt="r8">0</Current><DateUtc dt:dt="string">2015-06-17T20:50:52Z</DateUtc></FrequencyChange></FrequencyChanges></Clock>\n	Hungry_Donkey_bar_English_2-110-1	60.017	-144	1.0.0.18	1	2125542250	Standard	2.0.10.353	2.0.10.353	06-17-2015	6/17/2015 8:50:52 PM	16:50:52	2.0.10.248	100	Bar50-50.bmp	48	2	?	12r_4g.bmp	0r_4g.bmp	3r_2g.bmp	0r_2g.bmp		0r_4g.bmp			TrialProc	TrialList	0	cvbn	-999999	16	343896	0	v	312	344208	320	-343	-23	-24	2	7	-8	5	10	100	-12	0	-3	0	4	4	2	2	0	4
Hungry_Donkey_bar_English_2	110	1	<?xml version="1.0"?>\n<Clock xmlns:dt="urn:schemas-microsoft-com:datatypes"><Description dt:dt="string">E-Prime Primary Realtime Clock</Description><StartTime><Timestamp dt:dt="int">0</Timestamp><DateUtc dt:dt="string">2015-06-17T20:50:52Z</DateUtc></StartTime><FrequencyChanges><FrequencyChange><Frequency dt:dt="r8">3507685</Frequency><Timestamp dt:dt="r8">53664923883</Timestamp><Current dt:dt="r8">0</Current><DateUtc dt:dt="string">2015-06-17T20:50:52Z</DateUtc></FrequencyChange></FrequencyChanges></Clock>\n	Hungry_Donkey_bar_English_2-110-1	60.017	-144	1.0.0.18	1	2125542250	Standard	2.0.10.353	2.0.10.353	06-17-2015	6/17/2015 8:50:52 PM	16:50:52	2.0.10.248	101	Bar50-50.bmp	45	2	?	8r_4g.bmp	50r_4g.bmp	1r_2g.bmp	10r_2g.bmp		50r_4g.bmp			TrialProc	TrialList	0	cvbn	-999999	16	346245	0	v	75	346320	324	-393	-69	-24	-44	7	-8	1	11	101	-8	-50	-1	-10	4	4	2	2	-50	4
Hungry_Donkey_bar_English_2	110	1	<?xml version="1.0"?>\n<Clock xmlns:dt="urn:schemas-microsoft-com:datatypes"><Description dt:dt="string">E-Prime Primary Realtime Clock</Description><StartTime><Timestamp dt:dt="int">0</Timestamp><DateUtc dt:dt="string">2015-06-17T20:50:52Z</DateUtc></StartTime><FrequencyChanges><FrequencyChange><Frequency dt:dt="r8">3507685</Frequency><Timestamp dt:dt="r8">53664923883</Timestamp><Current dt:dt="r8">0</Current><DateUtc dt:dt="string">2015-06-17T20:50:52Z</DateUtc></FrequencyChange></FrequencyChanges></Clock>\n	Hungry_Donkey_bar_English_2-110-1	60.017	-144	1.0.0.18	1	2125542250	Standard	2.0.10.353	2.0.10.353	06-17-2015	6/17/2015 8:50:52 PM	16:50:52	2.0.10.248	102	Bar50-50.bmp	45	3	?	0r_4g.bmp	0r_4g.bmp	0r_2g.bmp	0r_2g.bmp			0r_2g.bmp		TrialProc	TrialList	0	cvbn	-999999	16	348361	0	b	135	348496	326	-393	-67	-24	-44	9	-8	7	11	102	0	0	0	0	4	4	2	2	0	2
Hungry_Donkey_bar_English_2	110	1	<?xml version="1.0"?>\n<Clock xmlns:dt="urn:schemas-microsoft-com:datatypes"><Description dt:dt="string">E-Prime Primary Realtime Clock</Description><StartTime><Timestamp dt:dt="int">0</Timestamp><DateUtc dt:dt="string">2015-06-17T20:50:52Z</DateUtc></StartTime><FrequencyChanges><FrequencyChange><Frequency dt:dt="r8">3507685</Frequency><Timestamp dt:dt="r8">53664923883</Timestamp><Current dt:dt="r8">0</Current><DateUtc dt:dt="string">2015-06-17T20:50:52Z</DateUtc></FrequencyChange></FrequencyChanges></Clock>\n	Hungry_Donkey_bar_English_2-110-1	60.017	-144	1.0.0.18	1	2125542250	Standard	2.0.10.353	2.0.10.353	06-17-2015	6/17/2015 8:50:52 PM	16:50:52	2.0.10.248	103	Bar50-50.bmp	45	1	?	10r_4g.bmp	0r_4g.bmp	2r_2g.bmp	0r_2g.bmp	10r_4g.bmp				TrialProc	TrialList	0	cvbn	-999999	16	350527	0	c	465	350992	330	-403	-73	-30	-44	9	-8	2	11	103	-10	0	-2	0	4	4	2	2	-10	4
Hungry_Donkey_bar_English_2	110	1	<?xml version="1.0"?>\n<Clock xmlns:dt="urn:schemas-microsoft-com:datatypes"><Description dt:dt="string">E-Prime Primary Realtime Clock</Description><StartTime><Timestamp dt:dt="int">0</Timestamp><DateUtc dt:dt="string">2015-06-17T20:50:52Z</DateUtc></StartTime><FrequencyChanges><FrequencyChange><Frequency dt:dt="r8">3507685</Frequency><Timestamp dt:dt="r8">53664923883</Timestamp><Current dt:dt="r8">0</Current><DateUtc dt:dt="string">2015-06-17T20:50:52Z</DateUtc></FrequencyChange></FrequencyChanges></Clock>\n	Hungry_Donkey_bar_English_2-110-1	60.017	-144	1.0.0.18	1	2125542250	Standard	2.0.10.353	2.0.10.353	06-17-2015	6/17/2015 8:50:52 PM	16:50:52	2.0.10.248	104	Bar50-50.bmp	45	3	?	10r_4g.bmp	0r_4g.bmp	2r_2g.bmp	0r_2g.bmp			2r_2g.bmp		TrialProc	TrialList	0	cvbn	-999999	16	353043	0	b	93	353136	332	-405	-73	-30	-44	9	-8	3	11	104	-10	0	-2	0	4	4	2	2	-2	2
Hungry_Donkey_bar_English_2	110	1	<?xml version="1.0"?>\n<Clock xmlns:dt="urn:schemas-microsoft-com:datatypes"><Description dt:dt="string">E-Prime Primary Realtime Clock</Description><StartTime><Timestamp dt:dt="int">0</Timestamp><DateUtc dt:dt="string">2015-06-17T20:50:52Z</DateUtc></StartTime><FrequencyChanges><FrequencyChange><Frequency dt:dt="r8">3507685</Frequency><Timestamp dt:dt="r8">53664923883</Timestamp><Current dt:dt="r8">0</Current><DateUtc dt:dt="string">2015-06-17T20:50:52Z</DateUtc></FrequencyChange></FrequencyChanges></Clock>\n	Hungry_Donkey_bar_English_2-110-1	60.017	-144	1.0.0.18	1	2125542250	Standard	2.0.10.353	2.0.10.353	06-17-2015	6/17/2015 8:50:52 PM	16:50:52	2.0.10.248	105	Bar50-50.bmp	45	2	?	10r_4g.bmp	0r_4g.bmp	2r_2g.bmp	0r_2g.bmp		0r_4g.bmp			TrialProc	TrialList	0	cvbn	-999999	16	355176	0	v	56	355232	336	-405	-69	-30	-40	9	-8	4	11	105	-10	0	-2	0	4	4	2	2	0	4
Hungry_Donkey_bar_English_2	110	1	<?xml version="1.0"?>\n<Clock xmlns:dt="urn:schemas-microsoft-com:datatypes"><Description dt:dt="string">E-Prime Primary Realtime Clock</Description><StartTime><Timestamp dt:dt="int">0</Timestamp><DateUtc dt:dt="string">2015-06-17T20:50:52Z</DateUtc></StartTime><FrequencyChanges><FrequencyChange><Frequency dt:dt="r8">3507685</Frequency><Timestamp dt:dt="r8">53664923883</Timestamp><Current dt:dt="r8">0</Current><DateUtc dt:dt="string">2015-06-17T20:50:52Z</DateUtc></FrequencyChange></FrequencyChanges></Clock>\n	Hungry_Donkey_bar_English_2-110-1	60.017	-144	1.0.0.18	1	2125542250	Standard	2.0.10.353	2.0.10.353	06-17-2015	6/17/2015 8:50:52 PM	16:50:52	2.0.10.248	106	Bar50-50.bmp	46	2	?	0r_4g.bmp	0r_4g.bmp	0r_2g.bmp	0r_2g.bmp		0r_4g.bmp			TrialProc	TrialList	0	cvbn	-999999	16	357259	0	v	421	357680	340	-405	-65	-30	-36	9	-8	8	11	106	0	0	0	0	4	4	2	2	0	4
Hungry_Donkey_bar_English_2	110	1	<?xml version="1.0"?>\n<Clock xmlns:dt="urn:schemas-microsoft-com:datatypes"><Description dt:dt="string">E-Prime Primary Realtime Clock</Description><StartTime><Timestamp dt:dt="int">0</Timestamp><DateUtc dt:dt="string">2015-06-17T20:50:52Z</DateUtc></StartTime><FrequencyChanges><FrequencyChange><Frequency dt:dt="r8">3507685</Frequency><Timestamp dt:dt="r8">53664923883</Timestamp><Current dt:dt="r8">0</Current><DateUtc dt:dt="string">2015-06-17T20:50:52Z</DateUtc></FrequencyChange></FrequencyChanges></Clock>\n	Hungry_Donkey_bar_English_2-110-1	60.017	-144	1.0.0.18	1	2125542250	Standard	2.0.10.353	2.0.10.353	06-17-2015	6/17/2015 8:50:52 PM	16:50:52	2.0.10.248	107	Bar50-50.bmp	46	2	?	0r_4g.bmp	0r_4g.bmp	0r_2g.bmp	0r_2g.bmp		0r_4g.bmp			TrialProc	TrialList	0	cvbn	-999999	16	359708	0	v	244	359952	344	-405	-61	-30	-32	9	-8	10	11	107	0	0	0	0	4	4	2	2	0	4
Hungry_Donkey_bar_English_2	110	1	<?xml version="1.0"?>\n<Clock xmlns:dt="urn:schemas-microsoft-com:datatypes"><Description dt:dt="string">E-Prime Primary Realtime Clock</Description><StartTime><Timestamp dt:dt="int">0</Timestamp><DateUtc dt:dt="string">2015-06-17T20:50:52Z</DateUtc></StartTime><FrequencyChanges><FrequencyChange><Frequency dt:dt="r8">3507685</Frequency><Timestamp dt:dt="r8">53664923883</Timestamp><Current dt:dt="r8">0</Current><DateUtc dt:dt="string">2015-06-17T20:50:52Z</DateUtc></FrequencyChange></FrequencyChanges></Clock>\n	Hungry_Donkey_bar_English_2-110-1	60.017	-144	1.0.0.18	1	2125542250	Standard	2.0.10.353	2.0.10.353	06-17-2015	6/17/2015 8:50:52 PM	16:50:52	2.0.10.248	108	Bar50-50.bmp	46	2	?	12r_4g.bmp	0r_4g.bmp	3r_2g.bmp	0r_2g.bmp		0r_4g.bmp			TrialProc	TrialList	0	cvbn	-999999	16	361991	0	v	280	362271	348	-405	-57	-30	-28	9	-8	5	11	108	-12	0	-3	0	4	4	2	2	0	4
Hungry_Donkey_bar_English_2	110	1	<?xml version="1.0"?>\n<Clock xmlns:dt="urn:schemas-microsoft-com:datatypes"><Description dt:dt="string">E-Prime Primary Realtime Clock</Description><StartTime><Timestamp dt:dt="int">0</Timestamp><DateUtc dt:dt="string">2015-06-17T20:50:52Z</DateUtc></StartTime><FrequencyChanges><FrequencyChange><Frequency dt:dt="r8">3507685</Frequency><Timestamp dt:dt="r8">53664923883</Timestamp><Current dt:dt="r8">0</Current><DateUtc dt:dt="string">2015-06-17T20:50:52Z</DateUtc></FrequencyChange></FrequencyChanges></Clock>\n	Hungry_Donkey_bar_English_2-110-1	60.017	-144	1.0.0.18	1	2125542250	Standard	2.0.10.353	2.0.10.353	06-17-2015	6/17/2015 8:50:52 PM	16:50:52	2.0.10.248	109	Bar50-50.bmp	46	2	?	0r_4g.bmp	0r_4g.bmp	0r_2g.bmp	0r_2g.bmp		0r_4g.bmp			TrialProc	TrialList	0	cvbn	-999999	16	364307	0	v	236	364543	352	-405	-53	-30	-24	9	-8	9	11	109	0	0	0	0	4	4	2	2	0	4
Hungry_Donkey_bar_English_2	110	1	<?xml version="1.0"?>\n<Clock xmlns:dt="urn:schemas-microsoft-com:datatypes"><Description dt:dt="string">E-Prime Primary Realtime Clock</Description><StartTime><Timestamp dt:dt="int">0</Timestamp><DateUtc dt:dt="string">2015-06-17T20:50:52Z</DateUtc></StartTime><FrequencyChanges><FrequencyChange><Frequency dt:dt="r8">3507685</Frequency><Timestamp dt:dt="r8">53664923883</Timestamp><Current dt:dt="r8">0</Current><DateUtc dt:dt="string">2015-06-17T20:50:52Z</DateUtc></FrequencyChange></FrequencyChanges></Clock>\n	Hungry_Donkey_bar_English_2-110-1	60.017	-144	1.0.0.18	1	2125542250	Standard	2.0.10.353	2.0.10.353	06-17-2015	6/17/2015 8:50:52 PM	16:50:52	2.0.10.248	110	Bar50-50.bmp	47	2	?	0r_4g.bmp	0r_4g.bmp	0r_2g.bmp	0r_2g.bmp		0r_4g.bmp			TrialProc	TrialList	0	cvbn	-999999	16	366573	0	v	258	366831	356	-405	-49	-30	-20	9	-8	6	11	110	0	0	0	0	4	4	2	2	0	4
Hungry_Donkey_bar_English_2	110	1	<?xml version="1.0"?>\n<Clock xmlns:dt="urn:schemas-microsoft-com:datatypes"><Description dt:dt="string">E-Prime Primary Realtime Clock</Description><StartTime><Timestamp dt:dt="int">0</Timestamp><DateUtc dt:dt="string">2015-06-17T20:50:52Z</DateUtc></StartTime><FrequencyChanges><FrequencyChange><Frequency dt:dt="r8">3507685</Frequency><Timestamp dt:dt="r8">53664923883</Timestamp><Current dt:dt="r8">0</Current><DateUtc dt:dt="string">2015-06-17T20:50:52Z</DateUtc></FrequencyChange></FrequencyChanges></Clock>\n	Hungry_Donkey_bar_English_2-110-1	60.017	-144	1.0.0.18	1	2125542250	Standard	2.0.10.353	2.0.10.353	06-17-2015	6/17/2015 8:50:52 PM	16:50:52	2.0.10.248	111	Bar50-50.bmp	44	2	?	8r_4g.bmp	50r_4g.bmp	1r_2g.bmp	10r_2g.bmp		50r_4g.bmp			TrialProc	TrialList	0	cvbn	-999999	16	368855	0	v	216	369071	360	-455	-95	-30	-66	9	-8	1	12	111	-8	-50	-1	-10	4	4	2	2	-50	4
