ExperimentName	Subject	Session	Clock.Information	DataFile.Basename	Display.RefreshRate	Eindtotaal[Session]	ExperimentVersion	Group	RandomSeed	RuntimeCapabilities	RuntimeVersion	RuntimeVersionExpected	SessionDate	SessionStartDateTimeUtc	SessionTime	StudioVersion	Block	BarImage	BarTotalWinst	DoorChoice	Eindtotaal[Block]	FBDoor1	FBDoor2	FBDoor3	FBDoor4	Image1	Image2	Image3	Image4	Procedure	Running	spel.ACC	spel.CRESP	spel.DurationError	spel.OnsetDelay	spel.OnsetTime	spel.OnsetToOnsetTime	spel.RESP	spel.RT	spel.RTTime	TotalGain	TotalLose	Totalsum	TotalsumD1	TotalsumD2	TotalsumD3	TotalsumD4	TrialList	TrialList.Cycle	TrialList.Sample	varV1	varV2	varV3	varV4	varW1	varW2	varW3	varW4	Verliesbedrag	Winstbedrag
Hungry_Donkey_bar_English_2	141	1	<?xml version="1.0"?>\n<Clock xmlns:dt="urn:schemas-microsoft-com:datatypes"><Description dt:dt="string">E-Prime Primary Realtime Clock</Description><StartTime><Timestamp dt:dt="int">0</Timestamp><DateUtc dt:dt="string">2016-04-13T20:00:44Z</DateUtc></StartTime><FrequencyChanges><FrequencyChange><Frequency dt:dt="r8">3507724</Frequency><Timestamp dt:dt="r8">226459458840</Timestamp><Current dt:dt="r8">0</Current><DateUtc dt:dt="string">2016-04-13T20:00:44Z</DateUtc></FrequencyChange></FrequencyChanges></Clock>\n	Hungry_Donkey_bar_English_2-141-1	60.018	9	1.0.0.18	1	-1173131205	Standard	2.0.10.353	2.0.10.353	04-13-2016	4/13/2016 8:00:44 PM	16:00:44	2.0.10.248	1	Bar100-0.bmp	100	1	?	0r_4g.bmp	0r_4g.bmp	0r_2g.bmp	0r_2g.bmp	0r_4g.bmp				TrialProc	TrialList	0	cvbn	-999999	28	84581	0	c	4931	89512	4	0	4	4	0	0	0	6	1	1	0	0	0	0	4	4	2	2	0	4
Hungry_Donkey_bar_English_2	141	1	<?xml version="1.0"?>\n<Clock xmlns:dt="urn:schemas-microsoft-com:datatypes"><Description dt:dt="string">E-Prime Primary Realtime Clock</Description><StartTime><Timestamp dt:dt="int">0</Timestamp><DateUtc dt:dt="string">2016-04-13T20:00:44Z</DateUtc></StartTime><FrequencyChanges><FrequencyChange><Frequency dt:dt="r8">3507724</Frequency><Timestamp dt:dt="r8">226459458840</Timestamp><Current dt:dt="r8">0</Current><DateUtc dt:dt="string">2016-04-13T20:00:44Z</DateUtc></FrequencyChange></FrequencyChanges></Clock>\n	Hungry_Donkey_bar_English_2-141-1	60.018	9	1.0.0.18	1	-1173131205	Standard	2.0.10.353	2.0.10.353	04-13-2016	4/13/2016 8:00:44 PM	16:00:44	2.0.10.248	2	Bar100-0.bmp	100	4	?	12r_4g.bmp	0r_4g.bmp	3r_2g.bmp	0r_2g.bmp				0r_2g.bmp	TrialProc	TrialList	0	cvbn	-999999	16	91545	0	n	5215	96760	6	0	6	4	0	0	2	5	1	2	-12	0	-3	0	4	4	2	2	0	2
Hungry_Donkey_bar_English_2	141	1	<?xml version="1.0"?>\n<Clock xmlns:dt="urn:schemas-microsoft-com:datatypes"><Description dt:dt="string">E-Prime Primary Realtime Clock</Description><StartTime><Timestamp dt:dt="int">0</Timestamp><DateUtc dt:dt="string">2016-04-13T20:00:44Z</DateUtc></StartTime><FrequencyChanges><FrequencyChange><Frequency dt:dt="r8">3507724</Frequency><Timestamp dt:dt="r8">226459458840</Timestamp><Current dt:dt="r8">0</Current><DateUtc dt:dt="string">2016-04-13T20:00:44Z</DateUtc></FrequencyChange></FrequencyChanges></Clock>\n	Hungry_Donkey_bar_English_2-141-1	60.018	9	1.0.0.18	1	-1173131205	Standard	2.0.10.353	2.0.10.353	04-13-2016	4/13/2016 8:00:44 PM	16:00:44	2.0.10.248	3	Bar100-0.bmp	100	2	?	0r_4g.bmp	0r_4g.bmp	0r_2g.bmp	0r_2g.bmp		0r_4g.bmp			TrialProc	TrialList	0	cvbn	-999999	16	98793	0	v	1855	100648	10	0	10	4	4	0	2	10	1	3	0	0	0	0	4	4	2	2	0	4
Hungry_Donkey_bar_English_2	141	1	<?xml version="1.0"?>\n<Clock xmlns:dt="urn:schemas-microsoft-com:datatypes"><Description dt:dt="string">E-Prime Primary Realtime Clock</Description><StartTime><Timestamp dt:dt="int">0</Timestamp><DateUtc dt:dt="string">2016-04-13T20:00:44Z</DateUtc></StartTime><FrequencyChanges><FrequencyChange><Frequency dt:dt="r8">3507724</Frequency><Timestamp dt:dt="r8">226459458840</Timestamp><Current dt:dt="r8">0</Current><DateUtc dt:dt="string">2016-04-13T20:00:44Z</DateUtc></FrequencyChange></FrequencyChanges></Clock>\n	Hungry_Donkey_bar_English_2-141-1	60.018	9	1.0.0.18	1	-1173131205	Standard	2.0.10.353	2.0.10.353	04-13-2016	4/13/2016 8:00:44 PM	16:00:44	2.0.10.248	4	Bar100-0.bmp	100	4	?	10r_4g.bmp	0r_4g.bmp	2r_2g.bmp	0r_2g.bmp				0r_2g.bmp	TrialProc	TrialList	0	cvbn	-999999	16	102675	0	n	2404	105079	12	0	12	4	4	0	4	4	1	4	-10	0	-2	0	4	4	2	2	0	2
Hungry_Donkey_bar_English_2	141	1	<?xml version="1.0"?>\n<Clock xmlns:dt="urn:schemas-microsoft-com:datatypes"><Description dt:dt="string">E-Prime Primary Realtime Clock</Description><StartTime><Timestamp dt:dt="int">0</Timestamp><DateUtc dt:dt="string">2016-04-13T20:00:44Z</DateUtc></StartTime><FrequencyChanges><FrequencyChange><Frequency dt:dt="r8">3507724</Frequency><Timestamp dt:dt="r8">226459458840</Timestamp><Current dt:dt="r8">0</Current><DateUtc dt:dt="string">2016-04-13T20:00:44Z</DateUtc></FrequencyChange></FrequencyChanges></Clock>\n	Hungry_Donkey_bar_English_2-141-1	60.018	9	1.0.0.18	1	-1173131205	Standard	2.0.10.353	2.0.10.353	04-13-2016	4/13/2016 8:00:44 PM	16:00:44	2.0.10.248	5	Bar100-0.bmp	100	3	?	0r_4g.bmp	0r_4g.bmp	0r_2g.bmp	0r_2g.bmp			0r_2g.bmp		TrialProc	TrialList	0	cvbn	-999999	16	107107	0	b	676	107783	14	0	14	4	4	2	4	7	1	5	0	0	0	0	4	4	2	2	0	2
Hungry_Donkey_bar_English_2	141	1	<?xml version="1.0"?>\n<Clock xmlns:dt="urn:schemas-microsoft-com:datatypes"><Description dt:dt="string">E-Prime Primary Realtime Clock</Description><StartTime><Timestamp dt:dt="int">0</Timestamp><DateUtc dt:dt="string">2016-04-13T20:00:44Z</DateUtc></StartTime><FrequencyChanges><FrequencyChange><Frequency dt:dt="r8">3507724</Frequency><Timestamp dt:dt="r8">226459458840</Timestamp><Current dt:dt="r8">0</Current><DateUtc dt:dt="string">2016-04-13T20:00:44Z</DateUtc></FrequencyChange></FrequencyChanges></Clock>\n	Hungry_Donkey_bar_English_2-141-1	60.018	9	1.0.0.18	1	-1173131205	Standard	2.0.10.353	2.0.10.353	04-13-2016	4/13/2016 8:00:44 PM	16:00:44	2.0.10.248	6	Bar100-0.bmp	100	4	?	10r_4g.bmp	0r_4g.bmp	2r_2g.bmp	0r_2g.bmp				0r_2g.bmp	TrialProc	TrialList	0	cvbn	-999999	16	109807	0	n	2408	112215	16	0	16	4	4	2	6	3	1	6	-10	0	-2	0	4	4	2	2	0	2
Hungry_Donkey_bar_English_2	141	1	<?xml version="1.0"?>\n<Clock xmlns:dt="urn:schemas-microsoft-com:datatypes"><Description dt:dt="string">E-Prime Primary Realtime Clock</Description><StartTime><Timestamp dt:dt="int">0</Timestamp><DateUtc dt:dt="string">2016-04-13T20:00:44Z</DateUtc></StartTime><FrequencyChanges><FrequencyChange><Frequency dt:dt="r8">3507724</Frequency><Timestamp dt:dt="r8">226459458840</Timestamp><Current dt:dt="r8">0</Current><DateUtc dt:dt="string">2016-04-13T20:00:44Z</DateUtc></FrequencyChange></FrequencyChanges></Clock>\n	Hungry_Donkey_bar_English_2-141-1	60.018	9	1.0.0.18	1	-1173131205	Standard	2.0.10.353	2.0.10.353	04-13-2016	4/13/2016 8:00:44 PM	16:00:44	2.0.10.248	7	Bar75-25.bmp	71	1	?	8r_4g.bmp	50r_4g.bmp	1r_2g.bmp	10r_2g.bmp	8r_4g.bmp				TrialProc	TrialList	0	cvbn	-999999	16	114239	0	c	1416	115655	20	-8	12	0	4	2	6	1	1	7	-8	-50	-1	-10	4	4	2	2	-8	4
Hungry_Donkey_bar_English_2	141	1	<?xml version="1.0"?>\n<Clock xmlns:dt="urn:schemas-microsoft-com:datatypes"><Description dt:dt="string">E-Prime Primary Realtime Clock</Description><StartTime><Timestamp dt:dt="int">0</Timestamp><DateUtc dt:dt="string">2016-04-13T20:00:44Z</DateUtc></StartTime><FrequencyChanges><FrequencyChange><Frequency dt:dt="r8">3507724</Frequency><Timestamp dt:dt="r8">226459458840</Timestamp><Current dt:dt="r8">0</Current><DateUtc dt:dt="string">2016-04-13T20:00:44Z</DateUtc></FrequencyChange></FrequencyChanges></Clock>\n	Hungry_Donkey_bar_English_2-141-1	60.018	9	1.0.0.18	1	-1173131205	Standard	2.0.10.353	2.0.10.353	04-13-2016	4/13/2016 8:00:44 PM	16:00:44	2.0.10.248	8	Bar75-25.bmp	75	2	?	0r_4g.bmp	0r_4g.bmp	0r_2g.bmp	0r_2g.bmp		0r_4g.bmp			TrialProc	TrialList	0	cvbn	-999999	16	117688	0	v	1439	119127	24	-8	16	0	8	2	6	9	1	8	0	0	0	0	4	4	2	2	0	4
Hungry_Donkey_bar_English_2	141	1	<?xml version="1.0"?>\n<Clock xmlns:dt="urn:schemas-microsoft-com:datatypes"><Description dt:dt="string">E-Prime Primary Realtime Clock</Description><StartTime><Timestamp dt:dt="int">0</Timestamp><DateUtc dt:dt="string">2016-04-13T20:00:44Z</DateUtc></StartTime><FrequencyChanges><FrequencyChange><Frequency dt:dt="r8">3507724</Frequency><Timestamp dt:dt="r8">226459458840</Timestamp><Current dt:dt="r8">0</Current><DateUtc dt:dt="string">2016-04-13T20:00:44Z</DateUtc></FrequencyChange></FrequencyChanges></Clock>\n	Hungry_Donkey_bar_English_2-141-1	60.018	9	1.0.0.18	1	-1173131205	Standard	2.0.10.353	2.0.10.353	04-13-2016	4/13/2016 8:00:44 PM	16:00:44	2.0.10.248	9	Bar75-25.bmp	76	4	?	0r_4g.bmp	0r_4g.bmp	0r_2g.bmp	0r_2g.bmp				0r_2g.bmp	TrialProc	TrialList	0	cvbn	-999999	16	121153	0	n	901	122054	26	-8	18	0	8	2	8	8	1	9	0	0	0	0	4	4	2	2	0	2
Hungry_Donkey_bar_English_2	141	1	<?xml version="1.0"?>\n<Clock xmlns:dt="urn:schemas-microsoft-com:datatypes"><Description dt:dt="string">E-Prime Primary Realtime Clock</Description><StartTime><Timestamp dt:dt="int">0</Timestamp><DateUtc dt:dt="string">2016-04-13T20:00:44Z</DateUtc></StartTime><FrequencyChanges><FrequencyChange><Frequency dt:dt="r8">3507724</Frequency><Timestamp dt:dt="r8">226459458840</Timestamp><Current dt:dt="r8">0</Current><DateUtc dt:dt="string">2016-04-13T20:00:44Z</DateUtc></FrequencyChange></FrequencyChanges></Clock>\n	Hungry_Donkey_bar_English_2-141-1	60.018	9	1.0.0.18	1	-1173131205	Standard	2.0.10.353	2.0.10.353	04-13-2016	4/13/2016 8:00:44 PM	16:00:44	2.0.10.248	10	Bar75-25.bmp	74	3	?	10r_4g.bmp	0r_4g.bmp	2r_2g.bmp	0r_2g.bmp			2r_2g.bmp		TrialProc	TrialList	0	cvbn	-999999	16	124086	0	b	1792	125878	28	-10	18	0	8	2	8	2	1	10	-10	0	-2	0	4	4	2	2	-2	2
Hungry_Donkey_bar_English_2	141	1	<?xml version="1.0"?>\n<Clock xmlns:dt="urn:schemas-microsoft-com:datatypes"><Description dt:dt="string">E-Prime Primary Realtime Clock</Description><StartTime><Timestamp dt:dt="int">0</Timestamp><DateUtc dt:dt="string">2016-04-13T20:00:44Z</DateUtc></StartTime><FrequencyChanges><FrequencyChange><Frequency dt:dt="r8">3507724</Frequency><Timestamp dt:dt="r8">226459458840</Timestamp><Current dt:dt="r8">0</Current><DateUtc dt:dt="string">2016-04-13T20:00:44Z</DateUtc></FrequencyChange></FrequencyChanges></Clock>\n	Hungry_Donkey_bar_English_2-141-1	60.018	9	1.0.0.18	1	-1173131205	Standard	2.0.10.353	2.0.10.353	04-13-2016	4/13/2016 8:00:44 PM	16:00:44	2.0.10.248	11	Bar75-25.bmp	76	1	?	0r_4g.bmp	0r_4g.bmp	0r_2g.bmp	0r_2g.bmp	0r_4g.bmp				TrialProc	TrialList	0	cvbn	-999999	16	127918	0	c	1752	129670	32	-10	22	4	8	2	8	7	2	11	0	0	0	0	4	4	2	2	0	4
Hungry_Donkey_bar_English_2	141	1	<?xml version="1.0"?>\n<Clock xmlns:dt="urn:schemas-microsoft-com:datatypes"><Description dt:dt="string">E-Prime Primary Realtime Clock</Description><StartTime><Timestamp dt:dt="int">0</Timestamp><DateUtc dt:dt="string">2016-04-13T20:00:44Z</DateUtc></StartTime><FrequencyChanges><FrequencyChange><Frequency dt:dt="r8">3507724</Frequency><Timestamp dt:dt="r8">226459458840</Timestamp><Current dt:dt="r8">0</Current><DateUtc dt:dt="string">2016-04-13T20:00:44Z</DateUtc></FrequencyChange></FrequencyChanges></Clock>\n	Hungry_Donkey_bar_English_2-141-1	60.018	9	1.0.0.18	1	-1173131205	Standard	2.0.10.353	2.0.10.353	04-13-2016	4/13/2016 8:00:44 PM	16:00:44	2.0.10.248	12	Bar75-25.bmp	78	2	?	0r_4g.bmp	0r_4g.bmp	0r_2g.bmp	0r_2g.bmp		0r_4g.bmp			TrialProc	TrialList	0	cvbn	-999999	16	131700	0	v	1730	133430	36	-10	26	4	12	2	8	6	2	12	0	0	0	0	4	4	2	2	0	4
Hungry_Donkey_bar_English_2	141	1	<?xml version="1.0"?>\n<Clock xmlns:dt="urn:schemas-microsoft-com:datatypes"><Description dt:dt="string">E-Prime Primary Realtime Clock</Description><StartTime><Timestamp dt:dt="int">0</Timestamp><DateUtc dt:dt="string">2016-04-13T20:00:44Z</DateUtc></StartTime><FrequencyChanges><FrequencyChange><Frequency dt:dt="r8">3507724</Frequency><Timestamp dt:dt="r8">226459458840</Timestamp><Current dt:dt="r8">0</Current><DateUtc dt:dt="string">2016-04-13T20:00:44Z</DateUtc></FrequencyChange></FrequencyChanges></Clock>\n	Hungry_Donkey_bar_English_2-141-1	60.018	9	1.0.0.18	1	-1173131205	Standard	2.0.10.353	2.0.10.353	04-13-2016	4/13/2016 8:00:44 PM	16:00:44	2.0.10.248	13	Bar75-25.bmp	79	4	?	0r_4g.bmp	0r_4g.bmp	0r_2g.bmp	0r_2g.bmp				0r_2g.bmp	TrialProc	TrialList	0	cvbn	-999999	16	135466	0	n	1292	136758	38	-10	28	4	12	2	10	10	2	13	0	0	0	0	4	4	2	2	0	2
Hungry_Donkey_bar_English_2	141	1	<?xml version="1.0"?>\n<Clock xmlns:dt="urn:schemas-microsoft-com:datatypes"><Description dt:dt="string">E-Prime Primary Realtime Clock</Description><StartTime><Timestamp dt:dt="int">0</Timestamp><DateUtc dt:dt="string">2016-04-13T20:00:44Z</DateUtc></StartTime><FrequencyChanges><FrequencyChange><Frequency dt:dt="r8">3507724</Frequency><Timestamp dt:dt="r8">226459458840</Timestamp><Current dt:dt="r8">0</Current><DateUtc dt:dt="string">2016-04-13T20:00:44Z</DateUtc></FrequencyChange></FrequencyChanges></Clock>\n	Hungry_Donkey_bar_English_2-141-1	60.018	9	1.0.0.18	1	-1173131205	Standard	2.0.10.353	2.0.10.353	04-13-2016	4/13/2016 8:00:44 PM	16:00:44	2.0.10.248	14	Bar75-25.bmp	77	3	?	10r_4g.bmp	0r_4g.bmp	2r_2g.bmp	0r_2g.bmp			2r_2g.bmp		TrialProc	TrialList	0	cvbn	-999999	15	138781	0	b	584	139365	40	-12	28	4	12	2	10	4	2	14	-10	0	-2	0	4	4	2	2	-2	2
Hungry_Donkey_bar_English_2	141	1	<?xml version="1.0"?>\n<Clock xmlns:dt="urn:schemas-microsoft-com:datatypes"><Description dt:dt="string">E-Prime Primary Realtime Clock</Description><StartTime><Timestamp dt:dt="int">0</Timestamp><DateUtc dt:dt="string">2016-04-13T20:00:44Z</DateUtc></StartTime><FrequencyChanges><FrequencyChange><Frequency dt:dt="r8">3507724</Frequency><Timestamp dt:dt="r8">226459458840</Timestamp><Current dt:dt="r8">0</Current><DateUtc dt:dt="string">2016-04-13T20:00:44Z</DateUtc></FrequencyChange></FrequencyChanges></Clock>\n	Hungry_Donkey_bar_English_2-141-1	60.018	9	1.0.0.18	1	-1173131205	Standard	2.0.10.353	2.0.10.353	04-13-2016	4/13/2016 8:00:44 PM	16:00:44	2.0.10.248	15	Bar75-25.bmp	79	2	?	0r_4g.bmp	0r_4g.bmp	0r_2g.bmp	0r_2g.bmp		0r_4g.bmp			TrialProc	TrialList	0	cvbn	-999999	16	141397	0	v	2064	143461	44	-12	32	4	16	2	10	8	2	15	0	0	0	0	4	4	2	2	0	4
Hungry_Donkey_bar_English_2	141	1	<?xml version="1.0"?>\n<Clock xmlns:dt="urn:schemas-microsoft-com:datatypes"><Description dt:dt="string">E-Prime Primary Realtime Clock</Description><StartTime><Timestamp dt:dt="int">0</Timestamp><DateUtc dt:dt="string">2016-04-13T20:00:44Z</DateUtc></StartTime><FrequencyChanges><FrequencyChange><Frequency dt:dt="r8">3507724</Frequency><Timestamp dt:dt="r8">226459458840</Timestamp><Current dt:dt="r8">0</Current><DateUtc dt:dt="string">2016-04-13T20:00:44Z</DateUtc></FrequencyChange></FrequencyChanges></Clock>\n	Hungry_Donkey_bar_English_2-141-1	60.018	9	1.0.0.18	1	-1173131205	Standard	2.0.10.353	2.0.10.353	04-13-2016	4/13/2016 8:00:44 PM	16:00:44	2.0.10.248	16	Bar50-50.bmp	44	2	?	8r_4g.bmp	50r_4g.bmp	1r_2g.bmp	10r_2g.bmp		50r_4g.bmp			TrialProc	TrialList	0	cvbn	-999999	16	145496	0	v	1229	146725	48	-62	-14	4	-30	2	10	1	2	16	-8	-50	-1	-10	4	4	2	2	-50	4
Hungry_Donkey_bar_English_2	141	1	<?xml version="1.0"?>\n<Clock xmlns:dt="urn:schemas-microsoft-com:datatypes"><Description dt:dt="string">E-Prime Primary Realtime Clock</Description><StartTime><Timestamp dt:dt="int">0</Timestamp><DateUtc dt:dt="string">2016-04-13T20:00:44Z</DateUtc></StartTime><FrequencyChanges><FrequencyChange><Frequency dt:dt="r8">3507724</Frequency><Timestamp dt:dt="r8">226459458840</Timestamp><Current dt:dt="r8">0</Current><DateUtc dt:dt="string">2016-04-13T20:00:44Z</DateUtc></FrequencyChange></FrequencyChanges></Clock>\n	Hungry_Donkey_bar_English_2-141-1	60.018	9	1.0.0.18	1	-1173131205	Standard	2.0.10.353	2.0.10.353	04-13-2016	4/13/2016 8:00:44 PM	16:00:44	2.0.10.248	17	Bar50-50.bmp	45	3	?	0r_4g.bmp	0r_4g.bmp	0r_2g.bmp	0r_2g.bmp			0r_2g.bmp		TrialProc	TrialList	0	cvbn	-999999	16	148762	0	b	1851	150613	50	-62	-12	4	-30	4	10	9	2	17	0	0	0	0	4	4	2	2	0	2
Hungry_Donkey_bar_English_2	141	1	<?xml version="1.0"?>\n<Clock xmlns:dt="urn:schemas-microsoft-com:datatypes"><Description dt:dt="string">E-Prime Primary Realtime Clock</Description><StartTime><Timestamp dt:dt="int">0</Timestamp><DateUtc dt:dt="string">2016-04-13T20:00:44Z</DateUtc></StartTime><FrequencyChanges><FrequencyChange><Frequency dt:dt="r8">3507724</Frequency><Timestamp dt:dt="r8">226459458840</Timestamp><Current dt:dt="r8">0</Current><DateUtc dt:dt="string">2016-04-13T20:00:44Z</DateUtc></FrequencyChange></FrequencyChanges></Clock>\n	Hungry_Donkey_bar_English_2-141-1	60.018	9	1.0.0.18	1	-1173131205	Standard	2.0.10.353	2.0.10.353	04-13-2016	4/13/2016 8:00:44 PM	16:00:44	2.0.10.248	18	Bar50-50.bmp	46	4	?	10r_4g.bmp	0r_4g.bmp	2r_2g.bmp	0r_2g.bmp				0r_2g.bmp	TrialProc	TrialList	0	cvbn	-999999	16	152644	0	n	1968	154612	52	-62	-10	4	-30	4	12	3	2	18	-10	0	-2	0	4	4	2	2	0	2
Hungry_Donkey_bar_English_2	141	1	<?xml version="1.0"?>\n<Clock xmlns:dt="urn:schemas-microsoft-com:datatypes"><Description dt:dt="string">E-Prime Primary Realtime Clock</Description><StartTime><Timestamp dt:dt="int">0</Timestamp><DateUtc dt:dt="string">2016-04-13T20:00:44Z</DateUtc></StartTime><FrequencyChanges><FrequencyChange><Frequency dt:dt="r8">3507724</Frequency><Timestamp dt:dt="r8">226459458840</Timestamp><Current dt:dt="r8">0</Current><DateUtc dt:dt="string">2016-04-13T20:00:44Z</DateUtc></FrequencyChange></FrequencyChanges></Clock>\n	Hungry_Donkey_bar_English_2-141-1	60.018	9	1.0.0.18	1	-1173131205	Standard	2.0.10.353	2.0.10.353	04-13-2016	4/13/2016 8:00:44 PM	16:00:44	2.0.10.248	19	Bar50-50.bmp	47	4	?	12r_4g.bmp	0r_4g.bmp	3r_2g.bmp	0r_2g.bmp				0r_2g.bmp	TrialProc	TrialList	0	cvbn	-999999	16	156643	0	n	641	157284	54	-62	-8	4	-30	4	14	5	2	19	-12	0	-3	0	4	4	2	2	0	2
Hungry_Donkey_bar_English_2	141	1	<?xml version="1.0"?>\n<Clock xmlns:dt="urn:schemas-microsoft-com:datatypes"><Description dt:dt="string">E-Prime Primary Realtime Clock</Description><StartTime><Timestamp dt:dt="int">0</Timestamp><DateUtc dt:dt="string">2016-04-13T20:00:44Z</DateUtc></StartTime><FrequencyChanges><FrequencyChange><Frequency dt:dt="r8">3507724</Frequency><Timestamp dt:dt="r8">226459458840</Timestamp><Current dt:dt="r8">0</Current><DateUtc dt:dt="string">2016-04-13T20:00:44Z</DateUtc></FrequencyChange></FrequencyChanges></Clock>\n	Hungry_Donkey_bar_English_2-141-1	60.018	9	1.0.0.18	1	-1173131205	Standard	2.0.10.353	2.0.10.353	04-13-2016	4/13/2016 8:00:44 PM	16:00:44	2.0.10.248	20	Bar50-50.bmp	47	4	?	10r_4g.bmp	0r_4g.bmp	2r_2g.bmp	0r_2g.bmp				0r_2g.bmp	TrialProc	TrialList	0	cvbn	-999999	15	159308	0	n	152	159460	56	-62	-6	4	-30	4	16	2	2	20	-10	0	-2	0	4	4	2	2	0	2
Hungry_Donkey_bar_English_2	141	1	<?xml version="1.0"?>\n<Clock xmlns:dt="urn:schemas-microsoft-com:datatypes"><Description dt:dt="string">E-Prime Primary Realtime Clock</Description><StartTime><Timestamp dt:dt="int">0</Timestamp><DateUtc dt:dt="string">2016-04-13T20:00:44Z</DateUtc></StartTime><FrequencyChanges><FrequencyChange><Frequency dt:dt="r8">3507724</Frequency><Timestamp dt:dt="r8">226459458840</Timestamp><Current dt:dt="r8">0</Current><DateUtc dt:dt="string">2016-04-13T20:00:44Z</DateUtc></FrequencyChange></FrequencyChanges></Clock>\n	Hungry_Donkey_bar_English_2-141-1	60.018	9	1.0.0.18	1	-1173131205	Standard	2.0.10.353	2.0.10.353	04-13-2016	4/13/2016 8:00:44 PM	16:00:44	2.0.10.248	21	Bar50-50.bmp	48	4	?	0r_4g.bmp	0r_4g.bmp	0r_2g.bmp	0r_2g.bmp				0r_2g.bmp	TrialProc	TrialList	0	cvbn	-999999	16	161491	0	n	577	162068	58	-62	-4	4	-30	4	18	9	3	21	0	0	0	0	4	4	2	2	0	2
Hungry_Donkey_bar_English_2	141	1	<?xml version="1.0"?>\n<Clock xmlns:dt="urn:schemas-microsoft-com:datatypes"><Description dt:dt="string">E-Prime Primary Realtime Clock</Description><StartTime><Timestamp dt:dt="int">0</Timestamp><DateUtc dt:dt="string">2016-04-13T20:00:44Z</DateUtc></StartTime><FrequencyChanges><FrequencyChange><Frequency dt:dt="r8">3507724</Frequency><Timestamp dt:dt="r8">226459458840</Timestamp><Current dt:dt="r8">0</Current><DateUtc dt:dt="string">2016-04-13T20:00:44Z</DateUtc></FrequencyChange></FrequencyChanges></Clock>\n	Hungry_Donkey_bar_English_2-141-1	60.018	9	1.0.0.18	1	-1173131205	Standard	2.0.10.353	2.0.10.353	04-13-2016	4/13/2016 8:00:44 PM	16:00:44	2.0.10.248	22	Bar50-50.bmp	49	3	?	0r_4g.bmp	0r_4g.bmp	0r_2g.bmp	0r_2g.bmp			0r_2g.bmp		TrialProc	TrialList	0	cvbn	-999999	16	164107	0	b	281	164388	60	-62	-2	4	-30	6	18	7	3	22	0	0	0	0	4	4	2	2	0	2
Hungry_Donkey_bar_English_2	141	1	<?xml version="1.0"?>\n<Clock xmlns:dt="urn:schemas-microsoft-com:datatypes"><Description dt:dt="string">E-Prime Primary Realtime Clock</Description><StartTime><Timestamp dt:dt="int">0</Timestamp><DateUtc dt:dt="string">2016-04-13T20:00:44Z</DateUtc></StartTime><FrequencyChanges><FrequencyChange><Frequency dt:dt="r8">3507724</Frequency><Timestamp dt:dt="r8">226459458840</Timestamp><Current dt:dt="r8">0</Current><DateUtc dt:dt="string">2016-04-13T20:00:44Z</DateUtc></FrequencyChange></FrequencyChanges></Clock>\n	Hungry_Donkey_bar_English_2-141-1	60.018	9	1.0.0.18	1	-1173131205	Standard	2.0.10.353	2.0.10.353	04-13-2016	4/13/2016 8:00:44 PM	16:00:44	2.0.10.248	23	Bar50-50.bmp	51	1	?	0r_4g.bmp	0r_4g.bmp	0r_2g.bmp	0r_2g.bmp	0r_4g.bmp				TrialProc	TrialList	0	cvbn	-999999	16	166423	0	c	1229	167652	64	-62	2	8	-30	6	18	10	3	23	0	0	0	0	4	4	2	2	0	4
Hungry_Donkey_bar_English_2	141	1	<?xml version="1.0"?>\n<Clock xmlns:dt="urn:schemas-microsoft-com:datatypes"><Description dt:dt="string">E-Prime Primary Realtime Clock</Description><StartTime><Timestamp dt:dt="int">0</Timestamp><DateUtc dt:dt="string">2016-04-13T20:00:44Z</DateUtc></StartTime><FrequencyChanges><FrequencyChange><Frequency dt:dt="r8">3507724</Frequency><Timestamp dt:dt="r8">226459458840</Timestamp><Current dt:dt="r8">0</Current><DateUtc dt:dt="string">2016-04-13T20:00:44Z</DateUtc></FrequencyChange></FrequencyChanges></Clock>\n	Hungry_Donkey_bar_English_2-141-1	60.018	9	1.0.0.18	1	-1173131205	Standard	2.0.10.353	2.0.10.353	04-13-2016	4/13/2016 8:00:44 PM	16:00:44	2.0.10.248	24	Bar50-50.bmp	52	2	?	10r_4g.bmp	0r_4g.bmp	2r_2g.bmp	0r_2g.bmp		0r_4g.bmp			TrialProc	TrialList	0	cvbn	-999999	16	169689	0	v	922	170611	68	-62	6	8	-26	6	18	4	3	24	-10	0	-2	0	4	4	2	2	0	4
Hungry_Donkey_bar_English_2	141	1	<?xml version="1.0"?>\n<Clock xmlns:dt="urn:schemas-microsoft-com:datatypes"><Description dt:dt="string">E-Prime Primary Realtime Clock</Description><StartTime><Timestamp dt:dt="int">0</Timestamp><DateUtc dt:dt="string">2016-04-13T20:00:44Z</DateUtc></StartTime><FrequencyChanges><FrequencyChange><Frequency dt:dt="r8">3507724</Frequency><Timestamp dt:dt="r8">226459458840</Timestamp><Current dt:dt="r8">0</Current><DateUtc dt:dt="string">2016-04-13T20:00:44Z</DateUtc></FrequencyChange></FrequencyChanges></Clock>\n	Hungry_Donkey_bar_English_2-141-1	60.018	9	1.0.0.18	1	-1173131205	Standard	2.0.10.353	2.0.10.353	04-13-2016	4/13/2016 8:00:44 PM	16:00:44	2.0.10.248	25	Bar50-50.bmp	53	3	?	8r_4g.bmp	50r_4g.bmp	1r_2g.bmp	10r_2g.bmp			1r_2g.bmp		TrialProc	TrialList	0	cvbn	-999999	16	172654	0	b	821	173475	70	-63	7	8	-26	7	18	1	3	25	-8	-50	-1	-10	4	4	2	2	-1	2
Hungry_Donkey_bar_English_2	141	1	<?xml version="1.0"?>\n<Clock xmlns:dt="urn:schemas-microsoft-com:datatypes"><Description dt:dt="string">E-Prime Primary Realtime Clock</Description><StartTime><Timestamp dt:dt="int">0</Timestamp><DateUtc dt:dt="string">2016-04-13T20:00:44Z</DateUtc></StartTime><FrequencyChanges><FrequencyChange><Frequency dt:dt="r8">3507724</Frequency><Timestamp dt:dt="r8">226459458840</Timestamp><Current dt:dt="r8">0</Current><DateUtc dt:dt="string">2016-04-13T20:00:44Z</DateUtc></FrequencyChange></FrequencyChanges></Clock>\n	Hungry_Donkey_bar_English_2-141-1	60.018	9	1.0.0.18	1	-1173131205	Standard	2.0.10.353	2.0.10.353	04-13-2016	4/13/2016 8:00:44 PM	16:00:44	2.0.10.248	26	Bar50-50.bmp	54	1	?	0r_4g.bmp	0r_4g.bmp	0r_2g.bmp	0r_2g.bmp	0r_4g.bmp				TrialProc	TrialList	0	cvbn	-999999	16	175520	0	c	931	176451	74	-63	11	12	-26	7	18	8	3	26	0	0	0	0	4	4	2	2	0	4
Hungry_Donkey_bar_English_2	141	1	<?xml version="1.0"?>\n<Clock xmlns:dt="urn:schemas-microsoft-com:datatypes"><Description dt:dt="string">E-Prime Primary Realtime Clock</Description><StartTime><Timestamp dt:dt="int">0</Timestamp><DateUtc dt:dt="string">2016-04-13T20:00:44Z</DateUtc></StartTime><FrequencyChanges><FrequencyChange><Frequency dt:dt="r8">3507724</Frequency><Timestamp dt:dt="r8">226459458840</Timestamp><Current dt:dt="r8">0</Current><DateUtc dt:dt="string">2016-04-13T20:00:44Z</DateUtc></FrequencyChange></FrequencyChanges></Clock>\n	Hungry_Donkey_bar_English_2-141-1	60.018	9	1.0.0.18	1	-1173131205	Standard	2.0.10.353	2.0.10.353	04-13-2016	4/13/2016 8:00:44 PM	16:00:44	2.0.10.248	27	Bar50-50.bmp	55	1	?	0r_4g.bmp	0r_4g.bmp	0r_2g.bmp	0r_2g.bmp	0r_4g.bmp				TrialProc	TrialList	0	cvbn	-999999	16	178486	0	c	477	178963	78	-63	15	16	-26	7	18	6	3	27	0	0	0	0	4	4	2	2	0	4
Hungry_Donkey_bar_English_2	141	1	<?xml version="1.0"?>\n<Clock xmlns:dt="urn:schemas-microsoft-com:datatypes"><Description dt:dt="string">E-Prime Primary Realtime Clock</Description><StartTime><Timestamp dt:dt="int">0</Timestamp><DateUtc dt:dt="string">2016-04-13T20:00:44Z</DateUtc></StartTime><FrequencyChanges><FrequencyChange><Frequency dt:dt="r8">3507724</Frequency><Timestamp dt:dt="r8">226459458840</Timestamp><Current dt:dt="r8">0</Current><DateUtc dt:dt="string">2016-04-13T20:00:44Z</DateUtc></FrequencyChange></FrequencyChanges></Clock>\n	Hungry_Donkey_bar_English_2-141-1	60.018	9	1.0.0.18	1	-1173131205	Standard	2.0.10.353	2.0.10.353	04-13-2016	4/13/2016 8:00:44 PM	16:00:44	2.0.10.248	28	Bar50-50.bmp	53	1	?	10r_4g.bmp	0r_4g.bmp	2r_2g.bmp	0r_2g.bmp	10r_4g.bmp				TrialProc	TrialList	0	cvbn	-999999	16	181002	0	c	393	181395	82	-73	9	10	-26	7	18	3	3	28	-10	0	-2	0	4	4	2	2	-10	4
Hungry_Donkey_bar_English_2	141	1	<?xml version="1.0"?>\n<Clock xmlns:dt="urn:schemas-microsoft-com:datatypes"><Description dt:dt="string">E-Prime Primary Realtime Clock</Description><StartTime><Timestamp dt:dt="int">0</Timestamp><DateUtc dt:dt="string">2016-04-13T20:00:44Z</DateUtc></StartTime><FrequencyChanges><FrequencyChange><Frequency dt:dt="r8">3507724</Frequency><Timestamp dt:dt="r8">226459458840</Timestamp><Current dt:dt="r8">0</Current><DateUtc dt:dt="string">2016-04-13T20:00:44Z</DateUtc></FrequencyChange></FrequencyChanges></Clock>\n	Hungry_Donkey_bar_English_2-141-1	60.018	9	1.0.0.18	1	-1173131205	Standard	2.0.10.353	2.0.10.353	04-13-2016	4/13/2016 8:00:44 PM	16:00:44	2.0.10.248	29	Bar50-50.bmp	51	1	?	10r_4g.bmp	0r_4g.bmp	2r_2g.bmp	0r_2g.bmp	10r_4g.bmp				TrialProc	TrialList	0	cvbn	-999999	16	183435	0	c	792	184227	86	-83	3	4	-26	7	18	2	3	29	-10	0	-2	0	4	4	2	2	-10	4
Hungry_Donkey_bar_English_2	141	1	<?xml version="1.0"?>\n<Clock xmlns:dt="urn:schemas-microsoft-com:datatypes"><Description dt:dt="string">E-Prime Primary Realtime Clock</Description><StartTime><Timestamp dt:dt="int">0</Timestamp><DateUtc dt:dt="string">2016-04-13T20:00:44Z</DateUtc></StartTime><FrequencyChanges><FrequencyChange><Frequency dt:dt="r8">3507724</Frequency><Timestamp dt:dt="r8">226459458840</Timestamp><Current dt:dt="r8">0</Current><DateUtc dt:dt="string">2016-04-13T20:00:44Z</DateUtc></FrequencyChange></FrequencyChanges></Clock>\n	Hungry_Donkey_bar_English_2-141-1	60.018	9	1.0.0.18	1	-1173131205	Standard	2.0.10.353	2.0.10.353	04-13-2016	4/13/2016 8:00:44 PM	16:00:44	2.0.10.248	30	Bar50-50.bmp	49	1	?	12r_4g.bmp	0r_4g.bmp	3r_2g.bmp	0r_2g.bmp	12r_4g.bmp				TrialProc	TrialList	0	cvbn	-999999	15	186250	0	c	1000	187250	90	-95	-5	-4	-26	7	18	5	3	30	-12	0	-3	0	4	4	2	2	-12	4
Hungry_Donkey_bar_English_2	141	1	<?xml version="1.0"?>\n<Clock xmlns:dt="urn:schemas-microsoft-com:datatypes"><Description dt:dt="string">E-Prime Primary Realtime Clock</Description><StartTime><Timestamp dt:dt="int">0</Timestamp><DateUtc dt:dt="string">2016-04-13T20:00:44Z</DateUtc></StartTime><FrequencyChanges><FrequencyChange><Frequency dt:dt="r8">3507724</Frequency><Timestamp dt:dt="r8">226459458840</Timestamp><Current dt:dt="r8">0</Current><DateUtc dt:dt="string">2016-04-13T20:00:44Z</DateUtc></FrequencyChange></FrequencyChanges></Clock>\n	Hungry_Donkey_bar_English_2-141-1	60.018	9	1.0.0.18	1	-1173131205	Standard	2.0.10.353	2.0.10.353	04-13-2016	4/13/2016 8:00:44 PM	16:00:44	2.0.10.248	31	Bar50-50.bmp	47	1	?	10r_4g.bmp	0r_4g.bmp	2r_2g.bmp	0r_2g.bmp	10r_4g.bmp				TrialProc	TrialList	0	cvbn	-999999	16	189283	0	c	1631	190914	94	-105	-11	-10	-26	7	18	4	4	31	-10	0	-2	0	4	4	2	2	-10	4
Hungry_Donkey_bar_English_2	141	1	<?xml version="1.0"?>\n<Clock xmlns:dt="urn:schemas-microsoft-com:datatypes"><Description dt:dt="string">E-Prime Primary Realtime Clock</Description><StartTime><Timestamp dt:dt="int">0</Timestamp><DateUtc dt:dt="string">2016-04-13T20:00:44Z</DateUtc></StartTime><FrequencyChanges><FrequencyChange><Frequency dt:dt="r8">3507724</Frequency><Timestamp dt:dt="r8">226459458840</Timestamp><Current dt:dt="r8">0</Current><DateUtc dt:dt="string">2016-04-13T20:00:44Z</DateUtc></FrequencyChange></FrequencyChanges></Clock>\n	Hungry_Donkey_bar_English_2-141-1	60.018	9	1.0.0.18	1	-1173131205	Standard	2.0.10.353	2.0.10.353	04-13-2016	4/13/2016 8:00:44 PM	16:00:44	2.0.10.248	32	Bar50-50.bmp	48	1	?	0r_4g.bmp	0r_4g.bmp	0r_2g.bmp	0r_2g.bmp	0r_4g.bmp				TrialProc	TrialList	0	cvbn	-999999	16	192948	0	c	766	193714	98	-105	-7	-6	-26	7	18	10	4	32	0	0	0	0	4	4	2	2	0	4
Hungry_Donkey_bar_English_2	141	1	<?xml version="1.0"?>\n<Clock xmlns:dt="urn:schemas-microsoft-com:datatypes"><Description dt:dt="string">E-Prime Primary Realtime Clock</Description><StartTime><Timestamp dt:dt="int">0</Timestamp><DateUtc dt:dt="string">2016-04-13T20:00:44Z</DateUtc></StartTime><FrequencyChanges><FrequencyChange><Frequency dt:dt="r8">3507724</Frequency><Timestamp dt:dt="r8">226459458840</Timestamp><Current dt:dt="r8">0</Current><DateUtc dt:dt="string">2016-04-13T20:00:44Z</DateUtc></FrequencyChange></FrequencyChanges></Clock>\n	Hungry_Donkey_bar_English_2-141-1	60.018	9	1.0.0.18	1	-1173131205	Standard	2.0.10.353	2.0.10.353	04-13-2016	4/13/2016 8:00:44 PM	16:00:44	2.0.10.248	33	Bar50-50.bmp	49	2	?	10r_4g.bmp	0r_4g.bmp	2r_2g.bmp	0r_2g.bmp		0r_4g.bmp			TrialProc	TrialList	0	cvbn	-999999	17	195748	0	v	142	195890	102	-105	-3	-6	-22	7	18	3	4	33	-10	0	-2	0	4	4	2	2	0	4
Hungry_Donkey_bar_English_2	141	1	<?xml version="1.0"?>\n<Clock xmlns:dt="urn:schemas-microsoft-com:datatypes"><Description dt:dt="string">E-Prime Primary Realtime Clock</Description><StartTime><Timestamp dt:dt="int">0</Timestamp><DateUtc dt:dt="string">2016-04-13T20:00:44Z</DateUtc></StartTime><FrequencyChanges><FrequencyChange><Frequency dt:dt="r8">3507724</Frequency><Timestamp dt:dt="r8">226459458840</Timestamp><Current dt:dt="r8">0</Current><DateUtc dt:dt="string">2016-04-13T20:00:44Z</DateUtc></FrequencyChange></FrequencyChanges></Clock>\n	Hungry_Donkey_bar_English_2-141-1	60.018	9	1.0.0.18	1	-1173131205	Standard	2.0.10.353	2.0.10.353	04-13-2016	4/13/2016 8:00:44 PM	16:00:44	2.0.10.248	34	Bar50-50.bmp	50	3	?	0r_4g.bmp	0r_4g.bmp	0r_2g.bmp	0r_2g.bmp			0r_2g.bmp		TrialProc	TrialList	0	cvbn	-999999	16	197914	0	b	168	198082	104	-105	-1	-6	-22	9	18	6	4	34	0	0	0	0	4	4	2	2	0	2
Hungry_Donkey_bar_English_2	141	1	<?xml version="1.0"?>\n<Clock xmlns:dt="urn:schemas-microsoft-com:datatypes"><Description dt:dt="string">E-Prime Primary Realtime Clock</Description><StartTime><Timestamp dt:dt="int">0</Timestamp><DateUtc dt:dt="string">2016-04-13T20:00:44Z</DateUtc></StartTime><FrequencyChanges><FrequencyChange><Frequency dt:dt="r8">3507724</Frequency><Timestamp dt:dt="r8">226459458840</Timestamp><Current dt:dt="r8">0</Current><DateUtc dt:dt="string">2016-04-13T20:00:44Z</DateUtc></FrequencyChange></FrequencyChanges></Clock>\n	Hungry_Donkey_bar_English_2-141-1	60.018	9	1.0.0.18	1	-1173131205	Standard	2.0.10.353	2.0.10.353	04-13-2016	4/13/2016 8:00:44 PM	16:00:44	2.0.10.248	35	Bar50-50.bmp	50	4	?	0r_4g.bmp	0r_4g.bmp	0r_2g.bmp	0r_2g.bmp				0r_2g.bmp	TrialProc	TrialList	0	cvbn	-999999	16	200113	0	n	241	200354	106	-105	1	-6	-22	9	20	7	4	35	0	0	0	0	4	4	2	2	0	2
Hungry_Donkey_bar_English_2	141	1	<?xml version="1.0"?>\n<Clock xmlns:dt="urn:schemas-microsoft-com:datatypes"><Description dt:dt="string">E-Prime Primary Realtime Clock</Description><StartTime><Timestamp dt:dt="int">0</Timestamp><DateUtc dt:dt="string">2016-04-13T20:00:44Z</DateUtc></StartTime><FrequencyChanges><FrequencyChange><Frequency dt:dt="r8">3507724</Frequency><Timestamp dt:dt="r8">226459458840</Timestamp><Current dt:dt="r8">0</Current><DateUtc dt:dt="string">2016-04-13T20:00:44Z</DateUtc></FrequencyChange></FrequencyChanges></Clock>\n	Hungry_Donkey_bar_English_2-141-1	60.018	9	1.0.0.18	1	-1173131205	Standard	2.0.10.353	2.0.10.353	04-13-2016	4/13/2016 8:00:44 PM	16:00:44	2.0.10.248	36	Bar50-50.bmp	49	1	?	8r_4g.bmp	50r_4g.bmp	1r_2g.bmp	10r_2g.bmp	8r_4g.bmp				TrialProc	TrialList	0	cvbn	-999999	16	202379	0	c	678	203057	110	-113	-3	-10	-22	9	20	1	4	36	-8	-50	-1	-10	4	4	2	2	-8	4
Hungry_Donkey_bar_English_2	141	1	<?xml version="1.0"?>\n<Clock xmlns:dt="urn:schemas-microsoft-com:datatypes"><Description dt:dt="string">E-Prime Primary Realtime Clock</Description><StartTime><Timestamp dt:dt="int">0</Timestamp><DateUtc dt:dt="string">2016-04-13T20:00:44Z</DateUtc></StartTime><FrequencyChanges><FrequencyChange><Frequency dt:dt="r8">3507724</Frequency><Timestamp dt:dt="r8">226459458840</Timestamp><Current dt:dt="r8">0</Current><DateUtc dt:dt="string">2016-04-13T20:00:44Z</DateUtc></FrequencyChange></FrequencyChanges></Clock>\n	Hungry_Donkey_bar_English_2-141-1	60.018	9	1.0.0.18	1	-1173131205	Standard	2.0.10.353	2.0.10.353	04-13-2016	4/13/2016 8:00:44 PM	16:00:44	2.0.10.248	37	Bar50-50.bmp	49	3	?	12r_4g.bmp	0r_4g.bmp	3r_2g.bmp	0r_2g.bmp			3r_2g.bmp		TrialProc	TrialList	0	cvbn	-999999	16	205095	0	b	2298	207393	112	-116	-4	-10	-22	8	20	5	4	37	-12	0	-3	0	4	4	2	2	-3	2
Hungry_Donkey_bar_English_2	141	1	<?xml version="1.0"?>\n<Clock xmlns:dt="urn:schemas-microsoft-com:datatypes"><Description dt:dt="string">E-Prime Primary Realtime Clock</Description><StartTime><Timestamp dt:dt="int">0</Timestamp><DateUtc dt:dt="string">2016-04-13T20:00:44Z</DateUtc></StartTime><FrequencyChanges><FrequencyChange><Frequency dt:dt="r8">3507724</Frequency><Timestamp dt:dt="r8">226459458840</Timestamp><Current dt:dt="r8">0</Current><DateUtc dt:dt="string">2016-04-13T20:00:44Z</DateUtc></FrequencyChange></FrequencyChanges></Clock>\n	Hungry_Donkey_bar_English_2-141-1	60.018	9	1.0.0.18	1	-1173131205	Standard	2.0.10.353	2.0.10.353	04-13-2016	4/13/2016 8:00:44 PM	16:00:44	2.0.10.248	38	Bar50-50.bmp	50	4	?	0r_4g.bmp	0r_4g.bmp	0r_2g.bmp	0r_2g.bmp				0r_2g.bmp	TrialProc	TrialList	0	cvbn	-999999	16	209427	0	n	1358	210785	114	-116	-2	-10	-22	8	22	8	4	38	0	0	0	0	4	4	2	2	0	2
Hungry_Donkey_bar_English_2	141	1	<?xml version="1.0"?>\n<Clock xmlns:dt="urn:schemas-microsoft-com:datatypes"><Description dt:dt="string">E-Prime Primary Realtime Clock</Description><StartTime><Timestamp dt:dt="int">0</Timestamp><DateUtc dt:dt="string">2016-04-13T20:00:44Z</DateUtc></StartTime><FrequencyChanges><FrequencyChange><Frequency dt:dt="r8">3507724</Frequency><Timestamp dt:dt="r8">226459458840</Timestamp><Current dt:dt="r8">0</Current><DateUtc dt:dt="string">2016-04-13T20:00:44Z</DateUtc></FrequencyChange></FrequencyChanges></Clock>\n	Hungry_Donkey_bar_English_2-141-1	60.018	9	1.0.0.18	1	-1173131205	Standard	2.0.10.353	2.0.10.353	04-13-2016	4/13/2016 8:00:44 PM	16:00:44	2.0.10.248	39	Bar50-50.bmp	50	3	?	0r_4g.bmp	0r_4g.bmp	0r_2g.bmp	0r_2g.bmp			0r_2g.bmp		TrialProc	TrialList	0	cvbn	-999999	15	212809	0	b	3128	215937	116	-116	0	-10	-22	10	22	9	4	39	0	0	0	0	4	4	2	2	0	2
Hungry_Donkey_bar_English_2	141	1	<?xml version="1.0"?>\n<Clock xmlns:dt="urn:schemas-microsoft-com:datatypes"><Description dt:dt="string">E-Prime Primary Realtime Clock</Description><StartTime><Timestamp dt:dt="int">0</Timestamp><DateUtc dt:dt="string">2016-04-13T20:00:44Z</DateUtc></StartTime><FrequencyChanges><FrequencyChange><Frequency dt:dt="r8">3507724</Frequency><Timestamp dt:dt="r8">226459458840</Timestamp><Current dt:dt="r8">0</Current><DateUtc dt:dt="string">2016-04-13T20:00:44Z</DateUtc></FrequencyChange></FrequencyChanges></Clock>\n	Hungry_Donkey_bar_English_2-141-1	60.018	9	1.0.0.18	1	-1173131205	Standard	2.0.10.353	2.0.10.353	04-13-2016	4/13/2016 8:00:44 PM	16:00:44	2.0.10.248	40	Bar50-50.bmp	50	3	?	10r_4g.bmp	0r_4g.bmp	2r_2g.bmp	0r_2g.bmp			2r_2g.bmp		TrialProc	TrialList	0	cvbn	-999999	16	217974	0	b	490	218464	118	-118	0	-10	-22	10	22	2	4	40	-10	0	-2	0	4	4	2	2	-2	2
Hungry_Donkey_bar_English_2	141	1	<?xml version="1.0"?>\n<Clock xmlns:dt="urn:schemas-microsoft-com:datatypes"><Description dt:dt="string">E-Prime Primary Realtime Clock</Description><StartTime><Timestamp dt:dt="int">0</Timestamp><DateUtc dt:dt="string">2016-04-13T20:00:44Z</DateUtc></StartTime><FrequencyChanges><FrequencyChange><Frequency dt:dt="r8">3507724</Frequency><Timestamp dt:dt="r8">226459458840</Timestamp><Current dt:dt="r8">0</Current><DateUtc dt:dt="string">2016-04-13T20:00:44Z</DateUtc></FrequencyChange></FrequencyChanges></Clock>\n	Hungry_Donkey_bar_English_2-141-1	60.018	9	1.0.0.18	1	-1173131205	Standard	2.0.10.353	2.0.10.353	04-13-2016	4/13/2016 8:00:44 PM	16:00:44	2.0.10.248	41	Bar50-50.bmp	51	2	?	0r_4g.bmp	0r_4g.bmp	0r_2g.bmp	0r_2g.bmp		0r_4g.bmp			TrialProc	TrialList	0	cvbn	-999999	16	220490	0	v	390	220880	122	-118	4	-10	-18	10	22	10	5	41	0	0	0	0	4	4	2	2	0	4
Hungry_Donkey_bar_English_2	141	1	<?xml version="1.0"?>\n<Clock xmlns:dt="urn:schemas-microsoft-com:datatypes"><Description dt:dt="string">E-Prime Primary Realtime Clock</Description><StartTime><Timestamp dt:dt="int">0</Timestamp><DateUtc dt:dt="string">2016-04-13T20:00:44Z</DateUtc></StartTime><FrequencyChanges><FrequencyChange><Frequency dt:dt="r8">3507724</Frequency><Timestamp dt:dt="r8">226459458840</Timestamp><Current dt:dt="r8">0</Current><DateUtc dt:dt="string">2016-04-13T20:00:44Z</DateUtc></FrequencyChange></FrequencyChanges></Clock>\n	Hungry_Donkey_bar_English_2-141-1	60.018	9	1.0.0.18	1	-1173131205	Standard	2.0.10.353	2.0.10.353	04-13-2016	4/13/2016 8:00:44 PM	16:00:44	2.0.10.248	42	Bar50-50.bmp	50	1	?	10r_4g.bmp	0r_4g.bmp	2r_2g.bmp	0r_2g.bmp	10r_4g.bmp				TrialProc	TrialList	0	cvbn	-999999	16	222906	0	c	86	222992	126	-128	-2	-16	-18	10	22	4	5	42	-10	0	-2	0	4	4	2	2	-10	4
Hungry_Donkey_bar_English_2	141	1	<?xml version="1.0"?>\n<Clock xmlns:dt="urn:schemas-microsoft-com:datatypes"><Description dt:dt="string">E-Prime Primary Realtime Clock</Description><StartTime><Timestamp dt:dt="int">0</Timestamp><DateUtc dt:dt="string">2016-04-13T20:00:44Z</DateUtc></StartTime><FrequencyChanges><FrequencyChange><Frequency dt:dt="r8">3507724</Frequency><Timestamp dt:dt="r8">226459458840</Timestamp><Current dt:dt="r8">0</Current><DateUtc dt:dt="string">2016-04-13T20:00:44Z</DateUtc></FrequencyChange></FrequencyChanges></Clock>\n	Hungry_Donkey_bar_English_2-141-1	60.018	9	1.0.0.18	1	-1173131205	Standard	2.0.10.353	2.0.10.353	04-13-2016	4/13/2016 8:00:44 PM	16:00:44	2.0.10.248	43	Bar37-63.bmp	42	2	?	8r_4g.bmp	50r_4g.bmp	1r_2g.bmp	10r_2g.bmp		50r_4g.bmp			TrialProc	TrialList	0	cvbn	-999999	16	225022	0	v	1522	226544	130	-178	-48	-16	-64	10	22	1	5	43	-8	-50	-1	-10	4	4	2	2	-50	4
Hungry_Donkey_bar_English_2	141	1	<?xml version="1.0"?>\n<Clock xmlns:dt="urn:schemas-microsoft-com:datatypes"><Description dt:dt="string">E-Prime Primary Realtime Clock</Description><StartTime><Timestamp dt:dt="int">0</Timestamp><DateUtc dt:dt="string">2016-04-13T20:00:44Z</DateUtc></StartTime><FrequencyChanges><FrequencyChange><Frequency dt:dt="r8">3507724</Frequency><Timestamp dt:dt="r8">226459458840</Timestamp><Current dt:dt="r8">0</Current><DateUtc dt:dt="string">2016-04-13T20:00:44Z</DateUtc></FrequencyChange></FrequencyChanges></Clock>\n	Hungry_Donkey_bar_English_2-141-1	60.018	9	1.0.0.18	1	-1173131205	Standard	2.0.10.353	2.0.10.353	04-13-2016	4/13/2016 8:00:44 PM	16:00:44	2.0.10.248	44	Bar37-63.bmp	43	4	?	10r_4g.bmp	0r_4g.bmp	2r_2g.bmp	0r_2g.bmp				0r_2g.bmp	TrialProc	TrialList	0	cvbn	-999999	16	228588	0	n	1700	230288	132	-178	-46	-16	-64	10	24	2	5	44	-10	0	-2	0	4	4	2	2	0	2
Hungry_Donkey_bar_English_2	141	1	<?xml version="1.0"?>\n<Clock xmlns:dt="urn:schemas-microsoft-com:datatypes"><Description dt:dt="string">E-Prime Primary Realtime Clock</Description><StartTime><Timestamp dt:dt="int">0</Timestamp><DateUtc dt:dt="string">2016-04-13T20:00:44Z</DateUtc></StartTime><FrequencyChanges><FrequencyChange><Frequency dt:dt="r8">3507724</Frequency><Timestamp dt:dt="r8">226459458840</Timestamp><Current dt:dt="r8">0</Current><DateUtc dt:dt="string">2016-04-13T20:00:44Z</DateUtc></FrequencyChange></FrequencyChanges></Clock>\n	Hungry_Donkey_bar_English_2-141-1	60.018	9	1.0.0.18	1	-1173131205	Standard	2.0.10.353	2.0.10.353	04-13-2016	4/13/2016 8:00:44 PM	16:00:44	2.0.10.248	45	Bar37-63.bmp	43	4	?	0r_4g.bmp	0r_4g.bmp	0r_2g.bmp	0r_2g.bmp				0r_2g.bmp	TrialProc	TrialList	0	cvbn	-999999	16	232320	0	n	3071	235391	134	-178	-44	-16	-64	10	26	8	5	45	0	0	0	0	4	4	2	2	0	2
Hungry_Donkey_bar_English_2	141	1	<?xml version="1.0"?>\n<Clock xmlns:dt="urn:schemas-microsoft-com:datatypes"><Description dt:dt="string">E-Prime Primary Realtime Clock</Description><StartTime><Timestamp dt:dt="int">0</Timestamp><DateUtc dt:dt="string">2016-04-13T20:00:44Z</DateUtc></StartTime><FrequencyChanges><FrequencyChange><Frequency dt:dt="r8">3507724</Frequency><Timestamp dt:dt="r8">226459458840</Timestamp><Current dt:dt="r8">0</Current><DateUtc dt:dt="string">2016-04-13T20:00:44Z</DateUtc></FrequencyChange></FrequencyChanges></Clock>\n	Hungry_Donkey_bar_English_2-141-1	60.018	9	1.0.0.18	1	-1173131205	Standard	2.0.10.353	2.0.10.353	04-13-2016	4/13/2016 8:00:44 PM	16:00:44	2.0.10.248	46	Bar37-63.bmp	43	3	?	10r_4g.bmp	0r_4g.bmp	2r_2g.bmp	0r_2g.bmp			2r_2g.bmp		TrialProc	TrialList	0	cvbn	-999999	16	237418	0	b	677	238095	136	-180	-44	-16	-64	10	26	3	5	46	-10	0	-2	0	4	4	2	2	-2	2
Hungry_Donkey_bar_English_2	141	1	<?xml version="1.0"?>\n<Clock xmlns:dt="urn:schemas-microsoft-com:datatypes"><Description dt:dt="string">E-Prime Primary Realtime Clock</Description><StartTime><Timestamp dt:dt="int">0</Timestamp><DateUtc dt:dt="string">2016-04-13T20:00:44Z</DateUtc></StartTime><FrequencyChanges><FrequencyChange><Frequency dt:dt="r8">3507724</Frequency><Timestamp dt:dt="r8">226459458840</Timestamp><Current dt:dt="r8">0</Current><DateUtc dt:dt="string">2016-04-13T20:00:44Z</DateUtc></FrequencyChange></FrequencyChanges></Clock>\n	Hungry_Donkey_bar_English_2-141-1	60.018	9	1.0.0.18	1	-1173131205	Standard	2.0.10.353	2.0.10.353	04-13-2016	4/13/2016 8:00:44 PM	16:00:44	2.0.10.248	47	Bar50-50.bmp	44	2	?	0r_4g.bmp	0r_4g.bmp	0r_2g.bmp	0r_2g.bmp		0r_4g.bmp			TrialProc	TrialList	0	cvbn	-999999	16	240134	0	v	9	240143	140	-180	-40	-16	-60	10	26	6	5	47	0	0	0	0	4	4	2	2	0	4
Hungry_Donkey_bar_English_2	141	1	<?xml version="1.0"?>\n<Clock xmlns:dt="urn:schemas-microsoft-com:datatypes"><Description dt:dt="string">E-Prime Primary Realtime Clock</Description><StartTime><Timestamp dt:dt="int">0</Timestamp><DateUtc dt:dt="string">2016-04-13T20:00:44Z</DateUtc></StartTime><FrequencyChanges><FrequencyChange><Frequency dt:dt="r8">3507724</Frequency><Timestamp dt:dt="r8">226459458840</Timestamp><Current dt:dt="r8">0</Current><DateUtc dt:dt="string">2016-04-13T20:00:44Z</DateUtc></FrequencyChange></FrequencyChanges></Clock>\n	Hungry_Donkey_bar_English_2-141-1	60.018	9	1.0.0.18	1	-1173131205	Standard	2.0.10.353	2.0.10.353	04-13-2016	4/13/2016 8:00:44 PM	16:00:44	2.0.10.248	48	Bar50-50.bmp	44	1	?	0r_4g.bmp	0r_4g.bmp	0r_2g.bmp	0r_2g.bmp	0r_4g.bmp				TrialProc	TrialList	0	cvbn	-999999	16	242167	0	c	152	242319	144	-180	-36	-12	-60	10	26	7	5	48	0	0	0	0	4	4	2	2	0	4
Hungry_Donkey_bar_English_2	141	1	<?xml version="1.0"?>\n<Clock xmlns:dt="urn:schemas-microsoft-com:datatypes"><Description dt:dt="string">E-Prime Primary Realtime Clock</Description><StartTime><Timestamp dt:dt="int">0</Timestamp><DateUtc dt:dt="string">2016-04-13T20:00:44Z</DateUtc></StartTime><FrequencyChanges><FrequencyChange><Frequency dt:dt="r8">3507724</Frequency><Timestamp dt:dt="r8">226459458840</Timestamp><Current dt:dt="r8">0</Current><DateUtc dt:dt="string">2016-04-13T20:00:44Z</DateUtc></FrequencyChange></FrequencyChanges></Clock>\n	Hungry_Donkey_bar_English_2-141-1	60.018	9	1.0.0.18	1	-1173131205	Standard	2.0.10.353	2.0.10.353	04-13-2016	4/13/2016 8:00:44 PM	16:00:44	2.0.10.248	49	Bar50-50.bmp	45	4	?	12r_4g.bmp	0r_4g.bmp	3r_2g.bmp	0r_2g.bmp				0r_2g.bmp	TrialProc	TrialList	0	cvbn	-999999	16	244350	0	n	1185	245535	146	-180	-34	-12	-60	10	28	5	5	49	-12	0	-3	0	4	4	2	2	0	2
Hungry_Donkey_bar_English_2	141	1	<?xml version="1.0"?>\n<Clock xmlns:dt="urn:schemas-microsoft-com:datatypes"><Description dt:dt="string">E-Prime Primary Realtime Clock</Description><StartTime><Timestamp dt:dt="int">0</Timestamp><DateUtc dt:dt="string">2016-04-13T20:00:44Z</DateUtc></StartTime><FrequencyChanges><FrequencyChange><Frequency dt:dt="r8">3507724</Frequency><Timestamp dt:dt="r8">226459458840</Timestamp><Current dt:dt="r8">0</Current><DateUtc dt:dt="string">2016-04-13T20:00:44Z</DateUtc></FrequencyChange></FrequencyChanges></Clock>\n	Hungry_Donkey_bar_English_2-141-1	60.018	9	1.0.0.18	1	-1173131205	Standard	2.0.10.353	2.0.10.353	04-13-2016	4/13/2016 8:00:44 PM	16:00:44	2.0.10.248	50	Bar50-50.bmp	45	3	?	0r_4g.bmp	0r_4g.bmp	0r_2g.bmp	0r_2g.bmp			0r_2g.bmp		TrialProc	TrialList	0	cvbn	-999999	16	247565	0	b	690	248255	148	-180	-32	-12	-60	12	28	9	5	50	0	0	0	0	4	4	2	2	0	2
Hungry_Donkey_bar_English_2	141	1	<?xml version="1.0"?>\n<Clock xmlns:dt="urn:schemas-microsoft-com:datatypes"><Description dt:dt="string">E-Prime Primary Realtime Clock</Description><StartTime><Timestamp dt:dt="int">0</Timestamp><DateUtc dt:dt="string">2016-04-13T20:00:44Z</DateUtc></StartTime><FrequencyChanges><FrequencyChange><Frequency dt:dt="r8">3507724</Frequency><Timestamp dt:dt="r8">226459458840</Timestamp><Current dt:dt="r8">0</Current><DateUtc dt:dt="string">2016-04-13T20:00:44Z</DateUtc></FrequencyChange></FrequencyChanges></Clock>\n	Hungry_Donkey_bar_English_2-141-1	60.018	9	1.0.0.18	1	-1173131205	Standard	2.0.10.353	2.0.10.353	04-13-2016	4/13/2016 8:00:44 PM	16:00:44	2.0.10.248	51	Bar50-50.bmp	46	2	?	0r_4g.bmp	0r_4g.bmp	0r_2g.bmp	0r_2g.bmp		0r_4g.bmp			TrialProc	TrialList	0	cvbn	-999999	16	250281	0	v	885	251166	152	-180	-28	-12	-56	12	28	9	6	51	0	0	0	0	4	4	2	2	0	4
Hungry_Donkey_bar_English_2	141	1	<?xml version="1.0"?>\n<Clock xmlns:dt="urn:schemas-microsoft-com:datatypes"><Description dt:dt="string">E-Prime Primary Realtime Clock</Description><StartTime><Timestamp dt:dt="int">0</Timestamp><DateUtc dt:dt="string">2016-04-13T20:00:44Z</DateUtc></StartTime><FrequencyChanges><FrequencyChange><Frequency dt:dt="r8">3507724</Frequency><Timestamp dt:dt="r8">226459458840</Timestamp><Current dt:dt="r8">0</Current><DateUtc dt:dt="string">2016-04-13T20:00:44Z</DateUtc></FrequencyChange></FrequencyChanges></Clock>\n	Hungry_Donkey_bar_English_2-141-1	60.018	9	1.0.0.18	1	-1173131205	Standard	2.0.10.353	2.0.10.353	04-13-2016	4/13/2016 8:00:44 PM	16:00:44	2.0.10.248	52	Bar50-50.bmp	46	4	?	0r_4g.bmp	0r_4g.bmp	0r_2g.bmp	0r_2g.bmp				0r_2g.bmp	TrialProc	TrialList	0	cvbn	-999999	16	253197	0	n	193	253390	154	-180	-26	-12	-56	12	30	6	6	52	0	0	0	0	4	4	2	2	0	2
Hungry_Donkey_bar_English_2	141	1	<?xml version="1.0"?>\n<Clock xmlns:dt="urn:schemas-microsoft-com:datatypes"><Description dt:dt="string">E-Prime Primary Realtime Clock</Description><StartTime><Timestamp dt:dt="int">0</Timestamp><DateUtc dt:dt="string">2016-04-13T20:00:44Z</DateUtc></StartTime><FrequencyChanges><FrequencyChange><Frequency dt:dt="r8">3507724</Frequency><Timestamp dt:dt="r8">226459458840</Timestamp><Current dt:dt="r8">0</Current><DateUtc dt:dt="string">2016-04-13T20:00:44Z</DateUtc></FrequencyChange></FrequencyChanges></Clock>\n	Hungry_Donkey_bar_English_2-141-1	60.018	9	1.0.0.18	1	-1173131205	Standard	2.0.10.353	2.0.10.353	04-13-2016	4/13/2016 8:00:44 PM	16:00:44	2.0.10.248	53	Bar50-50.bmp	45	1	?	10r_4g.bmp	0r_4g.bmp	2r_2g.bmp	0r_2g.bmp	10r_4g.bmp				TrialProc	TrialList	0	cvbn	-999999	16	255430	0	c	8	255438	158	-190	-32	-18	-56	12	30	3	6	53	-10	0	-2	0	4	4	2	2	-10	4
Hungry_Donkey_bar_English_2	141	1	<?xml version="1.0"?>\n<Clock xmlns:dt="urn:schemas-microsoft-com:datatypes"><Description dt:dt="string">E-Prime Primary Realtime Clock</Description><StartTime><Timestamp dt:dt="int">0</Timestamp><DateUtc dt:dt="string">2016-04-13T20:00:44Z</DateUtc></StartTime><FrequencyChanges><FrequencyChange><Frequency dt:dt="r8">3507724</Frequency><Timestamp dt:dt="r8">226459458840</Timestamp><Current dt:dt="r8">0</Current><DateUtc dt:dt="string">2016-04-13T20:00:44Z</DateUtc></FrequencyChange></FrequencyChanges></Clock>\n	Hungry_Donkey_bar_English_2-141-1	60.018	9	1.0.0.18	1	-1173131205	Standard	2.0.10.353	2.0.10.353	04-13-2016	4/13/2016 8:00:44 PM	16:00:44	2.0.10.248	54	Bar50-50.bmp	46	1	?	0r_4g.bmp	0r_4g.bmp	0r_2g.bmp	0r_2g.bmp	0r_4g.bmp				TrialProc	TrialList	0	cvbn	-999999	16	257462	0	c	1304	258766	162	-190	-28	-14	-56	12	30	8	6	54	0	0	0	0	4	4	2	2	0	4
Hungry_Donkey_bar_English_2	141	1	<?xml version="1.0"?>\n<Clock xmlns:dt="urn:schemas-microsoft-com:datatypes"><Description dt:dt="string">E-Prime Primary Realtime Clock</Description><StartTime><Timestamp dt:dt="int">0</Timestamp><DateUtc dt:dt="string">2016-04-13T20:00:44Z</DateUtc></StartTime><FrequencyChanges><FrequencyChange><Frequency dt:dt="r8">3507724</Frequency><Timestamp dt:dt="r8">226459458840</Timestamp><Current dt:dt="r8">0</Current><DateUtc dt:dt="string">2016-04-13T20:00:44Z</DateUtc></FrequencyChange></FrequencyChanges></Clock>\n	Hungry_Donkey_bar_English_2-141-1	60.018	9	1.0.0.18	1	-1173131205	Standard	2.0.10.353	2.0.10.353	04-13-2016	4/13/2016 8:00:44 PM	16:00:44	2.0.10.248	55	Bar50-50.bmp	45	1	?	10r_4g.bmp	0r_4g.bmp	2r_2g.bmp	0r_2g.bmp	10r_4g.bmp				TrialProc	TrialList	0	cvbn	-999999	16	260795	0	c	531	261326	166	-200	-34	-20	-56	12	30	2	6	55	-10	0	-2	0	4	4	2	2	-10	4
Hungry_Donkey_bar_English_2	141	1	<?xml version="1.0"?>\n<Clock xmlns:dt="urn:schemas-microsoft-com:datatypes"><Description dt:dt="string">E-Prime Primary Realtime Clock</Description><StartTime><Timestamp dt:dt="int">0</Timestamp><DateUtc dt:dt="string">2016-04-13T20:00:44Z</DateUtc></StartTime><FrequencyChanges><FrequencyChange><Frequency dt:dt="r8">3507724</Frequency><Timestamp dt:dt="r8">226459458840</Timestamp><Current dt:dt="r8">0</Current><DateUtc dt:dt="string">2016-04-13T20:00:44Z</DateUtc></FrequencyChange></FrequencyChanges></Clock>\n	Hungry_Donkey_bar_English_2-141-1	60.018	9	1.0.0.18	1	-1173131205	Standard	2.0.10.353	2.0.10.353	04-13-2016	4/13/2016 8:00:44 PM	16:00:44	2.0.10.248	56	Bar50-50.bmp	45	1	?	12r_4g.bmp	0r_4g.bmp	3r_2g.bmp	0r_2g.bmp	12r_4g.bmp				TrialProc	TrialList	0	cvbn	-999999	16	263361	0	c	541	263902	170	-212	-42	-28	-56	12	30	5	6	56	-12	0	-3	0	4	4	2	2	-12	4
Hungry_Donkey_bar_English_2	141	1	<?xml version="1.0"?>\n<Clock xmlns:dt="urn:schemas-microsoft-com:datatypes"><Description dt:dt="string">E-Prime Primary Realtime Clock</Description><StartTime><Timestamp dt:dt="int">0</Timestamp><DateUtc dt:dt="string">2016-04-13T20:00:44Z</DateUtc></StartTime><FrequencyChanges><FrequencyChange><Frequency dt:dt="r8">3507724</Frequency><Timestamp dt:dt="r8">226459458840</Timestamp><Current dt:dt="r8">0</Current><DateUtc dt:dt="string">2016-04-13T20:00:44Z</DateUtc></FrequencyChange></FrequencyChanges></Clock>\n	Hungry_Donkey_bar_English_2-141-1	60.018	9	1.0.0.18	1	-1173131205	Standard	2.0.10.353	2.0.10.353	04-13-2016	4/13/2016 8:00:44 PM	16:00:44	2.0.10.248	57	Bar50-50.bmp	45	1	?	0r_4g.bmp	0r_4g.bmp	0r_2g.bmp	0r_2g.bmp	0r_4g.bmp				TrialProc	TrialList	0	cvbn	-999999	17	265927	0	c	870	266797	174	-212	-38	-24	-56	12	30	10	6	57	0	0	0	0	4	4	2	2	0	4
Hungry_Donkey_bar_English_2	141	1	<?xml version="1.0"?>\n<Clock xmlns:dt="urn:schemas-microsoft-com:datatypes"><Description dt:dt="string">E-Prime Primary Realtime Clock</Description><StartTime><Timestamp dt:dt="int">0</Timestamp><DateUtc dt:dt="string">2016-04-13T20:00:44Z</DateUtc></StartTime><FrequencyChanges><FrequencyChange><Frequency dt:dt="r8">3507724</Frequency><Timestamp dt:dt="r8">226459458840</Timestamp><Current dt:dt="r8">0</Current><DateUtc dt:dt="string">2016-04-13T20:00:44Z</DateUtc></FrequencyChange></FrequencyChanges></Clock>\n	Hungry_Donkey_bar_English_2-141-1	60.018	9	1.0.0.18	1	-1173131205	Standard	2.0.10.353	2.0.10.353	04-13-2016	4/13/2016 8:00:44 PM	16:00:44	2.0.10.248	58	Bar37-63.bmp	40	2	?	8r_4g.bmp	50r_4g.bmp	1r_2g.bmp	10r_2g.bmp		50r_4g.bmp			TrialProc	TrialList	0	cvbn	-999999	16	268826	0	v	1459	270285	178	-262	-84	-24	-102	12	30	1	6	58	-8	-50	-1	-10	4	4	2	2	-50	4
Hungry_Donkey_bar_English_2	141	1	<?xml version="1.0"?>\n<Clock xmlns:dt="urn:schemas-microsoft-com:datatypes"><Description dt:dt="string">E-Prime Primary Realtime Clock</Description><StartTime><Timestamp dt:dt="int">0</Timestamp><DateUtc dt:dt="string">2016-04-13T20:00:44Z</DateUtc></StartTime><FrequencyChanges><FrequencyChange><Frequency dt:dt="r8">3507724</Frequency><Timestamp dt:dt="r8">226459458840</Timestamp><Current dt:dt="r8">0</Current><DateUtc dt:dt="string">2016-04-13T20:00:44Z</DateUtc></FrequencyChange></FrequencyChanges></Clock>\n	Hungry_Donkey_bar_English_2-141-1	60.018	9	1.0.0.18	1	-1173131205	Standard	2.0.10.353	2.0.10.353	04-13-2016	4/13/2016 8:00:44 PM	16:00:44	2.0.10.248	59	Bar37-63.bmp	41	3	?	10r_4g.bmp	0r_4g.bmp	2r_2g.bmp	0r_2g.bmp			2r_2g.bmp		TrialProc	TrialList	0	cvbn	-999999	16	272325	0	b	856	273181	180	-264	-84	-24	-102	12	30	4	6	59	-10	0	-2	0	4	4	2	2	-2	2
Hungry_Donkey_bar_English_2	141	1	<?xml version="1.0"?>\n<Clock xmlns:dt="urn:schemas-microsoft-com:datatypes"><Description dt:dt="string">E-Prime Primary Realtime Clock</Description><StartTime><Timestamp dt:dt="int">0</Timestamp><DateUtc dt:dt="string">2016-04-13T20:00:44Z</DateUtc></StartTime><FrequencyChanges><FrequencyChange><Frequency dt:dt="r8">3507724</Frequency><Timestamp dt:dt="r8">226459458840</Timestamp><Current dt:dt="r8">0</Current><DateUtc dt:dt="string">2016-04-13T20:00:44Z</DateUtc></FrequencyChange></FrequencyChanges></Clock>\n	Hungry_Donkey_bar_English_2-141-1	60.018	9	1.0.0.18	1	-1173131205	Standard	2.0.10.353	2.0.10.353	04-13-2016	4/13/2016 8:00:44 PM	16:00:44	2.0.10.248	60	Bar37-63.bmp	41	2	?	0r_4g.bmp	0r_4g.bmp	0r_2g.bmp	0r_2g.bmp		0r_4g.bmp			TrialProc	TrialList	0	cvbn	-999999	16	275207	0	v	326	275533	184	-264	-80	-24	-98	12	30	7	6	60	0	0	0	0	4	4	2	2	0	4
Hungry_Donkey_bar_English_2	141	1	<?xml version="1.0"?>\n<Clock xmlns:dt="urn:schemas-microsoft-com:datatypes"><Description dt:dt="string">E-Prime Primary Realtime Clock</Description><StartTime><Timestamp dt:dt="int">0</Timestamp><DateUtc dt:dt="string">2016-04-13T20:00:44Z</DateUtc></StartTime><FrequencyChanges><FrequencyChange><Frequency dt:dt="r8">3507724</Frequency><Timestamp dt:dt="r8">226459458840</Timestamp><Current dt:dt="r8">0</Current><DateUtc dt:dt="string">2016-04-13T20:00:44Z</DateUtc></FrequencyChange></FrequencyChanges></Clock>\n	Hungry_Donkey_bar_English_2-141-1	60.018	9	1.0.0.18	1	-1173131205	Standard	2.0.10.353	2.0.10.353	04-13-2016	4/13/2016 8:00:44 PM	16:00:44	2.0.10.248	61	Bar37-63.bmp	41	3	?	0r_4g.bmp	0r_4g.bmp	0r_2g.bmp	0r_2g.bmp			0r_2g.bmp		TrialProc	TrialList	0	cvbn	-999999	15	277556	0	b	1001	278557	186	-264	-78	-24	-98	14	30	8	7	61	0	0	0	0	4	4	2	2	0	2
Hungry_Donkey_bar_English_2	141	1	<?xml version="1.0"?>\n<Clock xmlns:dt="urn:schemas-microsoft-com:datatypes"><Description dt:dt="string">E-Prime Primary Realtime Clock</Description><StartTime><Timestamp dt:dt="int">0</Timestamp><DateUtc dt:dt="string">2016-04-13T20:00:44Z</DateUtc></StartTime><FrequencyChanges><FrequencyChange><Frequency dt:dt="r8">3507724</Frequency><Timestamp dt:dt="r8">226459458840</Timestamp><Current dt:dt="r8">0</Current><DateUtc dt:dt="string">2016-04-13T20:00:44Z</DateUtc></FrequencyChange></FrequencyChanges></Clock>\n	Hungry_Donkey_bar_English_2-141-1	60.018	9	1.0.0.18	1	-1173131205	Standard	2.0.10.353	2.0.10.353	04-13-2016	4/13/2016 8:00:44 PM	16:00:44	2.0.10.248	62	Bar37-63.bmp	41	1	?	12r_4g.bmp	0r_4g.bmp	3r_2g.bmp	0r_2g.bmp	12r_4g.bmp				TrialProc	TrialList	0	cvbn	-999999	16	280589	0	c	1008	281597	190	-276	-86	-32	-98	14	30	5	7	62	-12	0	-3	0	4	4	2	2	-12	4
Hungry_Donkey_bar_English_2	141	1	<?xml version="1.0"?>\n<Clock xmlns:dt="urn:schemas-microsoft-com:datatypes"><Description dt:dt="string">E-Prime Primary Realtime Clock</Description><StartTime><Timestamp dt:dt="int">0</Timestamp><DateUtc dt:dt="string">2016-04-13T20:00:44Z</DateUtc></StartTime><FrequencyChanges><FrequencyChange><Frequency dt:dt="r8">3507724</Frequency><Timestamp dt:dt="r8">226459458840</Timestamp><Current dt:dt="r8">0</Current><DateUtc dt:dt="string">2016-04-13T20:00:44Z</DateUtc></FrequencyChange></FrequencyChanges></Clock>\n	Hungry_Donkey_bar_English_2-141-1	60.018	9	1.0.0.18	1	-1173131205	Standard	2.0.10.353	2.0.10.353	04-13-2016	4/13/2016 8:00:44 PM	16:00:44	2.0.10.248	63	Bar37-63.bmp	41	3	?	10r_4g.bmp	0r_4g.bmp	2r_2g.bmp	0r_2g.bmp			2r_2g.bmp		TrialProc	TrialList	0	cvbn	-999999	16	283621	0	b	695	284316	192	-278	-86	-32	-98	14	30	3	7	63	-10	0	-2	0	4	4	2	2	-2	2
Hungry_Donkey_bar_English_2	141	1	<?xml version="1.0"?>\n<Clock xmlns:dt="urn:schemas-microsoft-com:datatypes"><Description dt:dt="string">E-Prime Primary Realtime Clock</Description><StartTime><Timestamp dt:dt="int">0</Timestamp><DateUtc dt:dt="string">2016-04-13T20:00:44Z</DateUtc></StartTime><FrequencyChanges><FrequencyChange><Frequency dt:dt="r8">3507724</Frequency><Timestamp dt:dt="r8">226459458840</Timestamp><Current dt:dt="r8">0</Current><DateUtc dt:dt="string">2016-04-13T20:00:44Z</DateUtc></FrequencyChange></FrequencyChanges></Clock>\n	Hungry_Donkey_bar_English_2-141-1	60.018	9	1.0.0.18	1	-1173131205	Standard	2.0.10.353	2.0.10.353	04-13-2016	4/13/2016 8:00:44 PM	16:00:44	2.0.10.248	64	Bar37-63.bmp	41	4	?	10r_4g.bmp	0r_4g.bmp	2r_2g.bmp	0r_2g.bmp				0r_2g.bmp	TrialProc	TrialList	0	cvbn	-999999	16	286354	0	n	682	287036	194	-278	-84	-32	-98	14	32	2	7	64	-10	0	-2	0	4	4	2	2	0	2
Hungry_Donkey_bar_English_2	141	1	<?xml version="1.0"?>\n<Clock xmlns:dt="urn:schemas-microsoft-com:datatypes"><Description dt:dt="string">E-Prime Primary Realtime Clock</Description><StartTime><Timestamp dt:dt="int">0</Timestamp><DateUtc dt:dt="string">2016-04-13T20:00:44Z</DateUtc></StartTime><FrequencyChanges><FrequencyChange><Frequency dt:dt="r8">3507724</Frequency><Timestamp dt:dt="r8">226459458840</Timestamp><Current dt:dt="r8">0</Current><DateUtc dt:dt="string">2016-04-13T20:00:44Z</DateUtc></FrequencyChange></FrequencyChanges></Clock>\n	Hungry_Donkey_bar_English_2-141-1	60.018	9	1.0.0.18	1	-1173131205	Standard	2.0.10.353	2.0.10.353	04-13-2016	4/13/2016 8:00:44 PM	16:00:44	2.0.10.248	65	Bar37-63.bmp	42	1	?	0r_4g.bmp	0r_4g.bmp	0r_2g.bmp	0r_2g.bmp	0r_4g.bmp				TrialProc	TrialList	0	cvbn	-999999	16	289070	0	c	654	289724	198	-278	-80	-28	-98	14	32	6	7	65	0	0	0	0	4	4	2	2	0	4
Hungry_Donkey_bar_English_2	141	1	<?xml version="1.0"?>\n<Clock xmlns:dt="urn:schemas-microsoft-com:datatypes"><Description dt:dt="string">E-Prime Primary Realtime Clock</Description><StartTime><Timestamp dt:dt="int">0</Timestamp><DateUtc dt:dt="string">2016-04-13T20:00:44Z</DateUtc></StartTime><FrequencyChanges><FrequencyChange><Frequency dt:dt="r8">3507724</Frequency><Timestamp dt:dt="r8">226459458840</Timestamp><Current dt:dt="r8">0</Current><DateUtc dt:dt="string">2016-04-13T20:00:44Z</DateUtc></FrequencyChange></FrequencyChanges></Clock>\n	Hungry_Donkey_bar_English_2-141-1	60.018	9	1.0.0.18	1	-1173131205	Standard	2.0.10.353	2.0.10.353	04-13-2016	4/13/2016 8:00:44 PM	16:00:44	2.0.10.248	66	Bar37-63.bmp	42	2	?	10r_4g.bmp	0r_4g.bmp	2r_2g.bmp	0r_2g.bmp		0r_4g.bmp			TrialProc	TrialList	0	cvbn	-999999	16	291752	0	v	500	292252	202	-278	-76	-28	-94	14	32	4	7	66	-10	0	-2	0	4	4	2	2	0	4
Hungry_Donkey_bar_English_2	141	1	<?xml version="1.0"?>\n<Clock xmlns:dt="urn:schemas-microsoft-com:datatypes"><Description dt:dt="string">E-Prime Primary Realtime Clock</Description><StartTime><Timestamp dt:dt="int">0</Timestamp><DateUtc dt:dt="string">2016-04-13T20:00:44Z</DateUtc></StartTime><FrequencyChanges><FrequencyChange><Frequency dt:dt="r8">3507724</Frequency><Timestamp dt:dt="r8">226459458840</Timestamp><Current dt:dt="r8">0</Current><DateUtc dt:dt="string">2016-04-13T20:00:44Z</DateUtc></FrequencyChange></FrequencyChanges></Clock>\n	Hungry_Donkey_bar_English_2-141-1	60.018	9	1.0.0.18	1	-1173131205	Standard	2.0.10.353	2.0.10.353	04-13-2016	4/13/2016 8:00:44 PM	16:00:44	2.0.10.248	67	Bar37-63.bmp	41	4	?	8r_4g.bmp	50r_4g.bmp	1r_2g.bmp	10r_2g.bmp				10r_2g.bmp	TrialProc	TrialList	0	cvbn	-999999	16	294285	0	n	751	295036	204	-288	-84	-28	-94	14	24	1	7	67	-8	-50	-1	-10	4	4	2	2	-10	2
Hungry_Donkey_bar_English_2	141	1	<?xml version="1.0"?>\n<Clock xmlns:dt="urn:schemas-microsoft-com:datatypes"><Description dt:dt="string">E-Prime Primary Realtime Clock</Description><StartTime><Timestamp dt:dt="int">0</Timestamp><DateUtc dt:dt="string">2016-04-13T20:00:44Z</DateUtc></StartTime><FrequencyChanges><FrequencyChange><Frequency dt:dt="r8">3507724</Frequency><Timestamp dt:dt="r8">226459458840</Timestamp><Current dt:dt="r8">0</Current><DateUtc dt:dt="string">2016-04-13T20:00:44Z</DateUtc></FrequencyChange></FrequencyChanges></Clock>\n	Hungry_Donkey_bar_English_2-141-1	60.018	9	1.0.0.18	1	-1173131205	Standard	2.0.10.353	2.0.10.353	04-13-2016	4/13/2016 8:00:44 PM	16:00:44	2.0.10.248	68	Bar37-63.bmp	42	4	?	0r_4g.bmp	0r_4g.bmp	0r_2g.bmp	0r_2g.bmp				0r_2g.bmp	TrialProc	TrialList	0	cvbn	-999999	16	297067	0	n	657	297724	206	-288	-82	-28	-94	14	26	10	7	68	0	0	0	0	4	4	2	2	0	2
Hungry_Donkey_bar_English_2	141	1	<?xml version="1.0"?>\n<Clock xmlns:dt="urn:schemas-microsoft-com:datatypes"><Description dt:dt="string">E-Prime Primary Realtime Clock</Description><StartTime><Timestamp dt:dt="int">0</Timestamp><DateUtc dt:dt="string">2016-04-13T20:00:44Z</DateUtc></StartTime><FrequencyChanges><FrequencyChange><Frequency dt:dt="r8">3507724</Frequency><Timestamp dt:dt="r8">226459458840</Timestamp><Current dt:dt="r8">0</Current><DateUtc dt:dt="string">2016-04-13T20:00:44Z</DateUtc></FrequencyChange></FrequencyChanges></Clock>\n	Hungry_Donkey_bar_English_2-141-1	60.018	9	1.0.0.18	1	-1173131205	Standard	2.0.10.353	2.0.10.353	04-13-2016	4/13/2016 8:00:44 PM	16:00:44	2.0.10.248	69	Bar37-63.bmp	42	3	?	0r_4g.bmp	0r_4g.bmp	0r_2g.bmp	0r_2g.bmp			0r_2g.bmp		TrialProc	TrialList	0	cvbn	-999999	16	299750	0	b	245	299995	208	-288	-80	-28	-94	16	26	7	7	69	0	0	0	0	4	4	2	2	0	2
Hungry_Donkey_bar_English_2	141	1	<?xml version="1.0"?>\n<Clock xmlns:dt="urn:schemas-microsoft-com:datatypes"><Description dt:dt="string">E-Prime Primary Realtime Clock</Description><StartTime><Timestamp dt:dt="int">0</Timestamp><DateUtc dt:dt="string">2016-04-13T20:00:44Z</DateUtc></StartTime><FrequencyChanges><FrequencyChange><Frequency dt:dt="r8">3507724</Frequency><Timestamp dt:dt="r8">226459458840</Timestamp><Current dt:dt="r8">0</Current><DateUtc dt:dt="string">2016-04-13T20:00:44Z</DateUtc></FrequencyChange></FrequencyChanges></Clock>\n	Hungry_Donkey_bar_English_2-141-1	60.018	9	1.0.0.18	1	-1173131205	Standard	2.0.10.353	2.0.10.353	04-13-2016	4/13/2016 8:00:44 PM	16:00:44	2.0.10.248	70	Bar37-63.bmp	42	1	?	0r_4g.bmp	0r_4g.bmp	0r_2g.bmp	0r_2g.bmp	0r_4g.bmp				TrialProc	TrialList	0	cvbn	-999999	16	302032	0	c	43	302075	212	-288	-76	-24	-94	16	26	9	7	70	0	0	0	0	4	4	2	2	0	4
Hungry_Donkey_bar_English_2	141	1	<?xml version="1.0"?>\n<Clock xmlns:dt="urn:schemas-microsoft-com:datatypes"><Description dt:dt="string">E-Prime Primary Realtime Clock</Description><StartTime><Timestamp dt:dt="int">0</Timestamp><DateUtc dt:dt="string">2016-04-13T20:00:44Z</DateUtc></StartTime><FrequencyChanges><FrequencyChange><Frequency dt:dt="r8">3507724</Frequency><Timestamp dt:dt="r8">226459458840</Timestamp><Current dt:dt="r8">0</Current><DateUtc dt:dt="string">2016-04-13T20:00:44Z</DateUtc></FrequencyChange></FrequencyChanges></Clock>\n	Hungry_Donkey_bar_English_2-141-1	60.018	9	1.0.0.18	1	-1173131205	Standard	2.0.10.353	2.0.10.353	04-13-2016	4/13/2016 8:00:44 PM	16:00:44	2.0.10.248	71	Bar37-63.bmp	43	2	?	0r_4g.bmp	0r_4g.bmp	0r_2g.bmp	0r_2g.bmp		0r_4g.bmp			TrialProc	TrialList	0	cvbn	-999999	16	304115	0	v	1000	305115	216	-288	-72	-24	-90	16	26	7	8	71	0	0	0	0	4	4	2	2	0	4
Hungry_Donkey_bar_English_2	141	1	<?xml version="1.0"?>\n<Clock xmlns:dt="urn:schemas-microsoft-com:datatypes"><Description dt:dt="string">E-Prime Primary Realtime Clock</Description><StartTime><Timestamp dt:dt="int">0</Timestamp><DateUtc dt:dt="string">2016-04-13T20:00:44Z</DateUtc></StartTime><FrequencyChanges><FrequencyChange><Frequency dt:dt="r8">3507724</Frequency><Timestamp dt:dt="r8">226459458840</Timestamp><Current dt:dt="r8">0</Current><DateUtc dt:dt="string">2016-04-13T20:00:44Z</DateUtc></FrequencyChange></FrequencyChanges></Clock>\n	Hungry_Donkey_bar_English_2-141-1	60.018	9	1.0.0.18	1	-1173131205	Standard	2.0.10.353	2.0.10.353	04-13-2016	4/13/2016 8:00:44 PM	16:00:44	2.0.10.248	72	Bar37-63.bmp	43	3	?	0r_4g.bmp	0r_4g.bmp	0r_2g.bmp	0r_2g.bmp			0r_2g.bmp		TrialProc	TrialList	0	cvbn	-999999	16	307147	0	b	1680	308827	218	-288	-70	-24	-90	18	26	10	8	72	0	0	0	0	4	4	2	2	0	2
Hungry_Donkey_bar_English_2	141	1	<?xml version="1.0"?>\n<Clock xmlns:dt="urn:schemas-microsoft-com:datatypes"><Description dt:dt="string">E-Prime Primary Realtime Clock</Description><StartTime><Timestamp dt:dt="int">0</Timestamp><DateUtc dt:dt="string">2016-04-13T20:00:44Z</DateUtc></StartTime><FrequencyChanges><FrequencyChange><Frequency dt:dt="r8">3507724</Frequency><Timestamp dt:dt="r8">226459458840</Timestamp><Current dt:dt="r8">0</Current><DateUtc dt:dt="string">2016-04-13T20:00:44Z</DateUtc></FrequencyChange></FrequencyChanges></Clock>\n	Hungry_Donkey_bar_English_2-141-1	60.018	9	1.0.0.18	1	-1173131205	Standard	2.0.10.353	2.0.10.353	04-13-2016	4/13/2016 8:00:44 PM	16:00:44	2.0.10.248	73	Bar37-63.bmp	43	1	?	10r_4g.bmp	0r_4g.bmp	2r_2g.bmp	0r_2g.bmp	10r_4g.bmp				TrialProc	TrialList	0	cvbn	-999999	16	310863	0	c	1516	312379	222	-298	-76	-30	-90	18	26	2	8	73	-10	0	-2	0	4	4	2	2	-10	4
Hungry_Donkey_bar_English_2	141	1	<?xml version="1.0"?>\n<Clock xmlns:dt="urn:schemas-microsoft-com:datatypes"><Description dt:dt="string">E-Prime Primary Realtime Clock</Description><StartTime><Timestamp dt:dt="int">0</Timestamp><DateUtc dt:dt="string">2016-04-13T20:00:44Z</DateUtc></StartTime><FrequencyChanges><FrequencyChange><Frequency dt:dt="r8">3507724</Frequency><Timestamp dt:dt="r8">226459458840</Timestamp><Current dt:dt="r8">0</Current><DateUtc dt:dt="string">2016-04-13T20:00:44Z</DateUtc></FrequencyChange></FrequencyChanges></Clock>\n	Hungry_Donkey_bar_English_2-141-1	60.018	9	1.0.0.18	1	-1173131205	Standard	2.0.10.353	2.0.10.353	04-13-2016	4/13/2016 8:00:44 PM	16:00:44	2.0.10.248	74	Bar37-63.bmp	43	1	?	0r_4g.bmp	0r_4g.bmp	0r_2g.bmp	0r_2g.bmp	0r_4g.bmp				TrialProc	TrialList	0	cvbn	-999999	16	314412	0	c	1070	315482	226	-298	-72	-26	-90	18	26	8	8	74	0	0	0	0	4	4	2	2	0	4
Hungry_Donkey_bar_English_2	141	1	<?xml version="1.0"?>\n<Clock xmlns:dt="urn:schemas-microsoft-com:datatypes"><Description dt:dt="string">E-Prime Primary Realtime Clock</Description><StartTime><Timestamp dt:dt="int">0</Timestamp><DateUtc dt:dt="string">2016-04-13T20:00:44Z</DateUtc></StartTime><FrequencyChanges><FrequencyChange><Frequency dt:dt="r8">3507724</Frequency><Timestamp dt:dt="r8">226459458840</Timestamp><Current dt:dt="r8">0</Current><DateUtc dt:dt="string">2016-04-13T20:00:44Z</DateUtc></FrequencyChange></FrequencyChanges></Clock>\n	Hungry_Donkey_bar_English_2-141-1	60.018	9	1.0.0.18	1	-1173131205	Standard	2.0.10.353	2.0.10.353	04-13-2016	4/13/2016 8:00:44 PM	16:00:44	2.0.10.248	75	Bar37-63.bmp	43	3	?	0r_4g.bmp	0r_4g.bmp	0r_2g.bmp	0r_2g.bmp			0r_2g.bmp		TrialProc	TrialList	0	cvbn	-999999	16	317511	0	b	1731	319242	228	-298	-70	-26	-90	20	26	6	8	75	0	0	0	0	4	4	2	2	0	2
Hungry_Donkey_bar_English_2	141	1	<?xml version="1.0"?>\n<Clock xmlns:dt="urn:schemas-microsoft-com:datatypes"><Description dt:dt="string">E-Prime Primary Realtime Clock</Description><StartTime><Timestamp dt:dt="int">0</Timestamp><DateUtc dt:dt="string">2016-04-13T20:00:44Z</DateUtc></StartTime><FrequencyChanges><FrequencyChange><Frequency dt:dt="r8">3507724</Frequency><Timestamp dt:dt="r8">226459458840</Timestamp><Current dt:dt="r8">0</Current><DateUtc dt:dt="string">2016-04-13T20:00:44Z</DateUtc></FrequencyChange></FrequencyChanges></Clock>\n	Hungry_Donkey_bar_English_2-141-1	60.018	9	1.0.0.18	1	-1173131205	Standard	2.0.10.353	2.0.10.353	04-13-2016	4/13/2016 8:00:44 PM	16:00:44	2.0.10.248	76	Bar37-63.bmp	43	3	?	8r_4g.bmp	50r_4g.bmp	1r_2g.bmp	10r_2g.bmp			1r_2g.bmp		TrialProc	TrialList	0	cvbn	-999999	16	321277	0	b	189	321466	230	-299	-69	-26	-90	21	26	1	8	76	-8	-50	-1	-10	4	4	2	2	-1	2
Hungry_Donkey_bar_English_2	141	1	<?xml version="1.0"?>\n<Clock xmlns:dt="urn:schemas-microsoft-com:datatypes"><Description dt:dt="string">E-Prime Primary Realtime Clock</Description><StartTime><Timestamp dt:dt="int">0</Timestamp><DateUtc dt:dt="string">2016-04-13T20:00:44Z</DateUtc></StartTime><FrequencyChanges><FrequencyChange><Frequency dt:dt="r8">3507724</Frequency><Timestamp dt:dt="r8">226459458840</Timestamp><Current dt:dt="r8">0</Current><DateUtc dt:dt="string">2016-04-13T20:00:44Z</DateUtc></FrequencyChange></FrequencyChanges></Clock>\n	Hungry_Donkey_bar_English_2-141-1	60.018	9	1.0.0.18	1	-1173131205	Standard	2.0.10.353	2.0.10.353	04-13-2016	4/13/2016 8:00:44 PM	16:00:44	2.0.10.248	77	Bar50-50.bmp	44	2	?	12r_4g.bmp	0r_4g.bmp	3r_2g.bmp	0r_2g.bmp		0r_4g.bmp			TrialProc	TrialList	0	cvbn	-999999	16	323493	0	v	1333	324826	234	-299	-65	-26	-86	21	26	5	8	77	-12	0	-3	0	4	4	2	2	0	4
Hungry_Donkey_bar_English_2	141	1	<?xml version="1.0"?>\n<Clock xmlns:dt="urn:schemas-microsoft-com:datatypes"><Description dt:dt="string">E-Prime Primary Realtime Clock</Description><StartTime><Timestamp dt:dt="int">0</Timestamp><DateUtc dt:dt="string">2016-04-13T20:00:44Z</DateUtc></StartTime><FrequencyChanges><FrequencyChange><Frequency dt:dt="r8">3507724</Frequency><Timestamp dt:dt="r8">226459458840</Timestamp><Current dt:dt="r8">0</Current><DateUtc dt:dt="string">2016-04-13T20:00:44Z</DateUtc></FrequencyChange></FrequencyChanges></Clock>\n	Hungry_Donkey_bar_English_2-141-1	60.018	9	1.0.0.18	1	-1173131205	Standard	2.0.10.353	2.0.10.353	04-13-2016	4/13/2016 8:00:44 PM	16:00:44	2.0.10.248	78	Bar50-50.bmp	44	4	?	10r_4g.bmp	0r_4g.bmp	2r_2g.bmp	0r_2g.bmp				0r_2g.bmp	TrialProc	TrialList	0	cvbn	-999999	16	326858	0	n	672	327530	236	-299	-63	-26	-86	21	28	4	8	78	-10	0	-2	0	4	4	2	2	0	2
Hungry_Donkey_bar_English_2	141	1	<?xml version="1.0"?>\n<Clock xmlns:dt="urn:schemas-microsoft-com:datatypes"><Description dt:dt="string">E-Prime Primary Realtime Clock</Description><StartTime><Timestamp dt:dt="int">0</Timestamp><DateUtc dt:dt="string">2016-04-13T20:00:44Z</DateUtc></StartTime><FrequencyChanges><FrequencyChange><Frequency dt:dt="r8">3507724</Frequency><Timestamp dt:dt="r8">226459458840</Timestamp><Current dt:dt="r8">0</Current><DateUtc dt:dt="string">2016-04-13T20:00:44Z</DateUtc></FrequencyChange></FrequencyChanges></Clock>\n	Hungry_Donkey_bar_English_2-141-1	60.018	9	1.0.0.18	1	-1173131205	Standard	2.0.10.353	2.0.10.353	04-13-2016	4/13/2016 8:00:44 PM	16:00:44	2.0.10.248	79	Bar50-50.bmp	45	2	?	10r_4g.bmp	0r_4g.bmp	2r_2g.bmp	0r_2g.bmp		0r_4g.bmp			TrialProc	TrialList	0	cvbn	-999999	16	329557	0	v	1476	331033	240	-299	-59	-26	-82	21	28	3	8	79	-10	0	-2	0	4	4	2	2	0	4
Hungry_Donkey_bar_English_2	141	1	<?xml version="1.0"?>\n<Clock xmlns:dt="urn:schemas-microsoft-com:datatypes"><Description dt:dt="string">E-Prime Primary Realtime Clock</Description><StartTime><Timestamp dt:dt="int">0</Timestamp><DateUtc dt:dt="string">2016-04-13T20:00:44Z</DateUtc></StartTime><FrequencyChanges><FrequencyChange><Frequency dt:dt="r8">3507724</Frequency><Timestamp dt:dt="r8">226459458840</Timestamp><Current dt:dt="r8">0</Current><DateUtc dt:dt="string">2016-04-13T20:00:44Z</DateUtc></FrequencyChange></FrequencyChanges></Clock>\n	Hungry_Donkey_bar_English_2-141-1	60.018	9	1.0.0.18	1	-1173131205	Standard	2.0.10.353	2.0.10.353	04-13-2016	4/13/2016 8:00:44 PM	16:00:44	2.0.10.248	80	Bar50-50.bmp	45	3	?	0r_4g.bmp	0r_4g.bmp	0r_2g.bmp	0r_2g.bmp			0r_2g.bmp		TrialProc	TrialList	0	cvbn	-999999	15	333056	0	b	473	333529	242	-299	-57	-26	-82	23	28	9	8	80	0	0	0	0	4	4	2	2	0	2
Hungry_Donkey_bar_English_2	141	1	<?xml version="1.0"?>\n<Clock xmlns:dt="urn:schemas-microsoft-com:datatypes"><Description dt:dt="string">E-Prime Primary Realtime Clock</Description><StartTime><Timestamp dt:dt="int">0</Timestamp><DateUtc dt:dt="string">2016-04-13T20:00:44Z</DateUtc></StartTime><FrequencyChanges><FrequencyChange><Frequency dt:dt="r8">3507724</Frequency><Timestamp dt:dt="r8">226459458840</Timestamp><Current dt:dt="r8">0</Current><DateUtc dt:dt="string">2016-04-13T20:00:44Z</DateUtc></FrequencyChange></FrequencyChanges></Clock>\n	Hungry_Donkey_bar_English_2-141-1	60.018	9	1.0.0.18	1	-1173131205	Standard	2.0.10.353	2.0.10.353	04-13-2016	4/13/2016 8:00:44 PM	16:00:44	2.0.10.248	81	Bar50-50.bmp	45	1	?	0r_4g.bmp	0r_4g.bmp	0r_2g.bmp	0r_2g.bmp	0r_4g.bmp				TrialProc	TrialList	0	cvbn	-999999	16	335556	0	c	117	335673	246	-299	-53	-22	-82	23	28	8	9	81	0	0	0	0	4	4	2	2	0	4
Hungry_Donkey_bar_English_2	141	1	<?xml version="1.0"?>\n<Clock xmlns:dt="urn:schemas-microsoft-com:datatypes"><Description dt:dt="string">E-Prime Primary Realtime Clock</Description><StartTime><Timestamp dt:dt="int">0</Timestamp><DateUtc dt:dt="string">2016-04-13T20:00:44Z</DateUtc></StartTime><FrequencyChanges><FrequencyChange><Frequency dt:dt="r8">3507724</Frequency><Timestamp dt:dt="r8">226459458840</Timestamp><Current dt:dt="r8">0</Current><DateUtc dt:dt="string">2016-04-13T20:00:44Z</DateUtc></FrequencyChange></FrequencyChanges></Clock>\n	Hungry_Donkey_bar_English_2-141-1	60.018	9	1.0.0.18	1	-1173131205	Standard	2.0.10.353	2.0.10.353	04-13-2016	4/13/2016 8:00:44 PM	16:00:44	2.0.10.248	82	Bar50-50.bmp	45	3	?	0r_4g.bmp	0r_4g.bmp	0r_2g.bmp	0r_2g.bmp			0r_2g.bmp		TrialProc	TrialList	0	cvbn	-999999	16	337705	0	b	16	337721	248	-299	-51	-22	-82	25	28	9	9	82	0	0	0	0	4	4	2	2	0	2
Hungry_Donkey_bar_English_2	141	1	<?xml version="1.0"?>\n<Clock xmlns:dt="urn:schemas-microsoft-com:datatypes"><Description dt:dt="string">E-Prime Primary Realtime Clock</Description><StartTime><Timestamp dt:dt="int">0</Timestamp><DateUtc dt:dt="string">2016-04-13T20:00:44Z</DateUtc></StartTime><FrequencyChanges><FrequencyChange><Frequency dt:dt="r8">3507724</Frequency><Timestamp dt:dt="r8">226459458840</Timestamp><Current dt:dt="r8">0</Current><DateUtc dt:dt="string">2016-04-13T20:00:44Z</DateUtc></FrequencyChange></FrequencyChanges></Clock>\n	Hungry_Donkey_bar_English_2-141-1	60.018	9	1.0.0.18	1	-1173131205	Standard	2.0.10.353	2.0.10.353	04-13-2016	4/13/2016 8:00:44 PM	16:00:44	2.0.10.248	83	Bar50-50.bmp	46	2	?	10r_4g.bmp	0r_4g.bmp	2r_2g.bmp	0r_2g.bmp		0r_4g.bmp			TrialProc	TrialList	0	cvbn	-999999	16	339754	0	v	159	339913	252	-299	-47	-22	-78	25	28	2	9	83	-10	0	-2	0	4	4	2	2	0	4
Hungry_Donkey_bar_English_2	141	1	<?xml version="1.0"?>\n<Clock xmlns:dt="urn:schemas-microsoft-com:datatypes"><Description dt:dt="string">E-Prime Primary Realtime Clock</Description><StartTime><Timestamp dt:dt="int">0</Timestamp><DateUtc dt:dt="string">2016-04-13T20:00:44Z</DateUtc></StartTime><FrequencyChanges><FrequencyChange><Frequency dt:dt="r8">3507724</Frequency><Timestamp dt:dt="r8">226459458840</Timestamp><Current dt:dt="r8">0</Current><DateUtc dt:dt="string">2016-04-13T20:00:44Z</DateUtc></FrequencyChange></FrequencyChanges></Clock>\n	Hungry_Donkey_bar_English_2-141-1	60.018	9	1.0.0.18	1	-1173131205	Standard	2.0.10.353	2.0.10.353	04-13-2016	4/13/2016 8:00:44 PM	16:00:44	2.0.10.248	84	Bar50-50.bmp	45	4	?	8r_4g.bmp	50r_4g.bmp	1r_2g.bmp	10r_2g.bmp				10r_2g.bmp	TrialProc	TrialList	0	cvbn	-999999	16	341937	0	n	6263	348200	254	-309	-55	-22	-78	25	20	1	9	84	-8	-50	-1	-10	4	4	2	2	-10	2
Hungry_Donkey_bar_English_2	141	1	<?xml version="1.0"?>\n<Clock xmlns:dt="urn:schemas-microsoft-com:datatypes"><Description dt:dt="string">E-Prime Primary Realtime Clock</Description><StartTime><Timestamp dt:dt="int">0</Timestamp><DateUtc dt:dt="string">2016-04-13T20:00:44Z</DateUtc></StartTime><FrequencyChanges><FrequencyChange><Frequency dt:dt="r8">3507724</Frequency><Timestamp dt:dt="r8">226459458840</Timestamp><Current dt:dt="r8">0</Current><DateUtc dt:dt="string">2016-04-13T20:00:44Z</DateUtc></FrequencyChange></FrequencyChanges></Clock>\n	Hungry_Donkey_bar_English_2-141-1	60.018	9	1.0.0.18	1	-1173131205	Standard	2.0.10.353	2.0.10.353	04-13-2016	4/13/2016 8:00:44 PM	16:00:44	2.0.10.248	85	Bar50-50.bmp	45	3	?	0r_4g.bmp	0r_4g.bmp	0r_2g.bmp	0r_2g.bmp			0r_2g.bmp		TrialProc	TrialList	0	cvbn	-999999	17	350235	0	b	509	350744	256	-309	-53	-22	-78	27	20	7	9	85	0	0	0	0	4	4	2	2	0	2
Hungry_Donkey_bar_English_2	141	1	<?xml version="1.0"?>\n<Clock xmlns:dt="urn:schemas-microsoft-com:datatypes"><Description dt:dt="string">E-Prime Primary Realtime Clock</Description><StartTime><Timestamp dt:dt="int">0</Timestamp><DateUtc dt:dt="string">2016-04-13T20:00:44Z</DateUtc></StartTime><FrequencyChanges><FrequencyChange><Frequency dt:dt="r8">3507724</Frequency><Timestamp dt:dt="r8">226459458840</Timestamp><Current dt:dt="r8">0</Current><DateUtc dt:dt="string">2016-04-13T20:00:44Z</DateUtc></FrequencyChange></FrequencyChanges></Clock>\n	Hungry_Donkey_bar_English_2-141-1	60.018	9	1.0.0.18	1	-1173131205	Standard	2.0.10.353	2.0.10.353	04-13-2016	4/13/2016 8:00:44 PM	16:00:44	2.0.10.248	86	Bar50-50.bmp	45	1	?	10r_4g.bmp	0r_4g.bmp	2r_2g.bmp	0r_2g.bmp	10r_4g.bmp				TrialProc	TrialList	0	cvbn	-999999	16	352784	0	c	1064	353848	260	-319	-59	-28	-78	27	20	4	9	86	-10	0	-2	0	4	4	2	2	-10	4
Hungry_Donkey_bar_English_2	141	1	<?xml version="1.0"?>\n<Clock xmlns:dt="urn:schemas-microsoft-com:datatypes"><Description dt:dt="string">E-Prime Primary Realtime Clock</Description><StartTime><Timestamp dt:dt="int">0</Timestamp><DateUtc dt:dt="string">2016-04-13T20:00:44Z</DateUtc></StartTime><FrequencyChanges><FrequencyChange><Frequency dt:dt="r8">3507724</Frequency><Timestamp dt:dt="r8">226459458840</Timestamp><Current dt:dt="r8">0</Current><DateUtc dt:dt="string">2016-04-13T20:00:44Z</DateUtc></FrequencyChange></FrequencyChanges></Clock>\n	Hungry_Donkey_bar_English_2-141-1	60.018	9	1.0.0.18	1	-1173131205	Standard	2.0.10.353	2.0.10.353	04-13-2016	4/13/2016 8:00:44 PM	16:00:44	2.0.10.248	87	Bar50-50.bmp	45	2	?	12r_4g.bmp	0r_4g.bmp	3r_2g.bmp	0r_2g.bmp		0r_4g.bmp			TrialProc	TrialList	0	cvbn	-999999	16	355883	0	v	797	356680	264	-319	-55	-28	-74	27	20	5	9	87	-12	0	-3	0	4	4	2	2	0	4
Hungry_Donkey_bar_English_2	141	1	<?xml version="1.0"?>\n<Clock xmlns:dt="urn:schemas-microsoft-com:datatypes"><Description dt:dt="string">E-Prime Primary Realtime Clock</Description><StartTime><Timestamp dt:dt="int">0</Timestamp><DateUtc dt:dt="string">2016-04-13T20:00:44Z</DateUtc></StartTime><FrequencyChanges><FrequencyChange><Frequency dt:dt="r8">3507724</Frequency><Timestamp dt:dt="r8">226459458840</Timestamp><Current dt:dt="r8">0</Current><DateUtc dt:dt="string">2016-04-13T20:00:44Z</DateUtc></FrequencyChange></FrequencyChanges></Clock>\n	Hungry_Donkey_bar_English_2-141-1	60.018	9	1.0.0.18	1	-1173131205	Standard	2.0.10.353	2.0.10.353	04-13-2016	4/13/2016 8:00:44 PM	16:00:44	2.0.10.248	88	Bar50-50.bmp	45	4	?	10r_4g.bmp	0r_4g.bmp	2r_2g.bmp	0r_2g.bmp				0r_2g.bmp	TrialProc	TrialList	0	cvbn	-999999	16	358715	0	n	909	359624	266	-319	-53	-28	-74	27	22	3	9	88	-10	0	-2	0	4	4	2	2	0	2
Hungry_Donkey_bar_English_2	141	1	<?xml version="1.0"?>\n<Clock xmlns:dt="urn:schemas-microsoft-com:datatypes"><Description dt:dt="string">E-Prime Primary Realtime Clock</Description><StartTime><Timestamp dt:dt="int">0</Timestamp><DateUtc dt:dt="string">2016-04-13T20:00:44Z</DateUtc></StartTime><FrequencyChanges><FrequencyChange><Frequency dt:dt="r8">3507724</Frequency><Timestamp dt:dt="r8">226459458840</Timestamp><Current dt:dt="r8">0</Current><DateUtc dt:dt="string">2016-04-13T20:00:44Z</DateUtc></FrequencyChange></FrequencyChanges></Clock>\n	Hungry_Donkey_bar_English_2-141-1	60.018	9	1.0.0.18	1	-1173131205	Standard	2.0.10.353	2.0.10.353	04-13-2016	4/13/2016 8:00:44 PM	16:00:44	2.0.10.248	89	Bar50-50.bmp	46	3	?	0r_4g.bmp	0r_4g.bmp	0r_2g.bmp	0r_2g.bmp			0r_2g.bmp		TrialProc	TrialList	0	cvbn	-999999	16	361648	0	b	695	362343	268	-319	-51	-28	-74	29	22	10	9	89	0	0	0	0	4	4	2	2	0	2
Hungry_Donkey_bar_English_2	141	1	<?xml version="1.0"?>\n<Clock xmlns:dt="urn:schemas-microsoft-com:datatypes"><Description dt:dt="string">E-Prime Primary Realtime Clock</Description><StartTime><Timestamp dt:dt="int">0</Timestamp><DateUtc dt:dt="string">2016-04-13T20:00:44Z</DateUtc></StartTime><FrequencyChanges><FrequencyChange><Frequency dt:dt="r8">3507724</Frequency><Timestamp dt:dt="r8">226459458840</Timestamp><Current dt:dt="r8">0</Current><DateUtc dt:dt="string">2016-04-13T20:00:44Z</DateUtc></FrequencyChange></FrequencyChanges></Clock>\n	Hungry_Donkey_bar_English_2-141-1	60.018	9	1.0.0.18	1	-1173131205	Standard	2.0.10.353	2.0.10.353	04-13-2016	4/13/2016 8:00:44 PM	16:00:44	2.0.10.248	90	Bar50-50.bmp	46	2	?	0r_4g.bmp	0r_4g.bmp	0r_2g.bmp	0r_2g.bmp		0r_4g.bmp			TrialProc	TrialList	0	cvbn	-999999	16	364380	0	v	651	365031	272	-319	-47	-28	-70	29	22	6	9	90	0	0	0	0	4	4	2	2	0	4
Hungry_Donkey_bar_English_2	141	1	<?xml version="1.0"?>\n<Clock xmlns:dt="urn:schemas-microsoft-com:datatypes"><Description dt:dt="string">E-Prime Primary Realtime Clock</Description><StartTime><Timestamp dt:dt="int">0</Timestamp><DateUtc dt:dt="string">2016-04-13T20:00:44Z</DateUtc></StartTime><FrequencyChanges><FrequencyChange><Frequency dt:dt="r8">3507724</Frequency><Timestamp dt:dt="r8">226459458840</Timestamp><Current dt:dt="r8">0</Current><DateUtc dt:dt="string">2016-04-13T20:00:44Z</DateUtc></FrequencyChange></FrequencyChanges></Clock>\n	Hungry_Donkey_bar_English_2-141-1	60.018	9	1.0.0.18	1	-1173131205	Standard	2.0.10.353	2.0.10.353	04-13-2016	4/13/2016 8:00:44 PM	16:00:44	2.0.10.248	91	Bar50-50.bmp	46	1	?	0r_4g.bmp	0r_4g.bmp	0r_2g.bmp	0r_2g.bmp	0r_4g.bmp				TrialProc	TrialList	0	cvbn	-999999	16	367063	0	c	464	367527	276	-319	-43	-24	-70	29	22	6	10	91	0	0	0	0	4	4	2	2	0	4
Hungry_Donkey_bar_English_2	141	1	<?xml version="1.0"?>\n<Clock xmlns:dt="urn:schemas-microsoft-com:datatypes"><Description dt:dt="string">E-Prime Primary Realtime Clock</Description><StartTime><Timestamp dt:dt="int">0</Timestamp><DateUtc dt:dt="string">2016-04-13T20:00:44Z</DateUtc></StartTime><FrequencyChanges><FrequencyChange><Frequency dt:dt="r8">3507724</Frequency><Timestamp dt:dt="r8">226459458840</Timestamp><Current dt:dt="r8">0</Current><DateUtc dt:dt="string">2016-04-13T20:00:44Z</DateUtc></FrequencyChange></FrequencyChanges></Clock>\n	Hungry_Donkey_bar_English_2-141-1	60.018	9	1.0.0.18	1	-1173131205	Standard	2.0.10.353	2.0.10.353	04-13-2016	4/13/2016 8:00:44 PM	16:00:44	2.0.10.248	92	Bar50-50.bmp	46	1	?	10r_4g.bmp	0r_4g.bmp	2r_2g.bmp	0r_2g.bmp	10r_4g.bmp				TrialProc	TrialList	0	cvbn	-999999	16	369562	0	c	3981	373543	280	-329	-49	-30	-70	29	22	4	10	92	-10	0	-2	0	4	4	2	2	-10	4
Hungry_Donkey_bar_English_2	141	1	<?xml version="1.0"?>\n<Clock xmlns:dt="urn:schemas-microsoft-com:datatypes"><Description dt:dt="string">E-Prime Primary Realtime Clock</Description><StartTime><Timestamp dt:dt="int">0</Timestamp><DateUtc dt:dt="string">2016-04-13T20:00:44Z</DateUtc></StartTime><FrequencyChanges><FrequencyChange><Frequency dt:dt="r8">3507724</Frequency><Timestamp dt:dt="r8">226459458840</Timestamp><Current dt:dt="r8">0</Current><DateUtc dt:dt="string">2016-04-13T20:00:44Z</DateUtc></FrequencyChange></FrequencyChanges></Clock>\n	Hungry_Donkey_bar_English_2-141-1	60.018	9	1.0.0.18	1	-1173131205	Standard	2.0.10.353	2.0.10.353	04-13-2016	4/13/2016 8:00:44 PM	16:00:44	2.0.10.248	93	Bar50-50.bmp	46	2	?	10r_4g.bmp	0r_4g.bmp	2r_2g.bmp	0r_2g.bmp		0r_4g.bmp			TrialProc	TrialList	0	cvbn	-999999	16	375577	0	v	1422	376999	284	-329	-45	-30	-66	29	22	3	10	93	-10	0	-2	0	4	4	2	2	0	4
Hungry_Donkey_bar_English_2	141	1	<?xml version="1.0"?>\n<Clock xmlns:dt="urn:schemas-microsoft-com:datatypes"><Description dt:dt="string">E-Prime Primary Realtime Clock</Description><StartTime><Timestamp dt:dt="int">0</Timestamp><DateUtc dt:dt="string">2016-04-13T20:00:44Z</DateUtc></StartTime><FrequencyChanges><FrequencyChange><Frequency dt:dt="r8">3507724</Frequency><Timestamp dt:dt="r8">226459458840</Timestamp><Current dt:dt="r8">0</Current><DateUtc dt:dt="string">2016-04-13T20:00:44Z</DateUtc></FrequencyChange></FrequencyChanges></Clock>\n	Hungry_Donkey_bar_English_2-141-1	60.018	9	1.0.0.18	1	-1173131205	Standard	2.0.10.353	2.0.10.353	04-13-2016	4/13/2016 8:00:44 PM	16:00:44	2.0.10.248	94	Bar50-50.bmp	46	1	?	8r_4g.bmp	50r_4g.bmp	1r_2g.bmp	10r_2g.bmp	8r_4g.bmp				TrialProc	TrialList	0	cvbn	-999999	16	379026	0	c	164	379190	288	-337	-49	-34	-66	29	22	1	10	94	-8	-50	-1	-10	4	4	2	2	-8	4
Hungry_Donkey_bar_English_2	141	1	<?xml version="1.0"?>\n<Clock xmlns:dt="urn:schemas-microsoft-com:datatypes"><Description dt:dt="string">E-Prime Primary Realtime Clock</Description><StartTime><Timestamp dt:dt="int">0</Timestamp><DateUtc dt:dt="string">2016-04-13T20:00:44Z</DateUtc></StartTime><FrequencyChanges><FrequencyChange><Frequency dt:dt="r8">3507724</Frequency><Timestamp dt:dt="r8">226459458840</Timestamp><Current dt:dt="r8">0</Current><DateUtc dt:dt="string">2016-04-13T20:00:44Z</DateUtc></FrequencyChange></FrequencyChanges></Clock>\n	Hungry_Donkey_bar_English_2-141-1	60.018	9	1.0.0.18	1	-1173131205	Standard	2.0.10.353	2.0.10.353	04-13-2016	4/13/2016 8:00:44 PM	16:00:44	2.0.10.248	95	Bar50-50.bmp	46	1	?	10r_4g.bmp	0r_4g.bmp	2r_2g.bmp	0r_2g.bmp	10r_4g.bmp				TrialProc	TrialList	0	cvbn	-999999	16	381225	0	c	845	382070	292	-347	-55	-40	-66	29	22	2	10	95	-10	0	-2	0	4	4	2	2	-10	4
Hungry_Donkey_bar_English_2	141	1	<?xml version="1.0"?>\n<Clock xmlns:dt="urn:schemas-microsoft-com:datatypes"><Description dt:dt="string">E-Prime Primary Realtime Clock</Description><StartTime><Timestamp dt:dt="int">0</Timestamp><DateUtc dt:dt="string">2016-04-13T20:00:44Z</DateUtc></StartTime><FrequencyChanges><FrequencyChange><Frequency dt:dt="r8">3507724</Frequency><Timestamp dt:dt="r8">226459458840</Timestamp><Current dt:dt="r8">0</Current><DateUtc dt:dt="string">2016-04-13T20:00:44Z</DateUtc></FrequencyChange></FrequencyChanges></Clock>\n	Hungry_Donkey_bar_English_2-141-1	60.018	9	1.0.0.18	1	-1173131205	Standard	2.0.10.353	2.0.10.353	04-13-2016	4/13/2016 8:00:44 PM	16:00:44	2.0.10.248	96	Bar50-50.bmp	45	1	?	12r_4g.bmp	0r_4g.bmp	3r_2g.bmp	0r_2g.bmp	12r_4g.bmp				TrialProc	TrialList	0	cvbn	-999999	16	384108	0	c	794	384902	296	-359	-63	-48	-66	29	22	5	10	96	-12	0	-3	0	4	4	2	2	-12	4
Hungry_Donkey_bar_English_2	141	1	<?xml version="1.0"?>\n<Clock xmlns:dt="urn:schemas-microsoft-com:datatypes"><Description dt:dt="string">E-Prime Primary Realtime Clock</Description><StartTime><Timestamp dt:dt="int">0</Timestamp><DateUtc dt:dt="string">2016-04-13T20:00:44Z</DateUtc></StartTime><FrequencyChanges><FrequencyChange><Frequency dt:dt="r8">3507724</Frequency><Timestamp dt:dt="r8">226459458840</Timestamp><Current dt:dt="r8">0</Current><DateUtc dt:dt="string">2016-04-13T20:00:44Z</DateUtc></FrequencyChange></FrequencyChanges></Clock>\n	Hungry_Donkey_bar_English_2-141-1	60.018	9	1.0.0.18	1	-1173131205	Standard	2.0.10.353	2.0.10.353	04-13-2016	4/13/2016 8:00:44 PM	16:00:44	2.0.10.248	97	Bar50-50.bmp	46	1	?	0r_4g.bmp	0r_4g.bmp	0r_2g.bmp	0r_2g.bmp	0r_4g.bmp				TrialProc	TrialList	0	cvbn	-999999	16	386940	0	c	954	387894	300	-359	-59	-44	-66	29	22	7	10	97	0	0	0	0	4	4	2	2	0	4
Hungry_Donkey_bar_English_2	141	1	<?xml version="1.0"?>\n<Clock xmlns:dt="urn:schemas-microsoft-com:datatypes"><Description dt:dt="string">E-Prime Primary Realtime Clock</Description><StartTime><Timestamp dt:dt="int">0</Timestamp><DateUtc dt:dt="string">2016-04-13T20:00:44Z</DateUtc></StartTime><FrequencyChanges><FrequencyChange><Frequency dt:dt="r8">3507724</Frequency><Timestamp dt:dt="r8">226459458840</Timestamp><Current dt:dt="r8">0</Current><DateUtc dt:dt="string">2016-04-13T20:00:44Z</DateUtc></FrequencyChange></FrequencyChanges></Clock>\n	Hungry_Donkey_bar_English_2-141-1	60.018	9	1.0.0.18	1	-1173131205	Standard	2.0.10.353	2.0.10.353	04-13-2016	4/13/2016 8:00:44 PM	16:00:44	2.0.10.248	98	Bar50-50.bmp	46	1	?	0r_4g.bmp	0r_4g.bmp	0r_2g.bmp	0r_2g.bmp	0r_4g.bmp				TrialProc	TrialList	0	cvbn	-999999	16	389923	0	c	547	390470	304	-359	-55	-40	-66	29	22	10	10	98	0	0	0	0	4	4	2	2	0	4
Hungry_Donkey_bar_English_2	141	1	<?xml version="1.0"?>\n<Clock xmlns:dt="urn:schemas-microsoft-com:datatypes"><Description dt:dt="string">E-Prime Primary Realtime Clock</Description><StartTime><Timestamp dt:dt="int">0</Timestamp><DateUtc dt:dt="string">2016-04-13T20:00:44Z</DateUtc></StartTime><FrequencyChanges><FrequencyChange><Frequency dt:dt="r8">3507724</Frequency><Timestamp dt:dt="r8">226459458840</Timestamp><Current dt:dt="r8">0</Current><DateUtc dt:dt="string">2016-04-13T20:00:44Z</DateUtc></FrequencyChange></FrequencyChanges></Clock>\n	Hungry_Donkey_bar_English_2-141-1	60.018	9	1.0.0.18	1	-1173131205	Standard	2.0.10.353	2.0.10.353	04-13-2016	4/13/2016 8:00:44 PM	16:00:44	2.0.10.248	99	Bar50-50.bmp	46	1	?	0r_4g.bmp	0r_4g.bmp	0r_2g.bmp	0r_2g.bmp	0r_4g.bmp				TrialProc	TrialList	0	cvbn	-999999	16	392505	0	c	365	392870	308	-359	-51	-36	-66	29	22	8	10	99	0	0	0	0	4	4	2	2	0	4
Hungry_Donkey_bar_English_2	141	1	<?xml version="1.0"?>\n<Clock xmlns:dt="urn:schemas-microsoft-com:datatypes"><Description dt:dt="string">E-Prime Primary Realtime Clock</Description><StartTime><Timestamp dt:dt="int">0</Timestamp><DateUtc dt:dt="string">2016-04-13T20:00:44Z</DateUtc></StartTime><FrequencyChanges><FrequencyChange><Frequency dt:dt="r8">3507724</Frequency><Timestamp dt:dt="r8">226459458840</Timestamp><Current dt:dt="r8">0</Current><DateUtc dt:dt="string">2016-04-13T20:00:44Z</DateUtc></FrequencyChange></FrequencyChanges></Clock>\n	Hungry_Donkey_bar_English_2-141-1	60.018	9	1.0.0.18	1	-1173131205	Standard	2.0.10.353	2.0.10.353	04-13-2016	4/13/2016 8:00:44 PM	16:00:44	2.0.10.248	100	Bar50-50.bmp	46	1	?	0r_4g.bmp	0r_4g.bmp	0r_2g.bmp	0r_2g.bmp	0r_4g.bmp				TrialProc	TrialList	0	cvbn	-999999	16	394904	0	c	317	395221	312	-359	-47	-32	-66	29	22	9	10	100	0	0	0	0	4	4	2	2	0	4
Hungry_Donkey_bar_English_2	141	1	<?xml version="1.0"?>\n<Clock xmlns:dt="urn:schemas-microsoft-com:datatypes"><Description dt:dt="string">E-Prime Primary Realtime Clock</Description><StartTime><Timestamp dt:dt="int">0</Timestamp><DateUtc dt:dt="string">2016-04-13T20:00:44Z</DateUtc></StartTime><FrequencyChanges><FrequencyChange><Frequency dt:dt="r8">3507724</Frequency><Timestamp dt:dt="r8">226459458840</Timestamp><Current dt:dt="r8">0</Current><DateUtc dt:dt="string">2016-04-13T20:00:44Z</DateUtc></FrequencyChange></FrequencyChanges></Clock>\n	Hungry_Donkey_bar_English_2-141-1	60.018	9	1.0.0.18	1	-1173131205	Standard	2.0.10.353	2.0.10.353	04-13-2016	4/13/2016 8:00:44 PM	16:00:44	2.0.10.248	101	Bar50-50.bmp	47	3	?	0r_4g.bmp	0r_4g.bmp	0r_2g.bmp	0r_2g.bmp			0r_2g.bmp		TrialProc	TrialList	0	cvbn	-999999	16	397254	0	b	591	397845	314	-359	-45	-32	-66	31	22	8	11	101	0	0	0	0	4	4	2	2	0	2
Hungry_Donkey_bar_English_2	141	1	<?xml version="1.0"?>\n<Clock xmlns:dt="urn:schemas-microsoft-com:datatypes"><Description dt:dt="string">E-Prime Primary Realtime Clock</Description><StartTime><Timestamp dt:dt="int">0</Timestamp><DateUtc dt:dt="string">2016-04-13T20:00:44Z</DateUtc></StartTime><FrequencyChanges><FrequencyChange><Frequency dt:dt="r8">3507724</Frequency><Timestamp dt:dt="r8">226459458840</Timestamp><Current dt:dt="r8">0</Current><DateUtc dt:dt="string">2016-04-13T20:00:44Z</DateUtc></FrequencyChange></FrequencyChanges></Clock>\n	Hungry_Donkey_bar_English_2-141-1	60.018	9	1.0.0.18	1	-1173131205	Standard	2.0.10.353	2.0.10.353	04-13-2016	4/13/2016 8:00:44 PM	16:00:44	2.0.10.248	102	Bar50-50.bmp	47	2	?	10r_4g.bmp	0r_4g.bmp	2r_2g.bmp	0r_2g.bmp		0r_4g.bmp			TrialProc	TrialList	0	cvbn	-999999	16	399870	0	v	599	400469	318	-359	-41	-32	-62	31	22	2	11	102	-10	0	-2	0	4	4	2	2	0	4
Hungry_Donkey_bar_English_2	141	1	<?xml version="1.0"?>\n<Clock xmlns:dt="urn:schemas-microsoft-com:datatypes"><Description dt:dt="string">E-Prime Primary Realtime Clock</Description><StartTime><Timestamp dt:dt="int">0</Timestamp><DateUtc dt:dt="string">2016-04-13T20:00:44Z</DateUtc></StartTime><FrequencyChanges><FrequencyChange><Frequency dt:dt="r8">3507724</Frequency><Timestamp dt:dt="r8">226459458840</Timestamp><Current dt:dt="r8">0</Current><DateUtc dt:dt="string">2016-04-13T20:00:44Z</DateUtc></FrequencyChange></FrequencyChanges></Clock>\n	Hungry_Donkey_bar_English_2-141-1	60.018	9	1.0.0.18	1	-1173131205	Standard	2.0.10.353	2.0.10.353	04-13-2016	4/13/2016 8:00:44 PM	16:00:44	2.0.10.248	103	Bar50-50.bmp	47	4	?	0r_4g.bmp	0r_4g.bmp	0r_2g.bmp	0r_2g.bmp				0r_2g.bmp	TrialProc	TrialList	0	cvbn	-999999	16	402502	0	n	1903	404405	320	-359	-39	-32	-62	31	24	6	11	103	0	0	0	0	4	4	2	2	0	2
Hungry_Donkey_bar_English_2	141	1	<?xml version="1.0"?>\n<Clock xmlns:dt="urn:schemas-microsoft-com:datatypes"><Description dt:dt="string">E-Prime Primary Realtime Clock</Description><StartTime><Timestamp dt:dt="int">0</Timestamp><DateUtc dt:dt="string">2016-04-13T20:00:44Z</DateUtc></StartTime><FrequencyChanges><FrequencyChange><Frequency dt:dt="r8">3507724</Frequency><Timestamp dt:dt="r8">226459458840</Timestamp><Current dt:dt="r8">0</Current><DateUtc dt:dt="string">2016-04-13T20:00:44Z</DateUtc></FrequencyChange></FrequencyChanges></Clock>\n	Hungry_Donkey_bar_English_2-141-1	60.018	9	1.0.0.18	1	-1173131205	Standard	2.0.10.353	2.0.10.353	04-13-2016	4/13/2016 8:00:44 PM	16:00:44	2.0.10.248	104	Bar50-50.bmp	47	2	?	0r_4g.bmp	0r_4g.bmp	0r_2g.bmp	0r_2g.bmp		0r_4g.bmp			TrialProc	TrialList	0	cvbn	-999999	16	406434	0	v	1059	407493	324	-359	-35	-32	-58	31	24	10	11	104	0	0	0	0	4	4	2	2	0	4
Hungry_Donkey_bar_English_2	141	1	<?xml version="1.0"?>\n<Clock xmlns:dt="urn:schemas-microsoft-com:datatypes"><Description dt:dt="string">E-Prime Primary Realtime Clock</Description><StartTime><Timestamp dt:dt="int">0</Timestamp><DateUtc dt:dt="string">2016-04-13T20:00:44Z</DateUtc></StartTime><FrequencyChanges><FrequencyChange><Frequency dt:dt="r8">3507724</Frequency><Timestamp dt:dt="r8">226459458840</Timestamp><Current dt:dt="r8">0</Current><DateUtc dt:dt="string">2016-04-13T20:00:44Z</DateUtc></FrequencyChange></FrequencyChanges></Clock>\n	Hungry_Donkey_bar_English_2-141-1	60.018	9	1.0.0.18	1	-1173131205	Standard	2.0.10.353	2.0.10.353	04-13-2016	4/13/2016 8:00:44 PM	16:00:44	2.0.10.248	105	Bar50-50.bmp	48	1	?	0r_4g.bmp	0r_4g.bmp	0r_2g.bmp	0r_2g.bmp	0r_4g.bmp				TrialProc	TrialList	0	cvbn	-999999	16	409533	0	c	664	410197	328	-359	-31	-28	-58	31	24	7	11	105	0	0	0	0	4	4	2	2	0	4
Hungry_Donkey_bar_English_2	141	1	<?xml version="1.0"?>\n<Clock xmlns:dt="urn:schemas-microsoft-com:datatypes"><Description dt:dt="string">E-Prime Primary Realtime Clock</Description><StartTime><Timestamp dt:dt="int">0</Timestamp><DateUtc dt:dt="string">2016-04-13T20:00:44Z</DateUtc></StartTime><FrequencyChanges><FrequencyChange><Frequency dt:dt="r8">3507724</Frequency><Timestamp dt:dt="r8">226459458840</Timestamp><Current dt:dt="r8">0</Current><DateUtc dt:dt="string">2016-04-13T20:00:44Z</DateUtc></FrequencyChange></FrequencyChanges></Clock>\n	Hungry_Donkey_bar_English_2-141-1	60.018	9	1.0.0.18	1	-1173131205	Standard	2.0.10.353	2.0.10.353	04-13-2016	4/13/2016 8:00:44 PM	16:00:44	2.0.10.248	106	Bar50-50.bmp	48	1	?	0r_4g.bmp	0r_4g.bmp	0r_2g.bmp	0r_2g.bmp	0r_4g.bmp				TrialProc	TrialList	0	cvbn	-999999	16	412233	0	c	683	412916	332	-359	-27	-24	-58	31	24	9	11	106	0	0	0	0	4	4	2	2	0	4
Hungry_Donkey_bar_English_2	141	1	<?xml version="1.0"?>\n<Clock xmlns:dt="urn:schemas-microsoft-com:datatypes"><Description dt:dt="string">E-Prime Primary Realtime Clock</Description><StartTime><Timestamp dt:dt="int">0</Timestamp><DateUtc dt:dt="string">2016-04-13T20:00:44Z</DateUtc></StartTime><FrequencyChanges><FrequencyChange><Frequency dt:dt="r8">3507724</Frequency><Timestamp dt:dt="r8">226459458840</Timestamp><Current dt:dt="r8">0</Current><DateUtc dt:dt="string">2016-04-13T20:00:44Z</DateUtc></FrequencyChange></FrequencyChanges></Clock>\n	Hungry_Donkey_bar_English_2-141-1	60.018	9	1.0.0.18	1	-1173131205	Standard	2.0.10.353	2.0.10.353	04-13-2016	4/13/2016 8:00:44 PM	16:00:44	2.0.10.248	107	Bar50-50.bmp	48	3	?	8r_4g.bmp	50r_4g.bmp	1r_2g.bmp	10r_2g.bmp			1r_2g.bmp		TrialProc	TrialList	0	cvbn	-999999	16	414948	0	b	96	415044	334	-360	-26	-24	-58	32	24	1	11	107	-8	-50	-1	-10	4	4	2	2	-1	2
Hungry_Donkey_bar_English_2	141	1	<?xml version="1.0"?>\n<Clock xmlns:dt="urn:schemas-microsoft-com:datatypes"><Description dt:dt="string">E-Prime Primary Realtime Clock</Description><StartTime><Timestamp dt:dt="int">0</Timestamp><DateUtc dt:dt="string">2016-04-13T20:00:44Z</DateUtc></StartTime><FrequencyChanges><FrequencyChange><Frequency dt:dt="r8">3507724</Frequency><Timestamp dt:dt="r8">226459458840</Timestamp><Current dt:dt="r8">0</Current><DateUtc dt:dt="string">2016-04-13T20:00:44Z</DateUtc></FrequencyChange></FrequencyChanges></Clock>\n	Hungry_Donkey_bar_English_2-141-1	60.018	9	1.0.0.18	1	-1173131205	Standard	2.0.10.353	2.0.10.353	04-13-2016	4/13/2016 8:00:44 PM	16:00:44	2.0.10.248	108	Bar50-50.bmp	48	2	?	10r_4g.bmp	0r_4g.bmp	2r_2g.bmp	0r_2g.bmp		0r_4g.bmp			TrialProc	TrialList	0	cvbn	-999999	16	417081	0	v	1019	418100	338	-360	-22	-24	-54	32	24	3	11	108	-10	0	-2	0	4	4	2	2	0	4
Hungry_Donkey_bar_English_2	141	1	<?xml version="1.0"?>\n<Clock xmlns:dt="urn:schemas-microsoft-com:datatypes"><Description dt:dt="string">E-Prime Primary Realtime Clock</Description><StartTime><Timestamp dt:dt="int">0</Timestamp><DateUtc dt:dt="string">2016-04-13T20:00:44Z</DateUtc></StartTime><FrequencyChanges><FrequencyChange><Frequency dt:dt="r8">3507724</Frequency><Timestamp dt:dt="r8">226459458840</Timestamp><Current dt:dt="r8">0</Current><DateUtc dt:dt="string">2016-04-13T20:00:44Z</DateUtc></FrequencyChange></FrequencyChanges></Clock>\n	Hungry_Donkey_bar_English_2-141-1	60.018	9	1.0.0.18	1	-1173131205	Standard	2.0.10.353	2.0.10.353	04-13-2016	4/13/2016 8:00:44 PM	16:00:44	2.0.10.248	109	Bar50-50.bmp	49	4	?	10r_4g.bmp	0r_4g.bmp	2r_2g.bmp	0r_2g.bmp				0r_2g.bmp	TrialProc	TrialList	0	cvbn	-999999	16	420130	0	n	1298	421428	340	-360	-20	-24	-54	32	26	4	11	109	-10	0	-2	0	4	4	2	2	0	2
Hungry_Donkey_bar_English_2	141	1	<?xml version="1.0"?>\n<Clock xmlns:dt="urn:schemas-microsoft-com:datatypes"><Description dt:dt="string">E-Prime Primary Realtime Clock</Description><StartTime><Timestamp dt:dt="int">0</Timestamp><DateUtc dt:dt="string">2016-04-13T20:00:44Z</DateUtc></StartTime><FrequencyChanges><FrequencyChange><Frequency dt:dt="r8">3507724</Frequency><Timestamp dt:dt="r8">226459458840</Timestamp><Current dt:dt="r8">0</Current><DateUtc dt:dt="string">2016-04-13T20:00:44Z</DateUtc></FrequencyChange></FrequencyChanges></Clock>\n	Hungry_Donkey_bar_English_2-141-1	60.018	9	1.0.0.18	1	-1173131205	Standard	2.0.10.353	2.0.10.353	04-13-2016	4/13/2016 8:00:44 PM	16:00:44	2.0.10.248	110	Bar50-50.bmp	49	3	?	12r_4g.bmp	0r_4g.bmp	3r_2g.bmp	0r_2g.bmp			3r_2g.bmp		TrialProc	TrialList	0	cvbn	-999999	16	423463	0	b	605	424068	342	-363	-21	-24	-54	31	26	5	11	110	-12	0	-3	0	4	4	2	2	-3	2
Hungry_Donkey_bar_English_2	141	1	<?xml version="1.0"?>\n<Clock xmlns:dt="urn:schemas-microsoft-com:datatypes"><Description dt:dt="string">E-Prime Primary Realtime Clock</Description><StartTime><Timestamp dt:dt="int">0</Timestamp><DateUtc dt:dt="string">2016-04-13T20:00:44Z</DateUtc></StartTime><FrequencyChanges><FrequencyChange><Frequency dt:dt="r8">3507724</Frequency><Timestamp dt:dt="r8">226459458840</Timestamp><Current dt:dt="r8">0</Current><DateUtc dt:dt="string">2016-04-13T20:00:44Z</DateUtc></FrequencyChange></FrequencyChanges></Clock>\n	Hungry_Donkey_bar_English_2-141-1	60.018	9	1.0.0.18	1	-1173131205	Standard	2.0.10.353	2.0.10.353	04-13-2016	4/13/2016 8:00:44 PM	16:00:44	2.0.10.248	111	Bar50-50.bmp	49	2	?	10r_4g.bmp	0r_4g.bmp	2r_2g.bmp	0r_2g.bmp		0r_4g.bmp			TrialProc	TrialList	0	cvbn	-999999	16	426095	0	v	53	426148	346	-363	-17	-24	-50	31	26	4	12	111	-10	0	-2	0	4	4	2	2	0	4
