ExperimentName	Subject	Session	Clock.Information	DataFile.Basename	Display.RefreshRate	Eindtotaal[Session]	ExperimentVersion	Group	RandomSeed	RuntimeCapabilities	RuntimeVersion	RuntimeVersionExpected	SessionDate	SessionStartDateTimeUtc	SessionTime	StudioVersion	Block	BarImage	BarTotalWinst	DoorChoice	Eindtotaal[Block]	FBDoor1	FBDoor2	FBDoor3	FBDoor4	Image1	Image2	Image3	Image4	Procedure	Running	spel.ACC	spel.CRESP	spel.DurationError	spel.OnsetDelay	spel.OnsetTime	spel.OnsetToOnsetTime	spel.RESP	spel.RT	spel.RTTime	TotalGain	TotalLose	Totalsum	TotalsumD1	TotalsumD2	TotalsumD3	TotalsumD4	TrialList	TrialList.Cycle	TrialList.Sample	varV1	varV2	varV3	varV4	varW1	varW2	varW3	varW4	Verliesbedrag	Winstbedrag
Hungry_Donkey_bar_English_2	165	1	<?xml version="1.0"?>\n<Clock xmlns:dt="urn:schemas-microsoft-com:datatypes"><Description dt:dt="string">E-Prime Primary Realtime Clock</Description><StartTime><Timestamp dt:dt="int">0</Timestamp><DateUtc dt:dt="string">2016-08-16T16:09:35Z</DateUtc></StartTime><FrequencyChanges><FrequencyChange><Frequency dt:dt="r8">3507607</Frequency><Timestamp dt:dt="r8">305847762529</Timestamp><Current dt:dt="r8">0</Current><DateUtc dt:dt="string">2016-08-16T16:09:35Z</DateUtc></FrequencyChange></FrequencyChanges></Clock>\n	Hungry_Donkey_bar_English_2-165-1	60.016	-288	1.0.0.18	1	905774093	Standard	2.0.10.353	2.0.10.353	08-16-2016	8/16/2016 4:09:35 PM	12:09:35	2.0.10.248	1	Bar25-75.bmp	29	1	?	10r_4g.bmp	0r_4g.bmp	2r_2g.bmp	0r_2g.bmp	10r_4g.bmp				TrialProc	TrialList	0	cvbn	-999999	20	59609	0	c	5979	65588	4	-10	-6	-6	0	0	0	3	1	1	-10	0	-2	0	4	4	2	2	-10	4
Hungry_Donkey_bar_English_2	165	1	<?xml version="1.0"?>\n<Clock xmlns:dt="urn:schemas-microsoft-com:datatypes"><Description dt:dt="string">E-Prime Primary Realtime Clock</Description><StartTime><Timestamp dt:dt="int">0</Timestamp><DateUtc dt:dt="string">2016-08-16T16:09:35Z</DateUtc></StartTime><FrequencyChanges><FrequencyChange><Frequency dt:dt="r8">3507607</Frequency><Timestamp dt:dt="r8">305847762529</Timestamp><Current dt:dt="r8">0</Current><DateUtc dt:dt="string">2016-08-16T16:09:35Z</DateUtc></FrequencyChange></FrequencyChanges></Clock>\n	Hungry_Donkey_bar_English_2-165-1	60.016	-288	1.0.0.18	1	905774093	Standard	2.0.10.353	2.0.10.353	08-16-2016	8/16/2016 4:09:35 PM	12:09:35	2.0.10.248	2	Bar37-63.bmp	38	4	?	10r_4g.bmp	0r_4g.bmp	2r_2g.bmp	0r_2g.bmp				0r_2g.bmp	TrialProc	TrialList	0	cvbn	-999999	16	67624	0	n	40299	107923	6	-10	-4	-6	0	0	2	4	1	2	-10	0	-2	0	4	4	2	2	0	2
Hungry_Donkey_bar_English_2	165	1	<?xml version="1.0"?>\n<Clock xmlns:dt="urn:schemas-microsoft-com:datatypes"><Description dt:dt="string">E-Prime Primary Realtime Clock</Description><StartTime><Timestamp dt:dt="int">0</Timestamp><DateUtc dt:dt="string">2016-08-16T16:09:35Z</DateUtc></StartTime><FrequencyChanges><FrequencyChange><Frequency dt:dt="r8">3507607</Frequency><Timestamp dt:dt="r8">305847762529</Timestamp><Current dt:dt="r8">0</Current><DateUtc dt:dt="string">2016-08-16T16:09:35Z</DateUtc></FrequencyChange></FrequencyChanges></Clock>\n	Hungry_Donkey_bar_English_2-165-1	60.016	-288	1.0.0.18	1	905774093	Standard	2.0.10.353	2.0.10.353	08-16-2016	8/16/2016 4:09:35 PM	12:09:35	2.0.10.248	3	Bar37-63.bmp	42	3	?	8r_4g.bmp	50r_4g.bmp	1r_2g.bmp	10r_2g.bmp			1r_2g.bmp		TrialProc	TrialList	0	cvbn	-999999	16	109962	0	b	5433	115395	8	-11	-3	-6	0	1	2	1	1	3	-8	-50	-1	-10	4	4	2	2	-1	2
Hungry_Donkey_bar_English_2	165	1	<?xml version="1.0"?>\n<Clock xmlns:dt="urn:schemas-microsoft-com:datatypes"><Description dt:dt="string">E-Prime Primary Realtime Clock</Description><StartTime><Timestamp dt:dt="int">0</Timestamp><DateUtc dt:dt="string">2016-08-16T16:09:35Z</DateUtc></StartTime><FrequencyChanges><FrequencyChange><Frequency dt:dt="r8">3507607</Frequency><Timestamp dt:dt="r8">305847762529</Timestamp><Current dt:dt="r8">0</Current><DateUtc dt:dt="string">2016-08-16T16:09:35Z</DateUtc></FrequencyChange></FrequencyChanges></Clock>\n	Hungry_Donkey_bar_English_2-165-1	60.016	-288	1.0.0.18	1	905774093	Standard	2.0.10.353	2.0.10.353	08-16-2016	8/16/2016 4:09:35 PM	12:09:35	2.0.10.248	4	Bar50-50.bmp	52	2	?	10r_4g.bmp	0r_4g.bmp	2r_2g.bmp	0r_2g.bmp		0r_4g.bmp			TrialProc	TrialList	0	cvbn	-999999	16	117427	0	v	4240	121667	12	-11	1	-6	4	1	2	2	1	4	-10	0	-2	0	4	4	2	2	0	4
Hungry_Donkey_bar_English_2	165	1	<?xml version="1.0"?>\n<Clock xmlns:dt="urn:schemas-microsoft-com:datatypes"><Description dt:dt="string">E-Prime Primary Realtime Clock</Description><StartTime><Timestamp dt:dt="int">0</Timestamp><DateUtc dt:dt="string">2016-08-16T16:09:35Z</DateUtc></StartTime><FrequencyChanges><FrequencyChange><Frequency dt:dt="r8">3507607</Frequency><Timestamp dt:dt="r8">305847762529</Timestamp><Current dt:dt="r8">0</Current><DateUtc dt:dt="string">2016-08-16T16:09:35Z</DateUtc></FrequencyChange></FrequencyChanges></Clock>\n	Hungry_Donkey_bar_English_2-165-1	60.016	-288	1.0.0.18	1	905774093	Standard	2.0.10.353	2.0.10.353	08-16-2016	8/16/2016 4:09:35 PM	12:09:35	2.0.10.248	5	Bar63-37.bmp	59	1	?	0r_4g.bmp	0r_4g.bmp	0r_2g.bmp	0r_2g.bmp	0r_4g.bmp				TrialProc	TrialList	0	cvbn	-999999	16	123709	0	c	2566	126275	16	-11	5	-2	4	1	2	10	1	5	0	0	0	0	4	4	2	2	0	4
Hungry_Donkey_bar_English_2	165	1	<?xml version="1.0"?>\n<Clock xmlns:dt="urn:schemas-microsoft-com:datatypes"><Description dt:dt="string">E-Prime Primary Realtime Clock</Description><StartTime><Timestamp dt:dt="int">0</Timestamp><DateUtc dt:dt="string">2016-08-16T16:09:35Z</DateUtc></StartTime><FrequencyChanges><FrequencyChange><Frequency dt:dt="r8">3507607</Frequency><Timestamp dt:dt="r8">305847762529</Timestamp><Current dt:dt="r8">0</Current><DateUtc dt:dt="string">2016-08-16T16:09:35Z</DateUtc></FrequencyChange></FrequencyChanges></Clock>\n	Hungry_Donkey_bar_English_2-165-1	60.016	-288	1.0.0.18	1	905774093	Standard	2.0.10.353	2.0.10.353	08-16-2016	8/16/2016 4:09:35 PM	12:09:35	2.0.10.248	6	Bar63-37.bmp	62	3	?	0r_4g.bmp	0r_4g.bmp	0r_2g.bmp	0r_2g.bmp			0r_2g.bmp		TrialProc	TrialList	0	cvbn	-999999	17	128308	0	b	2047	130355	18	-11	7	-2	4	3	2	7	1	6	0	0	0	0	4	4	2	2	0	2
Hungry_Donkey_bar_English_2	165	1	<?xml version="1.0"?>\n<Clock xmlns:dt="urn:schemas-microsoft-com:datatypes"><Description dt:dt="string">E-Prime Primary Realtime Clock</Description><StartTime><Timestamp dt:dt="int">0</Timestamp><DateUtc dt:dt="string">2016-08-16T16:09:35Z</DateUtc></StartTime><FrequencyChanges><FrequencyChange><Frequency dt:dt="r8">3507607</Frequency><Timestamp dt:dt="r8">305847762529</Timestamp><Current dt:dt="r8">0</Current><DateUtc dt:dt="string">2016-08-16T16:09:35Z</DateUtc></FrequencyChange></FrequencyChanges></Clock>\n	Hungry_Donkey_bar_English_2-165-1	60.016	-288	1.0.0.18	1	905774093	Standard	2.0.10.353	2.0.10.353	08-16-2016	8/16/2016 4:09:35 PM	12:09:35	2.0.10.248	7	Bar63-37.bmp	65	4	?	0r_4g.bmp	0r_4g.bmp	0r_2g.bmp	0r_2g.bmp				0r_2g.bmp	TrialProc	TrialList	0	cvbn	-999999	16	132390	0	n	1404	133794	20	-11	9	-2	4	3	4	6	1	7	0	0	0	0	4	4	2	2	0	2
Hungry_Donkey_bar_English_2	165	1	<?xml version="1.0"?>\n<Clock xmlns:dt="urn:schemas-microsoft-com:datatypes"><Description dt:dt="string">E-Prime Primary Realtime Clock</Description><StartTime><Timestamp dt:dt="int">0</Timestamp><DateUtc dt:dt="string">2016-08-16T16:09:35Z</DateUtc></StartTime><FrequencyChanges><FrequencyChange><Frequency dt:dt="r8">3507607</Frequency><Timestamp dt:dt="r8">305847762529</Timestamp><Current dt:dt="r8">0</Current><DateUtc dt:dt="string">2016-08-16T16:09:35Z</DateUtc></FrequencyChange></FrequencyChanges></Clock>\n	Hungry_Donkey_bar_English_2-165-1	60.016	-288	1.0.0.18	1	905774093	Standard	2.0.10.353	2.0.10.353	08-16-2016	8/16/2016 4:09:35 PM	12:09:35	2.0.10.248	8	Bar63-37.bmp	69	2	?	0r_4g.bmp	0r_4g.bmp	0r_2g.bmp	0r_2g.bmp		0r_4g.bmp			TrialProc	TrialList	0	cvbn	-999999	16	135822	0	v	1236	137058	24	-11	13	-2	8	3	4	8	1	8	0	0	0	0	4	4	2	2	0	4
Hungry_Donkey_bar_English_2	165	1	<?xml version="1.0"?>\n<Clock xmlns:dt="urn:schemas-microsoft-com:datatypes"><Description dt:dt="string">E-Prime Primary Realtime Clock</Description><StartTime><Timestamp dt:dt="int">0</Timestamp><DateUtc dt:dt="string">2016-08-16T16:09:35Z</DateUtc></StartTime><FrequencyChanges><FrequencyChange><Frequency dt:dt="r8">3507607</Frequency><Timestamp dt:dt="r8">305847762529</Timestamp><Current dt:dt="r8">0</Current><DateUtc dt:dt="string">2016-08-16T16:09:35Z</DateUtc></FrequencyChange></FrequencyChanges></Clock>\n	Hungry_Donkey_bar_English_2-165-1	60.016	-288	1.0.0.18	1	905774093	Standard	2.0.10.353	2.0.10.353	08-16-2016	8/16/2016 4:09:35 PM	12:09:35	2.0.10.248	9	Bar75-25.bmp	70	3	?	0r_4g.bmp	0r_4g.bmp	0r_2g.bmp	0r_2g.bmp			0r_2g.bmp		TrialProc	TrialList	0	cvbn	-999999	16	139088	0	b	914	140002	26	-11	15	-2	8	5	4	9	1	9	0	0	0	0	4	4	2	2	0	2
Hungry_Donkey_bar_English_2	165	1	<?xml version="1.0"?>\n<Clock xmlns:dt="urn:schemas-microsoft-com:datatypes"><Description dt:dt="string">E-Prime Primary Realtime Clock</Description><StartTime><Timestamp dt:dt="int">0</Timestamp><DateUtc dt:dt="string">2016-08-16T16:09:35Z</DateUtc></StartTime><FrequencyChanges><FrequencyChange><Frequency dt:dt="r8">3507607</Frequency><Timestamp dt:dt="r8">305847762529</Timestamp><Current dt:dt="r8">0</Current><DateUtc dt:dt="string">2016-08-16T16:09:35Z</DateUtc></FrequencyChange></FrequencyChanges></Clock>\n	Hungry_Donkey_bar_English_2-165-1	60.016	-288	1.0.0.18	1	905774093	Standard	2.0.10.353	2.0.10.353	08-16-2016	8/16/2016 4:09:35 PM	12:09:35	2.0.10.248	10	Bar63-37.bmp	57	1	?	12r_4g.bmp	0r_4g.bmp	3r_2g.bmp	0r_2g.bmp	12r_4g.bmp				TrialProc	TrialList	0	cvbn	-999999	16	142037	0	c	957	142994	30	-23	7	-10	8	5	4	5	1	10	-12	0	-3	0	4	4	2	2	-12	4
Hungry_Donkey_bar_English_2	165	1	<?xml version="1.0"?>\n<Clock xmlns:dt="urn:schemas-microsoft-com:datatypes"><Description dt:dt="string">E-Prime Primary Realtime Clock</Description><StartTime><Timestamp dt:dt="int">0</Timestamp><DateUtc dt:dt="string">2016-08-16T16:09:35Z</DateUtc></StartTime><FrequencyChanges><FrequencyChange><Frequency dt:dt="r8">3507607</Frequency><Timestamp dt:dt="r8">305847762529</Timestamp><Current dt:dt="r8">0</Current><DateUtc dt:dt="string">2016-08-16T16:09:35Z</DateUtc></FrequencyChange></FrequencyChanges></Clock>\n	Hungry_Donkey_bar_English_2-165-1	60.016	-288	1.0.0.18	1	905774093	Standard	2.0.10.353	2.0.10.353	08-16-2016	8/16/2016 4:09:35 PM	12:09:35	2.0.10.248	11	Bar63-37.bmp	58	4	?	0r_4g.bmp	0r_4g.bmp	0r_2g.bmp	0r_2g.bmp				0r_2g.bmp	TrialProc	TrialList	0	cvbn	-999999	16	145036	0	n	1670	146706	32	-23	9	-10	8	5	6	7	2	11	0	0	0	0	4	4	2	2	0	2
Hungry_Donkey_bar_English_2	165	1	<?xml version="1.0"?>\n<Clock xmlns:dt="urn:schemas-microsoft-com:datatypes"><Description dt:dt="string">E-Prime Primary Realtime Clock</Description><StartTime><Timestamp dt:dt="int">0</Timestamp><DateUtc dt:dt="string">2016-08-16T16:09:35Z</DateUtc></StartTime><FrequencyChanges><FrequencyChange><Frequency dt:dt="r8">3507607</Frequency><Timestamp dt:dt="r8">305847762529</Timestamp><Current dt:dt="r8">0</Current><DateUtc dt:dt="string">2016-08-16T16:09:35Z</DateUtc></FrequencyChange></FrequencyChanges></Clock>\n	Hungry_Donkey_bar_English_2-165-1	60.016	-288	1.0.0.18	1	905774093	Standard	2.0.10.353	2.0.10.353	08-16-2016	8/16/2016 4:09:35 PM	12:09:35	2.0.10.248	12	Bar63-37.bmp	61	2	?	10r_4g.bmp	0r_4g.bmp	2r_2g.bmp	0r_2g.bmp		0r_4g.bmp			TrialProc	TrialList	0	cvbn	-999999	16	148735	0	v	1219	149954	36	-23	13	-10	12	5	6	4	2	12	-10	0	-2	0	4	4	2	2	0	4
Hungry_Donkey_bar_English_2	165	1	<?xml version="1.0"?>\n<Clock xmlns:dt="urn:schemas-microsoft-com:datatypes"><Description dt:dt="string">E-Prime Primary Realtime Clock</Description><StartTime><Timestamp dt:dt="int">0</Timestamp><DateUtc dt:dt="string">2016-08-16T16:09:35Z</DateUtc></StartTime><FrequencyChanges><FrequencyChange><Frequency dt:dt="r8">3507607</Frequency><Timestamp dt:dt="r8">305847762529</Timestamp><Current dt:dt="r8">0</Current><DateUtc dt:dt="string">2016-08-16T16:09:35Z</DateUtc></FrequencyChange></FrequencyChanges></Clock>\n	Hungry_Donkey_bar_English_2-165-1	60.016	-288	1.0.0.18	1	905774093	Standard	2.0.10.353	2.0.10.353	08-16-2016	8/16/2016 4:09:35 PM	12:09:35	2.0.10.248	13	Bar63-37.bmp	62	4	?	0r_4g.bmp	0r_4g.bmp	0r_2g.bmp	0r_2g.bmp				0r_2g.bmp	TrialProc	TrialList	0	cvbn	-999999	17	151985	0	n	465	152450	38	-23	15	-10	12	5	8	6	2	13	0	0	0	0	4	4	2	2	0	2
Hungry_Donkey_bar_English_2	165	1	<?xml version="1.0"?>\n<Clock xmlns:dt="urn:schemas-microsoft-com:datatypes"><Description dt:dt="string">E-Prime Primary Realtime Clock</Description><StartTime><Timestamp dt:dt="int">0</Timestamp><DateUtc dt:dt="string">2016-08-16T16:09:35Z</DateUtc></StartTime><FrequencyChanges><FrequencyChange><Frequency dt:dt="r8">3507607</Frequency><Timestamp dt:dt="r8">305847762529</Timestamp><Current dt:dt="r8">0</Current><DateUtc dt:dt="string">2016-08-16T16:09:35Z</DateUtc></FrequencyChange></FrequencyChanges></Clock>\n	Hungry_Donkey_bar_English_2-165-1	60.016	-288	1.0.0.18	1	905774093	Standard	2.0.10.353	2.0.10.353	08-16-2016	8/16/2016 4:09:35 PM	12:09:35	2.0.10.248	14	Bar63-37.bmp	65	2	?	0r_4g.bmp	0r_4g.bmp	0r_2g.bmp	0r_2g.bmp		0r_4g.bmp			TrialProc	TrialList	0	cvbn	-999999	16	154484	0	v	910	155394	42	-23	19	-10	16	5	8	9	2	14	0	0	0	0	4	4	2	2	0	4
Hungry_Donkey_bar_English_2	165	1	<?xml version="1.0"?>\n<Clock xmlns:dt="urn:schemas-microsoft-com:datatypes"><Description dt:dt="string">E-Prime Primary Realtime Clock</Description><StartTime><Timestamp dt:dt="int">0</Timestamp><DateUtc dt:dt="string">2016-08-16T16:09:35Z</DateUtc></StartTime><FrequencyChanges><FrequencyChange><Frequency dt:dt="r8">3507607</Frequency><Timestamp dt:dt="r8">305847762529</Timestamp><Current dt:dt="r8">0</Current><DateUtc dt:dt="string">2016-08-16T16:09:35Z</DateUtc></FrequencyChange></FrequencyChanges></Clock>\n	Hungry_Donkey_bar_English_2-165-1	60.016	-288	1.0.0.18	1	905774093	Standard	2.0.10.353	2.0.10.353	08-16-2016	8/16/2016 4:09:35 PM	12:09:35	2.0.10.248	15	Bar63-37.bmp	66	3	?	0r_4g.bmp	0r_4g.bmp	0r_2g.bmp	0r_2g.bmp			0r_2g.bmp		TrialProc	TrialList	0	cvbn	-999999	15	157416	0	b	570	157986	44	-23	21	-10	16	7	8	10	2	15	0	0	0	0	4	4	2	2	0	2
Hungry_Donkey_bar_English_2	165	1	<?xml version="1.0"?>\n<Clock xmlns:dt="urn:schemas-microsoft-com:datatypes"><Description dt:dt="string">E-Prime Primary Realtime Clock</Description><StartTime><Timestamp dt:dt="int">0</Timestamp><DateUtc dt:dt="string">2016-08-16T16:09:35Z</DateUtc></StartTime><FrequencyChanges><FrequencyChange><Frequency dt:dt="r8">3507607</Frequency><Timestamp dt:dt="r8">305847762529</Timestamp><Current dt:dt="r8">0</Current><DateUtc dt:dt="string">2016-08-16T16:09:35Z</DateUtc></FrequencyChange></FrequencyChanges></Clock>\n	Hungry_Donkey_bar_English_2-165-1	60.016	-288	1.0.0.18	1	905774093	Standard	2.0.10.353	2.0.10.353	08-16-2016	8/16/2016 4:09:35 PM	12:09:35	2.0.10.248	16	Bar63-37.bmp	58	4	?	8r_4g.bmp	50r_4g.bmp	1r_2g.bmp	10r_2g.bmp				10r_2g.bmp	TrialProc	TrialList	0	cvbn	-999999	16	160016	0	n	450	160466	46	-33	13	-10	16	7	0	1	2	16	-8	-50	-1	-10	4	4	2	2	-10	2
Hungry_Donkey_bar_English_2	165	1	<?xml version="1.0"?>\n<Clock xmlns:dt="urn:schemas-microsoft-com:datatypes"><Description dt:dt="string">E-Prime Primary Realtime Clock</Description><StartTime><Timestamp dt:dt="int">0</Timestamp><DateUtc dt:dt="string">2016-08-16T16:09:35Z</DateUtc></StartTime><FrequencyChanges><FrequencyChange><Frequency dt:dt="r8">3507607</Frequency><Timestamp dt:dt="r8">305847762529</Timestamp><Current dt:dt="r8">0</Current><DateUtc dt:dt="string">2016-08-16T16:09:35Z</DateUtc></FrequencyChange></FrequencyChanges></Clock>\n	Hungry_Donkey_bar_English_2-165-1	60.016	-288	1.0.0.18	1	905774093	Standard	2.0.10.353	2.0.10.353	08-16-2016	8/16/2016 4:09:35 PM	12:09:35	2.0.10.248	17	Bar63-37.bmp	60	2	?	12r_4g.bmp	0r_4g.bmp	3r_2g.bmp	0r_2g.bmp		0r_4g.bmp			TrialProc	TrialList	0	cvbn	-999999	16	162498	0	v	1152	163650	50	-33	17	-10	20	7	0	5	2	17	-12	0	-3	0	4	4	2	2	0	4
Hungry_Donkey_bar_English_2	165	1	<?xml version="1.0"?>\n<Clock xmlns:dt="urn:schemas-microsoft-com:datatypes"><Description dt:dt="string">E-Prime Primary Realtime Clock</Description><StartTime><Timestamp dt:dt="int">0</Timestamp><DateUtc dt:dt="string">2016-08-16T16:09:35Z</DateUtc></StartTime><FrequencyChanges><FrequencyChange><Frequency dt:dt="r8">3507607</Frequency><Timestamp dt:dt="r8">305847762529</Timestamp><Current dt:dt="r8">0</Current><DateUtc dt:dt="string">2016-08-16T16:09:35Z</DateUtc></FrequencyChange></FrequencyChanges></Clock>\n	Hungry_Donkey_bar_English_2-165-1	60.016	-288	1.0.0.18	1	905774093	Standard	2.0.10.353	2.0.10.353	08-16-2016	8/16/2016 4:09:35 PM	12:09:35	2.0.10.248	18	Bar63-37.bmp	62	1	?	0r_4g.bmp	0r_4g.bmp	0r_2g.bmp	0r_2g.bmp	0r_4g.bmp				TrialProc	TrialList	0	cvbn	-999999	16	165681	0	c	753	166434	54	-33	21	-6	20	7	0	8	2	18	0	0	0	0	4	4	2	2	0	4
Hungry_Donkey_bar_English_2	165	1	<?xml version="1.0"?>\n<Clock xmlns:dt="urn:schemas-microsoft-com:datatypes"><Description dt:dt="string">E-Prime Primary Realtime Clock</Description><StartTime><Timestamp dt:dt="int">0</Timestamp><DateUtc dt:dt="string">2016-08-16T16:09:35Z</DateUtc></StartTime><FrequencyChanges><FrequencyChange><Frequency dt:dt="r8">3507607</Frequency><Timestamp dt:dt="r8">305847762529</Timestamp><Current dt:dt="r8">0</Current><DateUtc dt:dt="string">2016-08-16T16:09:35Z</DateUtc></FrequencyChange></FrequencyChanges></Clock>\n	Hungry_Donkey_bar_English_2-165-1	60.016	-288	1.0.0.18	1	905774093	Standard	2.0.10.353	2.0.10.353	08-16-2016	8/16/2016 4:09:35 PM	12:09:35	2.0.10.248	19	Bar63-37.bmp	57	1	?	10r_4g.bmp	0r_4g.bmp	2r_2g.bmp	0r_2g.bmp	10r_4g.bmp				TrialProc	TrialList	0	cvbn	-999999	17	168464	0	c	417	168881	58	-43	15	-12	20	7	0	2	2	19	-10	0	-2	0	4	4	2	2	-10	4
Hungry_Donkey_bar_English_2	165	1	<?xml version="1.0"?>\n<Clock xmlns:dt="urn:schemas-microsoft-com:datatypes"><Description dt:dt="string">E-Prime Primary Realtime Clock</Description><StartTime><Timestamp dt:dt="int">0</Timestamp><DateUtc dt:dt="string">2016-08-16T16:09:35Z</DateUtc></StartTime><FrequencyChanges><FrequencyChange><Frequency dt:dt="r8">3507607</Frequency><Timestamp dt:dt="r8">305847762529</Timestamp><Current dt:dt="r8">0</Current><DateUtc dt:dt="string">2016-08-16T16:09:35Z</DateUtc></FrequencyChange></FrequencyChanges></Clock>\n	Hungry_Donkey_bar_English_2-165-1	60.016	-288	1.0.0.18	1	905774093	Standard	2.0.10.353	2.0.10.353	08-16-2016	8/16/2016 4:09:35 PM	12:09:35	2.0.10.248	20	Bar63-37.bmp	59	2	?	10r_4g.bmp	0r_4g.bmp	2r_2g.bmp	0r_2g.bmp		0r_4g.bmp			TrialProc	TrialList	0	cvbn	-999999	16	170913	0	v	976	171889	62	-43	19	-12	24	7	0	3	2	20	-10	0	-2	0	4	4	2	2	0	4
Hungry_Donkey_bar_English_2	165	1	<?xml version="1.0"?>\n<Clock xmlns:dt="urn:schemas-microsoft-com:datatypes"><Description dt:dt="string">E-Prime Primary Realtime Clock</Description><StartTime><Timestamp dt:dt="int">0</Timestamp><DateUtc dt:dt="string">2016-08-16T16:09:35Z</DateUtc></StartTime><FrequencyChanges><FrequencyChange><Frequency dt:dt="r8">3507607</Frequency><Timestamp dt:dt="r8">305847762529</Timestamp><Current dt:dt="r8">0</Current><DateUtc dt:dt="string">2016-08-16T16:09:35Z</DateUtc></FrequencyChange></FrequencyChanges></Clock>\n	Hungry_Donkey_bar_English_2-165-1	60.016	-288	1.0.0.18	1	905774093	Standard	2.0.10.353	2.0.10.353	08-16-2016	8/16/2016 4:09:35 PM	12:09:35	2.0.10.248	21	Bar63-37.bmp	59	3	?	10r_4g.bmp	0r_4g.bmp	2r_2g.bmp	0r_2g.bmp			2r_2g.bmp		TrialProc	TrialList	0	cvbn	-999999	16	173929	0	b	360	174289	64	-45	19	-12	24	7	0	3	3	21	-10	0	-2	0	4	4	2	2	-2	2
Hungry_Donkey_bar_English_2	165	1	<?xml version="1.0"?>\n<Clock xmlns:dt="urn:schemas-microsoft-com:datatypes"><Description dt:dt="string">E-Prime Primary Realtime Clock</Description><StartTime><Timestamp dt:dt="int">0</Timestamp><DateUtc dt:dt="string">2016-08-16T16:09:35Z</DateUtc></StartTime><FrequencyChanges><FrequencyChange><Frequency dt:dt="r8">3507607</Frequency><Timestamp dt:dt="r8">305847762529</Timestamp><Current dt:dt="r8">0</Current><DateUtc dt:dt="string">2016-08-16T16:09:35Z</DateUtc></FrequencyChange></FrequencyChanges></Clock>\n	Hungry_Donkey_bar_English_2-165-1	60.016	-288	1.0.0.18	1	905774093	Standard	2.0.10.353	2.0.10.353	08-16-2016	8/16/2016 4:09:35 PM	12:09:35	2.0.10.248	22	Bar37-63.bmp	42	2	?	8r_4g.bmp	50r_4g.bmp	1r_2g.bmp	10r_2g.bmp		50r_4g.bmp			TrialProc	TrialList	0	cvbn	-999999	16	176328	0	v	777	177105	68	-95	-27	-12	-22	7	0	1	3	22	-8	-50	-1	-10	4	4	2	2	-50	4
Hungry_Donkey_bar_English_2	165	1	<?xml version="1.0"?>\n<Clock xmlns:dt="urn:schemas-microsoft-com:datatypes"><Description dt:dt="string">E-Prime Primary Realtime Clock</Description><StartTime><Timestamp dt:dt="int">0</Timestamp><DateUtc dt:dt="string">2016-08-16T16:09:35Z</DateUtc></StartTime><FrequencyChanges><FrequencyChange><Frequency dt:dt="r8">3507607</Frequency><Timestamp dt:dt="r8">305847762529</Timestamp><Current dt:dt="r8">0</Current><DateUtc dt:dt="string">2016-08-16T16:09:35Z</DateUtc></FrequencyChange></FrequencyChanges></Clock>\n	Hungry_Donkey_bar_English_2-165-1	60.016	-288	1.0.0.18	1	905774093	Standard	2.0.10.353	2.0.10.353	08-16-2016	8/16/2016 4:09:35 PM	12:09:35	2.0.10.248	23	Bar37-63.bmp	42	4	?	0r_4g.bmp	0r_4g.bmp	0r_2g.bmp	0r_2g.bmp				0r_2g.bmp	TrialProc	TrialList	0	cvbn	-999999	16	179144	0	n	1209	180353	70	-95	-25	-12	-22	7	2	10	3	23	0	0	0	0	4	4	2	2	0	2
Hungry_Donkey_bar_English_2	165	1	<?xml version="1.0"?>\n<Clock xmlns:dt="urn:schemas-microsoft-com:datatypes"><Description dt:dt="string">E-Prime Primary Realtime Clock</Description><StartTime><Timestamp dt:dt="int">0</Timestamp><DateUtc dt:dt="string">2016-08-16T16:09:35Z</DateUtc></StartTime><FrequencyChanges><FrequencyChange><Frequency dt:dt="r8">3507607</Frequency><Timestamp dt:dt="r8">305847762529</Timestamp><Current dt:dt="r8">0</Current><DateUtc dt:dt="string">2016-08-16T16:09:35Z</DateUtc></FrequencyChange></FrequencyChanges></Clock>\n	Hungry_Donkey_bar_English_2-165-1	60.016	-288	1.0.0.18	1	905774093	Standard	2.0.10.353	2.0.10.353	08-16-2016	8/16/2016 4:09:35 PM	12:09:35	2.0.10.248	24	Bar50-50.bmp	44	2	?	10r_4g.bmp	0r_4g.bmp	2r_2g.bmp	0r_2g.bmp		0r_4g.bmp			TrialProc	TrialList	0	cvbn	-999999	17	182377	0	v	1288	183665	74	-95	-21	-12	-18	7	2	2	3	24	-10	0	-2	0	4	4	2	2	0	4
Hungry_Donkey_bar_English_2	165	1	<?xml version="1.0"?>\n<Clock xmlns:dt="urn:schemas-microsoft-com:datatypes"><Description dt:dt="string">E-Prime Primary Realtime Clock</Description><StartTime><Timestamp dt:dt="int">0</Timestamp><DateUtc dt:dt="string">2016-08-16T16:09:35Z</DateUtc></StartTime><FrequencyChanges><FrequencyChange><Frequency dt:dt="r8">3507607</Frequency><Timestamp dt:dt="r8">305847762529</Timestamp><Current dt:dt="r8">0</Current><DateUtc dt:dt="string">2016-08-16T16:09:35Z</DateUtc></FrequencyChange></FrequencyChanges></Clock>\n	Hungry_Donkey_bar_English_2-165-1	60.016	-288	1.0.0.18	1	905774093	Standard	2.0.10.353	2.0.10.353	08-16-2016	8/16/2016 4:09:35 PM	12:09:35	2.0.10.248	25	Bar50-50.bmp	44	3	?	0r_4g.bmp	0r_4g.bmp	0r_2g.bmp	0r_2g.bmp			0r_2g.bmp		TrialProc	TrialList	0	cvbn	-999999	16	185692	0	b	597	186289	76	-95	-19	-12	-18	9	2	7	3	25	0	0	0	0	4	4	2	2	0	2
Hungry_Donkey_bar_English_2	165	1	<?xml version="1.0"?>\n<Clock xmlns:dt="urn:schemas-microsoft-com:datatypes"><Description dt:dt="string">E-Prime Primary Realtime Clock</Description><StartTime><Timestamp dt:dt="int">0</Timestamp><DateUtc dt:dt="string">2016-08-16T16:09:35Z</DateUtc></StartTime><FrequencyChanges><FrequencyChange><Frequency dt:dt="r8">3507607</Frequency><Timestamp dt:dt="r8">305847762529</Timestamp><Current dt:dt="r8">0</Current><DateUtc dt:dt="string">2016-08-16T16:09:35Z</DateUtc></FrequencyChange></FrequencyChanges></Clock>\n	Hungry_Donkey_bar_English_2-165-1	60.016	-288	1.0.0.18	1	905774093	Standard	2.0.10.353	2.0.10.353	08-16-2016	8/16/2016 4:09:35 PM	12:09:35	2.0.10.248	26	Bar50-50.bmp	46	1	?	0r_4g.bmp	0r_4g.bmp	0r_2g.bmp	0r_2g.bmp	0r_4g.bmp				TrialProc	TrialList	0	cvbn	-999999	16	188325	0	c	892	189217	80	-95	-15	-8	-18	9	2	9	3	26	0	0	0	0	4	4	2	2	0	4
Hungry_Donkey_bar_English_2	165	1	<?xml version="1.0"?>\n<Clock xmlns:dt="urn:schemas-microsoft-com:datatypes"><Description dt:dt="string">E-Prime Primary Realtime Clock</Description><StartTime><Timestamp dt:dt="int">0</Timestamp><DateUtc dt:dt="string">2016-08-16T16:09:35Z</DateUtc></StartTime><FrequencyChanges><FrequencyChange><Frequency dt:dt="r8">3507607</Frequency><Timestamp dt:dt="r8">305847762529</Timestamp><Current dt:dt="r8">0</Current><DateUtc dt:dt="string">2016-08-16T16:09:35Z</DateUtc></FrequencyChange></FrequencyChanges></Clock>\n	Hungry_Donkey_bar_English_2-165-1	60.016	-288	1.0.0.18	1	905774093	Standard	2.0.10.353	2.0.10.353	08-16-2016	8/16/2016 4:09:35 PM	12:09:35	2.0.10.248	27	Bar50-50.bmp	47	2	?	12r_4g.bmp	0r_4g.bmp	3r_2g.bmp	0r_2g.bmp		0r_4g.bmp			TrialProc	TrialList	0	cvbn	-999999	16	191241	0	v	456	191697	84	-95	-11	-8	-14	9	2	5	3	27	-12	0	-3	0	4	4	2	2	0	4
Hungry_Donkey_bar_English_2	165	1	<?xml version="1.0"?>\n<Clock xmlns:dt="urn:schemas-microsoft-com:datatypes"><Description dt:dt="string">E-Prime Primary Realtime Clock</Description><StartTime><Timestamp dt:dt="int">0</Timestamp><DateUtc dt:dt="string">2016-08-16T16:09:35Z</DateUtc></StartTime><FrequencyChanges><FrequencyChange><Frequency dt:dt="r8">3507607</Frequency><Timestamp dt:dt="r8">305847762529</Timestamp><Current dt:dt="r8">0</Current><DateUtc dt:dt="string">2016-08-16T16:09:35Z</DateUtc></FrequencyChange></FrequencyChanges></Clock>\n	Hungry_Donkey_bar_English_2-165-1	60.016	-288	1.0.0.18	1	905774093	Standard	2.0.10.353	2.0.10.353	08-16-2016	8/16/2016 4:09:35 PM	12:09:35	2.0.10.248	28	Bar50-50.bmp	48	3	?	0r_4g.bmp	0r_4g.bmp	0r_2g.bmp	0r_2g.bmp			0r_2g.bmp		TrialProc	TrialList	0	cvbn	-999999	16	193723	0	b	454	194177	86	-95	-9	-8	-14	11	2	8	3	28	0	0	0	0	4	4	2	2	0	2
Hungry_Donkey_bar_English_2	165	1	<?xml version="1.0"?>\n<Clock xmlns:dt="urn:schemas-microsoft-com:datatypes"><Description dt:dt="string">E-Prime Primary Realtime Clock</Description><StartTime><Timestamp dt:dt="int">0</Timestamp><DateUtc dt:dt="string">2016-08-16T16:09:35Z</DateUtc></StartTime><FrequencyChanges><FrequencyChange><Frequency dt:dt="r8">3507607</Frequency><Timestamp dt:dt="r8">305847762529</Timestamp><Current dt:dt="r8">0</Current><DateUtc dt:dt="string">2016-08-16T16:09:35Z</DateUtc></FrequencyChange></FrequencyChanges></Clock>\n	Hungry_Donkey_bar_English_2-165-1	60.016	-288	1.0.0.18	1	905774093	Standard	2.0.10.353	2.0.10.353	08-16-2016	8/16/2016 4:09:35 PM	12:09:35	2.0.10.248	29	Bar50-50.bmp	49	2	?	0r_4g.bmp	0r_4g.bmp	0r_2g.bmp	0r_2g.bmp		0r_4g.bmp			TrialProc	TrialList	0	cvbn	-999999	16	196206	0	v	499	196705	90	-95	-5	-8	-10	11	2	6	3	29	0	0	0	0	4	4	2	2	0	4
Hungry_Donkey_bar_English_2	165	1	<?xml version="1.0"?>\n<Clock xmlns:dt="urn:schemas-microsoft-com:datatypes"><Description dt:dt="string">E-Prime Primary Realtime Clock</Description><StartTime><Timestamp dt:dt="int">0</Timestamp><DateUtc dt:dt="string">2016-08-16T16:09:35Z</DateUtc></StartTime><FrequencyChanges><FrequencyChange><Frequency dt:dt="r8">3507607</Frequency><Timestamp dt:dt="r8">305847762529</Timestamp><Current dt:dt="r8">0</Current><DateUtc dt:dt="string">2016-08-16T16:09:35Z</DateUtc></FrequencyChange></FrequencyChanges></Clock>\n	Hungry_Donkey_bar_English_2-165-1	60.016	-288	1.0.0.18	1	905774093	Standard	2.0.10.353	2.0.10.353	08-16-2016	8/16/2016 4:09:35 PM	12:09:35	2.0.10.248	30	Bar50-50.bmp	47	1	?	10r_4g.bmp	0r_4g.bmp	2r_2g.bmp	0r_2g.bmp	10r_4g.bmp				TrialProc	TrialList	0	cvbn	-999999	16	198739	0	c	366	199105	94	-105	-11	-14	-10	11	2	4	3	30	-10	0	-2	0	4	4	2	2	-10	4
Hungry_Donkey_bar_English_2	165	1	<?xml version="1.0"?>\n<Clock xmlns:dt="urn:schemas-microsoft-com:datatypes"><Description dt:dt="string">E-Prime Primary Realtime Clock</Description><StartTime><Timestamp dt:dt="int">0</Timestamp><DateUtc dt:dt="string">2016-08-16T16:09:35Z</DateUtc></StartTime><FrequencyChanges><FrequencyChange><Frequency dt:dt="r8">3507607</Frequency><Timestamp dt:dt="r8">305847762529</Timestamp><Current dt:dt="r8">0</Current><DateUtc dt:dt="string">2016-08-16T16:09:35Z</DateUtc></FrequencyChange></FrequencyChanges></Clock>\n	Hungry_Donkey_bar_English_2-165-1	60.016	-288	1.0.0.18	1	905774093	Standard	2.0.10.353	2.0.10.353	08-16-2016	8/16/2016 4:09:35 PM	12:09:35	2.0.10.248	31	Bar50-50.bmp	48	1	?	0r_4g.bmp	0r_4g.bmp	0r_2g.bmp	0r_2g.bmp	0r_4g.bmp				TrialProc	TrialList	0	cvbn	-999999	16	201138	0	c	1342	202480	98	-105	-7	-10	-10	11	2	7	4	31	0	0	0	0	4	4	2	2	0	4
Hungry_Donkey_bar_English_2	165	1	<?xml version="1.0"?>\n<Clock xmlns:dt="urn:schemas-microsoft-com:datatypes"><Description dt:dt="string">E-Prime Primary Realtime Clock</Description><StartTime><Timestamp dt:dt="int">0</Timestamp><DateUtc dt:dt="string">2016-08-16T16:09:35Z</DateUtc></StartTime><FrequencyChanges><FrequencyChange><Frequency dt:dt="r8">3507607</Frequency><Timestamp dt:dt="r8">305847762529</Timestamp><Current dt:dt="r8">0</Current><DateUtc dt:dt="string">2016-08-16T16:09:35Z</DateUtc></FrequencyChange></FrequencyChanges></Clock>\n	Hungry_Donkey_bar_English_2-165-1	60.016	-288	1.0.0.18	1	905774093	Standard	2.0.10.353	2.0.10.353	08-16-2016	8/16/2016 4:09:35 PM	12:09:35	2.0.10.248	32	Bar50-50.bmp	49	4	?	0r_4g.bmp	0r_4g.bmp	0r_2g.bmp	0r_2g.bmp				0r_2g.bmp	TrialProc	TrialList	0	cvbn	-999999	16	204504	0	n	1336	205840	100	-105	-5	-10	-10	11	4	8	4	32	0	0	0	0	4	4	2	2	0	2
Hungry_Donkey_bar_English_2	165	1	<?xml version="1.0"?>\n<Clock xmlns:dt="urn:schemas-microsoft-com:datatypes"><Description dt:dt="string">E-Prime Primary Realtime Clock</Description><StartTime><Timestamp dt:dt="int">0</Timestamp><DateUtc dt:dt="string">2016-08-16T16:09:35Z</DateUtc></StartTime><FrequencyChanges><FrequencyChange><Frequency dt:dt="r8">3507607</Frequency><Timestamp dt:dt="r8">305847762529</Timestamp><Current dt:dt="r8">0</Current><DateUtc dt:dt="string">2016-08-16T16:09:35Z</DateUtc></FrequencyChange></FrequencyChanges></Clock>\n	Hungry_Donkey_bar_English_2-165-1	60.016	-288	1.0.0.18	1	905774093	Standard	2.0.10.353	2.0.10.353	08-16-2016	8/16/2016 4:09:35 PM	12:09:35	2.0.10.248	33	Bar37-63.bmp	40	2	?	8r_4g.bmp	50r_4g.bmp	1r_2g.bmp	10r_2g.bmp		50r_4g.bmp			TrialProc	TrialList	0	cvbn	-999999	16	207870	0	v	1138	209008	104	-155	-51	-10	-56	11	4	1	4	33	-8	-50	-1	-10	4	4	2	2	-50	4
Hungry_Donkey_bar_English_2	165	1	<?xml version="1.0"?>\n<Clock xmlns:dt="urn:schemas-microsoft-com:datatypes"><Description dt:dt="string">E-Prime Primary Realtime Clock</Description><StartTime><Timestamp dt:dt="int">0</Timestamp><DateUtc dt:dt="string">2016-08-16T16:09:35Z</DateUtc></StartTime><FrequencyChanges><FrequencyChange><Frequency dt:dt="r8">3507607</Frequency><Timestamp dt:dt="r8">305847762529</Timestamp><Current dt:dt="r8">0</Current><DateUtc dt:dt="string">2016-08-16T16:09:35Z</DateUtc></FrequencyChange></FrequencyChanges></Clock>\n	Hungry_Donkey_bar_English_2-165-1	60.016	-288	1.0.0.18	1	905774093	Standard	2.0.10.353	2.0.10.353	08-16-2016	8/16/2016 4:09:35 PM	12:09:35	2.0.10.248	34	Bar37-63.bmp	40	3	?	10r_4g.bmp	0r_4g.bmp	2r_2g.bmp	0r_2g.bmp			2r_2g.bmp		TrialProc	TrialList	0	cvbn	-999999	17	211036	0	b	436	211472	106	-157	-51	-10	-56	11	4	4	4	34	-10	0	-2	0	4	4	2	2	-2	2
Hungry_Donkey_bar_English_2	165	1	<?xml version="1.0"?>\n<Clock xmlns:dt="urn:schemas-microsoft-com:datatypes"><Description dt:dt="string">E-Prime Primary Realtime Clock</Description><StartTime><Timestamp dt:dt="int">0</Timestamp><DateUtc dt:dt="string">2016-08-16T16:09:35Z</DateUtc></StartTime><FrequencyChanges><FrequencyChange><Frequency dt:dt="r8">3507607</Frequency><Timestamp dt:dt="r8">305847762529</Timestamp><Current dt:dt="r8">0</Current><DateUtc dt:dt="string">2016-08-16T16:09:35Z</DateUtc></FrequencyChange></FrequencyChanges></Clock>\n	Hungry_Donkey_bar_English_2-165-1	60.016	-288	1.0.0.18	1	905774093	Standard	2.0.10.353	2.0.10.353	08-16-2016	8/16/2016 4:09:35 PM	12:09:35	2.0.10.248	35	Bar37-63.bmp	39	1	?	12r_4g.bmp	0r_4g.bmp	3r_2g.bmp	0r_2g.bmp	12r_4g.bmp				TrialProc	TrialList	0	cvbn	-999999	17	213502	0	c	1186	214688	110	-169	-59	-18	-56	11	4	5	4	35	-12	0	-3	0	4	4	2	2	-12	4
Hungry_Donkey_bar_English_2	165	1	<?xml version="1.0"?>\n<Clock xmlns:dt="urn:schemas-microsoft-com:datatypes"><Description dt:dt="string">E-Prime Primary Realtime Clock</Description><StartTime><Timestamp dt:dt="int">0</Timestamp><DateUtc dt:dt="string">2016-08-16T16:09:35Z</DateUtc></StartTime><FrequencyChanges><FrequencyChange><Frequency dt:dt="r8">3507607</Frequency><Timestamp dt:dt="r8">305847762529</Timestamp><Current dt:dt="r8">0</Current><DateUtc dt:dt="string">2016-08-16T16:09:35Z</DateUtc></FrequencyChange></FrequencyChanges></Clock>\n	Hungry_Donkey_bar_English_2-165-1	60.016	-288	1.0.0.18	1	905774093	Standard	2.0.10.353	2.0.10.353	08-16-2016	8/16/2016 4:09:35 PM	12:09:35	2.0.10.248	36	Bar37-63.bmp	40	4	?	0r_4g.bmp	0r_4g.bmp	0r_2g.bmp	0r_2g.bmp				0r_2g.bmp	TrialProc	TrialList	0	cvbn	-999999	16	216717	0	n	1107	217824	112	-169	-57	-18	-56	11	6	10	4	36	0	0	0	0	4	4	2	2	0	2
Hungry_Donkey_bar_English_2	165	1	<?xml version="1.0"?>\n<Clock xmlns:dt="urn:schemas-microsoft-com:datatypes"><Description dt:dt="string">E-Prime Primary Realtime Clock</Description><StartTime><Timestamp dt:dt="int">0</Timestamp><DateUtc dt:dt="string">2016-08-16T16:09:35Z</DateUtc></StartTime><FrequencyChanges><FrequencyChange><Frequency dt:dt="r8">3507607</Frequency><Timestamp dt:dt="r8">305847762529</Timestamp><Current dt:dt="r8">0</Current><DateUtc dt:dt="string">2016-08-16T16:09:35Z</DateUtc></FrequencyChange></FrequencyChanges></Clock>\n	Hungry_Donkey_bar_English_2-165-1	60.016	-288	1.0.0.18	1	905774093	Standard	2.0.10.353	2.0.10.353	08-16-2016	8/16/2016 4:09:35 PM	12:09:35	2.0.10.248	37	Bar37-63.bmp	41	2	?	0r_4g.bmp	0r_4g.bmp	0r_2g.bmp	0r_2g.bmp		0r_4g.bmp			TrialProc	TrialList	0	cvbn	-999999	16	219850	0	v	3222	223072	116	-169	-53	-18	-52	11	6	6	4	37	0	0	0	0	4	4	2	2	0	4
Hungry_Donkey_bar_English_2	165	1	<?xml version="1.0"?>\n<Clock xmlns:dt="urn:schemas-microsoft-com:datatypes"><Description dt:dt="string">E-Prime Primary Realtime Clock</Description><StartTime><Timestamp dt:dt="int">0</Timestamp><DateUtc dt:dt="string">2016-08-16T16:09:35Z</DateUtc></StartTime><FrequencyChanges><FrequencyChange><Frequency dt:dt="r8">3507607</Frequency><Timestamp dt:dt="r8">305847762529</Timestamp><Current dt:dt="r8">0</Current><DateUtc dt:dt="string">2016-08-16T16:09:35Z</DateUtc></FrequencyChange></FrequencyChanges></Clock>\n	Hungry_Donkey_bar_English_2-165-1	60.016	-288	1.0.0.18	1	905774093	Standard	2.0.10.353	2.0.10.353	08-16-2016	8/16/2016 4:09:35 PM	12:09:35	2.0.10.248	38	Bar37-63.bmp	41	4	?	10r_4g.bmp	0r_4g.bmp	2r_2g.bmp	0r_2g.bmp				0r_2g.bmp	TrialProc	TrialList	0	cvbn	-999999	16	225098	0	n	1014	226112	118	-169	-51	-18	-52	11	8	3	4	38	-10	0	-2	0	4	4	2	2	0	2
Hungry_Donkey_bar_English_2	165	1	<?xml version="1.0"?>\n<Clock xmlns:dt="urn:schemas-microsoft-com:datatypes"><Description dt:dt="string">E-Prime Primary Realtime Clock</Description><StartTime><Timestamp dt:dt="int">0</Timestamp><DateUtc dt:dt="string">2016-08-16T16:09:35Z</DateUtc></StartTime><FrequencyChanges><FrequencyChange><Frequency dt:dt="r8">3507607</Frequency><Timestamp dt:dt="r8">305847762529</Timestamp><Current dt:dt="r8">0</Current><DateUtc dt:dt="string">2016-08-16T16:09:35Z</DateUtc></FrequencyChange></FrequencyChanges></Clock>\n	Hungry_Donkey_bar_English_2-165-1	60.016	-288	1.0.0.18	1	905774093	Standard	2.0.10.353	2.0.10.353	08-16-2016	8/16/2016 4:09:35 PM	12:09:35	2.0.10.248	39	Bar37-63.bmp	42	2	?	0r_4g.bmp	0r_4g.bmp	0r_2g.bmp	0r_2g.bmp		0r_4g.bmp			TrialProc	TrialList	0	cvbn	-999999	16	228148	0	v	156	228304	122	-169	-47	-18	-48	11	8	9	4	39	0	0	0	0	4	4	2	2	0	4
Hungry_Donkey_bar_English_2	165	1	<?xml version="1.0"?>\n<Clock xmlns:dt="urn:schemas-microsoft-com:datatypes"><Description dt:dt="string">E-Prime Primary Realtime Clock</Description><StartTime><Timestamp dt:dt="int">0</Timestamp><DateUtc dt:dt="string">2016-08-16T16:09:35Z</DateUtc></StartTime><FrequencyChanges><FrequencyChange><Frequency dt:dt="r8">3507607</Frequency><Timestamp dt:dt="r8">305847762529</Timestamp><Current dt:dt="r8">0</Current><DateUtc dt:dt="string">2016-08-16T16:09:35Z</DateUtc></FrequencyChange></FrequencyChanges></Clock>\n	Hungry_Donkey_bar_English_2-165-1	60.016	-288	1.0.0.18	1	905774093	Standard	2.0.10.353	2.0.10.353	08-16-2016	8/16/2016 4:09:35 PM	12:09:35	2.0.10.248	40	Bar37-63.bmp	42	3	?	10r_4g.bmp	0r_4g.bmp	2r_2g.bmp	0r_2g.bmp			2r_2g.bmp		TrialProc	TrialList	0	cvbn	-999999	16	230330	0	b	1030	231360	124	-171	-47	-18	-48	11	8	2	4	40	-10	0	-2	0	4	4	2	2	-2	2
Hungry_Donkey_bar_English_2	165	1	<?xml version="1.0"?>\n<Clock xmlns:dt="urn:schemas-microsoft-com:datatypes"><Description dt:dt="string">E-Prime Primary Realtime Clock</Description><StartTime><Timestamp dt:dt="int">0</Timestamp><DateUtc dt:dt="string">2016-08-16T16:09:35Z</DateUtc></StartTime><FrequencyChanges><FrequencyChange><Frequency dt:dt="r8">3507607</Frequency><Timestamp dt:dt="r8">305847762529</Timestamp><Current dt:dt="r8">0</Current><DateUtc dt:dt="string">2016-08-16T16:09:35Z</DateUtc></FrequencyChange></FrequencyChanges></Clock>\n	Hungry_Donkey_bar_English_2-165-1	60.016	-288	1.0.0.18	1	905774093	Standard	2.0.10.353	2.0.10.353	08-16-2016	8/16/2016 4:09:35 PM	12:09:35	2.0.10.248	41	Bar37-63.bmp	41	1	?	10r_4g.bmp	0r_4g.bmp	2r_2g.bmp	0r_2g.bmp	10r_4g.bmp				TrialProc	TrialList	0	cvbn	-999999	16	233396	0	c	1292	234688	128	-181	-53	-24	-48	11	8	4	5	41	-10	0	-2	0	4	4	2	2	-10	4
Hungry_Donkey_bar_English_2	165	1	<?xml version="1.0"?>\n<Clock xmlns:dt="urn:schemas-microsoft-com:datatypes"><Description dt:dt="string">E-Prime Primary Realtime Clock</Description><StartTime><Timestamp dt:dt="int">0</Timestamp><DateUtc dt:dt="string">2016-08-16T16:09:35Z</DateUtc></StartTime><FrequencyChanges><FrequencyChange><Frequency dt:dt="r8">3507607</Frequency><Timestamp dt:dt="r8">305847762529</Timestamp><Current dt:dt="r8">0</Current><DateUtc dt:dt="string">2016-08-16T16:09:35Z</DateUtc></FrequencyChange></FrequencyChanges></Clock>\n	Hungry_Donkey_bar_English_2-165-1	60.016	-288	1.0.0.18	1	905774093	Standard	2.0.10.353	2.0.10.353	08-16-2016	8/16/2016 4:09:35 PM	12:09:35	2.0.10.248	42	Bar37-63.bmp	42	2	?	0r_4g.bmp	0r_4g.bmp	0r_2g.bmp	0r_2g.bmp		0r_4g.bmp			TrialProc	TrialList	0	cvbn	-999999	16	236712	0	v	391	237103	132	-181	-49	-24	-44	11	8	9	5	42	0	0	0	0	4	4	2	2	0	4
Hungry_Donkey_bar_English_2	165	1	<?xml version="1.0"?>\n<Clock xmlns:dt="urn:schemas-microsoft-com:datatypes"><Description dt:dt="string">E-Prime Primary Realtime Clock</Description><StartTime><Timestamp dt:dt="int">0</Timestamp><DateUtc dt:dt="string">2016-08-16T16:09:35Z</DateUtc></StartTime><FrequencyChanges><FrequencyChange><Frequency dt:dt="r8">3507607</Frequency><Timestamp dt:dt="r8">305847762529</Timestamp><Current dt:dt="r8">0</Current><DateUtc dt:dt="string">2016-08-16T16:09:35Z</DateUtc></FrequencyChange></FrequencyChanges></Clock>\n	Hungry_Donkey_bar_English_2-165-1	60.016	-288	1.0.0.18	1	905774093	Standard	2.0.10.353	2.0.10.353	08-16-2016	8/16/2016 4:09:35 PM	12:09:35	2.0.10.248	43	Bar37-63.bmp	43	3	?	0r_4g.bmp	0r_4g.bmp	0r_2g.bmp	0r_2g.bmp			0r_2g.bmp		TrialProc	TrialList	0	cvbn	-999999	16	239128	0	b	423	239551	134	-181	-47	-24	-44	13	8	6	5	43	0	0	0	0	4	4	2	2	0	2
Hungry_Donkey_bar_English_2	165	1	<?xml version="1.0"?>\n<Clock xmlns:dt="urn:schemas-microsoft-com:datatypes"><Description dt:dt="string">E-Prime Primary Realtime Clock</Description><StartTime><Timestamp dt:dt="int">0</Timestamp><DateUtc dt:dt="string">2016-08-16T16:09:35Z</DateUtc></StartTime><FrequencyChanges><FrequencyChange><Frequency dt:dt="r8">3507607</Frequency><Timestamp dt:dt="r8">305847762529</Timestamp><Current dt:dt="r8">0</Current><DateUtc dt:dt="string">2016-08-16T16:09:35Z</DateUtc></FrequencyChange></FrequencyChanges></Clock>\n	Hungry_Donkey_bar_English_2-165-1	60.016	-288	1.0.0.18	1	905774093	Standard	2.0.10.353	2.0.10.353	08-16-2016	8/16/2016 4:09:35 PM	12:09:35	2.0.10.248	44	Bar37-63.bmp	43	4	?	10r_4g.bmp	0r_4g.bmp	2r_2g.bmp	0r_2g.bmp				0r_2g.bmp	TrialProc	TrialList	0	cvbn	-999999	16	241577	0	n	1046	242623	136	-181	-45	-24	-44	13	10	3	5	44	-10	0	-2	0	4	4	2	2	0	2
Hungry_Donkey_bar_English_2	165	1	<?xml version="1.0"?>\n<Clock xmlns:dt="urn:schemas-microsoft-com:datatypes"><Description dt:dt="string">E-Prime Primary Realtime Clock</Description><StartTime><Timestamp dt:dt="int">0</Timestamp><DateUtc dt:dt="string">2016-08-16T16:09:35Z</DateUtc></StartTime><FrequencyChanges><FrequencyChange><Frequency dt:dt="r8">3507607</Frequency><Timestamp dt:dt="r8">305847762529</Timestamp><Current dt:dt="r8">0</Current><DateUtc dt:dt="string">2016-08-16T16:09:35Z</DateUtc></FrequencyChange></FrequencyChanges></Clock>\n	Hungry_Donkey_bar_English_2-165-1	60.016	-288	1.0.0.18	1	905774093	Standard	2.0.10.353	2.0.10.353	08-16-2016	8/16/2016 4:09:35 PM	12:09:35	2.0.10.248	45	Bar50-50.bmp	44	2	?	0r_4g.bmp	0r_4g.bmp	0r_2g.bmp	0r_2g.bmp		0r_4g.bmp			TrialProc	TrialList	0	cvbn	-999999	16	244660	0	v	699	245359	140	-181	-41	-24	-40	13	10	7	5	45	0	0	0	0	4	4	2	2	0	4
Hungry_Donkey_bar_English_2	165	1	<?xml version="1.0"?>\n<Clock xmlns:dt="urn:schemas-microsoft-com:datatypes"><Description dt:dt="string">E-Prime Primary Realtime Clock</Description><StartTime><Timestamp dt:dt="int">0</Timestamp><DateUtc dt:dt="string">2016-08-16T16:09:35Z</DateUtc></StartTime><FrequencyChanges><FrequencyChange><Frequency dt:dt="r8">3507607</Frequency><Timestamp dt:dt="r8">305847762529</Timestamp><Current dt:dt="r8">0</Current><DateUtc dt:dt="string">2016-08-16T16:09:35Z</DateUtc></FrequencyChange></FrequencyChanges></Clock>\n	Hungry_Donkey_bar_English_2-165-1	60.016	-288	1.0.0.18	1	905774093	Standard	2.0.10.353	2.0.10.353	08-16-2016	8/16/2016 4:09:35 PM	12:09:35	2.0.10.248	46	Bar37-63.bmp	43	1	?	10r_4g.bmp	0r_4g.bmp	2r_2g.bmp	0r_2g.bmp	10r_4g.bmp				TrialProc	TrialList	0	cvbn	-999999	17	247393	0	c	1118	248511	144	-191	-47	-30	-40	13	10	2	5	46	-10	0	-2	0	4	4	2	2	-10	4
Hungry_Donkey_bar_English_2	165	1	<?xml version="1.0"?>\n<Clock xmlns:dt="urn:schemas-microsoft-com:datatypes"><Description dt:dt="string">E-Prime Primary Realtime Clock</Description><StartTime><Timestamp dt:dt="int">0</Timestamp><DateUtc dt:dt="string">2016-08-16T16:09:35Z</DateUtc></StartTime><FrequencyChanges><FrequencyChange><Frequency dt:dt="r8">3507607</Frequency><Timestamp dt:dt="r8">305847762529</Timestamp><Current dt:dt="r8">0</Current><DateUtc dt:dt="string">2016-08-16T16:09:35Z</DateUtc></FrequencyChange></FrequencyChanges></Clock>\n	Hungry_Donkey_bar_English_2-165-1	60.016	-288	1.0.0.18	1	905774093	Standard	2.0.10.353	2.0.10.353	08-16-2016	8/16/2016 4:09:35 PM	12:09:35	2.0.10.248	47	Bar37-63.bmp	43	3	?	0r_4g.bmp	0r_4g.bmp	0r_2g.bmp	0r_2g.bmp			0r_2g.bmp		TrialProc	TrialList	0	cvbn	-999999	16	250542	0	b	1905	252447	146	-191	-45	-30	-40	15	10	10	5	47	0	0	0	0	4	4	2	2	0	2
Hungry_Donkey_bar_English_2	165	1	<?xml version="1.0"?>\n<Clock xmlns:dt="urn:schemas-microsoft-com:datatypes"><Description dt:dt="string">E-Prime Primary Realtime Clock</Description><StartTime><Timestamp dt:dt="int">0</Timestamp><DateUtc dt:dt="string">2016-08-16T16:09:35Z</DateUtc></StartTime><FrequencyChanges><FrequencyChange><Frequency dt:dt="r8">3507607</Frequency><Timestamp dt:dt="r8">305847762529</Timestamp><Current dt:dt="r8">0</Current><DateUtc dt:dt="string">2016-08-16T16:09:35Z</DateUtc></FrequencyChange></FrequencyChanges></Clock>\n	Hungry_Donkey_bar_English_2-165-1	60.016	-288	1.0.0.18	1	905774093	Standard	2.0.10.353	2.0.10.353	08-16-2016	8/16/2016 4:09:35 PM	12:09:35	2.0.10.248	48	Bar37-63.bmp	42	4	?	8r_4g.bmp	50r_4g.bmp	1r_2g.bmp	10r_2g.bmp				10r_2g.bmp	TrialProc	TrialList	0	cvbn	-999999	16	254474	0	n	1717	256191	148	-201	-53	-30	-40	15	2	1	5	48	-8	-50	-1	-10	4	4	2	2	-10	2
Hungry_Donkey_bar_English_2	165	1	<?xml version="1.0"?>\n<Clock xmlns:dt="urn:schemas-microsoft-com:datatypes"><Description dt:dt="string">E-Prime Primary Realtime Clock</Description><StartTime><Timestamp dt:dt="int">0</Timestamp><DateUtc dt:dt="string">2016-08-16T16:09:35Z</DateUtc></StartTime><FrequencyChanges><FrequencyChange><Frequency dt:dt="r8">3507607</Frequency><Timestamp dt:dt="r8">305847762529</Timestamp><Current dt:dt="r8">0</Current><DateUtc dt:dt="string">2016-08-16T16:09:35Z</DateUtc></FrequencyChange></FrequencyChanges></Clock>\n	Hungry_Donkey_bar_English_2-165-1	60.016	-288	1.0.0.18	1	905774093	Standard	2.0.10.353	2.0.10.353	08-16-2016	8/16/2016 4:09:35 PM	12:09:35	2.0.10.248	49	Bar37-63.bmp	43	2	?	0r_4g.bmp	0r_4g.bmp	0r_2g.bmp	0r_2g.bmp		0r_4g.bmp			TrialProc	TrialList	0	cvbn	-999999	16	258223	0	v	1664	259887	152	-201	-49	-30	-36	15	2	8	5	49	0	0	0	0	4	4	2	2	0	4
Hungry_Donkey_bar_English_2	165	1	<?xml version="1.0"?>\n<Clock xmlns:dt="urn:schemas-microsoft-com:datatypes"><Description dt:dt="string">E-Prime Primary Realtime Clock</Description><StartTime><Timestamp dt:dt="int">0</Timestamp><DateUtc dt:dt="string">2016-08-16T16:09:35Z</DateUtc></StartTime><FrequencyChanges><FrequencyChange><Frequency dt:dt="r8">3507607</Frequency><Timestamp dt:dt="r8">305847762529</Timestamp><Current dt:dt="r8">0</Current><DateUtc dt:dt="string">2016-08-16T16:09:35Z</DateUtc></FrequencyChange></FrequencyChanges></Clock>\n	Hungry_Donkey_bar_English_2-165-1	60.016	-288	1.0.0.18	1	905774093	Standard	2.0.10.353	2.0.10.353	08-16-2016	8/16/2016 4:09:35 PM	12:09:35	2.0.10.248	50	Bar37-63.bmp	42	1	?	12r_4g.bmp	0r_4g.bmp	3r_2g.bmp	0r_2g.bmp	12r_4g.bmp				TrialProc	TrialList	0	cvbn	-999999	16	261922	0	c	1261	263183	156	-213	-57	-38	-36	15	2	5	5	50	-12	0	-3	0	4	4	2	2	-12	4
Hungry_Donkey_bar_English_2	165	1	<?xml version="1.0"?>\n<Clock xmlns:dt="urn:schemas-microsoft-com:datatypes"><Description dt:dt="string">E-Prime Primary Realtime Clock</Description><StartTime><Timestamp dt:dt="int">0</Timestamp><DateUtc dt:dt="string">2016-08-16T16:09:35Z</DateUtc></StartTime><FrequencyChanges><FrequencyChange><Frequency dt:dt="r8">3507607</Frequency><Timestamp dt:dt="r8">305847762529</Timestamp><Current dt:dt="r8">0</Current><DateUtc dt:dt="string">2016-08-16T16:09:35Z</DateUtc></FrequencyChange></FrequencyChanges></Clock>\n	Hungry_Donkey_bar_English_2-165-1	60.016	-288	1.0.0.18	1	905774093	Standard	2.0.10.353	2.0.10.353	08-16-2016	8/16/2016 4:09:35 PM	12:09:35	2.0.10.248	51	Bar37-63.bmp	43	3	?	0r_4g.bmp	0r_4g.bmp	0r_2g.bmp	0r_2g.bmp			0r_2g.bmp		TrialProc	TrialList	0	cvbn	-999999	16	265221	0	b	874	266095	158	-213	-55	-38	-36	17	2	9	6	51	0	0	0	0	4	4	2	2	0	2
Hungry_Donkey_bar_English_2	165	1	<?xml version="1.0"?>\n<Clock xmlns:dt="urn:schemas-microsoft-com:datatypes"><Description dt:dt="string">E-Prime Primary Realtime Clock</Description><StartTime><Timestamp dt:dt="int">0</Timestamp><DateUtc dt:dt="string">2016-08-16T16:09:35Z</DateUtc></StartTime><FrequencyChanges><FrequencyChange><Frequency dt:dt="r8">3507607</Frequency><Timestamp dt:dt="r8">305847762529</Timestamp><Current dt:dt="r8">0</Current><DateUtc dt:dt="string">2016-08-16T16:09:35Z</DateUtc></FrequencyChange></FrequencyChanges></Clock>\n	Hungry_Donkey_bar_English_2-165-1	60.016	-288	1.0.0.18	1	905774093	Standard	2.0.10.353	2.0.10.353	08-16-2016	8/16/2016 4:09:35 PM	12:09:35	2.0.10.248	52	Bar37-63.bmp	43	2	?	0r_4g.bmp	0r_4g.bmp	0r_2g.bmp	0r_2g.bmp		0r_4g.bmp			TrialProc	TrialList	0	cvbn	-999999	16	268120	0	v	487	268607	162	-213	-51	-38	-32	17	2	6	6	52	0	0	0	0	4	4	2	2	0	4
Hungry_Donkey_bar_English_2	165	1	<?xml version="1.0"?>\n<Clock xmlns:dt="urn:schemas-microsoft-com:datatypes"><Description dt:dt="string">E-Prime Primary Realtime Clock</Description><StartTime><Timestamp dt:dt="int">0</Timestamp><DateUtc dt:dt="string">2016-08-16T16:09:35Z</DateUtc></StartTime><FrequencyChanges><FrequencyChange><Frequency dt:dt="r8">3507607</Frequency><Timestamp dt:dt="r8">305847762529</Timestamp><Current dt:dt="r8">0</Current><DateUtc dt:dt="string">2016-08-16T16:09:35Z</DateUtc></FrequencyChange></FrequencyChanges></Clock>\n	Hungry_Donkey_bar_English_2-165-1	60.016	-288	1.0.0.18	1	905774093	Standard	2.0.10.353	2.0.10.353	08-16-2016	8/16/2016 4:09:35 PM	12:09:35	2.0.10.248	53	Bar50-50.bmp	44	3	?	0r_4g.bmp	0r_4g.bmp	0r_2g.bmp	0r_2g.bmp			0r_2g.bmp		TrialProc	TrialList	0	cvbn	-999999	16	270636	0	b	1074	271710	164	-213	-49	-38	-32	19	2	7	6	53	0	0	0	0	4	4	2	2	0	2
Hungry_Donkey_bar_English_2	165	1	<?xml version="1.0"?>\n<Clock xmlns:dt="urn:schemas-microsoft-com:datatypes"><Description dt:dt="string">E-Prime Primary Realtime Clock</Description><StartTime><Timestamp dt:dt="int">0</Timestamp><DateUtc dt:dt="string">2016-08-16T16:09:35Z</DateUtc></StartTime><FrequencyChanges><FrequencyChange><Frequency dt:dt="r8">3507607</Frequency><Timestamp dt:dt="r8">305847762529</Timestamp><Current dt:dt="r8">0</Current><DateUtc dt:dt="string">2016-08-16T16:09:35Z</DateUtc></FrequencyChange></FrequencyChanges></Clock>\n	Hungry_Donkey_bar_English_2-165-1	60.016	-288	1.0.0.18	1	905774093	Standard	2.0.10.353	2.0.10.353	08-16-2016	8/16/2016 4:09:35 PM	12:09:35	2.0.10.248	54	Bar50-50.bmp	44	4	?	10r_4g.bmp	0r_4g.bmp	2r_2g.bmp	0r_2g.bmp				0r_2g.bmp	TrialProc	TrialList	0	cvbn	-999999	16	273735	0	n	1031	274766	166	-213	-47	-38	-32	19	4	2	6	54	-10	0	-2	0	4	4	2	2	0	2
Hungry_Donkey_bar_English_2	165	1	<?xml version="1.0"?>\n<Clock xmlns:dt="urn:schemas-microsoft-com:datatypes"><Description dt:dt="string">E-Prime Primary Realtime Clock</Description><StartTime><Timestamp dt:dt="int">0</Timestamp><DateUtc dt:dt="string">2016-08-16T16:09:35Z</DateUtc></StartTime><FrequencyChanges><FrequencyChange><Frequency dt:dt="r8">3507607</Frequency><Timestamp dt:dt="r8">305847762529</Timestamp><Current dt:dt="r8">0</Current><DateUtc dt:dt="string">2016-08-16T16:09:35Z</DateUtc></FrequencyChange></FrequencyChanges></Clock>\n	Hungry_Donkey_bar_English_2-165-1	60.016	-288	1.0.0.18	1	905774093	Standard	2.0.10.353	2.0.10.353	08-16-2016	8/16/2016 4:09:35 PM	12:09:35	2.0.10.248	55	Bar50-50.bmp	44	2	?	0r_4g.bmp	0r_4g.bmp	0r_2g.bmp	0r_2g.bmp		0r_4g.bmp			TrialProc	TrialList	0	cvbn	-999999	16	276801	0	v	1117	277918	170	-213	-43	-38	-28	19	4	10	6	55	0	0	0	0	4	4	2	2	0	4
Hungry_Donkey_bar_English_2	165	1	<?xml version="1.0"?>\n<Clock xmlns:dt="urn:schemas-microsoft-com:datatypes"><Description dt:dt="string">E-Prime Primary Realtime Clock</Description><StartTime><Timestamp dt:dt="int">0</Timestamp><DateUtc dt:dt="string">2016-08-16T16:09:35Z</DateUtc></StartTime><FrequencyChanges><FrequencyChange><Frequency dt:dt="r8">3507607</Frequency><Timestamp dt:dt="r8">305847762529</Timestamp><Current dt:dt="r8">0</Current><DateUtc dt:dt="string">2016-08-16T16:09:35Z</DateUtc></FrequencyChange></FrequencyChanges></Clock>\n	Hungry_Donkey_bar_English_2-165-1	60.016	-288	1.0.0.18	1	905774093	Standard	2.0.10.353	2.0.10.353	08-16-2016	8/16/2016 4:09:35 PM	12:09:35	2.0.10.248	56	Bar50-50.bmp	45	4	?	12r_4g.bmp	0r_4g.bmp	3r_2g.bmp	0r_2g.bmp				0r_2g.bmp	TrialProc	TrialList	0	cvbn	-999999	17	279951	0	n	1423	281374	172	-213	-41	-38	-28	19	6	5	6	56	-12	0	-3	0	4	4	2	2	0	2
Hungry_Donkey_bar_English_2	165	1	<?xml version="1.0"?>\n<Clock xmlns:dt="urn:schemas-microsoft-com:datatypes"><Description dt:dt="string">E-Prime Primary Realtime Clock</Description><StartTime><Timestamp dt:dt="int">0</Timestamp><DateUtc dt:dt="string">2016-08-16T16:09:35Z</DateUtc></StartTime><FrequencyChanges><FrequencyChange><Frequency dt:dt="r8">3507607</Frequency><Timestamp dt:dt="r8">305847762529</Timestamp><Current dt:dt="r8">0</Current><DateUtc dt:dt="string">2016-08-16T16:09:35Z</DateUtc></FrequencyChange></FrequencyChanges></Clock>\n	Hungry_Donkey_bar_English_2-165-1	60.016	-288	1.0.0.18	1	905774093	Standard	2.0.10.353	2.0.10.353	08-16-2016	8/16/2016 4:09:35 PM	12:09:35	2.0.10.248	57	Bar50-50.bmp	45	3	?	8r_4g.bmp	50r_4g.bmp	1r_2g.bmp	10r_2g.bmp			1r_2g.bmp		TrialProc	TrialList	0	cvbn	-999999	17	283400	0	b	1382	284782	174	-214	-40	-38	-28	20	6	1	6	57	-8	-50	-1	-10	4	4	2	2	-1	2
Hungry_Donkey_bar_English_2	165	1	<?xml version="1.0"?>\n<Clock xmlns:dt="urn:schemas-microsoft-com:datatypes"><Description dt:dt="string">E-Prime Primary Realtime Clock</Description><StartTime><Timestamp dt:dt="int">0</Timestamp><DateUtc dt:dt="string">2016-08-16T16:09:35Z</DateUtc></StartTime><FrequencyChanges><FrequencyChange><Frequency dt:dt="r8">3507607</Frequency><Timestamp dt:dt="r8">305847762529</Timestamp><Current dt:dt="r8">0</Current><DateUtc dt:dt="string">2016-08-16T16:09:35Z</DateUtc></FrequencyChange></FrequencyChanges></Clock>\n	Hungry_Donkey_bar_English_2-165-1	60.016	-288	1.0.0.18	1	905774093	Standard	2.0.10.353	2.0.10.353	08-16-2016	8/16/2016 4:09:35 PM	12:09:35	2.0.10.248	58	Bar50-50.bmp	45	2	?	0r_4g.bmp	0r_4g.bmp	0r_2g.bmp	0r_2g.bmp		0r_4g.bmp			TrialProc	TrialList	0	cvbn	-999999	16	286815	0	v	1551	288366	178	-214	-36	-38	-24	20	6	8	6	58	0	0	0	0	4	4	2	2	0	4
Hungry_Donkey_bar_English_2	165	1	<?xml version="1.0"?>\n<Clock xmlns:dt="urn:schemas-microsoft-com:datatypes"><Description dt:dt="string">E-Prime Primary Realtime Clock</Description><StartTime><Timestamp dt:dt="int">0</Timestamp><DateUtc dt:dt="string">2016-08-16T16:09:35Z</DateUtc></StartTime><FrequencyChanges><FrequencyChange><Frequency dt:dt="r8">3507607</Frequency><Timestamp dt:dt="r8">305847762529</Timestamp><Current dt:dt="r8">0</Current><DateUtc dt:dt="string">2016-08-16T16:09:35Z</DateUtc></FrequencyChange></FrequencyChanges></Clock>\n	Hungry_Donkey_bar_English_2-165-1	60.016	-288	1.0.0.18	1	905774093	Standard	2.0.10.353	2.0.10.353	08-16-2016	8/16/2016 4:09:35 PM	12:09:35	2.0.10.248	59	Bar50-50.bmp	45	1	?	10r_4g.bmp	0r_4g.bmp	2r_2g.bmp	0r_2g.bmp	10r_4g.bmp				TrialProc	TrialList	0	cvbn	-999999	16	290398	0	c	800	291198	182	-224	-42	-44	-24	20	6	3	6	59	-10	0	-2	0	4	4	2	2	-10	4
Hungry_Donkey_bar_English_2	165	1	<?xml version="1.0"?>\n<Clock xmlns:dt="urn:schemas-microsoft-com:datatypes"><Description dt:dt="string">E-Prime Primary Realtime Clock</Description><StartTime><Timestamp dt:dt="int">0</Timestamp><DateUtc dt:dt="string">2016-08-16T16:09:35Z</DateUtc></StartTime><FrequencyChanges><FrequencyChange><Frequency dt:dt="r8">3507607</Frequency><Timestamp dt:dt="r8">305847762529</Timestamp><Current dt:dt="r8">0</Current><DateUtc dt:dt="string">2016-08-16T16:09:35Z</DateUtc></FrequencyChange></FrequencyChanges></Clock>\n	Hungry_Donkey_bar_English_2-165-1	60.016	-288	1.0.0.18	1	905774093	Standard	2.0.10.353	2.0.10.353	08-16-2016	8/16/2016 4:09:35 PM	12:09:35	2.0.10.248	60	Bar50-50.bmp	45	4	?	10r_4g.bmp	0r_4g.bmp	2r_2g.bmp	0r_2g.bmp				0r_2g.bmp	TrialProc	TrialList	0	cvbn	-999999	16	293230	0	n	3520	296750	184	-224	-40	-44	-24	20	8	4	6	60	-10	0	-2	0	4	4	2	2	0	2
Hungry_Donkey_bar_English_2	165	1	<?xml version="1.0"?>\n<Clock xmlns:dt="urn:schemas-microsoft-com:datatypes"><Description dt:dt="string">E-Prime Primary Realtime Clock</Description><StartTime><Timestamp dt:dt="int">0</Timestamp><DateUtc dt:dt="string">2016-08-16T16:09:35Z</DateUtc></StartTime><FrequencyChanges><FrequencyChange><Frequency dt:dt="r8">3507607</Frequency><Timestamp dt:dt="r8">305847762529</Timestamp><Current dt:dt="r8">0</Current><DateUtc dt:dt="string">2016-08-16T16:09:35Z</DateUtc></FrequencyChange></FrequencyChanges></Clock>\n	Hungry_Donkey_bar_English_2-165-1	60.016	-288	1.0.0.18	1	905774093	Standard	2.0.10.353	2.0.10.353	08-16-2016	8/16/2016 4:09:35 PM	12:09:35	2.0.10.248	61	Bar50-50.bmp	45	3	?	0r_4g.bmp	0r_4g.bmp	0r_2g.bmp	0r_2g.bmp			0r_2g.bmp		TrialProc	TrialList	0	cvbn	-999999	16	298779	0	b	1123	299902	186	-224	-38	-44	-24	22	8	10	7	61	0	0	0	0	4	4	2	2	0	2
Hungry_Donkey_bar_English_2	165	1	<?xml version="1.0"?>\n<Clock xmlns:dt="urn:schemas-microsoft-com:datatypes"><Description dt:dt="string">E-Prime Primary Realtime Clock</Description><StartTime><Timestamp dt:dt="int">0</Timestamp><DateUtc dt:dt="string">2016-08-16T16:09:35Z</DateUtc></StartTime><FrequencyChanges><FrequencyChange><Frequency dt:dt="r8">3507607</Frequency><Timestamp dt:dt="r8">305847762529</Timestamp><Current dt:dt="r8">0</Current><DateUtc dt:dt="string">2016-08-16T16:09:35Z</DateUtc></FrequencyChange></FrequencyChanges></Clock>\n	Hungry_Donkey_bar_English_2-165-1	60.016	-288	1.0.0.18	1	905774093	Standard	2.0.10.353	2.0.10.353	08-16-2016	8/16/2016 4:09:35 PM	12:09:35	2.0.10.248	62	Bar50-50.bmp	46	2	?	0r_4g.bmp	0r_4g.bmp	0r_2g.bmp	0r_2g.bmp		0r_4g.bmp			TrialProc	TrialList	0	cvbn	-999999	16	301928	0	v	422	302350	190	-224	-34	-44	-20	22	8	9	7	62	0	0	0	0	4	4	2	2	0	4
Hungry_Donkey_bar_English_2	165	1	<?xml version="1.0"?>\n<Clock xmlns:dt="urn:schemas-microsoft-com:datatypes"><Description dt:dt="string">E-Prime Primary Realtime Clock</Description><StartTime><Timestamp dt:dt="int">0</Timestamp><DateUtc dt:dt="string">2016-08-16T16:09:35Z</DateUtc></StartTime><FrequencyChanges><FrequencyChange><Frequency dt:dt="r8">3507607</Frequency><Timestamp dt:dt="r8">305847762529</Timestamp><Current dt:dt="r8">0</Current><DateUtc dt:dt="string">2016-08-16T16:09:35Z</DateUtc></FrequencyChange></FrequencyChanges></Clock>\n	Hungry_Donkey_bar_English_2-165-1	60.016	-288	1.0.0.18	1	905774093	Standard	2.0.10.353	2.0.10.353	08-16-2016	8/16/2016 4:09:35 PM	12:09:35	2.0.10.248	63	Bar50-50.bmp	46	2	?	10r_4g.bmp	0r_4g.bmp	2r_2g.bmp	0r_2g.bmp		0r_4g.bmp			TrialProc	TrialList	0	cvbn	-999999	16	304377	0	v	676	305053	194	-224	-30	-44	-16	22	8	3	7	63	-10	0	-2	0	4	4	2	2	0	4
Hungry_Donkey_bar_English_2	165	1	<?xml version="1.0"?>\n<Clock xmlns:dt="urn:schemas-microsoft-com:datatypes"><Description dt:dt="string">E-Prime Primary Realtime Clock</Description><StartTime><Timestamp dt:dt="int">0</Timestamp><DateUtc dt:dt="string">2016-08-16T16:09:35Z</DateUtc></StartTime><FrequencyChanges><FrequencyChange><Frequency dt:dt="r8">3507607</Frequency><Timestamp dt:dt="r8">305847762529</Timestamp><Current dt:dt="r8">0</Current><DateUtc dt:dt="string">2016-08-16T16:09:35Z</DateUtc></FrequencyChange></FrequencyChanges></Clock>\n	Hungry_Donkey_bar_English_2-165-1	60.016	-288	1.0.0.18	1	905774093	Standard	2.0.10.353	2.0.10.353	08-16-2016	8/16/2016 4:09:35 PM	12:09:35	2.0.10.248	64	Bar50-50.bmp	47	4	?	0r_4g.bmp	0r_4g.bmp	0r_2g.bmp	0r_2g.bmp				0r_2g.bmp	TrialProc	TrialList	0	cvbn	-999999	16	307093	0	n	728	307821	196	-224	-28	-44	-16	22	10	7	7	64	0	0	0	0	4	4	2	2	0	2
Hungry_Donkey_bar_English_2	165	1	<?xml version="1.0"?>\n<Clock xmlns:dt="urn:schemas-microsoft-com:datatypes"><Description dt:dt="string">E-Prime Primary Realtime Clock</Description><StartTime><Timestamp dt:dt="int">0</Timestamp><DateUtc dt:dt="string">2016-08-16T16:09:35Z</DateUtc></StartTime><FrequencyChanges><FrequencyChange><Frequency dt:dt="r8">3507607</Frequency><Timestamp dt:dt="r8">305847762529</Timestamp><Current dt:dt="r8">0</Current><DateUtc dt:dt="string">2016-08-16T16:09:35Z</DateUtc></FrequencyChange></FrequencyChanges></Clock>\n	Hungry_Donkey_bar_English_2-165-1	60.016	-288	1.0.0.18	1	905774093	Standard	2.0.10.353	2.0.10.353	08-16-2016	8/16/2016 4:09:35 PM	12:09:35	2.0.10.248	65	Bar50-50.bmp	47	3	?	0r_4g.bmp	0r_4g.bmp	0r_2g.bmp	0r_2g.bmp			0r_2g.bmp		TrialProc	TrialList	0	cvbn	-999999	16	309859	0	b	634	310493	198	-224	-26	-44	-16	24	10	6	7	65	0	0	0	0	4	4	2	2	0	2
Hungry_Donkey_bar_English_2	165	1	<?xml version="1.0"?>\n<Clock xmlns:dt="urn:schemas-microsoft-com:datatypes"><Description dt:dt="string">E-Prime Primary Realtime Clock</Description><StartTime><Timestamp dt:dt="int">0</Timestamp><DateUtc dt:dt="string">2016-08-16T16:09:35Z</DateUtc></StartTime><FrequencyChanges><FrequencyChange><Frequency dt:dt="r8">3507607</Frequency><Timestamp dt:dt="r8">305847762529</Timestamp><Current dt:dt="r8">0</Current><DateUtc dt:dt="string">2016-08-16T16:09:35Z</DateUtc></FrequencyChange></FrequencyChanges></Clock>\n	Hungry_Donkey_bar_English_2-165-1	60.016	-288	1.0.0.18	1	905774093	Standard	2.0.10.353	2.0.10.353	08-16-2016	8/16/2016 4:09:35 PM	12:09:35	2.0.10.248	66	Bar37-63.bmp	42	2	?	8r_4g.bmp	50r_4g.bmp	1r_2g.bmp	10r_2g.bmp		50r_4g.bmp			TrialProc	TrialList	0	cvbn	-999999	16	312525	0	v	1568	314093	202	-274	-72	-44	-62	24	10	1	7	66	-8	-50	-1	-10	4	4	2	2	-50	4
Hungry_Donkey_bar_English_2	165	1	<?xml version="1.0"?>\n<Clock xmlns:dt="urn:schemas-microsoft-com:datatypes"><Description dt:dt="string">E-Prime Primary Realtime Clock</Description><StartTime><Timestamp dt:dt="int">0</Timestamp><DateUtc dt:dt="string">2016-08-16T16:09:35Z</DateUtc></StartTime><FrequencyChanges><FrequencyChange><Frequency dt:dt="r8">3507607</Frequency><Timestamp dt:dt="r8">305847762529</Timestamp><Current dt:dt="r8">0</Current><DateUtc dt:dt="string">2016-08-16T16:09:35Z</DateUtc></FrequencyChange></FrequencyChanges></Clock>\n	Hungry_Donkey_bar_English_2-165-1	60.016	-288	1.0.0.18	1	905774093	Standard	2.0.10.353	2.0.10.353	08-16-2016	8/16/2016 4:09:35 PM	12:09:35	2.0.10.248	67	Bar37-63.bmp	42	1	?	10r_4g.bmp	0r_4g.bmp	2r_2g.bmp	0r_2g.bmp	10r_4g.bmp				TrialProc	TrialList	0	cvbn	-999999	16	316124	0	c	1377	317501	206	-284	-78	-50	-62	24	10	4	7	67	-10	0	-2	0	4	4	2	2	-10	4
Hungry_Donkey_bar_English_2	165	1	<?xml version="1.0"?>\n<Clock xmlns:dt="urn:schemas-microsoft-com:datatypes"><Description dt:dt="string">E-Prime Primary Realtime Clock</Description><StartTime><Timestamp dt:dt="int">0</Timestamp><DateUtc dt:dt="string">2016-08-16T16:09:35Z</DateUtc></StartTime><FrequencyChanges><FrequencyChange><Frequency dt:dt="r8">3507607</Frequency><Timestamp dt:dt="r8">305847762529</Timestamp><Current dt:dt="r8">0</Current><DateUtc dt:dt="string">2016-08-16T16:09:35Z</DateUtc></FrequencyChange></FrequencyChanges></Clock>\n	Hungry_Donkey_bar_English_2-165-1	60.016	-288	1.0.0.18	1	905774093	Standard	2.0.10.353	2.0.10.353	08-16-2016	8/16/2016 4:09:35 PM	12:09:35	2.0.10.248	68	Bar37-63.bmp	42	3	?	10r_4g.bmp	0r_4g.bmp	2r_2g.bmp	0r_2g.bmp			2r_2g.bmp		TrialProc	TrialList	0	cvbn	-999999	16	319540	0	b	1177	320717	208	-286	-78	-50	-62	24	10	2	7	68	-10	0	-2	0	4	4	2	2	-2	2
Hungry_Donkey_bar_English_2	165	1	<?xml version="1.0"?>\n<Clock xmlns:dt="urn:schemas-microsoft-com:datatypes"><Description dt:dt="string">E-Prime Primary Realtime Clock</Description><StartTime><Timestamp dt:dt="int">0</Timestamp><DateUtc dt:dt="string">2016-08-16T16:09:35Z</DateUtc></StartTime><FrequencyChanges><FrequencyChange><Frequency dt:dt="r8">3507607</Frequency><Timestamp dt:dt="r8">305847762529</Timestamp><Current dt:dt="r8">0</Current><DateUtc dt:dt="string">2016-08-16T16:09:35Z</DateUtc></FrequencyChange></FrequencyChanges></Clock>\n	Hungry_Donkey_bar_English_2-165-1	60.016	-288	1.0.0.18	1	905774093	Standard	2.0.10.353	2.0.10.353	08-16-2016	8/16/2016 4:09:35 PM	12:09:35	2.0.10.248	69	Bar37-63.bmp	42	4	?	0r_4g.bmp	0r_4g.bmp	0r_2g.bmp	0r_2g.bmp				0r_2g.bmp	TrialProc	TrialList	0	cvbn	-999999	16	322756	0	n	329	323085	210	-286	-76	-50	-62	24	12	8	7	69	0	0	0	0	4	4	2	2	0	2
Hungry_Donkey_bar_English_2	165	1	<?xml version="1.0"?>\n<Clock xmlns:dt="urn:schemas-microsoft-com:datatypes"><Description dt:dt="string">E-Prime Primary Realtime Clock</Description><StartTime><Timestamp dt:dt="int">0</Timestamp><DateUtc dt:dt="string">2016-08-16T16:09:35Z</DateUtc></StartTime><FrequencyChanges><FrequencyChange><Frequency dt:dt="r8">3507607</Frequency><Timestamp dt:dt="r8">305847762529</Timestamp><Current dt:dt="r8">0</Current><DateUtc dt:dt="string">2016-08-16T16:09:35Z</DateUtc></FrequencyChange></FrequencyChanges></Clock>\n	Hungry_Donkey_bar_English_2-165-1	60.016	-288	1.0.0.18	1	905774093	Standard	2.0.10.353	2.0.10.353	08-16-2016	8/16/2016 4:09:35 PM	12:09:35	2.0.10.248	70	Bar37-63.bmp	42	3	?	12r_4g.bmp	0r_4g.bmp	3r_2g.bmp	0r_2g.bmp			3r_2g.bmp		TrialProc	TrialList	0	cvbn	-999999	16	325122	0	b	763	325885	212	-289	-77	-50	-62	23	12	5	7	70	-12	0	-3	0	4	4	2	2	-3	2
Hungry_Donkey_bar_English_2	165	1	<?xml version="1.0"?>\n<Clock xmlns:dt="urn:schemas-microsoft-com:datatypes"><Description dt:dt="string">E-Prime Primary Realtime Clock</Description><StartTime><Timestamp dt:dt="int">0</Timestamp><DateUtc dt:dt="string">2016-08-16T16:09:35Z</DateUtc></StartTime><FrequencyChanges><FrequencyChange><Frequency dt:dt="r8">3507607</Frequency><Timestamp dt:dt="r8">305847762529</Timestamp><Current dt:dt="r8">0</Current><DateUtc dt:dt="string">2016-08-16T16:09:35Z</DateUtc></FrequencyChange></FrequencyChanges></Clock>\n	Hungry_Donkey_bar_English_2-165-1	60.016	-288	1.0.0.18	1	905774093	Standard	2.0.10.353	2.0.10.353	08-16-2016	8/16/2016 4:09:35 PM	12:09:35	2.0.10.248	71	Bar37-63.bmp	43	1	?	0r_4g.bmp	0r_4g.bmp	0r_2g.bmp	0r_2g.bmp	0r_4g.bmp				TrialProc	TrialList	0	cvbn	-999999	16	327921	0	c	428	328349	216	-289	-73	-46	-62	23	12	7	8	71	0	0	0	0	4	4	2	2	0	4
Hungry_Donkey_bar_English_2	165	1	<?xml version="1.0"?>\n<Clock xmlns:dt="urn:schemas-microsoft-com:datatypes"><Description dt:dt="string">E-Prime Primary Realtime Clock</Description><StartTime><Timestamp dt:dt="int">0</Timestamp><DateUtc dt:dt="string">2016-08-16T16:09:35Z</DateUtc></StartTime><FrequencyChanges><FrequencyChange><Frequency dt:dt="r8">3507607</Frequency><Timestamp dt:dt="r8">305847762529</Timestamp><Current dt:dt="r8">0</Current><DateUtc dt:dt="string">2016-08-16T16:09:35Z</DateUtc></FrequencyChange></FrequencyChanges></Clock>\n	Hungry_Donkey_bar_English_2-165-1	60.016	-288	1.0.0.18	1	905774093	Standard	2.0.10.353	2.0.10.353	08-16-2016	8/16/2016 4:09:35 PM	12:09:35	2.0.10.248	72	Bar37-63.bmp	39	2	?	8r_4g.bmp	50r_4g.bmp	1r_2g.bmp	10r_2g.bmp		50r_4g.bmp			TrialProc	TrialList	0	cvbn	-999999	16	330387	0	v	522	330909	220	-339	-119	-46	-108	23	12	1	8	72	-8	-50	-1	-10	4	4	2	2	-50	4
Hungry_Donkey_bar_English_2	165	1	<?xml version="1.0"?>\n<Clock xmlns:dt="urn:schemas-microsoft-com:datatypes"><Description dt:dt="string">E-Prime Primary Realtime Clock</Description><StartTime><Timestamp dt:dt="int">0</Timestamp><DateUtc dt:dt="string">2016-08-16T16:09:35Z</DateUtc></StartTime><FrequencyChanges><FrequencyChange><Frequency dt:dt="r8">3507607</Frequency><Timestamp dt:dt="r8">305847762529</Timestamp><Current dt:dt="r8">0</Current><DateUtc dt:dt="string">2016-08-16T16:09:35Z</DateUtc></FrequencyChange></FrequencyChanges></Clock>\n	Hungry_Donkey_bar_English_2-165-1	60.016	-288	1.0.0.18	1	905774093	Standard	2.0.10.353	2.0.10.353	08-16-2016	8/16/2016 4:09:35 PM	12:09:35	2.0.10.248	73	Bar37-63.bmp	40	1	?	0r_4g.bmp	0r_4g.bmp	0r_2g.bmp	0r_2g.bmp	0r_4g.bmp				TrialProc	TrialList	0	cvbn	-999999	16	332936	0	c	501	333437	224	-339	-115	-42	-108	23	12	10	8	73	0	0	0	0	4	4	2	2	0	4
Hungry_Donkey_bar_English_2	165	1	<?xml version="1.0"?>\n<Clock xmlns:dt="urn:schemas-microsoft-com:datatypes"><Description dt:dt="string">E-Prime Primary Realtime Clock</Description><StartTime><Timestamp dt:dt="int">0</Timestamp><DateUtc dt:dt="string">2016-08-16T16:09:35Z</DateUtc></StartTime><FrequencyChanges><FrequencyChange><Frequency dt:dt="r8">3507607</Frequency><Timestamp dt:dt="r8">305847762529</Timestamp><Current dt:dt="r8">0</Current><DateUtc dt:dt="string">2016-08-16T16:09:35Z</DateUtc></FrequencyChange></FrequencyChanges></Clock>\n	Hungry_Donkey_bar_English_2-165-1	60.016	-288	1.0.0.18	1	905774093	Standard	2.0.10.353	2.0.10.353	08-16-2016	8/16/2016 4:09:35 PM	12:09:35	2.0.10.248	74	Bar37-63.bmp	40	3	?	10r_4g.bmp	0r_4g.bmp	2r_2g.bmp	0r_2g.bmp			2r_2g.bmp		TrialProc	TrialList	0	cvbn	-999999	16	335469	0	b	576	336045	226	-341	-115	-42	-108	23	12	2	8	74	-10	0	-2	0	4	4	2	2	-2	2
Hungry_Donkey_bar_English_2	165	1	<?xml version="1.0"?>\n<Clock xmlns:dt="urn:schemas-microsoft-com:datatypes"><Description dt:dt="string">E-Prime Primary Realtime Clock</Description><StartTime><Timestamp dt:dt="int">0</Timestamp><DateUtc dt:dt="string">2016-08-16T16:09:35Z</DateUtc></StartTime><FrequencyChanges><FrequencyChange><Frequency dt:dt="r8">3507607</Frequency><Timestamp dt:dt="r8">305847762529</Timestamp><Current dt:dt="r8">0</Current><DateUtc dt:dt="string">2016-08-16T16:09:35Z</DateUtc></FrequencyChange></FrequencyChanges></Clock>\n	Hungry_Donkey_bar_English_2-165-1	60.016	-288	1.0.0.18	1	905774093	Standard	2.0.10.353	2.0.10.353	08-16-2016	8/16/2016 4:09:35 PM	12:09:35	2.0.10.248	75	Bar37-63.bmp	40	4	?	10r_4g.bmp	0r_4g.bmp	2r_2g.bmp	0r_2g.bmp				0r_2g.bmp	TrialProc	TrialList	0	cvbn	-999999	16	338068	0	n	89	338157	228	-341	-113	-42	-108	23	14	4	8	75	-10	0	-2	0	4	4	2	2	0	2
Hungry_Donkey_bar_English_2	165	1	<?xml version="1.0"?>\n<Clock xmlns:dt="urn:schemas-microsoft-com:datatypes"><Description dt:dt="string">E-Prime Primary Realtime Clock</Description><StartTime><Timestamp dt:dt="int">0</Timestamp><DateUtc dt:dt="string">2016-08-16T16:09:35Z</DateUtc></StartTime><FrequencyChanges><FrequencyChange><Frequency dt:dt="r8">3507607</Frequency><Timestamp dt:dt="r8">305847762529</Timestamp><Current dt:dt="r8">0</Current><DateUtc dt:dt="string">2016-08-16T16:09:35Z</DateUtc></FrequencyChange></FrequencyChanges></Clock>\n	Hungry_Donkey_bar_English_2-165-1	60.016	-288	1.0.0.18	1	905774093	Standard	2.0.10.353	2.0.10.353	08-16-2016	8/16/2016 4:09:35 PM	12:09:35	2.0.10.248	76	Bar37-63.bmp	40	1	?	12r_4g.bmp	0r_4g.bmp	3r_2g.bmp	0r_2g.bmp	12r_4g.bmp				TrialProc	TrialList	0	cvbn	-999999	16	340184	0	c	1620	341804	232	-353	-121	-50	-108	23	14	5	8	76	-12	0	-3	0	4	4	2	2	-12	4
Hungry_Donkey_bar_English_2	165	1	<?xml version="1.0"?>\n<Clock xmlns:dt="urn:schemas-microsoft-com:datatypes"><Description dt:dt="string">E-Prime Primary Realtime Clock</Description><StartTime><Timestamp dt:dt="int">0</Timestamp><DateUtc dt:dt="string">2016-08-16T16:09:35Z</DateUtc></StartTime><FrequencyChanges><FrequencyChange><Frequency dt:dt="r8">3507607</Frequency><Timestamp dt:dt="r8">305847762529</Timestamp><Current dt:dt="r8">0</Current><DateUtc dt:dt="string">2016-08-16T16:09:35Z</DateUtc></FrequencyChange></FrequencyChanges></Clock>\n	Hungry_Donkey_bar_English_2-165-1	60.016	-288	1.0.0.18	1	905774093	Standard	2.0.10.353	2.0.10.353	08-16-2016	8/16/2016 4:09:35 PM	12:09:35	2.0.10.248	77	Bar37-63.bmp	40	2	?	0r_4g.bmp	0r_4g.bmp	0r_2g.bmp	0r_2g.bmp		0r_4g.bmp			TrialProc	TrialList	0	cvbn	-999999	16	343833	0	v	963	344796	236	-353	-117	-50	-104	23	14	8	8	77	0	0	0	0	4	4	2	2	0	4
Hungry_Donkey_bar_English_2	165	1	<?xml version="1.0"?>\n<Clock xmlns:dt="urn:schemas-microsoft-com:datatypes"><Description dt:dt="string">E-Prime Primary Realtime Clock</Description><StartTime><Timestamp dt:dt="int">0</Timestamp><DateUtc dt:dt="string">2016-08-16T16:09:35Z</DateUtc></StartTime><FrequencyChanges><FrequencyChange><Frequency dt:dt="r8">3507607</Frequency><Timestamp dt:dt="r8">305847762529</Timestamp><Current dt:dt="r8">0</Current><DateUtc dt:dt="string">2016-08-16T16:09:35Z</DateUtc></FrequencyChange></FrequencyChanges></Clock>\n	Hungry_Donkey_bar_English_2-165-1	60.016	-288	1.0.0.18	1	905774093	Standard	2.0.10.353	2.0.10.353	08-16-2016	8/16/2016 4:09:35 PM	12:09:35	2.0.10.248	78	Bar37-63.bmp	40	3	?	0r_4g.bmp	0r_4g.bmp	0r_2g.bmp	0r_2g.bmp			0r_2g.bmp		TrialProc	TrialList	0	cvbn	-999999	16	346833	0	b	1099	347932	238	-353	-115	-50	-104	25	14	9	8	78	0	0	0	0	4	4	2	2	0	2
Hungry_Donkey_bar_English_2	165	1	<?xml version="1.0"?>\n<Clock xmlns:dt="urn:schemas-microsoft-com:datatypes"><Description dt:dt="string">E-Prime Primary Realtime Clock</Description><StartTime><Timestamp dt:dt="int">0</Timestamp><DateUtc dt:dt="string">2016-08-16T16:09:35Z</DateUtc></StartTime><FrequencyChanges><FrequencyChange><Frequency dt:dt="r8">3507607</Frequency><Timestamp dt:dt="r8">305847762529</Timestamp><Current dt:dt="r8">0</Current><DateUtc dt:dt="string">2016-08-16T16:09:35Z</DateUtc></FrequencyChange></FrequencyChanges></Clock>\n	Hungry_Donkey_bar_English_2-165-1	60.016	-288	1.0.0.18	1	905774093	Standard	2.0.10.353	2.0.10.353	08-16-2016	8/16/2016 4:09:35 PM	12:09:35	2.0.10.248	79	Bar37-63.bmp	40	4	?	10r_4g.bmp	0r_4g.bmp	2r_2g.bmp	0r_2g.bmp				0r_2g.bmp	TrialProc	TrialList	0	cvbn	-999999	16	349965	0	n	399	350364	240	-353	-113	-50	-104	25	16	3	8	79	-10	0	-2	0	4	4	2	2	0	2
Hungry_Donkey_bar_English_2	165	1	<?xml version="1.0"?>\n<Clock xmlns:dt="urn:schemas-microsoft-com:datatypes"><Description dt:dt="string">E-Prime Primary Realtime Clock</Description><StartTime><Timestamp dt:dt="int">0</Timestamp><DateUtc dt:dt="string">2016-08-16T16:09:35Z</DateUtc></StartTime><FrequencyChanges><FrequencyChange><Frequency dt:dt="r8">3507607</Frequency><Timestamp dt:dt="r8">305847762529</Timestamp><Current dt:dt="r8">0</Current><DateUtc dt:dt="string">2016-08-16T16:09:35Z</DateUtc></FrequencyChange></FrequencyChanges></Clock>\n	Hungry_Donkey_bar_English_2-165-1	60.016	-288	1.0.0.18	1	905774093	Standard	2.0.10.353	2.0.10.353	08-16-2016	8/16/2016 4:09:35 PM	12:09:35	2.0.10.248	80	Bar37-63.bmp	41	1	?	0r_4g.bmp	0r_4g.bmp	0r_2g.bmp	0r_2g.bmp	0r_4g.bmp				TrialProc	TrialList	0	cvbn	-999999	16	352398	0	c	830	353228	244	-353	-109	-46	-104	25	16	6	8	80	0	0	0	0	4	4	2	2	0	4
Hungry_Donkey_bar_English_2	165	1	<?xml version="1.0"?>\n<Clock xmlns:dt="urn:schemas-microsoft-com:datatypes"><Description dt:dt="string">E-Prime Primary Realtime Clock</Description><StartTime><Timestamp dt:dt="int">0</Timestamp><DateUtc dt:dt="string">2016-08-16T16:09:35Z</DateUtc></StartTime><FrequencyChanges><FrequencyChange><Frequency dt:dt="r8">3507607</Frequency><Timestamp dt:dt="r8">305847762529</Timestamp><Current dt:dt="r8">0</Current><DateUtc dt:dt="string">2016-08-16T16:09:35Z</DateUtc></FrequencyChange></FrequencyChanges></Clock>\n	Hungry_Donkey_bar_English_2-165-1	60.016	-288	1.0.0.18	1	905774093	Standard	2.0.10.353	2.0.10.353	08-16-2016	8/16/2016 4:09:35 PM	12:09:35	2.0.10.248	81	Bar37-63.bmp	41	3	?	0r_4g.bmp	0r_4g.bmp	0r_2g.bmp	0r_2g.bmp			0r_2g.bmp		TrialProc	TrialList	0	cvbn	-999999	16	355264	0	b	396	355660	246	-353	-107	-46	-104	27	16	8	9	81	0	0	0	0	4	4	2	2	0	2
Hungry_Donkey_bar_English_2	165	1	<?xml version="1.0"?>\n<Clock xmlns:dt="urn:schemas-microsoft-com:datatypes"><Description dt:dt="string">E-Prime Primary Realtime Clock</Description><StartTime><Timestamp dt:dt="int">0</Timestamp><DateUtc dt:dt="string">2016-08-16T16:09:35Z</DateUtc></StartTime><FrequencyChanges><FrequencyChange><Frequency dt:dt="r8">3507607</Frequency><Timestamp dt:dt="r8">305847762529</Timestamp><Current dt:dt="r8">0</Current><DateUtc dt:dt="string">2016-08-16T16:09:35Z</DateUtc></FrequencyChange></FrequencyChanges></Clock>\n	Hungry_Donkey_bar_English_2-165-1	60.016	-288	1.0.0.18	1	905774093	Standard	2.0.10.353	2.0.10.353	08-16-2016	8/16/2016 4:09:35 PM	12:09:35	2.0.10.248	82	Bar37-63.bmp	41	3	?	0r_4g.bmp	0r_4g.bmp	0r_2g.bmp	0r_2g.bmp			0r_2g.bmp		TrialProc	TrialList	0	cvbn	-999999	16	357696	0	b	1948	359644	248	-353	-105	-46	-104	29	16	7	9	82	0	0	0	0	4	4	2	2	0	2
Hungry_Donkey_bar_English_2	165	1	<?xml version="1.0"?>\n<Clock xmlns:dt="urn:schemas-microsoft-com:datatypes"><Description dt:dt="string">E-Prime Primary Realtime Clock</Description><StartTime><Timestamp dt:dt="int">0</Timestamp><DateUtc dt:dt="string">2016-08-16T16:09:35Z</DateUtc></StartTime><FrequencyChanges><FrequencyChange><Frequency dt:dt="r8">3507607</Frequency><Timestamp dt:dt="r8">305847762529</Timestamp><Current dt:dt="r8">0</Current><DateUtc dt:dt="string">2016-08-16T16:09:35Z</DateUtc></FrequencyChange></FrequencyChanges></Clock>\n	Hungry_Donkey_bar_English_2-165-1	60.016	-288	1.0.0.18	1	905774093	Standard	2.0.10.353	2.0.10.353	08-16-2016	8/16/2016 4:09:35 PM	12:09:35	2.0.10.248	83	Bar37-63.bmp	42	1	?	0r_4g.bmp	0r_4g.bmp	0r_2g.bmp	0r_2g.bmp	0r_4g.bmp				TrialProc	TrialList	0	cvbn	-999999	16	361679	0	c	861	362540	252	-353	-101	-42	-104	29	16	10	9	83	0	0	0	0	4	4	2	2	0	4
Hungry_Donkey_bar_English_2	165	1	<?xml version="1.0"?>\n<Clock xmlns:dt="urn:schemas-microsoft-com:datatypes"><Description dt:dt="string">E-Prime Primary Realtime Clock</Description><StartTime><Timestamp dt:dt="int">0</Timestamp><DateUtc dt:dt="string">2016-08-16T16:09:35Z</DateUtc></StartTime><FrequencyChanges><FrequencyChange><Frequency dt:dt="r8">3507607</Frequency><Timestamp dt:dt="r8">305847762529</Timestamp><Current dt:dt="r8">0</Current><DateUtc dt:dt="string">2016-08-16T16:09:35Z</DateUtc></FrequencyChange></FrequencyChanges></Clock>\n	Hungry_Donkey_bar_English_2-165-1	60.016	-288	1.0.0.18	1	905774093	Standard	2.0.10.353	2.0.10.353	08-16-2016	8/16/2016 4:09:35 PM	12:09:35	2.0.10.248	84	Bar37-63.bmp	42	3	?	0r_4g.bmp	0r_4g.bmp	0r_2g.bmp	0r_2g.bmp			0r_2g.bmp		TrialProc	TrialList	0	cvbn	-999999	16	364578	0	b	1242	365820	254	-353	-99	-42	-104	31	16	9	9	84	0	0	0	0	4	4	2	2	0	2
Hungry_Donkey_bar_English_2	165	1	<?xml version="1.0"?>\n<Clock xmlns:dt="urn:schemas-microsoft-com:datatypes"><Description dt:dt="string">E-Prime Primary Realtime Clock</Description><StartTime><Timestamp dt:dt="int">0</Timestamp><DateUtc dt:dt="string">2016-08-16T16:09:35Z</DateUtc></StartTime><FrequencyChanges><FrequencyChange><Frequency dt:dt="r8">3507607</Frequency><Timestamp dt:dt="r8">305847762529</Timestamp><Current dt:dt="r8">0</Current><DateUtc dt:dt="string">2016-08-16T16:09:35Z</DateUtc></FrequencyChange></FrequencyChanges></Clock>\n	Hungry_Donkey_bar_English_2-165-1	60.016	-288	1.0.0.18	1	905774093	Standard	2.0.10.353	2.0.10.353	08-16-2016	8/16/2016 4:09:35 PM	12:09:35	2.0.10.248	85	Bar37-63.bmp	42	2	?	10r_4g.bmp	0r_4g.bmp	2r_2g.bmp	0r_2g.bmp		0r_4g.bmp			TrialProc	TrialList	0	cvbn	-999999	16	367844	0	v	1000	368844	258	-353	-95	-42	-100	31	16	2	9	85	-10	0	-2	0	4	4	2	2	0	4
Hungry_Donkey_bar_English_2	165	1	<?xml version="1.0"?>\n<Clock xmlns:dt="urn:schemas-microsoft-com:datatypes"><Description dt:dt="string">E-Prime Primary Realtime Clock</Description><StartTime><Timestamp dt:dt="int">0</Timestamp><DateUtc dt:dt="string">2016-08-16T16:09:35Z</DateUtc></StartTime><FrequencyChanges><FrequencyChange><Frequency dt:dt="r8">3507607</Frequency><Timestamp dt:dt="r8">305847762529</Timestamp><Current dt:dt="r8">0</Current><DateUtc dt:dt="string">2016-08-16T16:09:35Z</DateUtc></FrequencyChange></FrequencyChanges></Clock>\n	Hungry_Donkey_bar_English_2-165-1	60.016	-288	1.0.0.18	1	905774093	Standard	2.0.10.353	2.0.10.353	08-16-2016	8/16/2016 4:09:35 PM	12:09:35	2.0.10.248	86	Bar37-63.bmp	42	4	?	10r_4g.bmp	0r_4g.bmp	2r_2g.bmp	0r_2g.bmp				0r_2g.bmp	TrialProc	TrialList	0	cvbn	-999999	16	370876	0	n	1424	372300	260	-353	-93	-42	-100	31	18	4	9	86	-10	0	-2	0	4	4	2	2	0	2
Hungry_Donkey_bar_English_2	165	1	<?xml version="1.0"?>\n<Clock xmlns:dt="urn:schemas-microsoft-com:datatypes"><Description dt:dt="string">E-Prime Primary Realtime Clock</Description><StartTime><Timestamp dt:dt="int">0</Timestamp><DateUtc dt:dt="string">2016-08-16T16:09:35Z</DateUtc></StartTime><FrequencyChanges><FrequencyChange><Frequency dt:dt="r8">3507607</Frequency><Timestamp dt:dt="r8">305847762529</Timestamp><Current dt:dt="r8">0</Current><DateUtc dt:dt="string">2016-08-16T16:09:35Z</DateUtc></FrequencyChange></FrequencyChanges></Clock>\n	Hungry_Donkey_bar_English_2-165-1	60.016	-288	1.0.0.18	1	905774093	Standard	2.0.10.353	2.0.10.353	08-16-2016	8/16/2016 4:09:35 PM	12:09:35	2.0.10.248	87	Bar37-63.bmp	40	2	?	8r_4g.bmp	50r_4g.bmp	1r_2g.bmp	10r_2g.bmp		50r_4g.bmp			TrialProc	TrialList	0	cvbn	-999999	16	374325	0	v	1398	375723	264	-403	-139	-42	-146	31	18	1	9	87	-8	-50	-1	-10	4	4	2	2	-50	4
Hungry_Donkey_bar_English_2	165	1	<?xml version="1.0"?>\n<Clock xmlns:dt="urn:schemas-microsoft-com:datatypes"><Description dt:dt="string">E-Prime Primary Realtime Clock</Description><StartTime><Timestamp dt:dt="int">0</Timestamp><DateUtc dt:dt="string">2016-08-16T16:09:35Z</DateUtc></StartTime><FrequencyChanges><FrequencyChange><Frequency dt:dt="r8">3507607</Frequency><Timestamp dt:dt="r8">305847762529</Timestamp><Current dt:dt="r8">0</Current><DateUtc dt:dt="string">2016-08-16T16:09:35Z</DateUtc></FrequencyChange></FrequencyChanges></Clock>\n	Hungry_Donkey_bar_English_2-165-1	60.016	-288	1.0.0.18	1	905774093	Standard	2.0.10.353	2.0.10.353	08-16-2016	8/16/2016 4:09:35 PM	12:09:35	2.0.10.248	88	Bar37-63.bmp	39	1	?	10r_4g.bmp	0r_4g.bmp	2r_2g.bmp	0r_2g.bmp	10r_4g.bmp				TrialProc	TrialList	0	cvbn	-999999	16	377758	0	c	1389	379147	268	-413	-145	-48	-146	31	18	3	9	88	-10	0	-2	0	4	4	2	2	-10	4
Hungry_Donkey_bar_English_2	165	1	<?xml version="1.0"?>\n<Clock xmlns:dt="urn:schemas-microsoft-com:datatypes"><Description dt:dt="string">E-Prime Primary Realtime Clock</Description><StartTime><Timestamp dt:dt="int">0</Timestamp><DateUtc dt:dt="string">2016-08-16T16:09:35Z</DateUtc></StartTime><FrequencyChanges><FrequencyChange><Frequency dt:dt="r8">3507607</Frequency><Timestamp dt:dt="r8">305847762529</Timestamp><Current dt:dt="r8">0</Current><DateUtc dt:dt="string">2016-08-16T16:09:35Z</DateUtc></FrequencyChange></FrequencyChanges></Clock>\n	Hungry_Donkey_bar_English_2-165-1	60.016	-288	1.0.0.18	1	905774093	Standard	2.0.10.353	2.0.10.353	08-16-2016	8/16/2016 4:09:35 PM	12:09:35	2.0.10.248	89	Bar37-63.bmp	40	4	?	12r_4g.bmp	0r_4g.bmp	3r_2g.bmp	0r_2g.bmp				0r_2g.bmp	TrialProc	TrialList	0	cvbn	-999999	17	381174	0	n	805	381979	270	-413	-143	-48	-146	31	20	5	9	89	-12	0	-3	0	4	4	2	2	0	2
Hungry_Donkey_bar_English_2	165	1	<?xml version="1.0"?>\n<Clock xmlns:dt="urn:schemas-microsoft-com:datatypes"><Description dt:dt="string">E-Prime Primary Realtime Clock</Description><StartTime><Timestamp dt:dt="int">0</Timestamp><DateUtc dt:dt="string">2016-08-16T16:09:35Z</DateUtc></StartTime><FrequencyChanges><FrequencyChange><Frequency dt:dt="r8">3507607</Frequency><Timestamp dt:dt="r8">305847762529</Timestamp><Current dt:dt="r8">0</Current><DateUtc dt:dt="string">2016-08-16T16:09:35Z</DateUtc></FrequencyChange></FrequencyChanges></Clock>\n	Hungry_Donkey_bar_English_2-165-1	60.016	-288	1.0.0.18	1	905774093	Standard	2.0.10.353	2.0.10.353	08-16-2016	8/16/2016 4:09:35 PM	12:09:35	2.0.10.248	90	Bar37-63.bmp	40	3	?	0r_4g.bmp	0r_4g.bmp	0r_2g.bmp	0r_2g.bmp			0r_2g.bmp		TrialProc	TrialList	0	cvbn	-999999	16	384006	0	b	821	384827	272	-413	-141	-48	-146	33	20	6	9	90	0	0	0	0	4	4	2	2	0	2
Hungry_Donkey_bar_English_2	165	1	<?xml version="1.0"?>\n<Clock xmlns:dt="urn:schemas-microsoft-com:datatypes"><Description dt:dt="string">E-Prime Primary Realtime Clock</Description><StartTime><Timestamp dt:dt="int">0</Timestamp><DateUtc dt:dt="string">2016-08-16T16:09:35Z</DateUtc></StartTime><FrequencyChanges><FrequencyChange><Frequency dt:dt="r8">3507607</Frequency><Timestamp dt:dt="r8">305847762529</Timestamp><Current dt:dt="r8">0</Current><DateUtc dt:dt="string">2016-08-16T16:09:35Z</DateUtc></FrequencyChange></FrequencyChanges></Clock>\n	Hungry_Donkey_bar_English_2-165-1	60.016	-288	1.0.0.18	1	905774093	Standard	2.0.10.353	2.0.10.353	08-16-2016	8/16/2016 4:09:35 PM	12:09:35	2.0.10.248	91	Bar37-63.bmp	40	2	?	0r_4g.bmp	0r_4g.bmp	0r_2g.bmp	0r_2g.bmp		0r_4g.bmp			TrialProc	TrialList	0	cvbn	-999999	16	386855	0	v	468	387323	276	-413	-137	-48	-142	33	20	6	10	91	0	0	0	0	4	4	2	2	0	4
Hungry_Donkey_bar_English_2	165	1	<?xml version="1.0"?>\n<Clock xmlns:dt="urn:schemas-microsoft-com:datatypes"><Description dt:dt="string">E-Prime Primary Realtime Clock</Description><StartTime><Timestamp dt:dt="int">0</Timestamp><DateUtc dt:dt="string">2016-08-16T16:09:35Z</DateUtc></StartTime><FrequencyChanges><FrequencyChange><Frequency dt:dt="r8">3507607</Frequency><Timestamp dt:dt="r8">305847762529</Timestamp><Current dt:dt="r8">0</Current><DateUtc dt:dt="string">2016-08-16T16:09:35Z</DateUtc></FrequencyChange></FrequencyChanges></Clock>\n	Hungry_Donkey_bar_English_2-165-1	60.016	-288	1.0.0.18	1	905774093	Standard	2.0.10.353	2.0.10.353	08-16-2016	8/16/2016 4:09:35 PM	12:09:35	2.0.10.248	92	Bar37-63.bmp	40	4	?	10r_4g.bmp	0r_4g.bmp	2r_2g.bmp	0r_2g.bmp				0r_2g.bmp	TrialProc	TrialList	0	cvbn	-999999	16	389355	0	n	1536	390891	278	-413	-135	-48	-142	33	22	3	10	92	-10	0	-2	0	4	4	2	2	0	2
Hungry_Donkey_bar_English_2	165	1	<?xml version="1.0"?>\n<Clock xmlns:dt="urn:schemas-microsoft-com:datatypes"><Description dt:dt="string">E-Prime Primary Realtime Clock</Description><StartTime><Timestamp dt:dt="int">0</Timestamp><DateUtc dt:dt="string">2016-08-16T16:09:35Z</DateUtc></StartTime><FrequencyChanges><FrequencyChange><Frequency dt:dt="r8">3507607</Frequency><Timestamp dt:dt="r8">305847762529</Timestamp><Current dt:dt="r8">0</Current><DateUtc dt:dt="string">2016-08-16T16:09:35Z</DateUtc></FrequencyChange></FrequencyChanges></Clock>\n	Hungry_Donkey_bar_English_2-165-1	60.016	-288	1.0.0.18	1	905774093	Standard	2.0.10.353	2.0.10.353	08-16-2016	8/16/2016 4:09:35 PM	12:09:35	2.0.10.248	93	Bar37-63.bmp	41	1	?	0r_4g.bmp	0r_4g.bmp	0r_2g.bmp	0r_2g.bmp	0r_4g.bmp				TrialProc	TrialList	0	cvbn	-999999	16	392920	0	c	691	393611	282	-413	-131	-44	-142	33	22	10	10	93	0	0	0	0	4	4	2	2	0	4
Hungry_Donkey_bar_English_2	165	1	<?xml version="1.0"?>\n<Clock xmlns:dt="urn:schemas-microsoft-com:datatypes"><Description dt:dt="string">E-Prime Primary Realtime Clock</Description><StartTime><Timestamp dt:dt="int">0</Timestamp><DateUtc dt:dt="string">2016-08-16T16:09:35Z</DateUtc></StartTime><FrequencyChanges><FrequencyChange><Frequency dt:dt="r8">3507607</Frequency><Timestamp dt:dt="r8">305847762529</Timestamp><Current dt:dt="r8">0</Current><DateUtc dt:dt="string">2016-08-16T16:09:35Z</DateUtc></FrequencyChange></FrequencyChanges></Clock>\n	Hungry_Donkey_bar_English_2-165-1	60.016	-288	1.0.0.18	1	905774093	Standard	2.0.10.353	2.0.10.353	08-16-2016	8/16/2016 4:09:35 PM	12:09:35	2.0.10.248	94	Bar37-63.bmp	41	2	?	0r_4g.bmp	0r_4g.bmp	0r_2g.bmp	0r_2g.bmp		0r_4g.bmp			TrialProc	TrialList	0	cvbn	-999999	16	395636	0	v	647	396283	286	-413	-127	-44	-138	33	22	8	10	94	0	0	0	0	4	4	2	2	0	4
Hungry_Donkey_bar_English_2	165	1	<?xml version="1.0"?>\n<Clock xmlns:dt="urn:schemas-microsoft-com:datatypes"><Description dt:dt="string">E-Prime Primary Realtime Clock</Description><StartTime><Timestamp dt:dt="int">0</Timestamp><DateUtc dt:dt="string">2016-08-16T16:09:35Z</DateUtc></StartTime><FrequencyChanges><FrequencyChange><Frequency dt:dt="r8">3507607</Frequency><Timestamp dt:dt="r8">305847762529</Timestamp><Current dt:dt="r8">0</Current><DateUtc dt:dt="string">2016-08-16T16:09:35Z</DateUtc></FrequencyChange></FrequencyChanges></Clock>\n	Hungry_Donkey_bar_English_2-165-1	60.016	-288	1.0.0.18	1	905774093	Standard	2.0.10.353	2.0.10.353	08-16-2016	8/16/2016 4:09:35 PM	12:09:35	2.0.10.248	95	Bar37-63.bmp	41	3	?	10r_4g.bmp	0r_4g.bmp	2r_2g.bmp	0r_2g.bmp			2r_2g.bmp		TrialProc	TrialList	0	cvbn	-999999	16	398319	0	b	1020	399339	288	-415	-127	-44	-138	33	22	2	10	95	-10	0	-2	0	4	4	2	2	-2	2
Hungry_Donkey_bar_English_2	165	1	<?xml version="1.0"?>\n<Clock xmlns:dt="urn:schemas-microsoft-com:datatypes"><Description dt:dt="string">E-Prime Primary Realtime Clock</Description><StartTime><Timestamp dt:dt="int">0</Timestamp><DateUtc dt:dt="string">2016-08-16T16:09:35Z</DateUtc></StartTime><FrequencyChanges><FrequencyChange><Frequency dt:dt="r8">3507607</Frequency><Timestamp dt:dt="r8">305847762529</Timestamp><Current dt:dt="r8">0</Current><DateUtc dt:dt="string">2016-08-16T16:09:35Z</DateUtc></FrequencyChange></FrequencyChanges></Clock>\n	Hungry_Donkey_bar_English_2-165-1	60.016	-288	1.0.0.18	1	905774093	Standard	2.0.10.353	2.0.10.353	08-16-2016	8/16/2016 4:09:35 PM	12:09:35	2.0.10.248	96	Bar37-63.bmp	41	4	?	0r_4g.bmp	0r_4g.bmp	0r_2g.bmp	0r_2g.bmp				0r_2g.bmp	TrialProc	TrialList	0	cvbn	-999999	16	401368	0	n	371	401739	290	-415	-125	-44	-138	33	24	9	10	96	0	0	0	0	4	4	2	2	0	2
Hungry_Donkey_bar_English_2	165	1	<?xml version="1.0"?>\n<Clock xmlns:dt="urn:schemas-microsoft-com:datatypes"><Description dt:dt="string">E-Prime Primary Realtime Clock</Description><StartTime><Timestamp dt:dt="int">0</Timestamp><DateUtc dt:dt="string">2016-08-16T16:09:35Z</DateUtc></StartTime><FrequencyChanges><FrequencyChange><Frequency dt:dt="r8">3507607</Frequency><Timestamp dt:dt="r8">305847762529</Timestamp><Current dt:dt="r8">0</Current><DateUtc dt:dt="string">2016-08-16T16:09:35Z</DateUtc></FrequencyChange></FrequencyChanges></Clock>\n	Hungry_Donkey_bar_English_2-165-1	60.016	-288	1.0.0.18	1	905774093	Standard	2.0.10.353	2.0.10.353	08-16-2016	8/16/2016 4:09:35 PM	12:09:35	2.0.10.248	97	Bar37-63.bmp	41	3	?	12r_4g.bmp	0r_4g.bmp	3r_2g.bmp	0r_2g.bmp			3r_2g.bmp		TrialProc	TrialList	0	cvbn	-999999	17	403768	0	b	419	404187	292	-418	-126	-44	-138	32	24	5	10	97	-12	0	-3	0	4	4	2	2	-3	2
Hungry_Donkey_bar_English_2	165	1	<?xml version="1.0"?>\n<Clock xmlns:dt="urn:schemas-microsoft-com:datatypes"><Description dt:dt="string">E-Prime Primary Realtime Clock</Description><StartTime><Timestamp dt:dt="int">0</Timestamp><DateUtc dt:dt="string">2016-08-16T16:09:35Z</DateUtc></StartTime><FrequencyChanges><FrequencyChange><Frequency dt:dt="r8">3507607</Frequency><Timestamp dt:dt="r8">305847762529</Timestamp><Current dt:dt="r8">0</Current><DateUtc dt:dt="string">2016-08-16T16:09:35Z</DateUtc></FrequencyChange></FrequencyChanges></Clock>\n	Hungry_Donkey_bar_English_2-165-1	60.016	-288	1.0.0.18	1	905774093	Standard	2.0.10.353	2.0.10.353	08-16-2016	8/16/2016 4:09:35 PM	12:09:35	2.0.10.248	98	Bar37-63.bmp	41	2	?	0r_4g.bmp	0r_4g.bmp	0r_2g.bmp	0r_2g.bmp		0r_4g.bmp			TrialProc	TrialList	0	cvbn	-999999	16	406217	0	v	418	406635	296	-418	-122	-44	-134	32	24	7	10	98	0	0	0	0	4	4	2	2	0	4
Hungry_Donkey_bar_English_2	165	1	<?xml version="1.0"?>\n<Clock xmlns:dt="urn:schemas-microsoft-com:datatypes"><Description dt:dt="string">E-Prime Primary Realtime Clock</Description><StartTime><Timestamp dt:dt="int">0</Timestamp><DateUtc dt:dt="string">2016-08-16T16:09:35Z</DateUtc></StartTime><FrequencyChanges><FrequencyChange><Frequency dt:dt="r8">3507607</Frequency><Timestamp dt:dt="r8">305847762529</Timestamp><Current dt:dt="r8">0</Current><DateUtc dt:dt="string">2016-08-16T16:09:35Z</DateUtc></FrequencyChange></FrequencyChanges></Clock>\n	Hungry_Donkey_bar_English_2-165-1	60.016	-288	1.0.0.18	1	905774093	Standard	2.0.10.353	2.0.10.353	08-16-2016	8/16/2016 4:09:35 PM	12:09:35	2.0.10.248	99	Bar37-63.bmp	41	1	?	8r_4g.bmp	50r_4g.bmp	1r_2g.bmp	10r_2g.bmp	8r_4g.bmp				TrialProc	TrialList	0	cvbn	-999999	16	408666	0	c	433	409099	300	-426	-126	-48	-134	32	24	1	10	99	-8	-50	-1	-10	4	4	2	2	-8	4
Hungry_Donkey_bar_English_2	165	1	<?xml version="1.0"?>\n<Clock xmlns:dt="urn:schemas-microsoft-com:datatypes"><Description dt:dt="string">E-Prime Primary Realtime Clock</Description><StartTime><Timestamp dt:dt="int">0</Timestamp><DateUtc dt:dt="string">2016-08-16T16:09:35Z</DateUtc></StartTime><FrequencyChanges><FrequencyChange><Frequency dt:dt="r8">3507607</Frequency><Timestamp dt:dt="r8">305847762529</Timestamp><Current dt:dt="r8">0</Current><DateUtc dt:dt="string">2016-08-16T16:09:35Z</DateUtc></FrequencyChange></FrequencyChanges></Clock>\n	Hungry_Donkey_bar_English_2-165-1	60.016	-288	1.0.0.18	1	905774093	Standard	2.0.10.353	2.0.10.353	08-16-2016	8/16/2016 4:09:35 PM	12:09:35	2.0.10.248	100	Bar37-63.bmp	42	2	?	10r_4g.bmp	0r_4g.bmp	2r_2g.bmp	0r_2g.bmp		0r_4g.bmp			TrialProc	TrialList	0	cvbn	-999999	16	411132	0	v	222	411354	304	-426	-122	-48	-130	32	24	4	10	100	-10	0	-2	0	4	4	2	2	0	4
Hungry_Donkey_bar_English_2	165	1	<?xml version="1.0"?>\n<Clock xmlns:dt="urn:schemas-microsoft-com:datatypes"><Description dt:dt="string">E-Prime Primary Realtime Clock</Description><StartTime><Timestamp dt:dt="int">0</Timestamp><DateUtc dt:dt="string">2016-08-16T16:09:35Z</DateUtc></StartTime><FrequencyChanges><FrequencyChange><Frequency dt:dt="r8">3507607</Frequency><Timestamp dt:dt="r8">305847762529</Timestamp><Current dt:dt="r8">0</Current><DateUtc dt:dt="string">2016-08-16T16:09:35Z</DateUtc></FrequencyChange></FrequencyChanges></Clock>\n	Hungry_Donkey_bar_English_2-165-1	60.016	-288	1.0.0.18	1	905774093	Standard	2.0.10.353	2.0.10.353	08-16-2016	8/16/2016 4:09:35 PM	12:09:35	2.0.10.248	101	Bar37-63.bmp	42	4	?	10r_4g.bmp	0r_4g.bmp	2r_2g.bmp	0r_2g.bmp				0r_2g.bmp	TrialProc	TrialList	0	cvbn	-999999	17	413382	0	n	404	413786	306	-426	-120	-48	-130	32	26	3	11	101	-10	0	-2	0	4	4	2	2	0	2
Hungry_Donkey_bar_English_2	165	1	<?xml version="1.0"?>\n<Clock xmlns:dt="urn:schemas-microsoft-com:datatypes"><Description dt:dt="string">E-Prime Primary Realtime Clock</Description><StartTime><Timestamp dt:dt="int">0</Timestamp><DateUtc dt:dt="string">2016-08-16T16:09:35Z</DateUtc></StartTime><FrequencyChanges><FrequencyChange><Frequency dt:dt="r8">3507607</Frequency><Timestamp dt:dt="r8">305847762529</Timestamp><Current dt:dt="r8">0</Current><DateUtc dt:dt="string">2016-08-16T16:09:35Z</DateUtc></FrequencyChange></FrequencyChanges></Clock>\n	Hungry_Donkey_bar_English_2-165-1	60.016	-288	1.0.0.18	1	905774093	Standard	2.0.10.353	2.0.10.353	08-16-2016	8/16/2016 4:09:35 PM	12:09:35	2.0.10.248	102	Bar37-63.bmp	42	2	?	10r_4g.bmp	0r_4g.bmp	2r_2g.bmp	0r_2g.bmp		0r_4g.bmp			TrialProc	TrialList	0	cvbn	-999999	16	415814	0	v	1044	416858	310	-426	-116	-48	-126	32	26	4	11	102	-10	0	-2	0	4	4	2	2	0	4
Hungry_Donkey_bar_English_2	165	1	<?xml version="1.0"?>\n<Clock xmlns:dt="urn:schemas-microsoft-com:datatypes"><Description dt:dt="string">E-Prime Primary Realtime Clock</Description><StartTime><Timestamp dt:dt="int">0</Timestamp><DateUtc dt:dt="string">2016-08-16T16:09:35Z</DateUtc></StartTime><FrequencyChanges><FrequencyChange><Frequency dt:dt="r8">3507607</Frequency><Timestamp dt:dt="r8">305847762529</Timestamp><Current dt:dt="r8">0</Current><DateUtc dt:dt="string">2016-08-16T16:09:35Z</DateUtc></FrequencyChange></FrequencyChanges></Clock>\n	Hungry_Donkey_bar_English_2-165-1	60.016	-288	1.0.0.18	1	905774093	Standard	2.0.10.353	2.0.10.353	08-16-2016	8/16/2016 4:09:35 PM	12:09:35	2.0.10.248	103	Bar37-63.bmp	42	4	?	12r_4g.bmp	0r_4g.bmp	3r_2g.bmp	0r_2g.bmp				0r_2g.bmp	TrialProc	TrialList	0	cvbn	-999999	16	418897	0	n	1209	420106	312	-426	-114	-48	-126	32	28	5	11	103	-12	0	-3	0	4	4	2	2	0	2
Hungry_Donkey_bar_English_2	165	1	<?xml version="1.0"?>\n<Clock xmlns:dt="urn:schemas-microsoft-com:datatypes"><Description dt:dt="string">E-Prime Primary Realtime Clock</Description><StartTime><Timestamp dt:dt="int">0</Timestamp><DateUtc dt:dt="string">2016-08-16T16:09:35Z</DateUtc></StartTime><FrequencyChanges><FrequencyChange><Frequency dt:dt="r8">3507607</Frequency><Timestamp dt:dt="r8">305847762529</Timestamp><Current dt:dt="r8">0</Current><DateUtc dt:dt="string">2016-08-16T16:09:35Z</DateUtc></FrequencyChange></FrequencyChanges></Clock>\n	Hungry_Donkey_bar_English_2-165-1	60.016	-288	1.0.0.18	1	905774093	Standard	2.0.10.353	2.0.10.353	08-16-2016	8/16/2016 4:09:35 PM	12:09:35	2.0.10.248	104	Bar37-63.bmp	43	1	?	0r_4g.bmp	0r_4g.bmp	0r_2g.bmp	0r_2g.bmp	0r_4g.bmp				TrialProc	TrialList	0	cvbn	-999999	16	422146	0	c	1032	423178	316	-426	-110	-44	-126	32	28	9	11	104	0	0	0	0	4	4	2	2	0	4
Hungry_Donkey_bar_English_2	165	1	<?xml version="1.0"?>\n<Clock xmlns:dt="urn:schemas-microsoft-com:datatypes"><Description dt:dt="string">E-Prime Primary Realtime Clock</Description><StartTime><Timestamp dt:dt="int">0</Timestamp><DateUtc dt:dt="string">2016-08-16T16:09:35Z</DateUtc></StartTime><FrequencyChanges><FrequencyChange><Frequency dt:dt="r8">3507607</Frequency><Timestamp dt:dt="r8">305847762529</Timestamp><Current dt:dt="r8">0</Current><DateUtc dt:dt="string">2016-08-16T16:09:35Z</DateUtc></FrequencyChange></FrequencyChanges></Clock>\n	Hungry_Donkey_bar_English_2-165-1	60.016	-288	1.0.0.18	1	905774093	Standard	2.0.10.353	2.0.10.353	08-16-2016	8/16/2016 4:09:35 PM	12:09:35	2.0.10.248	105	Bar37-63.bmp	43	4	?	0r_4g.bmp	0r_4g.bmp	0r_2g.bmp	0r_2g.bmp				0r_2g.bmp	TrialProc	TrialList	0	cvbn	-999999	16	425212	0	n	734	425946	318	-426	-108	-44	-126	32	30	6	11	105	0	0	0	0	4	4	2	2	0	2
Hungry_Donkey_bar_English_2	165	1	<?xml version="1.0"?>\n<Clock xmlns:dt="urn:schemas-microsoft-com:datatypes"><Description dt:dt="string">E-Prime Primary Realtime Clock</Description><StartTime><Timestamp dt:dt="int">0</Timestamp><DateUtc dt:dt="string">2016-08-16T16:09:35Z</DateUtc></StartTime><FrequencyChanges><FrequencyChange><Frequency dt:dt="r8">3507607</Frequency><Timestamp dt:dt="r8">305847762529</Timestamp><Current dt:dt="r8">0</Current><DateUtc dt:dt="string">2016-08-16T16:09:35Z</DateUtc></FrequencyChange></FrequencyChanges></Clock>\n	Hungry_Donkey_bar_English_2-165-1	60.016	-288	1.0.0.18	1	905774093	Standard	2.0.10.353	2.0.10.353	08-16-2016	8/16/2016 4:09:35 PM	12:09:35	2.0.10.248	106	Bar37-63.bmp	42	1	?	10r_4g.bmp	0r_4g.bmp	2r_2g.bmp	0r_2g.bmp	10r_4g.bmp				TrialProc	TrialList	0	cvbn	-999999	16	427978	0	c	1888	429866	322	-436	-114	-50	-126	32	30	2	11	106	-10	0	-2	0	4	4	2	2	-10	4
Hungry_Donkey_bar_English_2	165	1	<?xml version="1.0"?>\n<Clock xmlns:dt="urn:schemas-microsoft-com:datatypes"><Description dt:dt="string">E-Prime Primary Realtime Clock</Description><StartTime><Timestamp dt:dt="int">0</Timestamp><DateUtc dt:dt="string">2016-08-16T16:09:35Z</DateUtc></StartTime><FrequencyChanges><FrequencyChange><Frequency dt:dt="r8">3507607</Frequency><Timestamp dt:dt="r8">305847762529</Timestamp><Current dt:dt="r8">0</Current><DateUtc dt:dt="string">2016-08-16T16:09:35Z</DateUtc></FrequencyChange></FrequencyChanges></Clock>\n	Hungry_Donkey_bar_English_2-165-1	60.016	-288	1.0.0.18	1	905774093	Standard	2.0.10.353	2.0.10.353	08-16-2016	8/16/2016 4:09:35 PM	12:09:35	2.0.10.248	107	Bar37-63.bmp	43	3	?	0r_4g.bmp	0r_4g.bmp	0r_2g.bmp	0r_2g.bmp			0r_2g.bmp		TrialProc	TrialList	0	cvbn	-999999	16	431893	0	b	453	432346	324	-436	-112	-50	-126	34	30	7	11	107	0	0	0	0	4	4	2	2	0	2
Hungry_Donkey_bar_English_2	165	1	<?xml version="1.0"?>\n<Clock xmlns:dt="urn:schemas-microsoft-com:datatypes"><Description dt:dt="string">E-Prime Primary Realtime Clock</Description><StartTime><Timestamp dt:dt="int">0</Timestamp><DateUtc dt:dt="string">2016-08-16T16:09:35Z</DateUtc></StartTime><FrequencyChanges><FrequencyChange><Frequency dt:dt="r8">3507607</Frequency><Timestamp dt:dt="r8">305847762529</Timestamp><Current dt:dt="r8">0</Current><DateUtc dt:dt="string">2016-08-16T16:09:35Z</DateUtc></FrequencyChange></FrequencyChanges></Clock>\n	Hungry_Donkey_bar_English_2-165-1	60.016	-288	1.0.0.18	1	905774093	Standard	2.0.10.353	2.0.10.353	08-16-2016	8/16/2016 4:09:35 PM	12:09:35	2.0.10.248	108	Bar37-63.bmp	40	2	?	8r_4g.bmp	50r_4g.bmp	1r_2g.bmp	10r_2g.bmp		50r_4g.bmp			TrialProc	TrialList	0	cvbn	-999999	16	434376	0	v	1250	435626	328	-486	-158	-50	-172	34	30	1	11	108	-8	-50	-1	-10	4	4	2	2	-50	4
Hungry_Donkey_bar_English_2	165	1	<?xml version="1.0"?>\n<Clock xmlns:dt="urn:schemas-microsoft-com:datatypes"><Description dt:dt="string">E-Prime Primary Realtime Clock</Description><StartTime><Timestamp dt:dt="int">0</Timestamp><DateUtc dt:dt="string">2016-08-16T16:09:35Z</DateUtc></StartTime><FrequencyChanges><FrequencyChange><Frequency dt:dt="r8">3507607</Frequency><Timestamp dt:dt="r8">305847762529</Timestamp><Current dt:dt="r8">0</Current><DateUtc dt:dt="string">2016-08-16T16:09:35Z</DateUtc></FrequencyChange></FrequencyChanges></Clock>\n	Hungry_Donkey_bar_English_2-165-1	60.016	-288	1.0.0.18	1	905774093	Standard	2.0.10.353	2.0.10.353	08-16-2016	8/16/2016 4:09:35 PM	12:09:35	2.0.10.248	109	Bar37-63.bmp	40	4	?	0r_4g.bmp	0r_4g.bmp	0r_2g.bmp	0r_2g.bmp				0r_2g.bmp	TrialProc	TrialList	0	cvbn	-999999	16	437658	0	n	512	438170	330	-486	-156	-50	-172	34	32	8	11	109	0	0	0	0	4	4	2	2	0	2
Hungry_Donkey_bar_English_2	165	1	<?xml version="1.0"?>\n<Clock xmlns:dt="urn:schemas-microsoft-com:datatypes"><Description dt:dt="string">E-Prime Primary Realtime Clock</Description><StartTime><Timestamp dt:dt="int">0</Timestamp><DateUtc dt:dt="string">2016-08-16T16:09:35Z</DateUtc></StartTime><FrequencyChanges><FrequencyChange><Frequency dt:dt="r8">3507607</Frequency><Timestamp dt:dt="r8">305847762529</Timestamp><Current dt:dt="r8">0</Current><DateUtc dt:dt="string">2016-08-16T16:09:35Z</DateUtc></FrequencyChange></FrequencyChanges></Clock>\n	Hungry_Donkey_bar_English_2-165-1	60.016	-288	1.0.0.18	1	905774093	Standard	2.0.10.353	2.0.10.353	08-16-2016	8/16/2016 4:09:35 PM	12:09:35	2.0.10.248	110	Bar37-63.bmp	41	2	?	0r_4g.bmp	0r_4g.bmp	0r_2g.bmp	0r_2g.bmp		0r_4g.bmp			TrialProc	TrialList	0	cvbn	-999999	16	440208	0	v	1354	441562	334	-486	-152	-50	-168	34	32	10	11	110	0	0	0	0	4	4	2	2	0	4
