ExperimentName	Subject	Session	Clock.Information	DataFile.Basename	Display.RefreshRate	Eindtotaal[Session]	ExperimentVersion	Group	RandomSeed	RuntimeCapabilities	RuntimeVersion	RuntimeVersionExpected	SessionDate	SessionStartDateTimeUtc	SessionTime	StudioVersion	Block	BarImage	BarTotalWinst	DoorChoice	Eindtotaal[Block]	FBDoor1	FBDoor2	FBDoor3	FBDoor4	Image1	Image2	Image3	Image4	Procedure	Running	spel.ACC	spel.CRESP	spel.DurationError	spel.OnsetDelay	spel.OnsetTime	spel.OnsetToOnsetTime	spel.RESP	spel.RT	spel.RTTime	TotalGain	TotalLose	Totalsum	TotalsumD1	TotalsumD2	TotalsumD3	TotalsumD4	TrialList	TrialList.Cycle	TrialList.Sample	varV1	varV2	varV3	varV4	varW1	varW2	varW3	varW4	Verliesbedrag	Winstbedrag
Hungry_Donkey_bar_English_2	108	3	<?xml version="1.0"?>\n<Clock xmlns:dt="urn:schemas-microsoft-com:datatypes"><Description dt:dt="string">E-Prime Primary Realtime Clock</Description><StartTime><Timestamp dt:dt="int">0</Timestamp><DateUtc dt:dt="string">2015-06-09T20:02:04Z</DateUtc></StartTime><FrequencyChanges><FrequencyChange><Frequency dt:dt="r8">3507675</Frequency><Timestamp dt:dt="r8">33689281945</Timestamp><Current dt:dt="r8">0</Current><DateUtc dt:dt="string">2015-06-09T20:02:04Z</DateUtc></FrequencyChange></FrequencyChanges></Clock>\n	Hungry_Donkey_bar_English_2-108-3	60.017	-77	1.0.0.18	1	-669786048	Standard	2.0.10.353	2.0.10.353	06-09-2015	6/9/2015 8:02:05 PM	16:02:05	2.0.10.248	1	Bar13-87.bmp	7	2	?	8r_4g.bmp	50r_4g.bmp	1r_2g.bmp	10r_2g.bmp		50r_4g.bmp			TrialProc	TrialList	0	cvbn	-999999	29	58644	0	v	2915	61559	4	-50	-46	0	-46	0	0	1	1	1	-8	-50	-1	-10	4	4	2	2	-50	4
Hungry_Donkey_bar_English_2	108	3	<?xml version="1.0"?>\n<Clock xmlns:dt="urn:schemas-microsoft-com:datatypes"><Description dt:dt="string">E-Prime Primary Realtime Clock</Description><StartTime><Timestamp dt:dt="int">0</Timestamp><DateUtc dt:dt="string">2015-06-09T20:02:04Z</DateUtc></StartTime><FrequencyChanges><FrequencyChange><Frequency dt:dt="r8">3507675</Frequency><Timestamp dt:dt="r8">33689281945</Timestamp><Current dt:dt="r8">0</Current><DateUtc dt:dt="string">2015-06-09T20:02:04Z</DateUtc></FrequencyChange></FrequencyChanges></Clock>\n	Hungry_Donkey_bar_English_2-108-3	60.017	-77	1.0.0.18	1	-669786048	Standard	2.0.10.353	2.0.10.353	06-09-2015	6/9/2015 8:02:05 PM	16:02:05	2.0.10.248	2	Bar13-87.bmp	10	3	?	12r_4g.bmp	0r_4g.bmp	3r_2g.bmp	0r_2g.bmp			3r_2g.bmp		TrialProc	TrialList	0	cvbn	-999999	16	63592	0	b	1534	65126	6	-53	-47	0	-46	-1	0	5	1	2	-12	0	-3	0	4	4	2	2	-3	2
Hungry_Donkey_bar_English_2	108	3	<?xml version="1.0"?>\n<Clock xmlns:dt="urn:schemas-microsoft-com:datatypes"><Description dt:dt="string">E-Prime Primary Realtime Clock</Description><StartTime><Timestamp dt:dt="int">0</Timestamp><DateUtc dt:dt="string">2015-06-09T20:02:04Z</DateUtc></StartTime><FrequencyChanges><FrequencyChange><Frequency dt:dt="r8">3507675</Frequency><Timestamp dt:dt="r8">33689281945</Timestamp><Current dt:dt="r8">0</Current><DateUtc dt:dt="string">2015-06-09T20:02:04Z</DateUtc></FrequencyChange></FrequencyChanges></Clock>\n	Hungry_Donkey_bar_English_2-108-3	60.017	-77	1.0.0.18	1	-669786048	Standard	2.0.10.353	2.0.10.353	06-09-2015	6/9/2015 8:02:05 PM	16:02:05	2.0.10.248	3	Bar13-87.bmp	16	1	?	0r_4g.bmp	0r_4g.bmp	0r_2g.bmp	0r_2g.bmp	0r_4g.bmp				TrialProc	TrialList	0	cvbn	-999999	16	67158	0	c	1072	68230	10	-53	-43	4	-46	-1	0	10	1	3	0	0	0	0	4	4	2	2	0	4
Hungry_Donkey_bar_English_2	108	3	<?xml version="1.0"?>\n<Clock xmlns:dt="urn:schemas-microsoft-com:datatypes"><Description dt:dt="string">E-Prime Primary Realtime Clock</Description><StartTime><Timestamp dt:dt="int">0</Timestamp><DateUtc dt:dt="string">2015-06-09T20:02:04Z</DateUtc></StartTime><FrequencyChanges><FrequencyChange><Frequency dt:dt="r8">3507675</Frequency><Timestamp dt:dt="r8">33689281945</Timestamp><Current dt:dt="r8">0</Current><DateUtc dt:dt="string">2015-06-09T20:02:04Z</DateUtc></FrequencyChange></FrequencyChanges></Clock>\n	Hungry_Donkey_bar_English_2-108-3	60.017	-77	1.0.0.18	1	-669786048	Standard	2.0.10.353	2.0.10.353	06-09-2015	6/9/2015 8:02:05 PM	16:02:05	2.0.10.248	4	Bar13-87.bmp	18	3	?	0r_4g.bmp	0r_4g.bmp	0r_2g.bmp	0r_2g.bmp			0r_2g.bmp		TrialProc	TrialList	0	cvbn	-999999	16	70257	0	b	981	71238	12	-53	-41	4	-46	1	0	9	1	4	0	0	0	0	4	4	2	2	0	2
Hungry_Donkey_bar_English_2	108	3	<?xml version="1.0"?>\n<Clock xmlns:dt="urn:schemas-microsoft-com:datatypes"><Description dt:dt="string">E-Prime Primary Realtime Clock</Description><StartTime><Timestamp dt:dt="int">0</Timestamp><DateUtc dt:dt="string">2015-06-09T20:02:04Z</DateUtc></StartTime><FrequencyChanges><FrequencyChange><Frequency dt:dt="r8">3507675</Frequency><Timestamp dt:dt="r8">33689281945</Timestamp><Current dt:dt="r8">0</Current><DateUtc dt:dt="string">2015-06-09T20:02:04Z</DateUtc></FrequencyChange></FrequencyChanges></Clock>\n	Hungry_Donkey_bar_English_2-108-3	60.017	-77	1.0.0.18	1	-669786048	Standard	2.0.10.353	2.0.10.353	06-09-2015	6/9/2015 8:02:05 PM	16:02:05	2.0.10.248	5	Bar25-75.bmp	21	4	?	10r_4g.bmp	0r_4g.bmp	2r_2g.bmp	0r_2g.bmp				0r_2g.bmp	TrialProc	TrialList	0	cvbn	-999999	16	73273	0	n	1181	74454	14	-53	-39	4	-46	1	2	2	1	5	-10	0	-2	0	4	4	2	2	0	2
Hungry_Donkey_bar_English_2	108	3	<?xml version="1.0"?>\n<Clock xmlns:dt="urn:schemas-microsoft-com:datatypes"><Description dt:dt="string">E-Prime Primary Realtime Clock</Description><StartTime><Timestamp dt:dt="int">0</Timestamp><DateUtc dt:dt="string">2015-06-09T20:02:04Z</DateUtc></StartTime><FrequencyChanges><FrequencyChange><Frequency dt:dt="r8">3507675</Frequency><Timestamp dt:dt="r8">33689281945</Timestamp><Current dt:dt="r8">0</Current><DateUtc dt:dt="string">2015-06-09T20:02:04Z</DateUtc></FrequencyChange></FrequencyChanges></Clock>\n	Hungry_Donkey_bar_English_2-108-3	60.017	-77	1.0.0.18	1	-669786048	Standard	2.0.10.353	2.0.10.353	06-09-2015	6/9/2015 8:02:05 PM	16:02:05	2.0.10.248	6	Bar25-75.bmp	23	3	?	10r_4g.bmp	0r_4g.bmp	2r_2g.bmp	0r_2g.bmp			2r_2g.bmp		TrialProc	TrialList	0	cvbn	-999999	16	76489	0	b	637	77126	16	-55	-39	4	-46	1	2	4	1	6	-10	0	-2	0	4	4	2	2	-2	2
Hungry_Donkey_bar_English_2	108	3	<?xml version="1.0"?>\n<Clock xmlns:dt="urn:schemas-microsoft-com:datatypes"><Description dt:dt="string">E-Prime Primary Realtime Clock</Description><StartTime><Timestamp dt:dt="int">0</Timestamp><DateUtc dt:dt="string">2015-06-09T20:02:04Z</DateUtc></StartTime><FrequencyChanges><FrequencyChange><Frequency dt:dt="r8">3507675</Frequency><Timestamp dt:dt="r8">33689281945</Timestamp><Current dt:dt="r8">0</Current><DateUtc dt:dt="string">2015-06-09T20:02:04Z</DateUtc></FrequencyChange></FrequencyChanges></Clock>\n	Hungry_Donkey_bar_English_2-108-3	60.017	-77	1.0.0.18	1	-669786048	Standard	2.0.10.353	2.0.10.353	06-09-2015	6/9/2015 8:02:05 PM	16:02:05	2.0.10.248	7	Bar25-75.bmp	27	2	?	0r_4g.bmp	0r_4g.bmp	0r_2g.bmp	0r_2g.bmp		0r_4g.bmp			TrialProc	TrialList	0	cvbn	-999999	16	79155	0	v	419	79574	20	-55	-35	4	-42	1	2	8	1	7	0	0	0	0	4	4	2	2	0	4
Hungry_Donkey_bar_English_2	108	3	<?xml version="1.0"?>\n<Clock xmlns:dt="urn:schemas-microsoft-com:datatypes"><Description dt:dt="string">E-Prime Primary Realtime Clock</Description><StartTime><Timestamp dt:dt="int">0</Timestamp><DateUtc dt:dt="string">2015-06-09T20:02:04Z</DateUtc></StartTime><FrequencyChanges><FrequencyChange><Frequency dt:dt="r8">3507675</Frequency><Timestamp dt:dt="r8">33689281945</Timestamp><Current dt:dt="r8">0</Current><DateUtc dt:dt="string">2015-06-09T20:02:04Z</DateUtc></FrequencyChange></FrequencyChanges></Clock>\n	Hungry_Donkey_bar_English_2-108-3	60.017	-77	1.0.0.18	1	-669786048	Standard	2.0.10.353	2.0.10.353	06-09-2015	6/9/2015 8:02:05 PM	16:02:05	2.0.10.248	8	Bar25-75.bmp	30	1	?	0r_4g.bmp	0r_4g.bmp	0r_2g.bmp	0r_2g.bmp	0r_4g.bmp				TrialProc	TrialList	0	cvbn	-999999	16	81604	0	c	706	82310	24	-55	-31	8	-42	1	2	7	1	8	0	0	0	0	4	4	2	2	0	4
Hungry_Donkey_bar_English_2	108	3	<?xml version="1.0"?>\n<Clock xmlns:dt="urn:schemas-microsoft-com:datatypes"><Description dt:dt="string">E-Prime Primary Realtime Clock</Description><StartTime><Timestamp dt:dt="int">0</Timestamp><DateUtc dt:dt="string">2015-06-09T20:02:04Z</DateUtc></StartTime><FrequencyChanges><FrequencyChange><Frequency dt:dt="r8">3507675</Frequency><Timestamp dt:dt="r8">33689281945</Timestamp><Current dt:dt="r8">0</Current><DateUtc dt:dt="string">2015-06-09T20:02:04Z</DateUtc></FrequencyChange></FrequencyChanges></Clock>\n	Hungry_Donkey_bar_English_2-108-3	60.017	-77	1.0.0.18	1	-669786048	Standard	2.0.10.353	2.0.10.353	06-09-2015	6/9/2015 8:02:05 PM	16:02:05	2.0.10.248	9	Bar37-63.bmp	32	4	?	10r_4g.bmp	0r_4g.bmp	2r_2g.bmp	0r_2g.bmp				0r_2g.bmp	TrialProc	TrialList	0	cvbn	-999999	16	84353	0	n	180	84533	26	-55	-29	8	-42	1	4	3	1	9	-10	0	-2	0	4	4	2	2	0	2
Hungry_Donkey_bar_English_2	108	3	<?xml version="1.0"?>\n<Clock xmlns:dt="urn:schemas-microsoft-com:datatypes"><Description dt:dt="string">E-Prime Primary Realtime Clock</Description><StartTime><Timestamp dt:dt="int">0</Timestamp><DateUtc dt:dt="string">2015-06-09T20:02:04Z</DateUtc></StartTime><FrequencyChanges><FrequencyChange><Frequency dt:dt="r8">3507675</Frequency><Timestamp dt:dt="r8">33689281945</Timestamp><Current dt:dt="r8">0</Current><DateUtc dt:dt="string">2015-06-09T20:02:04Z</DateUtc></FrequencyChange></FrequencyChanges></Clock>\n	Hungry_Donkey_bar_English_2-108-3	60.017	-77	1.0.0.18	1	-669786048	Standard	2.0.10.353	2.0.10.353	06-09-2015	6/9/2015 8:02:05 PM	16:02:05	2.0.10.248	10	Bar37-63.bmp	34	3	?	0r_4g.bmp	0r_4g.bmp	0r_2g.bmp	0r_2g.bmp			0r_2g.bmp		TrialProc	TrialList	0	cvbn	-999999	16	86569	0	b	620	87189	28	-55	-27	8	-42	3	4	6	1	10	0	0	0	0	4	4	2	2	0	2
Hungry_Donkey_bar_English_2	108	3	<?xml version="1.0"?>\n<Clock xmlns:dt="urn:schemas-microsoft-com:datatypes"><Description dt:dt="string">E-Prime Primary Realtime Clock</Description><StartTime><Timestamp dt:dt="int">0</Timestamp><DateUtc dt:dt="string">2015-06-09T20:02:04Z</DateUtc></StartTime><FrequencyChanges><FrequencyChange><Frequency dt:dt="r8">3507675</Frequency><Timestamp dt:dt="r8">33689281945</Timestamp><Current dt:dt="r8">0</Current><DateUtc dt:dt="string">2015-06-09T20:02:04Z</DateUtc></FrequencyChange></FrequencyChanges></Clock>\n	Hungry_Donkey_bar_English_2-108-3	60.017	-77	1.0.0.18	1	-669786048	Standard	2.0.10.353	2.0.10.353	06-09-2015	6/9/2015 8:02:05 PM	16:02:05	2.0.10.248	11	Bar37-63.bmp	37	2	?	10r_4g.bmp	0r_4g.bmp	2r_2g.bmp	0r_2g.bmp		0r_4g.bmp			TrialProc	TrialList	0	cvbn	-999999	16	89218	0	v	403	89621	32	-55	-23	8	-38	3	4	3	2	11	-10	0	-2	0	4	4	2	2	0	4
Hungry_Donkey_bar_English_2	108	3	<?xml version="1.0"?>\n<Clock xmlns:dt="urn:schemas-microsoft-com:datatypes"><Description dt:dt="string">E-Prime Primary Realtime Clock</Description><StartTime><Timestamp dt:dt="int">0</Timestamp><DateUtc dt:dt="string">2015-06-09T20:02:04Z</DateUtc></StartTime><FrequencyChanges><FrequencyChange><Frequency dt:dt="r8">3507675</Frequency><Timestamp dt:dt="r8">33689281945</Timestamp><Current dt:dt="r8">0</Current><DateUtc dt:dt="string">2015-06-09T20:02:04Z</DateUtc></FrequencyChange></FrequencyChanges></Clock>\n	Hungry_Donkey_bar_English_2-108-3	60.017	-77	1.0.0.18	1	-669786048	Standard	2.0.10.353	2.0.10.353	06-09-2015	6/9/2015 8:02:05 PM	16:02:05	2.0.10.248	12	Bar37-63.bmp	40	2	?	12r_4g.bmp	0r_4g.bmp	3r_2g.bmp	0r_2g.bmp		0r_4g.bmp			TrialProc	TrialList	0	cvbn	-999999	16	91651	0	v	226	91877	36	-55	-19	8	-34	3	4	5	2	12	-12	0	-3	0	4	4	2	2	0	4
Hungry_Donkey_bar_English_2	108	3	<?xml version="1.0"?>\n<Clock xmlns:dt="urn:schemas-microsoft-com:datatypes"><Description dt:dt="string">E-Prime Primary Realtime Clock</Description><StartTime><Timestamp dt:dt="int">0</Timestamp><DateUtc dt:dt="string">2015-06-09T20:02:04Z</DateUtc></StartTime><FrequencyChanges><FrequencyChange><Frequency dt:dt="r8">3507675</Frequency><Timestamp dt:dt="r8">33689281945</Timestamp><Current dt:dt="r8">0</Current><DateUtc dt:dt="string">2015-06-09T20:02:04Z</DateUtc></FrequencyChange></FrequencyChanges></Clock>\n	Hungry_Donkey_bar_English_2-108-3	60.017	-77	1.0.0.18	1	-669786048	Standard	2.0.10.353	2.0.10.353	06-09-2015	6/9/2015 8:02:05 PM	16:02:05	2.0.10.248	13	Bar37-63.bmp	41	3	?	0r_4g.bmp	0r_4g.bmp	0r_2g.bmp	0r_2g.bmp			0r_2g.bmp		TrialProc	TrialList	0	cvbn	-999999	16	93900	0	b	473	94373	38	-55	-17	8	-34	5	4	10	2	13	0	0	0	0	4	4	2	2	0	2
Hungry_Donkey_bar_English_2	108	3	<?xml version="1.0"?>\n<Clock xmlns:dt="urn:schemas-microsoft-com:datatypes"><Description dt:dt="string">E-Prime Primary Realtime Clock</Description><StartTime><Timestamp dt:dt="int">0</Timestamp><DateUtc dt:dt="string">2015-06-09T20:02:04Z</DateUtc></StartTime><FrequencyChanges><FrequencyChange><Frequency dt:dt="r8">3507675</Frequency><Timestamp dt:dt="r8">33689281945</Timestamp><Current dt:dt="r8">0</Current><DateUtc dt:dt="string">2015-06-09T20:02:04Z</DateUtc></FrequencyChange></FrequencyChanges></Clock>\n	Hungry_Donkey_bar_English_2-108-3	60.017	-77	1.0.0.18	1	-669786048	Standard	2.0.10.353	2.0.10.353	06-09-2015	6/9/2015 8:02:05 PM	16:02:05	2.0.10.248	14	Bar37-63.bmp	42	4	?	0r_4g.bmp	0r_4g.bmp	0r_2g.bmp	0r_2g.bmp				0r_2g.bmp	TrialProc	TrialList	0	cvbn	-999999	16	96400	0	n	565	96965	40	-55	-15	8	-34	5	6	9	2	14	0	0	0	0	4	4	2	2	0	2
Hungry_Donkey_bar_English_2	108	3	<?xml version="1.0"?>\n<Clock xmlns:dt="urn:schemas-microsoft-com:datatypes"><Description dt:dt="string">E-Prime Primary Realtime Clock</Description><StartTime><Timestamp dt:dt="int">0</Timestamp><DateUtc dt:dt="string">2015-06-09T20:02:04Z</DateUtc></StartTime><FrequencyChanges><FrequencyChange><Frequency dt:dt="r8">3507675</Frequency><Timestamp dt:dt="r8">33689281945</Timestamp><Current dt:dt="r8">0</Current><DateUtc dt:dt="string">2015-06-09T20:02:04Z</DateUtc></FrequencyChange></FrequencyChanges></Clock>\n	Hungry_Donkey_bar_English_2-108-3	60.017	-77	1.0.0.18	1	-669786048	Standard	2.0.10.353	2.0.10.353	06-09-2015	6/9/2015 8:02:05 PM	16:02:05	2.0.10.248	15	Bar50-50.bmp	44	2	?	0r_4g.bmp	0r_4g.bmp	0r_2g.bmp	0r_2g.bmp		0r_4g.bmp			TrialProc	TrialList	0	cvbn	-999999	16	98999	0	v	494	99493	44	-55	-11	8	-30	5	6	6	2	15	0	0	0	0	4	4	2	2	0	4
Hungry_Donkey_bar_English_2	108	3	<?xml version="1.0"?>\n<Clock xmlns:dt="urn:schemas-microsoft-com:datatypes"><Description dt:dt="string">E-Prime Primary Realtime Clock</Description><StartTime><Timestamp dt:dt="int">0</Timestamp><DateUtc dt:dt="string">2015-06-09T20:02:04Z</DateUtc></StartTime><FrequencyChanges><FrequencyChange><Frequency dt:dt="r8">3507675</Frequency><Timestamp dt:dt="r8">33689281945</Timestamp><Current dt:dt="r8">0</Current><DateUtc dt:dt="string">2015-06-09T20:02:04Z</DateUtc></FrequencyChange></FrequencyChanges></Clock>\n	Hungry_Donkey_bar_English_2-108-3	60.017	-77	1.0.0.18	1	-669786048	Standard	2.0.10.353	2.0.10.353	06-09-2015	6/9/2015 8:02:05 PM	16:02:05	2.0.10.248	16	Bar37-63.bmp	43	1	?	8r_4g.bmp	50r_4g.bmp	1r_2g.bmp	10r_2g.bmp	8r_4g.bmp				TrialProc	TrialList	0	cvbn	-999999	16	101532	0	c	313	101845	48	-63	-15	4	-30	5	6	1	2	16	-8	-50	-1	-10	4	4	2	2	-8	4
Hungry_Donkey_bar_English_2	108	3	<?xml version="1.0"?>\n<Clock xmlns:dt="urn:schemas-microsoft-com:datatypes"><Description dt:dt="string">E-Prime Primary Realtime Clock</Description><StartTime><Timestamp dt:dt="int">0</Timestamp><DateUtc dt:dt="string">2015-06-09T20:02:04Z</DateUtc></StartTime><FrequencyChanges><FrequencyChange><Frequency dt:dt="r8">3507675</Frequency><Timestamp dt:dt="r8">33689281945</Timestamp><Current dt:dt="r8">0</Current><DateUtc dt:dt="string">2015-06-09T20:02:04Z</DateUtc></FrequencyChange></FrequencyChanges></Clock>\n	Hungry_Donkey_bar_English_2-108-3	60.017	-77	1.0.0.18	1	-669786048	Standard	2.0.10.353	2.0.10.353	06-09-2015	6/9/2015 8:02:05 PM	16:02:05	2.0.10.248	17	Bar50-50.bmp	44	4	?	0r_4g.bmp	0r_4g.bmp	0r_2g.bmp	0r_2g.bmp				0r_2g.bmp	TrialProc	TrialList	0	cvbn	-999999	16	103881	0	n	971	104852	50	-63	-13	4	-30	5	8	7	2	17	0	0	0	0	4	4	2	2	0	2
Hungry_Donkey_bar_English_2	108	3	<?xml version="1.0"?>\n<Clock xmlns:dt="urn:schemas-microsoft-com:datatypes"><Description dt:dt="string">E-Prime Primary Realtime Clock</Description><StartTime><Timestamp dt:dt="int">0</Timestamp><DateUtc dt:dt="string">2015-06-09T20:02:04Z</DateUtc></StartTime><FrequencyChanges><FrequencyChange><Frequency dt:dt="r8">3507675</Frequency><Timestamp dt:dt="r8">33689281945</Timestamp><Current dt:dt="r8">0</Current><DateUtc dt:dt="string">2015-06-09T20:02:04Z</DateUtc></FrequencyChange></FrequencyChanges></Clock>\n	Hungry_Donkey_bar_English_2-108-3	60.017	-77	1.0.0.18	1	-669786048	Standard	2.0.10.353	2.0.10.353	06-09-2015	6/9/2015 8:02:05 PM	16:02:05	2.0.10.248	18	Bar50-50.bmp	45	3	?	0r_4g.bmp	0r_4g.bmp	0r_2g.bmp	0r_2g.bmp			0r_2g.bmp		TrialProc	TrialList	0	cvbn	-999999	16	106880	0	b	420	107300	52	-63	-11	4	-30	7	8	8	2	18	0	0	0	0	4	4	2	2	0	2
Hungry_Donkey_bar_English_2	108	3	<?xml version="1.0"?>\n<Clock xmlns:dt="urn:schemas-microsoft-com:datatypes"><Description dt:dt="string">E-Prime Primary Realtime Clock</Description><StartTime><Timestamp dt:dt="int">0</Timestamp><DateUtc dt:dt="string">2015-06-09T20:02:04Z</DateUtc></StartTime><FrequencyChanges><FrequencyChange><Frequency dt:dt="r8">3507675</Frequency><Timestamp dt:dt="r8">33689281945</Timestamp><Current dt:dt="r8">0</Current><DateUtc dt:dt="string">2015-06-09T20:02:04Z</DateUtc></FrequencyChange></FrequencyChanges></Clock>\n	Hungry_Donkey_bar_English_2-108-3	60.017	-77	1.0.0.18	1	-669786048	Standard	2.0.10.353	2.0.10.353	06-09-2015	6/9/2015 8:02:05 PM	16:02:05	2.0.10.248	19	Bar50-50.bmp	47	2	?	10r_4g.bmp	0r_4g.bmp	2r_2g.bmp	0r_2g.bmp		0r_4g.bmp			TrialProc	TrialList	0	cvbn	-999999	16	109329	0	v	739	110068	56	-63	-7	4	-26	7	8	4	2	19	-10	0	-2	0	4	4	2	2	0	4
Hungry_Donkey_bar_English_2	108	3	<?xml version="1.0"?>\n<Clock xmlns:dt="urn:schemas-microsoft-com:datatypes"><Description dt:dt="string">E-Prime Primary Realtime Clock</Description><StartTime><Timestamp dt:dt="int">0</Timestamp><DateUtc dt:dt="string">2015-06-09T20:02:04Z</DateUtc></StartTime><FrequencyChanges><FrequencyChange><Frequency dt:dt="r8">3507675</Frequency><Timestamp dt:dt="r8">33689281945</Timestamp><Current dt:dt="r8">0</Current><DateUtc dt:dt="string">2015-06-09T20:02:04Z</DateUtc></FrequencyChange></FrequencyChanges></Clock>\n	Hungry_Donkey_bar_English_2-108-3	60.017	-77	1.0.0.18	1	-669786048	Standard	2.0.10.353	2.0.10.353	06-09-2015	6/9/2015 8:02:05 PM	16:02:05	2.0.10.248	20	Bar50-50.bmp	48	4	?	10r_4g.bmp	0r_4g.bmp	2r_2g.bmp	0r_2g.bmp				0r_2g.bmp	TrialProc	TrialList	0	cvbn	-999999	16	112095	0	n	693	112788	58	-63	-5	4	-26	7	10	2	2	20	-10	0	-2	0	4	4	2	2	0	2
Hungry_Donkey_bar_English_2	108	3	<?xml version="1.0"?>\n<Clock xmlns:dt="urn:schemas-microsoft-com:datatypes"><Description dt:dt="string">E-Prime Primary Realtime Clock</Description><StartTime><Timestamp dt:dt="int">0</Timestamp><DateUtc dt:dt="string">2015-06-09T20:02:04Z</DateUtc></StartTime><FrequencyChanges><FrequencyChange><Frequency dt:dt="r8">3507675</Frequency><Timestamp dt:dt="r8">33689281945</Timestamp><Current dt:dt="r8">0</Current><DateUtc dt:dt="string">2015-06-09T20:02:04Z</DateUtc></FrequencyChange></FrequencyChanges></Clock>\n	Hungry_Donkey_bar_English_2-108-3	60.017	-77	1.0.0.18	1	-669786048	Standard	2.0.10.353	2.0.10.353	06-09-2015	6/9/2015 8:02:05 PM	16:02:05	2.0.10.248	21	Bar50-50.bmp	48	3	?	10r_4g.bmp	0r_4g.bmp	2r_2g.bmp	0r_2g.bmp			2r_2g.bmp		TrialProc	TrialList	0	cvbn	-999999	16	114811	0	b	521	115332	60	-65	-5	4	-26	7	10	4	3	21	-10	0	-2	0	4	4	2	2	-2	2
Hungry_Donkey_bar_English_2	108	3	<?xml version="1.0"?>\n<Clock xmlns:dt="urn:schemas-microsoft-com:datatypes"><Description dt:dt="string">E-Prime Primary Realtime Clock</Description><StartTime><Timestamp dt:dt="int">0</Timestamp><DateUtc dt:dt="string">2015-06-09T20:02:04Z</DateUtc></StartTime><FrequencyChanges><FrequencyChange><Frequency dt:dt="r8">3507675</Frequency><Timestamp dt:dt="r8">33689281945</Timestamp><Current dt:dt="r8">0</Current><DateUtc dt:dt="string">2015-06-09T20:02:04Z</DateUtc></FrequencyChange></FrequencyChanges></Clock>\n	Hungry_Donkey_bar_English_2-108-3	60.017	-77	1.0.0.18	1	-669786048	Standard	2.0.10.353	2.0.10.353	06-09-2015	6/9/2015 8:02:05 PM	16:02:05	2.0.10.248	22	Bar50-50.bmp	50	2	?	10r_4g.bmp	0r_4g.bmp	2r_2g.bmp	0r_2g.bmp		0r_4g.bmp			TrialProc	TrialList	0	cvbn	-999999	16	117360	0	v	404	117764	64	-65	-1	4	-22	7	10	3	3	22	-10	0	-2	0	4	4	2	2	0	4
Hungry_Donkey_bar_English_2	108	3	<?xml version="1.0"?>\n<Clock xmlns:dt="urn:schemas-microsoft-com:datatypes"><Description dt:dt="string">E-Prime Primary Realtime Clock</Description><StartTime><Timestamp dt:dt="int">0</Timestamp><DateUtc dt:dt="string">2015-06-09T20:02:04Z</DateUtc></StartTime><FrequencyChanges><FrequencyChange><Frequency dt:dt="r8">3507675</Frequency><Timestamp dt:dt="r8">33689281945</Timestamp><Current dt:dt="r8">0</Current><DateUtc dt:dt="string">2015-06-09T20:02:04Z</DateUtc></FrequencyChange></FrequencyChanges></Clock>\n	Hungry_Donkey_bar_English_2-108-3	60.017	-77	1.0.0.18	1	-669786048	Standard	2.0.10.353	2.0.10.353	06-09-2015	6/9/2015 8:02:05 PM	16:02:05	2.0.10.248	23	Bar50-50.bmp	48	1	?	8r_4g.bmp	50r_4g.bmp	1r_2g.bmp	10r_2g.bmp	8r_4g.bmp				TrialProc	TrialList	0	cvbn	-999999	16	119793	0	c	499	120292	68	-73	-5	0	-22	7	10	1	3	23	-8	-50	-1	-10	4	4	2	2	-8	4
Hungry_Donkey_bar_English_2	108	3	<?xml version="1.0"?>\n<Clock xmlns:dt="urn:schemas-microsoft-com:datatypes"><Description dt:dt="string">E-Prime Primary Realtime Clock</Description><StartTime><Timestamp dt:dt="int">0</Timestamp><DateUtc dt:dt="string">2015-06-09T20:02:04Z</DateUtc></StartTime><FrequencyChanges><FrequencyChange><Frequency dt:dt="r8">3507675</Frequency><Timestamp dt:dt="r8">33689281945</Timestamp><Current dt:dt="r8">0</Current><DateUtc dt:dt="string">2015-06-09T20:02:04Z</DateUtc></FrequencyChange></FrequencyChanges></Clock>\n	Hungry_Donkey_bar_English_2-108-3	60.017	-77	1.0.0.18	1	-669786048	Standard	2.0.10.353	2.0.10.353	06-09-2015	6/9/2015 8:02:05 PM	16:02:05	2.0.10.248	24	Bar50-50.bmp	49	4	?	0r_4g.bmp	0r_4g.bmp	0r_2g.bmp	0r_2g.bmp				0r_2g.bmp	TrialProc	TrialList	0	cvbn	-999999	16	122326	0	n	1262	123588	70	-73	-3	0	-22	7	12	10	3	24	0	0	0	0	4	4	2	2	0	2
Hungry_Donkey_bar_English_2	108	3	<?xml version="1.0"?>\n<Clock xmlns:dt="urn:schemas-microsoft-com:datatypes"><Description dt:dt="string">E-Prime Primary Realtime Clock</Description><StartTime><Timestamp dt:dt="int">0</Timestamp><DateUtc dt:dt="string">2015-06-09T20:02:04Z</DateUtc></StartTime><FrequencyChanges><FrequencyChange><Frequency dt:dt="r8">3507675</Frequency><Timestamp dt:dt="r8">33689281945</Timestamp><Current dt:dt="r8">0</Current><DateUtc dt:dt="string">2015-06-09T20:02:04Z</DateUtc></FrequencyChange></FrequencyChanges></Clock>\n	Hungry_Donkey_bar_English_2-108-3	60.017	-77	1.0.0.18	1	-669786048	Standard	2.0.10.353	2.0.10.353	06-09-2015	6/9/2015 8:02:05 PM	16:02:05	2.0.10.248	25	Bar50-50.bmp	49	3	?	10r_4g.bmp	0r_4g.bmp	2r_2g.bmp	0r_2g.bmp			2r_2g.bmp		TrialProc	TrialList	0	cvbn	-999999	16	125625	0	b	1786	127411	72	-75	-3	0	-22	7	12	2	3	25	-10	0	-2	0	4	4	2	2	-2	2
Hungry_Donkey_bar_English_2	108	3	<?xml version="1.0"?>\n<Clock xmlns:dt="urn:schemas-microsoft-com:datatypes"><Description dt:dt="string">E-Prime Primary Realtime Clock</Description><StartTime><Timestamp dt:dt="int">0</Timestamp><DateUtc dt:dt="string">2015-06-09T20:02:04Z</DateUtc></StartTime><FrequencyChanges><FrequencyChange><Frequency dt:dt="r8">3507675</Frequency><Timestamp dt:dt="r8">33689281945</Timestamp><Current dt:dt="r8">0</Current><DateUtc dt:dt="string">2015-06-09T20:02:04Z</DateUtc></FrequencyChange></FrequencyChanges></Clock>\n	Hungry_Donkey_bar_English_2-108-3	60.017	-77	1.0.0.18	1	-669786048	Standard	2.0.10.353	2.0.10.353	06-09-2015	6/9/2015 8:02:05 PM	16:02:05	2.0.10.248	26	Bar50-50.bmp	50	2	?	12r_4g.bmp	0r_4g.bmp	3r_2g.bmp	0r_2g.bmp		0r_4g.bmp			TrialProc	TrialList	0	cvbn	-999999	16	129440	0	v	403	129843	76	-75	1	0	-18	7	12	5	3	26	-12	0	-3	0	4	4	2	2	0	4
Hungry_Donkey_bar_English_2	108	3	<?xml version="1.0"?>\n<Clock xmlns:dt="urn:schemas-microsoft-com:datatypes"><Description dt:dt="string">E-Prime Primary Realtime Clock</Description><StartTime><Timestamp dt:dt="int">0</Timestamp><DateUtc dt:dt="string">2015-06-09T20:02:04Z</DateUtc></StartTime><FrequencyChanges><FrequencyChange><Frequency dt:dt="r8">3507675</Frequency><Timestamp dt:dt="r8">33689281945</Timestamp><Current dt:dt="r8">0</Current><DateUtc dt:dt="string">2015-06-09T20:02:04Z</DateUtc></FrequencyChange></FrequencyChanges></Clock>\n	Hungry_Donkey_bar_English_2-108-3	60.017	-77	1.0.0.18	1	-669786048	Standard	2.0.10.353	2.0.10.353	06-09-2015	6/9/2015 8:02:05 PM	16:02:05	2.0.10.248	27	Bar50-50.bmp	52	1	?	0r_4g.bmp	0r_4g.bmp	0r_2g.bmp	0r_2g.bmp	0r_4g.bmp				TrialProc	TrialList	0	cvbn	-999999	16	131873	0	c	1010	132883	80	-75	5	4	-18	7	12	9	3	27	0	0	0	0	4	4	2	2	0	4
Hungry_Donkey_bar_English_2	108	3	<?xml version="1.0"?>\n<Clock xmlns:dt="urn:schemas-microsoft-com:datatypes"><Description dt:dt="string">E-Prime Primary Realtime Clock</Description><StartTime><Timestamp dt:dt="int">0</Timestamp><DateUtc dt:dt="string">2015-06-09T20:02:04Z</DateUtc></StartTime><FrequencyChanges><FrequencyChange><Frequency dt:dt="r8">3507675</Frequency><Timestamp dt:dt="r8">33689281945</Timestamp><Current dt:dt="r8">0</Current><DateUtc dt:dt="string">2015-06-09T20:02:04Z</DateUtc></FrequencyChange></FrequencyChanges></Clock>\n	Hungry_Donkey_bar_English_2-108-3	60.017	-77	1.0.0.18	1	-669786048	Standard	2.0.10.353	2.0.10.353	06-09-2015	6/9/2015 8:02:05 PM	16:02:05	2.0.10.248	28	Bar50-50.bmp	52	4	?	0r_4g.bmp	0r_4g.bmp	0r_2g.bmp	0r_2g.bmp				0r_2g.bmp	TrialProc	TrialList	0	cvbn	-999999	16	134922	0	n	873	135795	82	-75	7	4	-18	7	14	7	3	28	0	0	0	0	4	4	2	2	0	2
Hungry_Donkey_bar_English_2	108	3	<?xml version="1.0"?>\n<Clock xmlns:dt="urn:schemas-microsoft-com:datatypes"><Description dt:dt="string">E-Prime Primary Realtime Clock</Description><StartTime><Timestamp dt:dt="int">0</Timestamp><DateUtc dt:dt="string">2015-06-09T20:02:04Z</DateUtc></StartTime><FrequencyChanges><FrequencyChange><Frequency dt:dt="r8">3507675</Frequency><Timestamp dt:dt="r8">33689281945</Timestamp><Current dt:dt="r8">0</Current><DateUtc dt:dt="string">2015-06-09T20:02:04Z</DateUtc></FrequencyChange></FrequencyChanges></Clock>\n	Hungry_Donkey_bar_English_2-108-3	60.017	-77	1.0.0.18	1	-669786048	Standard	2.0.10.353	2.0.10.353	06-09-2015	6/9/2015 8:02:05 PM	16:02:05	2.0.10.248	29	Bar50-50.bmp	53	3	?	0r_4g.bmp	0r_4g.bmp	0r_2g.bmp	0r_2g.bmp			0r_2g.bmp		TrialProc	TrialList	0	cvbn	-999999	16	137821	0	b	614	138435	84	-75	9	4	-18	9	14	6	3	29	0	0	0	0	4	4	2	2	0	2
Hungry_Donkey_bar_English_2	108	3	<?xml version="1.0"?>\n<Clock xmlns:dt="urn:schemas-microsoft-com:datatypes"><Description dt:dt="string">E-Prime Primary Realtime Clock</Description><StartTime><Timestamp dt:dt="int">0</Timestamp><DateUtc dt:dt="string">2015-06-09T20:02:04Z</DateUtc></StartTime><FrequencyChanges><FrequencyChange><Frequency dt:dt="r8">3507675</Frequency><Timestamp dt:dt="r8">33689281945</Timestamp><Current dt:dt="r8">0</Current><DateUtc dt:dt="string">2015-06-09T20:02:04Z</DateUtc></FrequencyChange></FrequencyChanges></Clock>\n	Hungry_Donkey_bar_English_2-108-3	60.017	-77	1.0.0.18	1	-669786048	Standard	2.0.10.353	2.0.10.353	06-09-2015	6/9/2015 8:02:05 PM	16:02:05	2.0.10.248	30	Bar50-50.bmp	54	2	?	0r_4g.bmp	0r_4g.bmp	0r_2g.bmp	0r_2g.bmp		0r_4g.bmp			TrialProc	TrialList	0	cvbn	-999999	17	140471	0	v	1436	141907	88	-75	13	4	-14	9	14	8	3	30	0	0	0	0	4	4	2	2	0	4
Hungry_Donkey_bar_English_2	108	3	<?xml version="1.0"?>\n<Clock xmlns:dt="urn:schemas-microsoft-com:datatypes"><Description dt:dt="string">E-Prime Primary Realtime Clock</Description><StartTime><Timestamp dt:dt="int">0</Timestamp><DateUtc dt:dt="string">2015-06-09T20:02:04Z</DateUtc></StartTime><FrequencyChanges><FrequencyChange><Frequency dt:dt="r8">3507675</Frequency><Timestamp dt:dt="r8">33689281945</Timestamp><Current dt:dt="r8">0</Current><DateUtc dt:dt="string">2015-06-09T20:02:04Z</DateUtc></FrequencyChange></FrequencyChanges></Clock>\n	Hungry_Donkey_bar_English_2-108-3	60.017	-77	1.0.0.18	1	-669786048	Standard	2.0.10.353	2.0.10.353	06-09-2015	6/9/2015 8:02:05 PM	16:02:05	2.0.10.248	31	Bar50-50.bmp	55	4	?	12r_4g.bmp	0r_4g.bmp	3r_2g.bmp	0r_2g.bmp				0r_2g.bmp	TrialProc	TrialList	0	cvbn	-999999	16	143936	0	n	1490	145426	90	-75	15	4	-14	9	16	5	4	31	-12	0	-3	0	4	4	2	2	0	2
Hungry_Donkey_bar_English_2	108	3	<?xml version="1.0"?>\n<Clock xmlns:dt="urn:schemas-microsoft-com:datatypes"><Description dt:dt="string">E-Prime Primary Realtime Clock</Description><StartTime><Timestamp dt:dt="int">0</Timestamp><DateUtc dt:dt="string">2015-06-09T20:02:04Z</DateUtc></StartTime><FrequencyChanges><FrequencyChange><Frequency dt:dt="r8">3507675</Frequency><Timestamp dt:dt="r8">33689281945</Timestamp><Current dt:dt="r8">0</Current><DateUtc dt:dt="string">2015-06-09T20:02:04Z</DateUtc></FrequencyChange></FrequencyChanges></Clock>\n	Hungry_Donkey_bar_English_2-108-3	60.017	-77	1.0.0.18	1	-669786048	Standard	2.0.10.353	2.0.10.353	06-09-2015	6/9/2015 8:02:05 PM	16:02:05	2.0.10.248	32	Bar50-50.bmp	55	4	?	10r_4g.bmp	0r_4g.bmp	2r_2g.bmp	0r_2g.bmp				0r_2g.bmp	TrialProc	TrialList	0	cvbn	-999999	16	147452	0	n	758	148210	92	-75	17	4	-14	9	18	3	4	32	-10	0	-2	0	4	4	2	2	0	2
Hungry_Donkey_bar_English_2	108	3	<?xml version="1.0"?>\n<Clock xmlns:dt="urn:schemas-microsoft-com:datatypes"><Description dt:dt="string">E-Prime Primary Realtime Clock</Description><StartTime><Timestamp dt:dt="int">0</Timestamp><DateUtc dt:dt="string">2015-06-09T20:02:04Z</DateUtc></StartTime><FrequencyChanges><FrequencyChange><Frequency dt:dt="r8">3507675</Frequency><Timestamp dt:dt="r8">33689281945</Timestamp><Current dt:dt="r8">0</Current><DateUtc dt:dt="string">2015-06-09T20:02:04Z</DateUtc></FrequencyChange></FrequencyChanges></Clock>\n	Hungry_Donkey_bar_English_2-108-3	60.017	-77	1.0.0.18	1	-669786048	Standard	2.0.10.353	2.0.10.353	06-09-2015	6/9/2015 8:02:05 PM	16:02:05	2.0.10.248	33	Bar50-50.bmp	56	3	?	0r_4g.bmp	0r_4g.bmp	0r_2g.bmp	0r_2g.bmp			0r_2g.bmp		TrialProc	TrialList	0	cvbn	-999999	16	150234	0	b	472	150706	94	-75	19	4	-14	11	18	10	4	33	0	0	0	0	4	4	2	2	0	2
Hungry_Donkey_bar_English_2	108	3	<?xml version="1.0"?>\n<Clock xmlns:dt="urn:schemas-microsoft-com:datatypes"><Description dt:dt="string">E-Prime Primary Realtime Clock</Description><StartTime><Timestamp dt:dt="int">0</Timestamp><DateUtc dt:dt="string">2015-06-09T20:02:04Z</DateUtc></StartTime><FrequencyChanges><FrequencyChange><Frequency dt:dt="r8">3507675</Frequency><Timestamp dt:dt="r8">33689281945</Timestamp><Current dt:dt="r8">0</Current><DateUtc dt:dt="string">2015-06-09T20:02:04Z</DateUtc></FrequencyChange></FrequencyChanges></Clock>\n	Hungry_Donkey_bar_English_2-108-3	60.017	-77	1.0.0.18	1	-669786048	Standard	2.0.10.353	2.0.10.353	06-09-2015	6/9/2015 8:02:05 PM	16:02:05	2.0.10.248	34	Bar63-37.bmp	57	2	?	10r_4g.bmp	0r_4g.bmp	2r_2g.bmp	0r_2g.bmp		0r_4g.bmp			TrialProc	TrialList	0	cvbn	-999999	16	152734	0	v	548	153282	98	-75	23	4	-10	11	18	2	4	34	-10	0	-2	0	4	4	2	2	0	4
Hungry_Donkey_bar_English_2	108	3	<?xml version="1.0"?>\n<Clock xmlns:dt="urn:schemas-microsoft-com:datatypes"><Description dt:dt="string">E-Prime Primary Realtime Clock</Description><StartTime><Timestamp dt:dt="int">0</Timestamp><DateUtc dt:dt="string">2015-06-09T20:02:04Z</DateUtc></StartTime><FrequencyChanges><FrequencyChange><Frequency dt:dt="r8">3507675</Frequency><Timestamp dt:dt="r8">33689281945</Timestamp><Current dt:dt="r8">0</Current><DateUtc dt:dt="string">2015-06-09T20:02:04Z</DateUtc></FrequencyChange></FrequencyChanges></Clock>\n	Hungry_Donkey_bar_English_2-108-3	60.017	-77	1.0.0.18	1	-669786048	Standard	2.0.10.353	2.0.10.353	06-09-2015	6/9/2015 8:02:05 PM	16:02:05	2.0.10.248	35	Bar50-50.bmp	55	1	?	8r_4g.bmp	50r_4g.bmp	1r_2g.bmp	10r_2g.bmp	8r_4g.bmp				TrialProc	TrialList	0	cvbn	-999999	16	155316	0	c	574	155890	102	-83	19	0	-10	11	18	1	4	35	-8	-50	-1	-10	4	4	2	2	-8	4
Hungry_Donkey_bar_English_2	108	3	<?xml version="1.0"?>\n<Clock xmlns:dt="urn:schemas-microsoft-com:datatypes"><Description dt:dt="string">E-Prime Primary Realtime Clock</Description><StartTime><Timestamp dt:dt="int">0</Timestamp><DateUtc dt:dt="string">2015-06-09T20:02:04Z</DateUtc></StartTime><FrequencyChanges><FrequencyChange><Frequency dt:dt="r8">3507675</Frequency><Timestamp dt:dt="r8">33689281945</Timestamp><Current dt:dt="r8">0</Current><DateUtc dt:dt="string">2015-06-09T20:02:04Z</DateUtc></FrequencyChange></FrequencyChanges></Clock>\n	Hungry_Donkey_bar_English_2-108-3	60.017	-77	1.0.0.18	1	-669786048	Standard	2.0.10.353	2.0.10.353	06-09-2015	6/9/2015 8:02:05 PM	16:02:05	2.0.10.248	36	Bar50-50.bmp	56	2	?	0r_4g.bmp	0r_4g.bmp	0r_2g.bmp	0r_2g.bmp		0r_4g.bmp			TrialProc	TrialList	0	cvbn	-999999	17	157916	0	v	614	158530	106	-83	23	0	-6	11	18	7	4	36	0	0	0	0	4	4	2	2	0	4
Hungry_Donkey_bar_English_2	108	3	<?xml version="1.0"?>\n<Clock xmlns:dt="urn:schemas-microsoft-com:datatypes"><Description dt:dt="string">E-Prime Primary Realtime Clock</Description><StartTime><Timestamp dt:dt="int">0</Timestamp><DateUtc dt:dt="string">2015-06-09T20:02:04Z</DateUtc></StartTime><FrequencyChanges><FrequencyChange><Frequency dt:dt="r8">3507675</Frequency><Timestamp dt:dt="r8">33689281945</Timestamp><Current dt:dt="r8">0</Current><DateUtc dt:dt="string">2015-06-09T20:02:04Z</DateUtc></FrequencyChange></FrequencyChanges></Clock>\n	Hungry_Donkey_bar_English_2-108-3	60.017	-77	1.0.0.18	1	-669786048	Standard	2.0.10.353	2.0.10.353	06-09-2015	6/9/2015 8:02:05 PM	16:02:05	2.0.10.248	37	Bar63-37.bmp	57	3	?	0r_4g.bmp	0r_4g.bmp	0r_2g.bmp	0r_2g.bmp			0r_2g.bmp		TrialProc	TrialList	0	cvbn	-999999	16	160565	0	b	45	160610	108	-83	25	0	-6	13	18	9	4	37	0	0	0	0	4	4	2	2	0	2
Hungry_Donkey_bar_English_2	108	3	<?xml version="1.0"?>\n<Clock xmlns:dt="urn:schemas-microsoft-com:datatypes"><Description dt:dt="string">E-Prime Primary Realtime Clock</Description><StartTime><Timestamp dt:dt="int">0</Timestamp><DateUtc dt:dt="string">2015-06-09T20:02:04Z</DateUtc></StartTime><FrequencyChanges><FrequencyChange><Frequency dt:dt="r8">3507675</Frequency><Timestamp dt:dt="r8">33689281945</Timestamp><Current dt:dt="r8">0</Current><DateUtc dt:dt="string">2015-06-09T20:02:04Z</DateUtc></FrequencyChange></FrequencyChanges></Clock>\n	Hungry_Donkey_bar_English_2-108-3	60.017	-77	1.0.0.18	1	-669786048	Standard	2.0.10.353	2.0.10.353	06-09-2015	6/9/2015 8:02:05 PM	16:02:05	2.0.10.248	38	Bar63-37.bmp	57	4	?	0r_4g.bmp	0r_4g.bmp	0r_2g.bmp	0r_2g.bmp				0r_2g.bmp	TrialProc	TrialList	0	cvbn	-999999	16	162647	0	n	331	162978	110	-83	27	0	-6	13	20	6	4	38	0	0	0	0	4	4	2	2	0	2
Hungry_Donkey_bar_English_2	108	3	<?xml version="1.0"?>\n<Clock xmlns:dt="urn:schemas-microsoft-com:datatypes"><Description dt:dt="string">E-Prime Primary Realtime Clock</Description><StartTime><Timestamp dt:dt="int">0</Timestamp><DateUtc dt:dt="string">2015-06-09T20:02:04Z</DateUtc></StartTime><FrequencyChanges><FrequencyChange><Frequency dt:dt="r8">3507675</Frequency><Timestamp dt:dt="r8">33689281945</Timestamp><Current dt:dt="r8">0</Current><DateUtc dt:dt="string">2015-06-09T20:02:04Z</DateUtc></FrequencyChange></FrequencyChanges></Clock>\n	Hungry_Donkey_bar_English_2-108-3	60.017	-77	1.0.0.18	1	-669786048	Standard	2.0.10.353	2.0.10.353	06-09-2015	6/9/2015 8:02:05 PM	16:02:05	2.0.10.248	39	Bar63-37.bmp	58	1	?	0r_4g.bmp	0r_4g.bmp	0r_2g.bmp	0r_2g.bmp	0r_4g.bmp				TrialProc	TrialList	0	cvbn	-999999	16	165013	0	c	317	165330	114	-83	31	4	-6	13	20	8	4	39	0	0	0	0	4	4	2	2	0	4
Hungry_Donkey_bar_English_2	108	3	<?xml version="1.0"?>\n<Clock xmlns:dt="urn:schemas-microsoft-com:datatypes"><Description dt:dt="string">E-Prime Primary Realtime Clock</Description><StartTime><Timestamp dt:dt="int">0</Timestamp><DateUtc dt:dt="string">2015-06-09T20:02:04Z</DateUtc></StartTime><FrequencyChanges><FrequencyChange><Frequency dt:dt="r8">3507675</Frequency><Timestamp dt:dt="r8">33689281945</Timestamp><Current dt:dt="r8">0</Current><DateUtc dt:dt="string">2015-06-09T20:02:04Z</DateUtc></FrequencyChange></FrequencyChanges></Clock>\n	Hungry_Donkey_bar_English_2-108-3	60.017	-77	1.0.0.18	1	-669786048	Standard	2.0.10.353	2.0.10.353	06-09-2015	6/9/2015 8:02:05 PM	16:02:05	2.0.10.248	40	Bar63-37.bmp	59	2	?	10r_4g.bmp	0r_4g.bmp	2r_2g.bmp	0r_2g.bmp		0r_4g.bmp			TrialProc	TrialList	0	cvbn	-999999	16	167363	0	v	174	167537	118	-83	35	4	-2	13	20	4	4	40	-10	0	-2	0	4	4	2	2	0	4
Hungry_Donkey_bar_English_2	108	3	<?xml version="1.0"?>\n<Clock xmlns:dt="urn:schemas-microsoft-com:datatypes"><Description dt:dt="string">E-Prime Primary Realtime Clock</Description><StartTime><Timestamp dt:dt="int">0</Timestamp><DateUtc dt:dt="string">2015-06-09T20:02:04Z</DateUtc></StartTime><FrequencyChanges><FrequencyChange><Frequency dt:dt="r8">3507675</Frequency><Timestamp dt:dt="r8">33689281945</Timestamp><Current dt:dt="r8">0</Current><DateUtc dt:dt="string">2015-06-09T20:02:04Z</DateUtc></FrequencyChange></FrequencyChanges></Clock>\n	Hungry_Donkey_bar_English_2-108-3	60.017	-77	1.0.0.18	1	-669786048	Standard	2.0.10.353	2.0.10.353	06-09-2015	6/9/2015 8:02:05 PM	16:02:05	2.0.10.248	41	Bar63-37.bmp	58	3	?	12r_4g.bmp	0r_4g.bmp	3r_2g.bmp	0r_2g.bmp			3r_2g.bmp		TrialProc	TrialList	0	cvbn	-999999	16	169562	0	b	71	169633	120	-86	34	4	-2	12	20	5	5	41	-12	0	-3	0	4	4	2	2	-3	2
Hungry_Donkey_bar_English_2	108	3	<?xml version="1.0"?>\n<Clock xmlns:dt="urn:schemas-microsoft-com:datatypes"><Description dt:dt="string">E-Prime Primary Realtime Clock</Description><StartTime><Timestamp dt:dt="int">0</Timestamp><DateUtc dt:dt="string">2015-06-09T20:02:04Z</DateUtc></StartTime><FrequencyChanges><FrequencyChange><Frequency dt:dt="r8">3507675</Frequency><Timestamp dt:dt="r8">33689281945</Timestamp><Current dt:dt="r8">0</Current><DateUtc dt:dt="string">2015-06-09T20:02:04Z</DateUtc></FrequencyChange></FrequencyChanges></Clock>\n	Hungry_Donkey_bar_English_2-108-3	60.017	-77	1.0.0.18	1	-669786048	Standard	2.0.10.353	2.0.10.353	06-09-2015	6/9/2015 8:02:05 PM	16:02:05	2.0.10.248	42	Bar63-37.bmp	59	4	?	0r_4g.bmp	0r_4g.bmp	0r_2g.bmp	0r_2g.bmp				0r_2g.bmp	TrialProc	TrialList	0	cvbn	-999999	16	171662	0	n	467	172129	122	-86	36	4	-2	12	22	9	5	42	0	0	0	0	4	4	2	2	0	2
Hungry_Donkey_bar_English_2	108	3	<?xml version="1.0"?>\n<Clock xmlns:dt="urn:schemas-microsoft-com:datatypes"><Description dt:dt="string">E-Prime Primary Realtime Clock</Description><StartTime><Timestamp dt:dt="int">0</Timestamp><DateUtc dt:dt="string">2015-06-09T20:02:04Z</DateUtc></StartTime><FrequencyChanges><FrequencyChange><Frequency dt:dt="r8">3507675</Frequency><Timestamp dt:dt="r8">33689281945</Timestamp><Current dt:dt="r8">0</Current><DateUtc dt:dt="string">2015-06-09T20:02:04Z</DateUtc></FrequencyChange></FrequencyChanges></Clock>\n	Hungry_Donkey_bar_English_2-108-3	60.017	-77	1.0.0.18	1	-669786048	Standard	2.0.10.353	2.0.10.353	06-09-2015	6/9/2015 8:02:05 PM	16:02:05	2.0.10.248	43	Bar63-37.bmp	59	2	?	0r_4g.bmp	0r_4g.bmp	0r_2g.bmp	0r_2g.bmp		0r_4g.bmp			TrialProc	TrialList	0	cvbn	-999999	16	174161	0	v	800	174961	126	-86	40	4	2	12	22	6	5	43	0	0	0	0	4	4	2	2	0	4
Hungry_Donkey_bar_English_2	108	3	<?xml version="1.0"?>\n<Clock xmlns:dt="urn:schemas-microsoft-com:datatypes"><Description dt:dt="string">E-Prime Primary Realtime Clock</Description><StartTime><Timestamp dt:dt="int">0</Timestamp><DateUtc dt:dt="string">2015-06-09T20:02:04Z</DateUtc></StartTime><FrequencyChanges><FrequencyChange><Frequency dt:dt="r8">3507675</Frequency><Timestamp dt:dt="r8">33689281945</Timestamp><Current dt:dt="r8">0</Current><DateUtc dt:dt="string">2015-06-09T20:02:04Z</DateUtc></FrequencyChange></FrequencyChanges></Clock>\n	Hungry_Donkey_bar_English_2-108-3	60.017	-77	1.0.0.18	1	-669786048	Standard	2.0.10.353	2.0.10.353	06-09-2015	6/9/2015 8:02:05 PM	16:02:05	2.0.10.248	44	Bar63-37.bmp	60	1	?	0r_4g.bmp	0r_4g.bmp	0r_2g.bmp	0r_2g.bmp	0r_4g.bmp				TrialProc	TrialList	0	cvbn	-999999	16	176993	0	c	416	177409	130	-86	44	8	2	12	22	7	5	44	0	0	0	0	4	4	2	2	0	4
Hungry_Donkey_bar_English_2	108	3	<?xml version="1.0"?>\n<Clock xmlns:dt="urn:schemas-microsoft-com:datatypes"><Description dt:dt="string">E-Prime Primary Realtime Clock</Description><StartTime><Timestamp dt:dt="int">0</Timestamp><DateUtc dt:dt="string">2015-06-09T20:02:04Z</DateUtc></StartTime><FrequencyChanges><FrequencyChange><Frequency dt:dt="r8">3507675</Frequency><Timestamp dt:dt="r8">33689281945</Timestamp><Current dt:dt="r8">0</Current><DateUtc dt:dt="string">2015-06-09T20:02:04Z</DateUtc></FrequencyChange></FrequencyChanges></Clock>\n	Hungry_Donkey_bar_English_2-108-3	60.017	-77	1.0.0.18	1	-669786048	Standard	2.0.10.353	2.0.10.353	06-09-2015	6/9/2015 8:02:05 PM	16:02:05	2.0.10.248	45	Bar63-37.bmp	61	4	?	0r_4g.bmp	0r_4g.bmp	0r_2g.bmp	0r_2g.bmp				0r_2g.bmp	TrialProc	TrialList	0	cvbn	-999999	16	179443	0	n	526	179969	132	-86	46	8	2	12	24	8	5	45	0	0	0	0	4	4	2	2	0	2
Hungry_Donkey_bar_English_2	108	3	<?xml version="1.0"?>\n<Clock xmlns:dt="urn:schemas-microsoft-com:datatypes"><Description dt:dt="string">E-Prime Primary Realtime Clock</Description><StartTime><Timestamp dt:dt="int">0</Timestamp><DateUtc dt:dt="string">2015-06-09T20:02:04Z</DateUtc></StartTime><FrequencyChanges><FrequencyChange><Frequency dt:dt="r8">3507675</Frequency><Timestamp dt:dt="r8">33689281945</Timestamp><Current dt:dt="r8">0</Current><DateUtc dt:dt="string">2015-06-09T20:02:04Z</DateUtc></FrequencyChange></FrequencyChanges></Clock>\n	Hungry_Donkey_bar_English_2-108-3	60.017	-77	1.0.0.18	1	-669786048	Standard	2.0.10.353	2.0.10.353	06-09-2015	6/9/2015 8:02:05 PM	16:02:05	2.0.10.248	46	Bar63-37.bmp	60	3	?	10r_4g.bmp	0r_4g.bmp	2r_2g.bmp	0r_2g.bmp			2r_2g.bmp		TrialProc	TrialList	0	cvbn	-999999	16	182009	0	b	744	182753	134	-88	46	8	2	12	24	3	5	46	-10	0	-2	0	4	4	2	2	-2	2
Hungry_Donkey_bar_English_2	108	3	<?xml version="1.0"?>\n<Clock xmlns:dt="urn:schemas-microsoft-com:datatypes"><Description dt:dt="string">E-Prime Primary Realtime Clock</Description><StartTime><Timestamp dt:dt="int">0</Timestamp><DateUtc dt:dt="string">2015-06-09T20:02:04Z</DateUtc></StartTime><FrequencyChanges><FrequencyChange><Frequency dt:dt="r8">3507675</Frequency><Timestamp dt:dt="r8">33689281945</Timestamp><Current dt:dt="r8">0</Current><DateUtc dt:dt="string">2015-06-09T20:02:04Z</DateUtc></FrequencyChange></FrequencyChanges></Clock>\n	Hungry_Donkey_bar_English_2-108-3	60.017	-77	1.0.0.18	1	-669786048	Standard	2.0.10.353	2.0.10.353	06-09-2015	6/9/2015 8:02:05 PM	16:02:05	2.0.10.248	47	Bar63-37.bmp	61	2	?	0r_4g.bmp	0r_4g.bmp	0r_2g.bmp	0r_2g.bmp		0r_4g.bmp			TrialProc	TrialList	0	cvbn	-999999	16	184791	0	v	474	185265	138	-88	50	8	6	12	24	10	5	47	0	0	0	0	4	4	2	2	0	4
Hungry_Donkey_bar_English_2	108	3	<?xml version="1.0"?>\n<Clock xmlns:dt="urn:schemas-microsoft-com:datatypes"><Description dt:dt="string">E-Prime Primary Realtime Clock</Description><StartTime><Timestamp dt:dt="int">0</Timestamp><DateUtc dt:dt="string">2015-06-09T20:02:04Z</DateUtc></StartTime><FrequencyChanges><FrequencyChange><Frequency dt:dt="r8">3507675</Frequency><Timestamp dt:dt="r8">33689281945</Timestamp><Current dt:dt="r8">0</Current><DateUtc dt:dt="string">2015-06-09T20:02:04Z</DateUtc></FrequencyChange></FrequencyChanges></Clock>\n	Hungry_Donkey_bar_English_2-108-3	60.017	-77	1.0.0.18	1	-669786048	Standard	2.0.10.353	2.0.10.353	06-09-2015	6/9/2015 8:02:05 PM	16:02:05	2.0.10.248	48	Bar63-37.bmp	61	4	?	10r_4g.bmp	0r_4g.bmp	2r_2g.bmp	0r_2g.bmp				0r_2g.bmp	TrialProc	TrialList	0	cvbn	-999999	16	187290	0	n	1606	188896	140	-88	52	8	6	12	26	2	5	48	-10	0	-2	0	4	4	2	2	0	2
Hungry_Donkey_bar_English_2	108	3	<?xml version="1.0"?>\n<Clock xmlns:dt="urn:schemas-microsoft-com:datatypes"><Description dt:dt="string">E-Prime Primary Realtime Clock</Description><StartTime><Timestamp dt:dt="int">0</Timestamp><DateUtc dt:dt="string">2015-06-09T20:02:04Z</DateUtc></StartTime><FrequencyChanges><FrequencyChange><Frequency dt:dt="r8">3507675</Frequency><Timestamp dt:dt="r8">33689281945</Timestamp><Current dt:dt="r8">0</Current><DateUtc dt:dt="string">2015-06-09T20:02:04Z</DateUtc></FrequencyChange></FrequencyChanges></Clock>\n	Hungry_Donkey_bar_English_2-108-3	60.017	-77	1.0.0.18	1	-669786048	Standard	2.0.10.353	2.0.10.353	06-09-2015	6/9/2015 8:02:05 PM	16:02:05	2.0.10.248	49	Bar63-37.bmp	60	1	?	10r_4g.bmp	0r_4g.bmp	2r_2g.bmp	0r_2g.bmp	10r_4g.bmp				TrialProc	TrialList	0	cvbn	-999999	16	190923	0	c	837	191760	144	-98	46	2	6	12	26	4	5	49	-10	0	-2	0	4	4	2	2	-10	4
Hungry_Donkey_bar_English_2	108	3	<?xml version="1.0"?>\n<Clock xmlns:dt="urn:schemas-microsoft-com:datatypes"><Description dt:dt="string">E-Prime Primary Realtime Clock</Description><StartTime><Timestamp dt:dt="int">0</Timestamp><DateUtc dt:dt="string">2015-06-09T20:02:04Z</DateUtc></StartTime><FrequencyChanges><FrequencyChange><Frequency dt:dt="r8">3507675</Frequency><Timestamp dt:dt="r8">33689281945</Timestamp><Current dt:dt="r8">0</Current><DateUtc dt:dt="string">2015-06-09T20:02:04Z</DateUtc></FrequencyChange></FrequencyChanges></Clock>\n	Hungry_Donkey_bar_English_2-108-3	60.017	-77	1.0.0.18	1	-669786048	Standard	2.0.10.353	2.0.10.353	06-09-2015	6/9/2015 8:02:05 PM	16:02:05	2.0.10.248	50	Bar63-37.bmp	60	3	?	8r_4g.bmp	50r_4g.bmp	1r_2g.bmp	10r_2g.bmp			1r_2g.bmp		TrialProc	TrialList	0	cvbn	-999999	16	193789	0	b	451	194240	146	-99	47	2	6	13	26	1	5	50	-8	-50	-1	-10	4	4	2	2	-1	2
Hungry_Donkey_bar_English_2	108	3	<?xml version="1.0"?>\n<Clock xmlns:dt="urn:schemas-microsoft-com:datatypes"><Description dt:dt="string">E-Prime Primary Realtime Clock</Description><StartTime><Timestamp dt:dt="int">0</Timestamp><DateUtc dt:dt="string">2015-06-09T20:02:04Z</DateUtc></StartTime><FrequencyChanges><FrequencyChange><Frequency dt:dt="r8">3507675</Frequency><Timestamp dt:dt="r8">33689281945</Timestamp><Current dt:dt="r8">0</Current><DateUtc dt:dt="string">2015-06-09T20:02:04Z</DateUtc></FrequencyChange></FrequencyChanges></Clock>\n	Hungry_Donkey_bar_English_2-108-3	60.017	-77	1.0.0.18	1	-669786048	Standard	2.0.10.353	2.0.10.353	06-09-2015	6/9/2015 8:02:05 PM	16:02:05	2.0.10.248	51	Bar63-37.bmp	60	2	?	12r_4g.bmp	0r_4g.bmp	3r_2g.bmp	0r_2g.bmp		0r_4g.bmp			TrialProc	TrialList	0	cvbn	-999999	16	196271	0	v	337	196608	150	-99	51	2	10	13	26	5	6	51	-12	0	-3	0	4	4	2	2	0	4
Hungry_Donkey_bar_English_2	108	3	<?xml version="1.0"?>\n<Clock xmlns:dt="urn:schemas-microsoft-com:datatypes"><Description dt:dt="string">E-Prime Primary Realtime Clock</Description><StartTime><Timestamp dt:dt="int">0</Timestamp><DateUtc dt:dt="string">2015-06-09T20:02:04Z</DateUtc></StartTime><FrequencyChanges><FrequencyChange><Frequency dt:dt="r8">3507675</Frequency><Timestamp dt:dt="r8">33689281945</Timestamp><Current dt:dt="r8">0</Current><DateUtc dt:dt="string">2015-06-09T20:02:04Z</DateUtc></FrequencyChange></FrequencyChanges></Clock>\n	Hungry_Donkey_bar_English_2-108-3	60.017	-77	1.0.0.18	1	-669786048	Standard	2.0.10.353	2.0.10.353	06-09-2015	6/9/2015 8:02:05 PM	16:02:05	2.0.10.248	52	Bar63-37.bmp	58	4	?	8r_4g.bmp	50r_4g.bmp	1r_2g.bmp	10r_2g.bmp				10r_2g.bmp	TrialProc	TrialList	0	cvbn	-999999	16	198637	0	n	819	199456	152	-109	43	2	10	13	18	1	6	52	-8	-50	-1	-10	4	4	2	2	-10	2
Hungry_Donkey_bar_English_2	108	3	<?xml version="1.0"?>\n<Clock xmlns:dt="urn:schemas-microsoft-com:datatypes"><Description dt:dt="string">E-Prime Primary Realtime Clock</Description><StartTime><Timestamp dt:dt="int">0</Timestamp><DateUtc dt:dt="string">2015-06-09T20:02:04Z</DateUtc></StartTime><FrequencyChanges><FrequencyChange><Frequency dt:dt="r8">3507675</Frequency><Timestamp dt:dt="r8">33689281945</Timestamp><Current dt:dt="r8">0</Current><DateUtc dt:dt="string">2015-06-09T20:02:04Z</DateUtc></FrequencyChange></FrequencyChanges></Clock>\n	Hungry_Donkey_bar_English_2-108-3	60.017	-77	1.0.0.18	1	-669786048	Standard	2.0.10.353	2.0.10.353	06-09-2015	6/9/2015 8:02:05 PM	16:02:05	2.0.10.248	53	Bar63-37.bmp	59	3	?	0r_4g.bmp	0r_4g.bmp	0r_2g.bmp	0r_2g.bmp			0r_2g.bmp		TrialProc	TrialList	0	cvbn	-999999	16	201486	0	b	450	201936	154	-109	45	2	10	15	18	10	6	53	0	0	0	0	4	4	2	2	0	2
Hungry_Donkey_bar_English_2	108	3	<?xml version="1.0"?>\n<Clock xmlns:dt="urn:schemas-microsoft-com:datatypes"><Description dt:dt="string">E-Prime Primary Realtime Clock</Description><StartTime><Timestamp dt:dt="int">0</Timestamp><DateUtc dt:dt="string">2015-06-09T20:02:04Z</DateUtc></StartTime><FrequencyChanges><FrequencyChange><Frequency dt:dt="r8">3507675</Frequency><Timestamp dt:dt="r8">33689281945</Timestamp><Current dt:dt="r8">0</Current><DateUtc dt:dt="string">2015-06-09T20:02:04Z</DateUtc></FrequencyChange></FrequencyChanges></Clock>\n	Hungry_Donkey_bar_English_2-108-3	60.017	-77	1.0.0.18	1	-669786048	Standard	2.0.10.353	2.0.10.353	06-09-2015	6/9/2015 8:02:05 PM	16:02:05	2.0.10.248	54	Bar63-37.bmp	59	2	?	10r_4g.bmp	0r_4g.bmp	2r_2g.bmp	0r_2g.bmp		0r_4g.bmp			TrialProc	TrialList	0	cvbn	-999999	16	203969	0	v	447	204416	158	-109	49	2	14	15	18	4	6	54	-10	0	-2	0	4	4	2	2	0	4
Hungry_Donkey_bar_English_2	108	3	<?xml version="1.0"?>\n<Clock xmlns:dt="urn:schemas-microsoft-com:datatypes"><Description dt:dt="string">E-Prime Primary Realtime Clock</Description><StartTime><Timestamp dt:dt="int">0</Timestamp><DateUtc dt:dt="string">2015-06-09T20:02:04Z</DateUtc></StartTime><FrequencyChanges><FrequencyChange><Frequency dt:dt="r8">3507675</Frequency><Timestamp dt:dt="r8">33689281945</Timestamp><Current dt:dt="r8">0</Current><DateUtc dt:dt="string">2015-06-09T20:02:04Z</DateUtc></FrequencyChange></FrequencyChanges></Clock>\n	Hungry_Donkey_bar_English_2-108-3	60.017	-77	1.0.0.18	1	-669786048	Standard	2.0.10.353	2.0.10.353	06-09-2015	6/9/2015 8:02:05 PM	16:02:05	2.0.10.248	55	Bar63-37.bmp	59	4	?	10r_4g.bmp	0r_4g.bmp	2r_2g.bmp	0r_2g.bmp				0r_2g.bmp	TrialProc	TrialList	0	cvbn	-999999	16	206452	0	n	1355	207807	160	-109	51	2	14	15	20	3	6	55	-10	0	-2	0	4	4	2	2	0	2
Hungry_Donkey_bar_English_2	108	3	<?xml version="1.0"?>\n<Clock xmlns:dt="urn:schemas-microsoft-com:datatypes"><Description dt:dt="string">E-Prime Primary Realtime Clock</Description><StartTime><Timestamp dt:dt="int">0</Timestamp><DateUtc dt:dt="string">2015-06-09T20:02:04Z</DateUtc></StartTime><FrequencyChanges><FrequencyChange><Frequency dt:dt="r8">3507675</Frequency><Timestamp dt:dt="r8">33689281945</Timestamp><Current dt:dt="r8">0</Current><DateUtc dt:dt="string">2015-06-09T20:02:04Z</DateUtc></FrequencyChange></FrequencyChanges></Clock>\n	Hungry_Donkey_bar_English_2-108-3	60.017	-77	1.0.0.18	1	-669786048	Standard	2.0.10.353	2.0.10.353	06-09-2015	6/9/2015 8:02:05 PM	16:02:05	2.0.10.248	56	Bar63-37.bmp	60	3	?	0r_4g.bmp	0r_4g.bmp	0r_2g.bmp	0r_2g.bmp			0r_2g.bmp		TrialProc	TrialList	0	cvbn	-999999	16	209834	0	b	629	210463	162	-109	53	2	14	17	20	7	6	56	0	0	0	0	4	4	2	2	0	2
Hungry_Donkey_bar_English_2	108	3	<?xml version="1.0"?>\n<Clock xmlns:dt="urn:schemas-microsoft-com:datatypes"><Description dt:dt="string">E-Prime Primary Realtime Clock</Description><StartTime><Timestamp dt:dt="int">0</Timestamp><DateUtc dt:dt="string">2015-06-09T20:02:04Z</DateUtc></StartTime><FrequencyChanges><FrequencyChange><Frequency dt:dt="r8">3507675</Frequency><Timestamp dt:dt="r8">33689281945</Timestamp><Current dt:dt="r8">0</Current><DateUtc dt:dt="string">2015-06-09T20:02:04Z</DateUtc></FrequencyChange></FrequencyChanges></Clock>\n	Hungry_Donkey_bar_English_2-108-3	60.017	-77	1.0.0.18	1	-669786048	Standard	2.0.10.353	2.0.10.353	06-09-2015	6/9/2015 8:02:05 PM	16:02:05	2.0.10.248	57	Bar63-37.bmp	60	1	?	0r_4g.bmp	0r_4g.bmp	0r_2g.bmp	0r_2g.bmp	0r_4g.bmp				TrialProc	TrialList	0	cvbn	-999999	16	212500	0	c	1067	213567	166	-109	57	6	14	17	20	6	6	57	0	0	0	0	4	4	2	2	0	4
Hungry_Donkey_bar_English_2	108	3	<?xml version="1.0"?>\n<Clock xmlns:dt="urn:schemas-microsoft-com:datatypes"><Description dt:dt="string">E-Prime Primary Realtime Clock</Description><StartTime><Timestamp dt:dt="int">0</Timestamp><DateUtc dt:dt="string">2015-06-09T20:02:04Z</DateUtc></StartTime><FrequencyChanges><FrequencyChange><Frequency dt:dt="r8">3507675</Frequency><Timestamp dt:dt="r8">33689281945</Timestamp><Current dt:dt="r8">0</Current><DateUtc dt:dt="string">2015-06-09T20:02:04Z</DateUtc></FrequencyChange></FrequencyChanges></Clock>\n	Hungry_Donkey_bar_English_2-108-3	60.017	-77	1.0.0.18	1	-669786048	Standard	2.0.10.353	2.0.10.353	06-09-2015	6/9/2015 8:02:05 PM	16:02:05	2.0.10.248	58	Bar63-37.bmp	61	2	?	0r_4g.bmp	0r_4g.bmp	0r_2g.bmp	0r_2g.bmp		0r_4g.bmp			TrialProc	TrialList	0	cvbn	-999999	16	215599	0	v	544	216143	170	-109	61	6	18	17	20	9	6	58	0	0	0	0	4	4	2	2	0	4
Hungry_Donkey_bar_English_2	108	3	<?xml version="1.0"?>\n<Clock xmlns:dt="urn:schemas-microsoft-com:datatypes"><Description dt:dt="string">E-Prime Primary Realtime Clock</Description><StartTime><Timestamp dt:dt="int">0</Timestamp><DateUtc dt:dt="string">2015-06-09T20:02:04Z</DateUtc></StartTime><FrequencyChanges><FrequencyChange><Frequency dt:dt="r8">3507675</Frequency><Timestamp dt:dt="r8">33689281945</Timestamp><Current dt:dt="r8">0</Current><DateUtc dt:dt="string">2015-06-09T20:02:04Z</DateUtc></FrequencyChange></FrequencyChanges></Clock>\n	Hungry_Donkey_bar_English_2-108-3	60.017	-77	1.0.0.18	1	-669786048	Standard	2.0.10.353	2.0.10.353	06-09-2015	6/9/2015 8:02:05 PM	16:02:05	2.0.10.248	59	Bar63-37.bmp	61	3	?	10r_4g.bmp	0r_4g.bmp	2r_2g.bmp	0r_2g.bmp			2r_2g.bmp		TrialProc	TrialList	0	cvbn	-999999	16	218182	0	b	969	219151	172	-111	61	6	18	17	20	2	6	59	-10	0	-2	0	4	4	2	2	-2	2
Hungry_Donkey_bar_English_2	108	3	<?xml version="1.0"?>\n<Clock xmlns:dt="urn:schemas-microsoft-com:datatypes"><Description dt:dt="string">E-Prime Primary Realtime Clock</Description><StartTime><Timestamp dt:dt="int">0</Timestamp><DateUtc dt:dt="string">2015-06-09T20:02:04Z</DateUtc></StartTime><FrequencyChanges><FrequencyChange><Frequency dt:dt="r8">3507675</Frequency><Timestamp dt:dt="r8">33689281945</Timestamp><Current dt:dt="r8">0</Current><DateUtc dt:dt="string">2015-06-09T20:02:04Z</DateUtc></FrequencyChange></FrequencyChanges></Clock>\n	Hungry_Donkey_bar_English_2-108-3	60.017	-77	1.0.0.18	1	-669786048	Standard	2.0.10.353	2.0.10.353	06-09-2015	6/9/2015 8:02:05 PM	16:02:05	2.0.10.248	60	Bar63-37.bmp	61	4	?	0r_4g.bmp	0r_4g.bmp	0r_2g.bmp	0r_2g.bmp				0r_2g.bmp	TrialProc	TrialList	0	cvbn	-999999	16	221181	0	n	482	221663	174	-111	63	6	18	17	22	8	6	60	0	0	0	0	4	4	2	2	0	2
Hungry_Donkey_bar_English_2	108	3	<?xml version="1.0"?>\n<Clock xmlns:dt="urn:schemas-microsoft-com:datatypes"><Description dt:dt="string">E-Prime Primary Realtime Clock</Description><StartTime><Timestamp dt:dt="int">0</Timestamp><DateUtc dt:dt="string">2015-06-09T20:02:04Z</DateUtc></StartTime><FrequencyChanges><FrequencyChange><Frequency dt:dt="r8">3507675</Frequency><Timestamp dt:dt="r8">33689281945</Timestamp><Current dt:dt="r8">0</Current><DateUtc dt:dt="string">2015-06-09T20:02:04Z</DateUtc></FrequencyChange></FrequencyChanges></Clock>\n	Hungry_Donkey_bar_English_2-108-3	60.017	-77	1.0.0.18	1	-669786048	Standard	2.0.10.353	2.0.10.353	06-09-2015	6/9/2015 8:02:05 PM	16:02:05	2.0.10.248	61	Bar63-37.bmp	60	1	?	10r_4g.bmp	0r_4g.bmp	2r_2g.bmp	0r_2g.bmp	10r_4g.bmp				TrialProc	TrialList	0	cvbn	-999999	16	223697	0	c	1198	224895	178	-121	57	0	18	17	22	4	7	61	-10	0	-2	0	4	4	2	2	-10	4
Hungry_Donkey_bar_English_2	108	3	<?xml version="1.0"?>\n<Clock xmlns:dt="urn:schemas-microsoft-com:datatypes"><Description dt:dt="string">E-Prime Primary Realtime Clock</Description><StartTime><Timestamp dt:dt="int">0</Timestamp><DateUtc dt:dt="string">2015-06-09T20:02:04Z</DateUtc></StartTime><FrequencyChanges><FrequencyChange><Frequency dt:dt="r8">3507675</Frequency><Timestamp dt:dt="r8">33689281945</Timestamp><Current dt:dt="r8">0</Current><DateUtc dt:dt="string">2015-06-09T20:02:04Z</DateUtc></FrequencyChange></FrequencyChanges></Clock>\n	Hungry_Donkey_bar_English_2-108-3	60.017	-77	1.0.0.18	1	-669786048	Standard	2.0.10.353	2.0.10.353	06-09-2015	6/9/2015 8:02:05 PM	16:02:05	2.0.10.248	62	Bar63-37.bmp	60	3	?	0r_4g.bmp	0r_4g.bmp	0r_2g.bmp	0r_2g.bmp			0r_2g.bmp		TrialProc	TrialList	0	cvbn	-999999	16	226929	0	b	430	227359	180	-121	59	0	18	19	22	9	7	62	0	0	0	0	4	4	2	2	0	2
Hungry_Donkey_bar_English_2	108	3	<?xml version="1.0"?>\n<Clock xmlns:dt="urn:schemas-microsoft-com:datatypes"><Description dt:dt="string">E-Prime Primary Realtime Clock</Description><StartTime><Timestamp dt:dt="int">0</Timestamp><DateUtc dt:dt="string">2015-06-09T20:02:04Z</DateUtc></StartTime><FrequencyChanges><FrequencyChange><Frequency dt:dt="r8">3507675</Frequency><Timestamp dt:dt="r8">33689281945</Timestamp><Current dt:dt="r8">0</Current><DateUtc dt:dt="string">2015-06-09T20:02:04Z</DateUtc></FrequencyChange></FrequencyChanges></Clock>\n	Hungry_Donkey_bar_English_2-108-3	60.017	-77	1.0.0.18	1	-669786048	Standard	2.0.10.353	2.0.10.353	06-09-2015	6/9/2015 8:02:05 PM	16:02:05	2.0.10.248	63	Bar63-37.bmp	60	2	?	12r_4g.bmp	0r_4g.bmp	3r_2g.bmp	0r_2g.bmp		0r_4g.bmp			TrialProc	TrialList	0	cvbn	-999999	16	229395	0	v	363	229758	184	-121	63	0	22	19	22	5	7	63	-12	0	-3	0	4	4	2	2	0	4
Hungry_Donkey_bar_English_2	108	3	<?xml version="1.0"?>\n<Clock xmlns:dt="urn:schemas-microsoft-com:datatypes"><Description dt:dt="string">E-Prime Primary Realtime Clock</Description><StartTime><Timestamp dt:dt="int">0</Timestamp><DateUtc dt:dt="string">2015-06-09T20:02:04Z</DateUtc></StartTime><FrequencyChanges><FrequencyChange><Frequency dt:dt="r8">3507675</Frequency><Timestamp dt:dt="r8">33689281945</Timestamp><Current dt:dt="r8">0</Current><DateUtc dt:dt="string">2015-06-09T20:02:04Z</DateUtc></FrequencyChange></FrequencyChanges></Clock>\n	Hungry_Donkey_bar_English_2-108-3	60.017	-77	1.0.0.18	1	-669786048	Standard	2.0.10.353	2.0.10.353	06-09-2015	6/9/2015 8:02:05 PM	16:02:05	2.0.10.248	64	Bar63-37.bmp	61	4	?	0r_4g.bmp	0r_4g.bmp	0r_2g.bmp	0r_2g.bmp				0r_2g.bmp	TrialProc	TrialList	0	cvbn	-999999	16	231794	0	n	492	232286	186	-121	65	0	22	19	24	6	7	64	0	0	0	0	4	4	2	2	0	2
Hungry_Donkey_bar_English_2	108	3	<?xml version="1.0"?>\n<Clock xmlns:dt="urn:schemas-microsoft-com:datatypes"><Description dt:dt="string">E-Prime Primary Realtime Clock</Description><StartTime><Timestamp dt:dt="int">0</Timestamp><DateUtc dt:dt="string">2015-06-09T20:02:04Z</DateUtc></StartTime><FrequencyChanges><FrequencyChange><Frequency dt:dt="r8">3507675</Frequency><Timestamp dt:dt="r8">33689281945</Timestamp><Current dt:dt="r8">0</Current><DateUtc dt:dt="string">2015-06-09T20:02:04Z</DateUtc></FrequencyChange></FrequencyChanges></Clock>\n	Hungry_Donkey_bar_English_2-108-3	60.017	-77	1.0.0.18	1	-669786048	Standard	2.0.10.353	2.0.10.353	06-09-2015	6/9/2015 8:02:05 PM	16:02:05	2.0.10.248	65	Bar50-50.bmp	53	2	?	8r_4g.bmp	50r_4g.bmp	1r_2g.bmp	10r_2g.bmp		50r_4g.bmp			TrialProc	TrialList	0	cvbn	-999999	16	234310	0	v	488	234798	190	-171	19	0	-24	19	24	1	7	65	-8	-50	-1	-10	4	4	2	2	-50	4
Hungry_Donkey_bar_English_2	108	3	<?xml version="1.0"?>\n<Clock xmlns:dt="urn:schemas-microsoft-com:datatypes"><Description dt:dt="string">E-Prime Primary Realtime Clock</Description><StartTime><Timestamp dt:dt="int">0</Timestamp><DateUtc dt:dt="string">2015-06-09T20:02:04Z</DateUtc></StartTime><FrequencyChanges><FrequencyChange><Frequency dt:dt="r8">3507675</Frequency><Timestamp dt:dt="r8">33689281945</Timestamp><Current dt:dt="r8">0</Current><DateUtc dt:dt="string">2015-06-09T20:02:04Z</DateUtc></FrequencyChange></FrequencyChanges></Clock>\n	Hungry_Donkey_bar_English_2-108-3	60.017	-77	1.0.0.18	1	-669786048	Standard	2.0.10.353	2.0.10.353	06-09-2015	6/9/2015 8:02:05 PM	16:02:05	2.0.10.248	66	Bar50-50.bmp	53	3	?	10r_4g.bmp	0r_4g.bmp	2r_2g.bmp	0r_2g.bmp			2r_2g.bmp		TrialProc	TrialList	0	cvbn	-999999	16	236826	0	b	404	237230	192	-173	19	0	-24	19	24	3	7	66	-10	0	-2	0	4	4	2	2	-2	2
Hungry_Donkey_bar_English_2	108	3	<?xml version="1.0"?>\n<Clock xmlns:dt="urn:schemas-microsoft-com:datatypes"><Description dt:dt="string">E-Prime Primary Realtime Clock</Description><StartTime><Timestamp dt:dt="int">0</Timestamp><DateUtc dt:dt="string">2015-06-09T20:02:04Z</DateUtc></StartTime><FrequencyChanges><FrequencyChange><Frequency dt:dt="r8">3507675</Frequency><Timestamp dt:dt="r8">33689281945</Timestamp><Current dt:dt="r8">0</Current><DateUtc dt:dt="string">2015-06-09T20:02:04Z</DateUtc></FrequencyChange></FrequencyChanges></Clock>\n	Hungry_Donkey_bar_English_2-108-3	60.017	-77	1.0.0.18	1	-669786048	Standard	2.0.10.353	2.0.10.353	06-09-2015	6/9/2015 8:02:05 PM	16:02:05	2.0.10.248	67	Bar50-50.bmp	53	4	?	10r_4g.bmp	0r_4g.bmp	2r_2g.bmp	0r_2g.bmp				0r_2g.bmp	TrialProc	TrialList	0	cvbn	-999999	16	239259	0	n	835	240094	194	-173	21	0	-24	19	26	2	7	67	-10	0	-2	0	4	4	2	2	0	2
Hungry_Donkey_bar_English_2	108	3	<?xml version="1.0"?>\n<Clock xmlns:dt="urn:schemas-microsoft-com:datatypes"><Description dt:dt="string">E-Prime Primary Realtime Clock</Description><StartTime><Timestamp dt:dt="int">0</Timestamp><DateUtc dt:dt="string">2015-06-09T20:02:04Z</DateUtc></StartTime><FrequencyChanges><FrequencyChange><Frequency dt:dt="r8">3507675</Frequency><Timestamp dt:dt="r8">33689281945</Timestamp><Current dt:dt="r8">0</Current><DateUtc dt:dt="string">2015-06-09T20:02:04Z</DateUtc></FrequencyChange></FrequencyChanges></Clock>\n	Hungry_Donkey_bar_English_2-108-3	60.017	-77	1.0.0.18	1	-669786048	Standard	2.0.10.353	2.0.10.353	06-09-2015	6/9/2015 8:02:05 PM	16:02:05	2.0.10.248	68	Bar50-50.bmp	53	1	?	0r_4g.bmp	0r_4g.bmp	0r_2g.bmp	0r_2g.bmp	0r_4g.bmp				TrialProc	TrialList	0	cvbn	-999999	16	242125	0	c	481	242606	198	-173	25	4	-24	19	26	10	7	68	0	0	0	0	4	4	2	2	0	4
Hungry_Donkey_bar_English_2	108	3	<?xml version="1.0"?>\n<Clock xmlns:dt="urn:schemas-microsoft-com:datatypes"><Description dt:dt="string">E-Prime Primary Realtime Clock</Description><StartTime><Timestamp dt:dt="int">0</Timestamp><DateUtc dt:dt="string">2015-06-09T20:02:04Z</DateUtc></StartTime><FrequencyChanges><FrequencyChange><Frequency dt:dt="r8">3507675</Frequency><Timestamp dt:dt="r8">33689281945</Timestamp><Current dt:dt="r8">0</Current><DateUtc dt:dt="string">2015-06-09T20:02:04Z</DateUtc></FrequencyChange></FrequencyChanges></Clock>\n	Hungry_Donkey_bar_English_2-108-3	60.017	-77	1.0.0.18	1	-669786048	Standard	2.0.10.353	2.0.10.353	06-09-2015	6/9/2015 8:02:05 PM	16:02:05	2.0.10.248	69	Bar50-50.bmp	54	2	?	0r_4g.bmp	0r_4g.bmp	0r_2g.bmp	0r_2g.bmp		0r_4g.bmp			TrialProc	TrialList	0	cvbn	-999999	16	244641	0	v	653	245294	202	-173	29	4	-20	19	26	7	7	69	0	0	0	0	4	4	2	2	0	4
Hungry_Donkey_bar_English_2	108	3	<?xml version="1.0"?>\n<Clock xmlns:dt="urn:schemas-microsoft-com:datatypes"><Description dt:dt="string">E-Prime Primary Realtime Clock</Description><StartTime><Timestamp dt:dt="int">0</Timestamp><DateUtc dt:dt="string">2015-06-09T20:02:04Z</DateUtc></StartTime><FrequencyChanges><FrequencyChange><Frequency dt:dt="r8">3507675</Frequency><Timestamp dt:dt="r8">33689281945</Timestamp><Current dt:dt="r8">0</Current><DateUtc dt:dt="string">2015-06-09T20:02:04Z</DateUtc></FrequencyChange></FrequencyChanges></Clock>\n	Hungry_Donkey_bar_English_2-108-3	60.017	-77	1.0.0.18	1	-669786048	Standard	2.0.10.353	2.0.10.353	06-09-2015	6/9/2015 8:02:05 PM	16:02:05	2.0.10.248	70	Bar50-50.bmp	54	3	?	0r_4g.bmp	0r_4g.bmp	0r_2g.bmp	0r_2g.bmp			0r_2g.bmp		TrialProc	TrialList	0	cvbn	-999999	16	247323	0	b	723	248046	204	-173	31	4	-20	21	26	8	7	70	0	0	0	0	4	4	2	2	0	2
Hungry_Donkey_bar_English_2	108	3	<?xml version="1.0"?>\n<Clock xmlns:dt="urn:schemas-microsoft-com:datatypes"><Description dt:dt="string">E-Prime Primary Realtime Clock</Description><StartTime><Timestamp dt:dt="int">0</Timestamp><DateUtc dt:dt="string">2015-06-09T20:02:04Z</DateUtc></StartTime><FrequencyChanges><FrequencyChange><Frequency dt:dt="r8">3507675</Frequency><Timestamp dt:dt="r8">33689281945</Timestamp><Current dt:dt="r8">0</Current><DateUtc dt:dt="string">2015-06-09T20:02:04Z</DateUtc></FrequencyChange></FrequencyChanges></Clock>\n	Hungry_Donkey_bar_English_2-108-3	60.017	-77	1.0.0.18	1	-669786048	Standard	2.0.10.353	2.0.10.353	06-09-2015	6/9/2015 8:02:05 PM	16:02:05	2.0.10.248	71	Bar50-50.bmp	54	4	?	10r_4g.bmp	0r_4g.bmp	2r_2g.bmp	0r_2g.bmp				0r_2g.bmp	TrialProc	TrialList	0	cvbn	-999999	17	250073	0	n	628	250701	206	-173	33	4	-20	21	28	4	8	71	-10	0	-2	0	4	4	2	2	0	2
Hungry_Donkey_bar_English_2	108	3	<?xml version="1.0"?>\n<Clock xmlns:dt="urn:schemas-microsoft-com:datatypes"><Description dt:dt="string">E-Prime Primary Realtime Clock</Description><StartTime><Timestamp dt:dt="int">0</Timestamp><DateUtc dt:dt="string">2015-06-09T20:02:04Z</DateUtc></StartTime><FrequencyChanges><FrequencyChange><Frequency dt:dt="r8">3507675</Frequency><Timestamp dt:dt="r8">33689281945</Timestamp><Current dt:dt="r8">0</Current><DateUtc dt:dt="string">2015-06-09T20:02:04Z</DateUtc></FrequencyChange></FrequencyChanges></Clock>\n	Hungry_Donkey_bar_English_2-108-3	60.017	-77	1.0.0.18	1	-669786048	Standard	2.0.10.353	2.0.10.353	06-09-2015	6/9/2015 8:02:05 PM	16:02:05	2.0.10.248	72	Bar50-50.bmp	55	2	?	10r_4g.bmp	0r_4g.bmp	2r_2g.bmp	0r_2g.bmp		0r_4g.bmp			TrialProc	TrialList	0	cvbn	-999999	16	252738	0	v	379	253117	210	-173	37	4	-16	21	28	2	8	72	-10	0	-2	0	4	4	2	2	0	4
Hungry_Donkey_bar_English_2	108	3	<?xml version="1.0"?>\n<Clock xmlns:dt="urn:schemas-microsoft-com:datatypes"><Description dt:dt="string">E-Prime Primary Realtime Clock</Description><StartTime><Timestamp dt:dt="int">0</Timestamp><DateUtc dt:dt="string">2015-06-09T20:02:04Z</DateUtc></StartTime><FrequencyChanges><FrequencyChange><Frequency dt:dt="r8">3507675</Frequency><Timestamp dt:dt="r8">33689281945</Timestamp><Current dt:dt="r8">0</Current><DateUtc dt:dt="string">2015-06-09T20:02:04Z</DateUtc></FrequencyChange></FrequencyChanges></Clock>\n	Hungry_Donkey_bar_English_2-108-3	60.017	-77	1.0.0.18	1	-669786048	Standard	2.0.10.353	2.0.10.353	06-09-2015	6/9/2015 8:02:05 PM	16:02:05	2.0.10.248	73	Bar50-50.bmp	55	3	?	12r_4g.bmp	0r_4g.bmp	3r_2g.bmp	0r_2g.bmp			3r_2g.bmp		TrialProc	TrialList	0	cvbn	-999999	16	255154	0	b	411	255565	212	-176	36	4	-16	20	28	5	8	73	-12	0	-3	0	4	4	2	2	-3	2
Hungry_Donkey_bar_English_2	108	3	<?xml version="1.0"?>\n<Clock xmlns:dt="urn:schemas-microsoft-com:datatypes"><Description dt:dt="string">E-Prime Primary Realtime Clock</Description><StartTime><Timestamp dt:dt="int">0</Timestamp><DateUtc dt:dt="string">2015-06-09T20:02:04Z</DateUtc></StartTime><FrequencyChanges><FrequencyChange><Frequency dt:dt="r8">3507675</Frequency><Timestamp dt:dt="r8">33689281945</Timestamp><Current dt:dt="r8">0</Current><DateUtc dt:dt="string">2015-06-09T20:02:04Z</DateUtc></FrequencyChange></FrequencyChanges></Clock>\n	Hungry_Donkey_bar_English_2-108-3	60.017	-77	1.0.0.18	1	-669786048	Standard	2.0.10.353	2.0.10.353	06-09-2015	6/9/2015 8:02:05 PM	16:02:05	2.0.10.248	74	Bar50-50.bmp	54	4	?	8r_4g.bmp	50r_4g.bmp	1r_2g.bmp	10r_2g.bmp				10r_2g.bmp	TrialProc	TrialList	0	cvbn	-999999	16	257604	0	n	3529	261133	214	-186	28	4	-16	20	20	1	8	74	-8	-50	-1	-10	4	4	2	2	-10	2
Hungry_Donkey_bar_English_2	108	3	<?xml version="1.0"?>\n<Clock xmlns:dt="urn:schemas-microsoft-com:datatypes"><Description dt:dt="string">E-Prime Primary Realtime Clock</Description><StartTime><Timestamp dt:dt="int">0</Timestamp><DateUtc dt:dt="string">2015-06-09T20:02:04Z</DateUtc></StartTime><FrequencyChanges><FrequencyChange><Frequency dt:dt="r8">3507675</Frequency><Timestamp dt:dt="r8">33689281945</Timestamp><Current dt:dt="r8">0</Current><DateUtc dt:dt="string">2015-06-09T20:02:04Z</DateUtc></FrequencyChange></FrequencyChanges></Clock>\n	Hungry_Donkey_bar_English_2-108-3	60.017	-77	1.0.0.18	1	-669786048	Standard	2.0.10.353	2.0.10.353	06-09-2015	6/9/2015 8:02:05 PM	16:02:05	2.0.10.248	75	Bar50-50.bmp	54	3	?	0r_4g.bmp	0r_4g.bmp	0r_2g.bmp	0r_2g.bmp			0r_2g.bmp		TrialProc	TrialList	0	cvbn	-999999	16	263169	0	b	492	263661	216	-186	30	4	-16	22	20	8	8	75	0	0	0	0	4	4	2	2	0	2
Hungry_Donkey_bar_English_2	108	3	<?xml version="1.0"?>\n<Clock xmlns:dt="urn:schemas-microsoft-com:datatypes"><Description dt:dt="string">E-Prime Primary Realtime Clock</Description><StartTime><Timestamp dt:dt="int">0</Timestamp><DateUtc dt:dt="string">2015-06-09T20:02:04Z</DateUtc></StartTime><FrequencyChanges><FrequencyChange><Frequency dt:dt="r8">3507675</Frequency><Timestamp dt:dt="r8">33689281945</Timestamp><Current dt:dt="r8">0</Current><DateUtc dt:dt="string">2015-06-09T20:02:04Z</DateUtc></FrequencyChange></FrequencyChanges></Clock>\n	Hungry_Donkey_bar_English_2-108-3	60.017	-77	1.0.0.18	1	-669786048	Standard	2.0.10.353	2.0.10.353	06-09-2015	6/9/2015 8:02:05 PM	16:02:05	2.0.10.248	76	Bar50-50.bmp	54	2	?	10r_4g.bmp	0r_4g.bmp	2r_2g.bmp	0r_2g.bmp		0r_4g.bmp			TrialProc	TrialList	0	cvbn	-999999	16	265685	0	v	216	265901	220	-186	34	4	-12	22	20	3	8	76	-10	0	-2	0	4	4	2	2	0	4
Hungry_Donkey_bar_English_2	108	3	<?xml version="1.0"?>\n<Clock xmlns:dt="urn:schemas-microsoft-com:datatypes"><Description dt:dt="string">E-Prime Primary Realtime Clock</Description><StartTime><Timestamp dt:dt="int">0</Timestamp><DateUtc dt:dt="string">2015-06-09T20:02:04Z</DateUtc></StartTime><FrequencyChanges><FrequencyChange><Frequency dt:dt="r8">3507675</Frequency><Timestamp dt:dt="r8">33689281945</Timestamp><Current dt:dt="r8">0</Current><DateUtc dt:dt="string">2015-06-09T20:02:04Z</DateUtc></FrequencyChange></FrequencyChanges></Clock>\n	Hungry_Donkey_bar_English_2-108-3	60.017	-77	1.0.0.18	1	-669786048	Standard	2.0.10.353	2.0.10.353	06-09-2015	6/9/2015 8:02:05 PM	16:02:05	2.0.10.248	77	Bar50-50.bmp	55	1	?	0r_4g.bmp	0r_4g.bmp	0r_2g.bmp	0r_2g.bmp	0r_4g.bmp				TrialProc	TrialList	0	cvbn	-999999	16	267934	0	c	415	268349	224	-186	38	8	-12	22	20	7	8	77	0	0	0	0	4	4	2	2	0	4
Hungry_Donkey_bar_English_2	108	3	<?xml version="1.0"?>\n<Clock xmlns:dt="urn:schemas-microsoft-com:datatypes"><Description dt:dt="string">E-Prime Primary Realtime Clock</Description><StartTime><Timestamp dt:dt="int">0</Timestamp><DateUtc dt:dt="string">2015-06-09T20:02:04Z</DateUtc></StartTime><FrequencyChanges><FrequencyChange><Frequency dt:dt="r8">3507675</Frequency><Timestamp dt:dt="r8">33689281945</Timestamp><Current dt:dt="r8">0</Current><DateUtc dt:dt="string">2015-06-09T20:02:04Z</DateUtc></FrequencyChange></FrequencyChanges></Clock>\n	Hungry_Donkey_bar_English_2-108-3	60.017	-77	1.0.0.18	1	-669786048	Standard	2.0.10.353	2.0.10.353	06-09-2015	6/9/2015 8:02:05 PM	16:02:05	2.0.10.248	78	Bar50-50.bmp	55	2	?	0r_4g.bmp	0r_4g.bmp	0r_2g.bmp	0r_2g.bmp		0r_4g.bmp			TrialProc	TrialList	0	cvbn	-999999	16	270383	0	v	525	270908	228	-186	42	8	-8	22	20	6	8	78	0	0	0	0	4	4	2	2	0	4
Hungry_Donkey_bar_English_2	108	3	<?xml version="1.0"?>\n<Clock xmlns:dt="urn:schemas-microsoft-com:datatypes"><Description dt:dt="string">E-Prime Primary Realtime Clock</Description><StartTime><Timestamp dt:dt="int">0</Timestamp><DateUtc dt:dt="string">2015-06-09T20:02:04Z</DateUtc></StartTime><FrequencyChanges><FrequencyChange><Frequency dt:dt="r8">3507675</Frequency><Timestamp dt:dt="r8">33689281945</Timestamp><Current dt:dt="r8">0</Current><DateUtc dt:dt="string">2015-06-09T20:02:04Z</DateUtc></FrequencyChange></FrequencyChanges></Clock>\n	Hungry_Donkey_bar_English_2-108-3	60.017	-77	1.0.0.18	1	-669786048	Standard	2.0.10.353	2.0.10.353	06-09-2015	6/9/2015 8:02:05 PM	16:02:05	2.0.10.248	79	Bar50-50.bmp	55	3	?	0r_4g.bmp	0r_4g.bmp	0r_2g.bmp	0r_2g.bmp			0r_2g.bmp		TrialProc	TrialList	0	cvbn	-999999	16	272933	0	b	391	273324	230	-186	44	8	-8	24	20	9	8	79	0	0	0	0	4	4	2	2	0	2
Hungry_Donkey_bar_English_2	108	3	<?xml version="1.0"?>\n<Clock xmlns:dt="urn:schemas-microsoft-com:datatypes"><Description dt:dt="string">E-Prime Primary Realtime Clock</Description><StartTime><Timestamp dt:dt="int">0</Timestamp><DateUtc dt:dt="string">2015-06-09T20:02:04Z</DateUtc></StartTime><FrequencyChanges><FrequencyChange><Frequency dt:dt="r8">3507675</Frequency><Timestamp dt:dt="r8">33689281945</Timestamp><Current dt:dt="r8">0</Current><DateUtc dt:dt="string">2015-06-09T20:02:04Z</DateUtc></FrequencyChange></FrequencyChanges></Clock>\n	Hungry_Donkey_bar_English_2-108-3	60.017	-77	1.0.0.18	1	-669786048	Standard	2.0.10.353	2.0.10.353	06-09-2015	6/9/2015 8:02:05 PM	16:02:05	2.0.10.248	80	Bar50-50.bmp	56	4	?	0r_4g.bmp	0r_4g.bmp	0r_2g.bmp	0r_2g.bmp				0r_2g.bmp	TrialProc	TrialList	0	cvbn	-999999	16	275349	0	n	2855	278204	232	-186	46	8	-8	24	22	10	8	80	0	0	0	0	4	4	2	2	0	2
Hungry_Donkey_bar_English_2	108	3	<?xml version="1.0"?>\n<Clock xmlns:dt="urn:schemas-microsoft-com:datatypes"><Description dt:dt="string">E-Prime Primary Realtime Clock</Description><StartTime><Timestamp dt:dt="int">0</Timestamp><DateUtc dt:dt="string">2015-06-09T20:02:04Z</DateUtc></StartTime><FrequencyChanges><FrequencyChange><Frequency dt:dt="r8">3507675</Frequency><Timestamp dt:dt="r8">33689281945</Timestamp><Current dt:dt="r8">0</Current><DateUtc dt:dt="string">2015-06-09T20:02:04Z</DateUtc></FrequencyChange></FrequencyChanges></Clock>\n	Hungry_Donkey_bar_English_2-108-3	60.017	-77	1.0.0.18	1	-669786048	Standard	2.0.10.353	2.0.10.353	06-09-2015	6/9/2015 8:02:05 PM	16:02:05	2.0.10.248	81	Bar50-50.bmp	56	3	?	8r_4g.bmp	50r_4g.bmp	1r_2g.bmp	10r_2g.bmp			1r_2g.bmp		TrialProc	TrialList	0	cvbn	-999999	17	280231	0	b	1509	281740	234	-187	47	8	-8	25	22	1	9	81	-8	-50	-1	-10	4	4	2	2	-1	2
Hungry_Donkey_bar_English_2	108	3	<?xml version="1.0"?>\n<Clock xmlns:dt="urn:schemas-microsoft-com:datatypes"><Description dt:dt="string">E-Prime Primary Realtime Clock</Description><StartTime><Timestamp dt:dt="int">0</Timestamp><DateUtc dt:dt="string">2015-06-09T20:02:04Z</DateUtc></StartTime><FrequencyChanges><FrequencyChange><Frequency dt:dt="r8">3507675</Frequency><Timestamp dt:dt="r8">33689281945</Timestamp><Current dt:dt="r8">0</Current><DateUtc dt:dt="string">2015-06-09T20:02:04Z</DateUtc></FrequencyChange></FrequencyChanges></Clock>\n	Hungry_Donkey_bar_English_2-108-3	60.017	-77	1.0.0.18	1	-669786048	Standard	2.0.10.353	2.0.10.353	06-09-2015	6/9/2015 8:02:05 PM	16:02:05	2.0.10.248	82	Bar50-50.bmp	56	2	?	0r_4g.bmp	0r_4g.bmp	0r_2g.bmp	0r_2g.bmp		0r_4g.bmp			TrialProc	TrialList	0	cvbn	-999999	17	283780	0	v	504	284284	238	-187	51	8	-4	25	22	6	9	82	0	0	0	0	4	4	2	2	0	4
Hungry_Donkey_bar_English_2	108	3	<?xml version="1.0"?>\n<Clock xmlns:dt="urn:schemas-microsoft-com:datatypes"><Description dt:dt="string">E-Prime Primary Realtime Clock</Description><StartTime><Timestamp dt:dt="int">0</Timestamp><DateUtc dt:dt="string">2015-06-09T20:02:04Z</DateUtc></StartTime><FrequencyChanges><FrequencyChange><Frequency dt:dt="r8">3507675</Frequency><Timestamp dt:dt="r8">33689281945</Timestamp><Current dt:dt="r8">0</Current><DateUtc dt:dt="string">2015-06-09T20:02:04Z</DateUtc></FrequencyChange></FrequencyChanges></Clock>\n	Hungry_Donkey_bar_English_2-108-3	60.017	-77	1.0.0.18	1	-669786048	Standard	2.0.10.353	2.0.10.353	06-09-2015	6/9/2015 8:02:05 PM	16:02:05	2.0.10.248	83	Bar50-50.bmp	55	1	?	10r_4g.bmp	0r_4g.bmp	2r_2g.bmp	0r_2g.bmp	10r_4g.bmp				TrialProc	TrialList	0	cvbn	-999999	16	286312	0	c	388	286700	242	-197	45	2	-4	25	22	3	9	83	-10	0	-2	0	4	4	2	2	-10	4
Hungry_Donkey_bar_English_2	108	3	<?xml version="1.0"?>\n<Clock xmlns:dt="urn:schemas-microsoft-com:datatypes"><Description dt:dt="string">E-Prime Primary Realtime Clock</Description><StartTime><Timestamp dt:dt="int">0</Timestamp><DateUtc dt:dt="string">2015-06-09T20:02:04Z</DateUtc></StartTime><FrequencyChanges><FrequencyChange><Frequency dt:dt="r8">3507675</Frequency><Timestamp dt:dt="r8">33689281945</Timestamp><Current dt:dt="r8">0</Current><DateUtc dt:dt="string">2015-06-09T20:02:04Z</DateUtc></FrequencyChange></FrequencyChanges></Clock>\n	Hungry_Donkey_bar_English_2-108-3	60.017	-77	1.0.0.18	1	-669786048	Standard	2.0.10.353	2.0.10.353	06-09-2015	6/9/2015 8:02:05 PM	16:02:05	2.0.10.248	84	Bar50-50.bmp	55	4	?	0r_4g.bmp	0r_4g.bmp	0r_2g.bmp	0r_2g.bmp				0r_2g.bmp	TrialProc	TrialList	0	cvbn	-999999	16	288728	0	n	948	289676	244	-197	47	2	-4	25	24	7	9	84	0	0	0	0	4	4	2	2	0	2
Hungry_Donkey_bar_English_2	108	3	<?xml version="1.0"?>\n<Clock xmlns:dt="urn:schemas-microsoft-com:datatypes"><Description dt:dt="string">E-Prime Primary Realtime Clock</Description><StartTime><Timestamp dt:dt="int">0</Timestamp><DateUtc dt:dt="string">2015-06-09T20:02:04Z</DateUtc></StartTime><FrequencyChanges><FrequencyChange><Frequency dt:dt="r8">3507675</Frequency><Timestamp dt:dt="r8">33689281945</Timestamp><Current dt:dt="r8">0</Current><DateUtc dt:dt="string">2015-06-09T20:02:04Z</DateUtc></FrequencyChange></FrequencyChanges></Clock>\n	Hungry_Donkey_bar_English_2-108-3	60.017	-77	1.0.0.18	1	-669786048	Standard	2.0.10.353	2.0.10.353	06-09-2015	6/9/2015 8:02:05 PM	16:02:05	2.0.10.248	85	Bar50-50.bmp	56	4	?	10r_4g.bmp	0r_4g.bmp	2r_2g.bmp	0r_2g.bmp				0r_2g.bmp	TrialProc	TrialList	0	cvbn	-999999	16	291711	0	n	380	292091	246	-197	49	2	-4	25	26	2	9	85	-10	0	-2	0	4	4	2	2	0	2
Hungry_Donkey_bar_English_2	108	3	<?xml version="1.0"?>\n<Clock xmlns:dt="urn:schemas-microsoft-com:datatypes"><Description dt:dt="string">E-Prime Primary Realtime Clock</Description><StartTime><Timestamp dt:dt="int">0</Timestamp><DateUtc dt:dt="string">2015-06-09T20:02:04Z</DateUtc></StartTime><FrequencyChanges><FrequencyChange><Frequency dt:dt="r8">3507675</Frequency><Timestamp dt:dt="r8">33689281945</Timestamp><Current dt:dt="r8">0</Current><DateUtc dt:dt="string">2015-06-09T20:02:04Z</DateUtc></FrequencyChange></FrequencyChanges></Clock>\n	Hungry_Donkey_bar_English_2-108-3	60.017	-77	1.0.0.18	1	-669786048	Standard	2.0.10.353	2.0.10.353	06-09-2015	6/9/2015 8:02:05 PM	16:02:05	2.0.10.248	86	Bar50-50.bmp	56	4	?	0r_4g.bmp	0r_4g.bmp	0r_2g.bmp	0r_2g.bmp				0r_2g.bmp	TrialProc	TrialList	0	cvbn	-999999	17	294127	0	n	844	294971	248	-197	51	2	-4	25	28	8	9	86	0	0	0	0	4	4	2	2	0	2
Hungry_Donkey_bar_English_2	108	3	<?xml version="1.0"?>\n<Clock xmlns:dt="urn:schemas-microsoft-com:datatypes"><Description dt:dt="string">E-Prime Primary Realtime Clock</Description><StartTime><Timestamp dt:dt="int">0</Timestamp><DateUtc dt:dt="string">2015-06-09T20:02:04Z</DateUtc></StartTime><FrequencyChanges><FrequencyChange><Frequency dt:dt="r8">3507675</Frequency><Timestamp dt:dt="r8">33689281945</Timestamp><Current dt:dt="r8">0</Current><DateUtc dt:dt="string">2015-06-09T20:02:04Z</DateUtc></FrequencyChange></FrequencyChanges></Clock>\n	Hungry_Donkey_bar_English_2-108-3	60.017	-77	1.0.0.18	1	-669786048	Standard	2.0.10.353	2.0.10.353	06-09-2015	6/9/2015 8:02:05 PM	16:02:05	2.0.10.248	87	Bar50-50.bmp	56	4	?	10r_4g.bmp	0r_4g.bmp	2r_2g.bmp	0r_2g.bmp				0r_2g.bmp	TrialProc	TrialList	0	cvbn	-999999	16	297009	0	n	634	297643	250	-197	53	2	-4	25	30	4	9	87	-10	0	-2	0	4	4	2	2	0	2
Hungry_Donkey_bar_English_2	108	3	<?xml version="1.0"?>\n<Clock xmlns:dt="urn:schemas-microsoft-com:datatypes"><Description dt:dt="string">E-Prime Primary Realtime Clock</Description><StartTime><Timestamp dt:dt="int">0</Timestamp><DateUtc dt:dt="string">2015-06-09T20:02:04Z</DateUtc></StartTime><FrequencyChanges><FrequencyChange><Frequency dt:dt="r8">3507675</Frequency><Timestamp dt:dt="r8">33689281945</Timestamp><Current dt:dt="r8">0</Current><DateUtc dt:dt="string">2015-06-09T20:02:04Z</DateUtc></FrequencyChange></FrequencyChanges></Clock>\n	Hungry_Donkey_bar_English_2-108-3	60.017	-77	1.0.0.18	1	-669786048	Standard	2.0.10.353	2.0.10.353	06-09-2015	6/9/2015 8:02:05 PM	16:02:05	2.0.10.248	88	Bar50-50.bmp	56	4	?	0r_4g.bmp	0r_4g.bmp	0r_2g.bmp	0r_2g.bmp				0r_2g.bmp	TrialProc	TrialList	0	cvbn	-999999	16	299675	0	n	416	300091	252	-197	55	2	-4	25	32	10	9	88	0	0	0	0	4	4	2	2	0	2
Hungry_Donkey_bar_English_2	108	3	<?xml version="1.0"?>\n<Clock xmlns:dt="urn:schemas-microsoft-com:datatypes"><Description dt:dt="string">E-Prime Primary Realtime Clock</Description><StartTime><Timestamp dt:dt="int">0</Timestamp><DateUtc dt:dt="string">2015-06-09T20:02:04Z</DateUtc></StartTime><FrequencyChanges><FrequencyChange><Frequency dt:dt="r8">3507675</Frequency><Timestamp dt:dt="r8">33689281945</Timestamp><Current dt:dt="r8">0</Current><DateUtc dt:dt="string">2015-06-09T20:02:04Z</DateUtc></FrequencyChange></FrequencyChanges></Clock>\n	Hungry_Donkey_bar_English_2-108-3	60.017	-77	1.0.0.18	1	-669786048	Standard	2.0.10.353	2.0.10.353	06-09-2015	6/9/2015 8:02:05 PM	16:02:05	2.0.10.248	89	Bar50-50.bmp	56	4	?	0r_4g.bmp	0r_4g.bmp	0r_2g.bmp	0r_2g.bmp				0r_2g.bmp	TrialProc	TrialList	0	cvbn	-999999	16	302124	0	n	463	302587	254	-197	57	2	-4	25	34	9	9	89	0	0	0	0	4	4	2	2	0	2
Hungry_Donkey_bar_English_2	108	3	<?xml version="1.0"?>\n<Clock xmlns:dt="urn:schemas-microsoft-com:datatypes"><Description dt:dt="string">E-Prime Primary Realtime Clock</Description><StartTime><Timestamp dt:dt="int">0</Timestamp><DateUtc dt:dt="string">2015-06-09T20:02:04Z</DateUtc></StartTime><FrequencyChanges><FrequencyChange><Frequency dt:dt="r8">3507675</Frequency><Timestamp dt:dt="r8">33689281945</Timestamp><Current dt:dt="r8">0</Current><DateUtc dt:dt="string">2015-06-09T20:02:04Z</DateUtc></FrequencyChange></FrequencyChanges></Clock>\n	Hungry_Donkey_bar_English_2-108-3	60.017	-77	1.0.0.18	1	-669786048	Standard	2.0.10.353	2.0.10.353	06-09-2015	6/9/2015 8:02:05 PM	16:02:05	2.0.10.248	90	Bar63-37.bmp	57	4	?	12r_4g.bmp	0r_4g.bmp	3r_2g.bmp	0r_2g.bmp				0r_2g.bmp	TrialProc	TrialList	0	cvbn	-999999	17	304624	0	n	411	305035	256	-197	59	2	-4	25	36	5	9	90	-12	0	-3	0	4	4	2	2	0	2
Hungry_Donkey_bar_English_2	108	3	<?xml version="1.0"?>\n<Clock xmlns:dt="urn:schemas-microsoft-com:datatypes"><Description dt:dt="string">E-Prime Primary Realtime Clock</Description><StartTime><Timestamp dt:dt="int">0</Timestamp><DateUtc dt:dt="string">2015-06-09T20:02:04Z</DateUtc></StartTime><FrequencyChanges><FrequencyChange><Frequency dt:dt="r8">3507675</Frequency><Timestamp dt:dt="r8">33689281945</Timestamp><Current dt:dt="r8">0</Current><DateUtc dt:dt="string">2015-06-09T20:02:04Z</DateUtc></FrequencyChange></FrequencyChanges></Clock>\n	Hungry_Donkey_bar_English_2-108-3	60.017	-77	1.0.0.18	1	-669786048	Standard	2.0.10.353	2.0.10.353	06-09-2015	6/9/2015 8:02:05 PM	16:02:05	2.0.10.248	91	Bar63-37.bmp	57	4	?	0r_4g.bmp	0r_4g.bmp	0r_2g.bmp	0r_2g.bmp				0r_2g.bmp	TrialProc	TrialList	0	cvbn	-999999	16	307073	0	n	698	307771	258	-197	61	2	-4	25	38	10	10	91	0	0	0	0	4	4	2	2	0	2
Hungry_Donkey_bar_English_2	108	3	<?xml version="1.0"?>\n<Clock xmlns:dt="urn:schemas-microsoft-com:datatypes"><Description dt:dt="string">E-Prime Primary Realtime Clock</Description><StartTime><Timestamp dt:dt="int">0</Timestamp><DateUtc dt:dt="string">2015-06-09T20:02:04Z</DateUtc></StartTime><FrequencyChanges><FrequencyChange><Frequency dt:dt="r8">3507675</Frequency><Timestamp dt:dt="r8">33689281945</Timestamp><Current dt:dt="r8">0</Current><DateUtc dt:dt="string">2015-06-09T20:02:04Z</DateUtc></FrequencyChange></FrequencyChanges></Clock>\n	Hungry_Donkey_bar_English_2-108-3	60.017	-77	1.0.0.18	1	-669786048	Standard	2.0.10.353	2.0.10.353	06-09-2015	6/9/2015 8:02:05 PM	16:02:05	2.0.10.248	92	Bar63-37.bmp	57	4	?	10r_4g.bmp	0r_4g.bmp	2r_2g.bmp	0r_2g.bmp				0r_2g.bmp	TrialProc	TrialList	0	cvbn	-999999	16	309805	0	n	446	310251	260	-197	63	2	-4	25	40	4	10	92	-10	0	-2	0	4	4	2	2	0	2
Hungry_Donkey_bar_English_2	108	3	<?xml version="1.0"?>\n<Clock xmlns:dt="urn:schemas-microsoft-com:datatypes"><Description dt:dt="string">E-Prime Primary Realtime Clock</Description><StartTime><Timestamp dt:dt="int">0</Timestamp><DateUtc dt:dt="string">2015-06-09T20:02:04Z</DateUtc></StartTime><FrequencyChanges><FrequencyChange><Frequency dt:dt="r8">3507675</Frequency><Timestamp dt:dt="r8">33689281945</Timestamp><Current dt:dt="r8">0</Current><DateUtc dt:dt="string">2015-06-09T20:02:04Z</DateUtc></FrequencyChange></FrequencyChanges></Clock>\n	Hungry_Donkey_bar_English_2-108-3	60.017	-77	1.0.0.18	1	-669786048	Standard	2.0.10.353	2.0.10.353	06-09-2015	6/9/2015 8:02:05 PM	16:02:05	2.0.10.248	93	Bar63-37.bmp	57	3	?	0r_4g.bmp	0r_4g.bmp	0r_2g.bmp	0r_2g.bmp			0r_2g.bmp		TrialProc	TrialList	0	cvbn	-999999	16	312288	0	b	458	312746	262	-197	65	2	-4	27	40	6	10	93	0	0	0	0	4	4	2	2	0	2
Hungry_Donkey_bar_English_2	108	3	<?xml version="1.0"?>\n<Clock xmlns:dt="urn:schemas-microsoft-com:datatypes"><Description dt:dt="string">E-Prime Primary Realtime Clock</Description><StartTime><Timestamp dt:dt="int">0</Timestamp><DateUtc dt:dt="string">2015-06-09T20:02:04Z</DateUtc></StartTime><FrequencyChanges><FrequencyChange><Frequency dt:dt="r8">3507675</Frequency><Timestamp dt:dt="r8">33689281945</Timestamp><Current dt:dt="r8">0</Current><DateUtc dt:dt="string">2015-06-09T20:02:04Z</DateUtc></FrequencyChange></FrequencyChanges></Clock>\n	Hungry_Donkey_bar_English_2-108-3	60.017	-77	1.0.0.18	1	-669786048	Standard	2.0.10.353	2.0.10.353	06-09-2015	6/9/2015 8:02:05 PM	16:02:05	2.0.10.248	94	Bar63-37.bmp	57	4	?	10r_4g.bmp	0r_4g.bmp	2r_2g.bmp	0r_2g.bmp				0r_2g.bmp	TrialProc	TrialList	0	cvbn	-999999	16	314771	0	n	727	315498	264	-197	67	2	-4	27	42	2	10	94	-10	0	-2	0	4	4	2	2	0	2
Hungry_Donkey_bar_English_2	108	3	<?xml version="1.0"?>\n<Clock xmlns:dt="urn:schemas-microsoft-com:datatypes"><Description dt:dt="string">E-Prime Primary Realtime Clock</Description><StartTime><Timestamp dt:dt="int">0</Timestamp><DateUtc dt:dt="string">2015-06-09T20:02:04Z</DateUtc></StartTime><FrequencyChanges><FrequencyChange><Frequency dt:dt="r8">3507675</Frequency><Timestamp dt:dt="r8">33689281945</Timestamp><Current dt:dt="r8">0</Current><DateUtc dt:dt="string">2015-06-09T20:02:04Z</DateUtc></FrequencyChange></FrequencyChanges></Clock>\n	Hungry_Donkey_bar_English_2-108-3	60.017	-77	1.0.0.18	1	-669786048	Standard	2.0.10.353	2.0.10.353	06-09-2015	6/9/2015 8:02:05 PM	16:02:05	2.0.10.248	95	Bar63-37.bmp	58	2	?	12r_4g.bmp	0r_4g.bmp	3r_2g.bmp	0r_2g.bmp		0r_4g.bmp			TrialProc	TrialList	0	cvbn	-999999	17	317537	0	v	905	318442	268	-197	71	2	0	27	42	5	10	95	-12	0	-3	0	4	4	2	2	0	4
Hungry_Donkey_bar_English_2	108	3	<?xml version="1.0"?>\n<Clock xmlns:dt="urn:schemas-microsoft-com:datatypes"><Description dt:dt="string">E-Prime Primary Realtime Clock</Description><StartTime><Timestamp dt:dt="int">0</Timestamp><DateUtc dt:dt="string">2015-06-09T20:02:04Z</DateUtc></StartTime><FrequencyChanges><FrequencyChange><Frequency dt:dt="r8">3507675</Frequency><Timestamp dt:dt="r8">33689281945</Timestamp><Current dt:dt="r8">0</Current><DateUtc dt:dt="string">2015-06-09T20:02:04Z</DateUtc></FrequencyChange></FrequencyChanges></Clock>\n	Hungry_Donkey_bar_English_2-108-3	60.017	-77	1.0.0.18	1	-669786048	Standard	2.0.10.353	2.0.10.353	06-09-2015	6/9/2015 8:02:05 PM	16:02:05	2.0.10.248	96	Bar63-37.bmp	58	2	?	10r_4g.bmp	0r_4g.bmp	2r_2g.bmp	0r_2g.bmp		0r_4g.bmp			TrialProc	TrialList	0	cvbn	-999999	16	320469	0	v	453	320922	272	-197	75	2	4	27	42	3	10	96	-10	0	-2	0	4	4	2	2	0	4
Hungry_Donkey_bar_English_2	108	3	<?xml version="1.0"?>\n<Clock xmlns:dt="urn:schemas-microsoft-com:datatypes"><Description dt:dt="string">E-Prime Primary Realtime Clock</Description><StartTime><Timestamp dt:dt="int">0</Timestamp><DateUtc dt:dt="string">2015-06-09T20:02:04Z</DateUtc></StartTime><FrequencyChanges><FrequencyChange><Frequency dt:dt="r8">3507675</Frequency><Timestamp dt:dt="r8">33689281945</Timestamp><Current dt:dt="r8">0</Current><DateUtc dt:dt="string">2015-06-09T20:02:04Z</DateUtc></FrequencyChange></FrequencyChanges></Clock>\n	Hungry_Donkey_bar_English_2-108-3	60.017	-77	1.0.0.18	1	-669786048	Standard	2.0.10.353	2.0.10.353	06-09-2015	6/9/2015 8:02:05 PM	16:02:05	2.0.10.248	97	Bar63-37.bmp	58	2	?	0r_4g.bmp	0r_4g.bmp	0r_2g.bmp	0r_2g.bmp		0r_4g.bmp			TrialProc	TrialList	0	cvbn	-999999	16	322952	0	v	450	323402	276	-197	79	2	8	27	42	9	10	97	0	0	0	0	4	4	2	2	0	4
Hungry_Donkey_bar_English_2	108	3	<?xml version="1.0"?>\n<Clock xmlns:dt="urn:schemas-microsoft-com:datatypes"><Description dt:dt="string">E-Prime Primary Realtime Clock</Description><StartTime><Timestamp dt:dt="int">0</Timestamp><DateUtc dt:dt="string">2015-06-09T20:02:04Z</DateUtc></StartTime><FrequencyChanges><FrequencyChange><Frequency dt:dt="r8">3507675</Frequency><Timestamp dt:dt="r8">33689281945</Timestamp><Current dt:dt="r8">0</Current><DateUtc dt:dt="string">2015-06-09T20:02:04Z</DateUtc></FrequencyChange></FrequencyChanges></Clock>\n	Hungry_Donkey_bar_English_2-108-3	60.017	-77	1.0.0.18	1	-669786048	Standard	2.0.10.353	2.0.10.353	06-09-2015	6/9/2015 8:02:05 PM	16:02:05	2.0.10.248	98	Bar63-37.bmp	59	2	?	0r_4g.bmp	0r_4g.bmp	0r_2g.bmp	0r_2g.bmp		0r_4g.bmp			TrialProc	TrialList	0	cvbn	-999999	16	325434	0	v	512	325946	280	-197	83	2	12	27	42	7	10	98	0	0	0	0	4	4	2	2	0	4
Hungry_Donkey_bar_English_2	108	3	<?xml version="1.0"?>\n<Clock xmlns:dt="urn:schemas-microsoft-com:datatypes"><Description dt:dt="string">E-Prime Primary Realtime Clock</Description><StartTime><Timestamp dt:dt="int">0</Timestamp><DateUtc dt:dt="string">2015-06-09T20:02:04Z</DateUtc></StartTime><FrequencyChanges><FrequencyChange><Frequency dt:dt="r8">3507675</Frequency><Timestamp dt:dt="r8">33689281945</Timestamp><Current dt:dt="r8">0</Current><DateUtc dt:dt="string">2015-06-09T20:02:04Z</DateUtc></FrequencyChange></FrequencyChanges></Clock>\n	Hungry_Donkey_bar_English_2-108-3	60.017	-77	1.0.0.18	1	-669786048	Standard	2.0.10.353	2.0.10.353	06-09-2015	6/9/2015 8:02:05 PM	16:02:05	2.0.10.248	99	Bar50-50.bmp	53	2	?	8r_4g.bmp	50r_4g.bmp	1r_2g.bmp	10r_2g.bmp		50r_4g.bmp			TrialProc	TrialList	0	cvbn	-999999	17	327984	0	v	442	328426	284	-247	37	2	-34	27	42	1	10	99	-8	-50	-1	-10	4	4	2	2	-50	4
Hungry_Donkey_bar_English_2	108	3	<?xml version="1.0"?>\n<Clock xmlns:dt="urn:schemas-microsoft-com:datatypes"><Description dt:dt="string">E-Prime Primary Realtime Clock</Description><StartTime><Timestamp dt:dt="int">0</Timestamp><DateUtc dt:dt="string">2015-06-09T20:02:04Z</DateUtc></StartTime><FrequencyChanges><FrequencyChange><Frequency dt:dt="r8">3507675</Frequency><Timestamp dt:dt="r8">33689281945</Timestamp><Current dt:dt="r8">0</Current><DateUtc dt:dt="string">2015-06-09T20:02:04Z</DateUtc></FrequencyChange></FrequencyChanges></Clock>\n	Hungry_Donkey_bar_English_2-108-3	60.017	-77	1.0.0.18	1	-669786048	Standard	2.0.10.353	2.0.10.353	06-09-2015	6/9/2015 8:02:05 PM	16:02:05	2.0.10.248	100	Bar50-50.bmp	54	3	?	0r_4g.bmp	0r_4g.bmp	0r_2g.bmp	0r_2g.bmp			0r_2g.bmp		TrialProc	TrialList	0	cvbn	-999999	16	330466	0	b	776	331242	286	-247	39	2	-34	29	42	8	10	100	0	0	0	0	4	4	2	2	0	2
Hungry_Donkey_bar_English_2	108	3	<?xml version="1.0"?>\n<Clock xmlns:dt="urn:schemas-microsoft-com:datatypes"><Description dt:dt="string">E-Prime Primary Realtime Clock</Description><StartTime><Timestamp dt:dt="int">0</Timestamp><DateUtc dt:dt="string">2015-06-09T20:02:04Z</DateUtc></StartTime><FrequencyChanges><FrequencyChange><Frequency dt:dt="r8">3507675</Frequency><Timestamp dt:dt="r8">33689281945</Timestamp><Current dt:dt="r8">0</Current><DateUtc dt:dt="string">2015-06-09T20:02:04Z</DateUtc></FrequencyChange></FrequencyChanges></Clock>\n	Hungry_Donkey_bar_English_2-108-3	60.017	-77	1.0.0.18	1	-669786048	Standard	2.0.10.353	2.0.10.353	06-09-2015	6/9/2015 8:02:05 PM	16:02:05	2.0.10.248	101	Bar50-50.bmp	54	3	?	8r_4g.bmp	50r_4g.bmp	1r_2g.bmp	10r_2g.bmp			1r_2g.bmp		TrialProc	TrialList	0	cvbn	-999999	15	333265	0	b	696	333961	288	-248	40	2	-34	30	42	1	11	101	-8	-50	-1	-10	4	4	2	2	-1	2
Hungry_Donkey_bar_English_2	108	3	<?xml version="1.0"?>\n<Clock xmlns:dt="urn:schemas-microsoft-com:datatypes"><Description dt:dt="string">E-Prime Primary Realtime Clock</Description><StartTime><Timestamp dt:dt="int">0</Timestamp><DateUtc dt:dt="string">2015-06-09T20:02:04Z</DateUtc></StartTime><FrequencyChanges><FrequencyChange><Frequency dt:dt="r8">3507675</Frequency><Timestamp dt:dt="r8">33689281945</Timestamp><Current dt:dt="r8">0</Current><DateUtc dt:dt="string">2015-06-09T20:02:04Z</DateUtc></FrequencyChange></FrequencyChanges></Clock>\n	Hungry_Donkey_bar_English_2-108-3	60.017	-77	1.0.0.18	1	-669786048	Standard	2.0.10.353	2.0.10.353	06-09-2015	6/9/2015 8:02:05 PM	16:02:05	2.0.10.248	102	Bar50-50.bmp	54	4	?	0r_4g.bmp	0r_4g.bmp	0r_2g.bmp	0r_2g.bmp				0r_2g.bmp	TrialProc	TrialList	0	cvbn	-999999	16	335998	0	n	443	336441	290	-248	42	2	-34	30	44	7	11	102	0	0	0	0	4	4	2	2	0	2
Hungry_Donkey_bar_English_2	108	3	<?xml version="1.0"?>\n<Clock xmlns:dt="urn:schemas-microsoft-com:datatypes"><Description dt:dt="string">E-Prime Primary Realtime Clock</Description><StartTime><Timestamp dt:dt="int">0</Timestamp><DateUtc dt:dt="string">2015-06-09T20:02:04Z</DateUtc></StartTime><FrequencyChanges><FrequencyChange><Frequency dt:dt="r8">3507675</Frequency><Timestamp dt:dt="r8">33689281945</Timestamp><Current dt:dt="r8">0</Current><DateUtc dt:dt="string">2015-06-09T20:02:04Z</DateUtc></FrequencyChange></FrequencyChanges></Clock>\n	Hungry_Donkey_bar_English_2-108-3	60.017	-77	1.0.0.18	1	-669786048	Standard	2.0.10.353	2.0.10.353	06-09-2015	6/9/2015 8:02:05 PM	16:02:05	2.0.10.248	103	Bar50-50.bmp	53	1	?	12r_4g.bmp	0r_4g.bmp	3r_2g.bmp	0r_2g.bmp	12r_4g.bmp				TrialProc	TrialList	0	cvbn	-999999	16	338464	0	c	1225	339689	294	-260	34	-6	-34	30	44	5	11	103	-12	0	-3	0	4	4	2	2	-12	4
Hungry_Donkey_bar_English_2	108	3	<?xml version="1.0"?>\n<Clock xmlns:dt="urn:schemas-microsoft-com:datatypes"><Description dt:dt="string">E-Prime Primary Realtime Clock</Description><StartTime><Timestamp dt:dt="int">0</Timestamp><DateUtc dt:dt="string">2015-06-09T20:02:04Z</DateUtc></StartTime><FrequencyChanges><FrequencyChange><Frequency dt:dt="r8">3507675</Frequency><Timestamp dt:dt="r8">33689281945</Timestamp><Current dt:dt="r8">0</Current><DateUtc dt:dt="string">2015-06-09T20:02:04Z</DateUtc></FrequencyChange></FrequencyChanges></Clock>\n	Hungry_Donkey_bar_English_2-108-3	60.017	-77	1.0.0.18	1	-669786048	Standard	2.0.10.353	2.0.10.353	06-09-2015	6/9/2015 8:02:05 PM	16:02:05	2.0.10.248	104	Bar50-50.bmp	53	2	?	0r_4g.bmp	0r_4g.bmp	0r_2g.bmp	0r_2g.bmp		0r_4g.bmp			TrialProc	TrialList	0	cvbn	-999999	16	341730	0	v	567	342297	298	-260	38	-6	-30	30	44	6	11	104	0	0	0	0	4	4	2	2	0	4
Hungry_Donkey_bar_English_2	108	3	<?xml version="1.0"?>\n<Clock xmlns:dt="urn:schemas-microsoft-com:datatypes"><Description dt:dt="string">E-Prime Primary Realtime Clock</Description><StartTime><Timestamp dt:dt="int">0</Timestamp><DateUtc dt:dt="string">2015-06-09T20:02:04Z</DateUtc></StartTime><FrequencyChanges><FrequencyChange><Frequency dt:dt="r8">3507675</Frequency><Timestamp dt:dt="r8">33689281945</Timestamp><Current dt:dt="r8">0</Current><DateUtc dt:dt="string">2015-06-09T20:02:04Z</DateUtc></FrequencyChange></FrequencyChanges></Clock>\n	Hungry_Donkey_bar_English_2-108-3	60.017	-77	1.0.0.18	1	-669786048	Standard	2.0.10.353	2.0.10.353	06-09-2015	6/9/2015 8:02:05 PM	16:02:05	2.0.10.248	105	Bar50-50.bmp	53	3	?	10r_4g.bmp	0r_4g.bmp	2r_2g.bmp	0r_2g.bmp			2r_2g.bmp		TrialProc	TrialList	0	cvbn	-999999	16	344329	0	b	4464	348793	300	-262	38	-6	-30	30	44	3	11	105	-10	0	-2	0	4	4	2	2	-2	2
Hungry_Donkey_bar_English_2	108	3	<?xml version="1.0"?>\n<Clock xmlns:dt="urn:schemas-microsoft-com:datatypes"><Description dt:dt="string">E-Prime Primary Realtime Clock</Description><StartTime><Timestamp dt:dt="int">0</Timestamp><DateUtc dt:dt="string">2015-06-09T20:02:04Z</DateUtc></StartTime><FrequencyChanges><FrequencyChange><Frequency dt:dt="r8">3507675</Frequency><Timestamp dt:dt="r8">33689281945</Timestamp><Current dt:dt="r8">0</Current><DateUtc dt:dt="string">2015-06-09T20:02:04Z</DateUtc></FrequencyChange></FrequencyChanges></Clock>\n	Hungry_Donkey_bar_English_2-108-3	60.017	-77	1.0.0.18	1	-669786048	Standard	2.0.10.353	2.0.10.353	06-09-2015	6/9/2015 8:02:05 PM	16:02:05	2.0.10.248	106	Bar50-50.bmp	54	4	?	0r_4g.bmp	0r_4g.bmp	0r_2g.bmp	0r_2g.bmp				0r_2g.bmp	TrialProc	TrialList	0	cvbn	-999999	16	350827	0	n	1198	352025	302	-262	40	-6	-30	30	46	8	11	106	0	0	0	0	4	4	2	2	0	2
Hungry_Donkey_bar_English_2	108	3	<?xml version="1.0"?>\n<Clock xmlns:dt="urn:schemas-microsoft-com:datatypes"><Description dt:dt="string">E-Prime Primary Realtime Clock</Description><StartTime><Timestamp dt:dt="int">0</Timestamp><DateUtc dt:dt="string">2015-06-09T20:02:04Z</DateUtc></StartTime><FrequencyChanges><FrequencyChange><Frequency dt:dt="r8">3507675</Frequency><Timestamp dt:dt="r8">33689281945</Timestamp><Current dt:dt="r8">0</Current><DateUtc dt:dt="string">2015-06-09T20:02:04Z</DateUtc></FrequencyChange></FrequencyChanges></Clock>\n	Hungry_Donkey_bar_English_2-108-3	60.017	-77	1.0.0.18	1	-669786048	Standard	2.0.10.353	2.0.10.353	06-09-2015	6/9/2015 8:02:05 PM	16:02:05	2.0.10.248	107	Bar50-50.bmp	54	2	?	0r_4g.bmp	0r_4g.bmp	0r_2g.bmp	0r_2g.bmp		0r_4g.bmp			TrialProc	TrialList	0	cvbn	-999999	16	354059	0	v	397	354456	306	-262	44	-6	-26	30	46	9	11	107	0	0	0	0	4	4	2	2	0	4
Hungry_Donkey_bar_English_2	108	3	<?xml version="1.0"?>\n<Clock xmlns:dt="urn:schemas-microsoft-com:datatypes"><Description dt:dt="string">E-Prime Primary Realtime Clock</Description><StartTime><Timestamp dt:dt="int">0</Timestamp><DateUtc dt:dt="string">2015-06-09T20:02:04Z</DateUtc></StartTime><FrequencyChanges><FrequencyChange><Frequency dt:dt="r8">3507675</Frequency><Timestamp dt:dt="r8">33689281945</Timestamp><Current dt:dt="r8">0</Current><DateUtc dt:dt="string">2015-06-09T20:02:04Z</DateUtc></FrequencyChange></FrequencyChanges></Clock>\n	Hungry_Donkey_bar_English_2-108-3	60.017	-77	1.0.0.18	1	-669786048	Standard	2.0.10.353	2.0.10.353	06-09-2015	6/9/2015 8:02:05 PM	16:02:05	2.0.10.248	108	Bar50-50.bmp	54	4	?	10r_4g.bmp	0r_4g.bmp	2r_2g.bmp	0r_2g.bmp				0r_2g.bmp	TrialProc	TrialList	0	cvbn	-999999	16	356492	0	n	1212	357704	308	-262	46	-6	-26	30	48	4	11	108	-10	0	-2	0	4	4	2	2	0	2
Hungry_Donkey_bar_English_2	108	3	<?xml version="1.0"?>\n<Clock xmlns:dt="urn:schemas-microsoft-com:datatypes"><Description dt:dt="string">E-Prime Primary Realtime Clock</Description><StartTime><Timestamp dt:dt="int">0</Timestamp><DateUtc dt:dt="string">2015-06-09T20:02:04Z</DateUtc></StartTime><FrequencyChanges><FrequencyChange><Frequency dt:dt="r8">3507675</Frequency><Timestamp dt:dt="r8">33689281945</Timestamp><Current dt:dt="r8">0</Current><DateUtc dt:dt="string">2015-06-09T20:02:04Z</DateUtc></FrequencyChange></FrequencyChanges></Clock>\n	Hungry_Donkey_bar_English_2-108-3	60.017	-77	1.0.0.18	1	-669786048	Standard	2.0.10.353	2.0.10.353	06-09-2015	6/9/2015 8:02:05 PM	16:02:05	2.0.10.248	109	Bar50-50.bmp	54	3	?	0r_4g.bmp	0r_4g.bmp	0r_2g.bmp	0r_2g.bmp			0r_2g.bmp		TrialProc	TrialList	0	cvbn	-999999	16	359741	0	b	1563	361304	310	-262	48	-6	-26	32	48	10	11	109	0	0	0	0	4	4	2	2	0	2
Hungry_Donkey_bar_English_2	108	3	<?xml version="1.0"?>\n<Clock xmlns:dt="urn:schemas-microsoft-com:datatypes"><Description dt:dt="string">E-Prime Primary Realtime Clock</Description><StartTime><Timestamp dt:dt="int">0</Timestamp><DateUtc dt:dt="string">2015-06-09T20:02:04Z</DateUtc></StartTime><FrequencyChanges><FrequencyChange><Frequency dt:dt="r8">3507675</Frequency><Timestamp dt:dt="r8">33689281945</Timestamp><Current dt:dt="r8">0</Current><DateUtc dt:dt="string">2015-06-09T20:02:04Z</DateUtc></FrequencyChange></FrequencyChanges></Clock>\n	Hungry_Donkey_bar_English_2-108-3	60.017	-77	1.0.0.18	1	-669786048	Standard	2.0.10.353	2.0.10.353	06-09-2015	6/9/2015 8:02:05 PM	16:02:05	2.0.10.248	110	Bar50-50.bmp	55	2	?	10r_4g.bmp	0r_4g.bmp	2r_2g.bmp	0r_2g.bmp		0r_4g.bmp			TrialProc	TrialList	0	cvbn	-999999	16	363340	0	v	3788	367128	314	-262	52	-6	-22	32	48	2	11	110	-10	0	-2	0	4	4	2	2	0	4
Hungry_Donkey_bar_English_2	108	3	<?xml version="1.0"?>\n<Clock xmlns:dt="urn:schemas-microsoft-com:datatypes"><Description dt:dt="string">E-Prime Primary Realtime Clock</Description><StartTime><Timestamp dt:dt="int">0</Timestamp><DateUtc dt:dt="string">2015-06-09T20:02:04Z</DateUtc></StartTime><FrequencyChanges><FrequencyChange><Frequency dt:dt="r8">3507675</Frequency><Timestamp dt:dt="r8">33689281945</Timestamp><Current dt:dt="r8">0</Current><DateUtc dt:dt="string">2015-06-09T20:02:04Z</DateUtc></FrequencyChange></FrequencyChanges></Clock>\n	Hungry_Donkey_bar_English_2-108-3	60.017	-77	1.0.0.18	1	-669786048	Standard	2.0.10.353	2.0.10.353	06-09-2015	6/9/2015 8:02:05 PM	16:02:05	2.0.10.248	111	Bar50-50.bmp	50	2	?	8r_4g.bmp	50r_4g.bmp	1r_2g.bmp	10r_2g.bmp		50r_4g.bmp			TrialProc	TrialList	0	cvbn	-999999	16	369155	0	v	421	369576	318	-312	6	-6	-68	32	48	1	12	111	-8	-50	-1	-10	4	4	2	2	-50	4
