ExperimentName	Subject	Session	Clock.Information	DataFile.Basename	Display.RefreshRate	Eindtotaal[Session]	ExperimentVersion	Group	RandomSeed	RuntimeCapabilities	RuntimeVersion	RuntimeVersionExpected	SessionDate	SessionStartDateTimeUtc	SessionTime	StudioVersion	Block	BarImage	BarTotalWinst	DoorChoice	Eindtotaal[Block]	FBDoor1	FBDoor2	FBDoor3	FBDoor4	Image1	Image2	Image3	Image4	Procedure	Running	spel.ACC	spel.CRESP	spel.DurationError	spel.OnsetDelay	spel.OnsetTime	spel.OnsetToOnsetTime	spel.RESP	spel.RT	spel.RTTime	TotalGain	TotalLose	Totalsum	TotalsumD1	TotalsumD2	TotalsumD3	TotalsumD4	TrialList	TrialList.Cycle	TrialList.Sample	varV1	varV2	varV3	varV4	varW1	varW2	varW3	varW4	Verliesbedrag	Winstbedrag
Hungry_Donkey_bar_English_2	154	1	<?xml version="1.0"?>\n<Clock xmlns:dt="urn:schemas-microsoft-com:datatypes"><Description dt:dt="string">E-Prime Primary Realtime Clock</Description><StartTime><Timestamp dt:dt="int">0</Timestamp><DateUtc dt:dt="string">2016-07-29T21:22:19Z</DateUtc></StartTime><FrequencyChanges><FrequencyChange><Frequency dt:dt="r8">3507744</Frequency><Timestamp dt:dt="r8">268081616011</Timestamp><Current dt:dt="r8">0</Current><DateUtc dt:dt="string">2016-07-29T21:22:19Z</DateUtc></FrequencyChange></FrequencyChanges></Clock>\n	Hungry_Donkey_bar_English_2-154-1	60.018	9	1.0.0.18	1	1794347040	Standard	2.0.10.353	2.0.10.353	07-29-2016	7/29/2016 9:22:19 PM	17:22:19	2.0.10.248	1	Bar25-75.bmp	29	1	?	10r_4g.bmp	0r_4g.bmp	2r_2g.bmp	0r_2g.bmp	10r_4g.bmp				TrialProc	TrialList	0	cvbn	-999999	31	49538	0	c	1985	51523	4	-10	-6	-6	0	0	0	2	1	1	-10	0	-2	0	4	4	2	2	-10	4
Hungry_Donkey_bar_English_2	154	1	<?xml version="1.0"?>\n<Clock xmlns:dt="urn:schemas-microsoft-com:datatypes"><Description dt:dt="string">E-Prime Primary Realtime Clock</Description><StartTime><Timestamp dt:dt="int">0</Timestamp><DateUtc dt:dt="string">2016-07-29T21:22:19Z</DateUtc></StartTime><FrequencyChanges><FrequencyChange><Frequency dt:dt="r8">3507744</Frequency><Timestamp dt:dt="r8">268081616011</Timestamp><Current dt:dt="r8">0</Current><DateUtc dt:dt="string">2016-07-29T21:22:19Z</DateUtc></FrequencyChange></FrequencyChanges></Clock>\n	Hungry_Donkey_bar_English_2-154-1	60.018	9	1.0.0.18	1	1794347040	Standard	2.0.10.353	2.0.10.353	07-29-2016	7/29/2016 9:22:19 PM	17:22:19	2.0.10.248	2	Bar50-50.bmp	44	2	?	10r_4g.bmp	0r_4g.bmp	2r_2g.bmp	0r_2g.bmp		0r_4g.bmp			TrialProc	TrialList	0	cvbn	-999999	16	53570	0	v	497	54067	8	-10	-2	-6	4	0	0	4	1	2	-10	0	-2	0	4	4	2	2	0	4
Hungry_Donkey_bar_English_2	154	1	<?xml version="1.0"?>\n<Clock xmlns:dt="urn:schemas-microsoft-com:datatypes"><Description dt:dt="string">E-Prime Primary Realtime Clock</Description><StartTime><Timestamp dt:dt="int">0</Timestamp><DateUtc dt:dt="string">2016-07-29T21:22:19Z</DateUtc></StartTime><FrequencyChanges><FrequencyChange><Frequency dt:dt="r8">3507744</Frequency><Timestamp dt:dt="r8">268081616011</Timestamp><Current dt:dt="r8">0</Current><DateUtc dt:dt="string">2016-07-29T21:22:19Z</DateUtc></FrequencyChange></FrequencyChanges></Clock>\n	Hungry_Donkey_bar_English_2-154-1	60.018	9	1.0.0.18	1	1794347040	Standard	2.0.10.353	2.0.10.353	07-29-2016	7/29/2016 9:22:19 PM	17:22:19	2.0.10.248	3	Bar50-50.bmp	50	3	?	0r_4g.bmp	0r_4g.bmp	0r_2g.bmp	0r_2g.bmp			0r_2g.bmp		TrialProc	TrialList	0	cvbn	-999999	16	56103	0	b	155	56258	10	-10	0	-6	4	2	0	9	1	3	0	0	0	0	4	4	2	2	0	2
Hungry_Donkey_bar_English_2	154	1	<?xml version="1.0"?>\n<Clock xmlns:dt="urn:schemas-microsoft-com:datatypes"><Description dt:dt="string">E-Prime Primary Realtime Clock</Description><StartTime><Timestamp dt:dt="int">0</Timestamp><DateUtc dt:dt="string">2016-07-29T21:22:19Z</DateUtc></StartTime><FrequencyChanges><FrequencyChange><Frequency dt:dt="r8">3507744</Frequency><Timestamp dt:dt="r8">268081616011</Timestamp><Current dt:dt="r8">0</Current><DateUtc dt:dt="string">2016-07-29T21:22:19Z</DateUtc></FrequencyChange></FrequencyChanges></Clock>\n	Hungry_Donkey_bar_English_2-154-1	60.018	9	1.0.0.18	1	1794347040	Standard	2.0.10.353	2.0.10.353	07-29-2016	7/29/2016 9:22:19 PM	17:22:19	2.0.10.248	4	Bar50-50.bmp	55	4	?	0r_4g.bmp	0r_4g.bmp	0r_2g.bmp	0r_2g.bmp				0r_2g.bmp	TrialProc	TrialList	0	cvbn	-999999	16	58302	0	n	836	59138	12	-10	2	-6	4	2	2	10	1	4	0	0	0	0	4	4	2	2	0	2
Hungry_Donkey_bar_English_2	154	1	<?xml version="1.0"?>\n<Clock xmlns:dt="urn:schemas-microsoft-com:datatypes"><Description dt:dt="string">E-Prime Primary Realtime Clock</Description><StartTime><Timestamp dt:dt="int">0</Timestamp><DateUtc dt:dt="string">2016-07-29T21:22:19Z</DateUtc></StartTime><FrequencyChanges><FrequencyChange><Frequency dt:dt="r8">3507744</Frequency><Timestamp dt:dt="r8">268081616011</Timestamp><Current dt:dt="r8">0</Current><DateUtc dt:dt="string">2016-07-29T21:22:19Z</DateUtc></FrequencyChange></FrequencyChanges></Clock>\n	Hungry_Donkey_bar_English_2-154-1	60.018	9	1.0.0.18	1	1794347040	Standard	2.0.10.353	2.0.10.353	07-29-2016	7/29/2016 9:22:19 PM	17:22:19	2.0.10.248	5	Bar50-50.bmp	52	3	?	12r_4g.bmp	0r_4g.bmp	3r_2g.bmp	0r_2g.bmp			3r_2g.bmp		TrialProc	TrialList	0	cvbn	-999999	16	61168	0	b	850	62018	14	-13	1	-6	4	1	2	5	1	5	-12	0	-3	0	4	4	2	2	-3	2
Hungry_Donkey_bar_English_2	154	1	<?xml version="1.0"?>\n<Clock xmlns:dt="urn:schemas-microsoft-com:datatypes"><Description dt:dt="string">E-Prime Primary Realtime Clock</Description><StartTime><Timestamp dt:dt="int">0</Timestamp><DateUtc dt:dt="string">2016-07-29T21:22:19Z</DateUtc></StartTime><FrequencyChanges><FrequencyChange><Frequency dt:dt="r8">3507744</Frequency><Timestamp dt:dt="r8">268081616011</Timestamp><Current dt:dt="r8">0</Current><DateUtc dt:dt="string">2016-07-29T21:22:19Z</DateUtc></FrequencyChange></FrequencyChanges></Clock>\n	Hungry_Donkey_bar_English_2-154-1	60.018	9	1.0.0.18	1	1794347040	Standard	2.0.10.353	2.0.10.353	07-29-2016	7/29/2016 9:22:19 PM	17:22:19	2.0.10.248	6	Bar25-75.bmp	22	2	?	8r_4g.bmp	50r_4g.bmp	1r_2g.bmp	10r_2g.bmp		50r_4g.bmp			TrialProc	TrialList	0	cvbn	-999999	16	64050	0	v	448	64498	18	-63	-45	-6	-42	1	2	1	1	6	-8	-50	-1	-10	4	4	2	2	-50	4
Hungry_Donkey_bar_English_2	154	1	<?xml version="1.0"?>\n<Clock xmlns:dt="urn:schemas-microsoft-com:datatypes"><Description dt:dt="string">E-Prime Primary Realtime Clock</Description><StartTime><Timestamp dt:dt="int">0</Timestamp><DateUtc dt:dt="string">2016-07-29T21:22:19Z</DateUtc></StartTime><FrequencyChanges><FrequencyChange><Frequency dt:dt="r8">3507744</Frequency><Timestamp dt:dt="r8">268081616011</Timestamp><Current dt:dt="r8">0</Current><DateUtc dt:dt="string">2016-07-29T21:22:19Z</DateUtc></FrequencyChange></FrequencyChanges></Clock>\n	Hungry_Donkey_bar_English_2-154-1	60.018	9	1.0.0.18	1	1794347040	Standard	2.0.10.353	2.0.10.353	07-29-2016	7/29/2016 9:22:19 PM	17:22:19	2.0.10.248	7	Bar25-75.bmp	23	1	?	10r_4g.bmp	0r_4g.bmp	2r_2g.bmp	0r_2g.bmp	10r_4g.bmp				TrialProc	TrialList	0	cvbn	-999999	16	66533	0	c	941	67474	22	-73	-51	-12	-42	1	2	3	1	7	-10	0	-2	0	4	4	2	2	-10	4
Hungry_Donkey_bar_English_2	154	1	<?xml version="1.0"?>\n<Clock xmlns:dt="urn:schemas-microsoft-com:datatypes"><Description dt:dt="string">E-Prime Primary Realtime Clock</Description><StartTime><Timestamp dt:dt="int">0</Timestamp><DateUtc dt:dt="string">2016-07-29T21:22:19Z</DateUtc></StartTime><FrequencyChanges><FrequencyChange><Frequency dt:dt="r8">3507744</Frequency><Timestamp dt:dt="r8">268081616011</Timestamp><Current dt:dt="r8">0</Current><DateUtc dt:dt="string">2016-07-29T21:22:19Z</DateUtc></FrequencyChange></FrequencyChanges></Clock>\n	Hungry_Donkey_bar_English_2-154-1	60.018	9	1.0.0.18	1	1794347040	Standard	2.0.10.353	2.0.10.353	07-29-2016	7/29/2016 9:22:19 PM	17:22:19	2.0.10.248	8	Bar25-75.bmp	26	2	?	0r_4g.bmp	0r_4g.bmp	0r_2g.bmp	0r_2g.bmp		0r_4g.bmp			TrialProc	TrialList	0	cvbn	-999999	16	69499	0	v	1718	71217	26	-73	-47	-12	-38	1	2	7	1	8	0	0	0	0	4	4	2	2	0	4
Hungry_Donkey_bar_English_2	154	1	<?xml version="1.0"?>\n<Clock xmlns:dt="urn:schemas-microsoft-com:datatypes"><Description dt:dt="string">E-Prime Primary Realtime Clock</Description><StartTime><Timestamp dt:dt="int">0</Timestamp><DateUtc dt:dt="string">2016-07-29T21:22:19Z</DateUtc></StartTime><FrequencyChanges><FrequencyChange><Frequency dt:dt="r8">3507744</Frequency><Timestamp dt:dt="r8">268081616011</Timestamp><Current dt:dt="r8">0</Current><DateUtc dt:dt="string">2016-07-29T21:22:19Z</DateUtc></FrequencyChange></FrequencyChanges></Clock>\n	Hungry_Donkey_bar_English_2-154-1	60.018	9	1.0.0.18	1	1794347040	Standard	2.0.10.353	2.0.10.353	07-29-2016	7/29/2016 9:22:19 PM	17:22:19	2.0.10.248	9	Bar25-75.bmp	29	1	?	0r_4g.bmp	0r_4g.bmp	0r_2g.bmp	0r_2g.bmp	0r_4g.bmp				TrialProc	TrialList	0	cvbn	-999999	16	73248	0	c	545	73793	30	-73	-43	-8	-38	1	2	6	1	9	0	0	0	0	4	4	2	2	0	4
Hungry_Donkey_bar_English_2	154	1	<?xml version="1.0"?>\n<Clock xmlns:dt="urn:schemas-microsoft-com:datatypes"><Description dt:dt="string">E-Prime Primary Realtime Clock</Description><StartTime><Timestamp dt:dt="int">0</Timestamp><DateUtc dt:dt="string">2016-07-29T21:22:19Z</DateUtc></StartTime><FrequencyChanges><FrequencyChange><Frequency dt:dt="r8">3507744</Frequency><Timestamp dt:dt="r8">268081616011</Timestamp><Current dt:dt="r8">0</Current><DateUtc dt:dt="string">2016-07-29T21:22:19Z</DateUtc></FrequencyChange></FrequencyChanges></Clock>\n	Hungry_Donkey_bar_English_2-154-1	60.018	9	1.0.0.18	1	1794347040	Standard	2.0.10.353	2.0.10.353	07-29-2016	7/29/2016 9:22:19 PM	17:22:19	2.0.10.248	10	Bar37-63.bmp	32	1	?	0r_4g.bmp	0r_4g.bmp	0r_2g.bmp	0r_2g.bmp	0r_4g.bmp				TrialProc	TrialList	0	cvbn	-999999	16	75830	0	c	811	76641	34	-73	-39	-4	-38	1	2	8	1	10	0	0	0	0	4	4	2	2	0	4
Hungry_Donkey_bar_English_2	154	1	<?xml version="1.0"?>\n<Clock xmlns:dt="urn:schemas-microsoft-com:datatypes"><Description dt:dt="string">E-Prime Primary Realtime Clock</Description><StartTime><Timestamp dt:dt="int">0</Timestamp><DateUtc dt:dt="string">2016-07-29T21:22:19Z</DateUtc></StartTime><FrequencyChanges><FrequencyChange><Frequency dt:dt="r8">3507744</Frequency><Timestamp dt:dt="r8">268081616011</Timestamp><Current dt:dt="r8">0</Current><DateUtc dt:dt="string">2016-07-29T21:22:19Z</DateUtc></FrequencyChange></FrequencyChanges></Clock>\n	Hungry_Donkey_bar_English_2-154-1	60.018	9	1.0.0.18	1	1794347040	Standard	2.0.10.353	2.0.10.353	07-29-2016	7/29/2016 9:22:19 PM	17:22:19	2.0.10.248	11	Bar37-63.bmp	34	1	?	0r_4g.bmp	0r_4g.bmp	0r_2g.bmp	0r_2g.bmp	0r_4g.bmp				TrialProc	TrialList	0	cvbn	-999999	16	78679	0	c	570	79249	38	-73	-35	0	-38	1	2	10	2	11	0	0	0	0	4	4	2	2	0	4
Hungry_Donkey_bar_English_2	154	1	<?xml version="1.0"?>\n<Clock xmlns:dt="urn:schemas-microsoft-com:datatypes"><Description dt:dt="string">E-Prime Primary Realtime Clock</Description><StartTime><Timestamp dt:dt="int">0</Timestamp><DateUtc dt:dt="string">2016-07-29T21:22:19Z</DateUtc></StartTime><FrequencyChanges><FrequencyChange><Frequency dt:dt="r8">3507744</Frequency><Timestamp dt:dt="r8">268081616011</Timestamp><Current dt:dt="r8">0</Current><DateUtc dt:dt="string">2016-07-29T21:22:19Z</DateUtc></FrequencyChange></FrequencyChanges></Clock>\n	Hungry_Donkey_bar_English_2-154-1	60.018	9	1.0.0.18	1	1794347040	Standard	2.0.10.353	2.0.10.353	07-29-2016	7/29/2016 9:22:19 PM	17:22:19	2.0.10.248	12	Bar37-63.bmp	37	2	?	10r_4g.bmp	0r_4g.bmp	2r_2g.bmp	0r_2g.bmp		0r_4g.bmp			TrialProc	TrialList	0	cvbn	-999999	17	81279	0	v	1106	82385	42	-73	-31	0	-34	1	2	3	2	12	-10	0	-2	0	4	4	2	2	0	4
Hungry_Donkey_bar_English_2	154	1	<?xml version="1.0"?>\n<Clock xmlns:dt="urn:schemas-microsoft-com:datatypes"><Description dt:dt="string">E-Prime Primary Realtime Clock</Description><StartTime><Timestamp dt:dt="int">0</Timestamp><DateUtc dt:dt="string">2016-07-29T21:22:19Z</DateUtc></StartTime><FrequencyChanges><FrequencyChange><Frequency dt:dt="r8">3507744</Frequency><Timestamp dt:dt="r8">268081616011</Timestamp><Current dt:dt="r8">0</Current><DateUtc dt:dt="string">2016-07-29T21:22:19Z</DateUtc></FrequencyChange></FrequencyChanges></Clock>\n	Hungry_Donkey_bar_English_2-154-1	60.018	9	1.0.0.18	1	1794347040	Standard	2.0.10.353	2.0.10.353	07-29-2016	7/29/2016 9:22:19 PM	17:22:19	2.0.10.248	13	Bar37-63.bmp	37	3	?	10r_4g.bmp	0r_4g.bmp	2r_2g.bmp	0r_2g.bmp			2r_2g.bmp		TrialProc	TrialList	0	cvbn	-999999	16	84411	0	b	502	84913	44	-75	-31	0	-34	1	2	2	2	13	-10	0	-2	0	4	4	2	2	-2	2
Hungry_Donkey_bar_English_2	154	1	<?xml version="1.0"?>\n<Clock xmlns:dt="urn:schemas-microsoft-com:datatypes"><Description dt:dt="string">E-Prime Primary Realtime Clock</Description><StartTime><Timestamp dt:dt="int">0</Timestamp><DateUtc dt:dt="string">2016-07-29T21:22:19Z</DateUtc></StartTime><FrequencyChanges><FrequencyChange><Frequency dt:dt="r8">3507744</Frequency><Timestamp dt:dt="r8">268081616011</Timestamp><Current dt:dt="r8">0</Current><DateUtc dt:dt="string">2016-07-29T21:22:19Z</DateUtc></FrequencyChange></FrequencyChanges></Clock>\n	Hungry_Donkey_bar_English_2-154-1	60.018	9	1.0.0.18	1	1794347040	Standard	2.0.10.353	2.0.10.353	07-29-2016	7/29/2016 9:22:19 PM	17:22:19	2.0.10.248	14	Bar37-63.bmp	38	4	?	0r_4g.bmp	0r_4g.bmp	0r_2g.bmp	0r_2g.bmp				0r_2g.bmp	TrialProc	TrialList	0	cvbn	-999999	16	86943	0	n	609	87552	46	-75	-29	0	-34	1	4	9	2	14	0	0	0	0	4	4	2	2	0	2
Hungry_Donkey_bar_English_2	154	1	<?xml version="1.0"?>\n<Clock xmlns:dt="urn:schemas-microsoft-com:datatypes"><Description dt:dt="string">E-Prime Primary Realtime Clock</Description><StartTime><Timestamp dt:dt="int">0</Timestamp><DateUtc dt:dt="string">2016-07-29T21:22:19Z</DateUtc></StartTime><FrequencyChanges><FrequencyChange><Frequency dt:dt="r8">3507744</Frequency><Timestamp dt:dt="r8">268081616011</Timestamp><Current dt:dt="r8">0</Current><DateUtc dt:dt="string">2016-07-29T21:22:19Z</DateUtc></FrequencyChange></FrequencyChanges></Clock>\n	Hungry_Donkey_bar_English_2-154-1	60.018	9	1.0.0.18	1	1794347040	Standard	2.0.10.353	2.0.10.353	07-29-2016	7/29/2016 9:22:19 PM	17:22:19	2.0.10.248	15	Bar37-63.bmp	40	1	?	0r_4g.bmp	0r_4g.bmp	0r_2g.bmp	0r_2g.bmp	0r_4g.bmp				TrialProc	TrialList	0	cvbn	-999999	15	89576	0	c	472	90048	50	-75	-25	4	-34	1	4	8	2	15	0	0	0	0	4	4	2	2	0	4
Hungry_Donkey_bar_English_2	154	1	<?xml version="1.0"?>\n<Clock xmlns:dt="urn:schemas-microsoft-com:datatypes"><Description dt:dt="string">E-Prime Primary Realtime Clock</Description><StartTime><Timestamp dt:dt="int">0</Timestamp><DateUtc dt:dt="string">2016-07-29T21:22:19Z</DateUtc></StartTime><FrequencyChanges><FrequencyChange><Frequency dt:dt="r8">3507744</Frequency><Timestamp dt:dt="r8">268081616011</Timestamp><Current dt:dt="r8">0</Current><DateUtc dt:dt="string">2016-07-29T21:22:19Z</DateUtc></FrequencyChange></FrequencyChanges></Clock>\n	Hungry_Donkey_bar_English_2-154-1	60.018	9	1.0.0.18	1	1794347040	Standard	2.0.10.353	2.0.10.353	07-29-2016	7/29/2016 9:22:19 PM	17:22:19	2.0.10.248	16	Bar37-63.bmp	42	2	?	0r_4g.bmp	0r_4g.bmp	0r_2g.bmp	0r_2g.bmp		0r_4g.bmp			TrialProc	TrialList	0	cvbn	-999999	16	92075	0	v	1125	93200	54	-75	-21	4	-30	1	4	7	2	16	0	0	0	0	4	4	2	2	0	4
Hungry_Donkey_bar_English_2	154	1	<?xml version="1.0"?>\n<Clock xmlns:dt="urn:schemas-microsoft-com:datatypes"><Description dt:dt="string">E-Prime Primary Realtime Clock</Description><StartTime><Timestamp dt:dt="int">0</Timestamp><DateUtc dt:dt="string">2016-07-29T21:22:19Z</DateUtc></StartTime><FrequencyChanges><FrequencyChange><Frequency dt:dt="r8">3507744</Frequency><Timestamp dt:dt="r8">268081616011</Timestamp><Current dt:dt="r8">0</Current><DateUtc dt:dt="string">2016-07-29T21:22:19Z</DateUtc></FrequencyChange></FrequencyChanges></Clock>\n	Hungry_Donkey_bar_English_2-154-1	60.018	9	1.0.0.18	1	1794347040	Standard	2.0.10.353	2.0.10.353	07-29-2016	7/29/2016 9:22:19 PM	17:22:19	2.0.10.248	17	Bar37-63.bmp	43	3	?	0r_4g.bmp	0r_4g.bmp	0r_2g.bmp	0r_2g.bmp			0r_2g.bmp		TrialProc	TrialList	0	cvbn	-999999	16	95224	0	b	536	95760	56	-75	-19	4	-30	3	4	6	2	17	0	0	0	0	4	4	2	2	0	2
Hungry_Donkey_bar_English_2	154	1	<?xml version="1.0"?>\n<Clock xmlns:dt="urn:schemas-microsoft-com:datatypes"><Description dt:dt="string">E-Prime Primary Realtime Clock</Description><StartTime><Timestamp dt:dt="int">0</Timestamp><DateUtc dt:dt="string">2016-07-29T21:22:19Z</DateUtc></StartTime><FrequencyChanges><FrequencyChange><Frequency dt:dt="r8">3507744</Frequency><Timestamp dt:dt="r8">268081616011</Timestamp><Current dt:dt="r8">0</Current><DateUtc dt:dt="string">2016-07-29T21:22:19Z</DateUtc></FrequencyChange></FrequencyChanges></Clock>\n	Hungry_Donkey_bar_English_2-154-1	60.018	9	1.0.0.18	1	1794347040	Standard	2.0.10.353	2.0.10.353	07-29-2016	7/29/2016 9:22:19 PM	17:22:19	2.0.10.248	18	Bar37-63.bmp	41	4	?	8r_4g.bmp	50r_4g.bmp	1r_2g.bmp	10r_2g.bmp				10r_2g.bmp	TrialProc	TrialList	0	cvbn	-999999	16	97790	0	n	514	98304	58	-85	-27	4	-30	3	-4	1	2	18	-8	-50	-1	-10	4	4	2	2	-10	2
Hungry_Donkey_bar_English_2	154	1	<?xml version="1.0"?>\n<Clock xmlns:dt="urn:schemas-microsoft-com:datatypes"><Description dt:dt="string">E-Prime Primary Realtime Clock</Description><StartTime><Timestamp dt:dt="int">0</Timestamp><DateUtc dt:dt="string">2016-07-29T21:22:19Z</DateUtc></StartTime><FrequencyChanges><FrequencyChange><Frequency dt:dt="r8">3507744</Frequency><Timestamp dt:dt="r8">268081616011</Timestamp><Current dt:dt="r8">0</Current><DateUtc dt:dt="string">2016-07-29T21:22:19Z</DateUtc></FrequencyChange></FrequencyChanges></Clock>\n	Hungry_Donkey_bar_English_2-154-1	60.018	9	1.0.0.18	1	1794347040	Standard	2.0.10.353	2.0.10.353	07-29-2016	7/29/2016 9:22:19 PM	17:22:19	2.0.10.248	19	Bar37-63.bmp	41	3	?	10r_4g.bmp	0r_4g.bmp	2r_2g.bmp	0r_2g.bmp			2r_2g.bmp		TrialProc	TrialList	0	cvbn	-999999	16	100339	0	b	540	100879	60	-87	-27	4	-30	3	-4	4	2	19	-10	0	-2	0	4	4	2	2	-2	2
Hungry_Donkey_bar_English_2	154	1	<?xml version="1.0"?>\n<Clock xmlns:dt="urn:schemas-microsoft-com:datatypes"><Description dt:dt="string">E-Prime Primary Realtime Clock</Description><StartTime><Timestamp dt:dt="int">0</Timestamp><DateUtc dt:dt="string">2016-07-29T21:22:19Z</DateUtc></StartTime><FrequencyChanges><FrequencyChange><Frequency dt:dt="r8">3507744</Frequency><Timestamp dt:dt="r8">268081616011</Timestamp><Current dt:dt="r8">0</Current><DateUtc dt:dt="string">2016-07-29T21:22:19Z</DateUtc></FrequencyChange></FrequencyChanges></Clock>\n	Hungry_Donkey_bar_English_2-154-1	60.018	9	1.0.0.18	1	1794347040	Standard	2.0.10.353	2.0.10.353	07-29-2016	7/29/2016 9:22:19 PM	17:22:19	2.0.10.248	20	Bar37-63.bmp	42	2	?	12r_4g.bmp	0r_4g.bmp	3r_2g.bmp	0r_2g.bmp		0r_4g.bmp			TrialProc	TrialList	0	cvbn	-999999	16	102905	0	v	470	103375	64	-87	-23	4	-26	3	-4	5	2	20	-12	0	-3	0	4	4	2	2	0	4
Hungry_Donkey_bar_English_2	154	1	<?xml version="1.0"?>\n<Clock xmlns:dt="urn:schemas-microsoft-com:datatypes"><Description dt:dt="string">E-Prime Primary Realtime Clock</Description><StartTime><Timestamp dt:dt="int">0</Timestamp><DateUtc dt:dt="string">2016-07-29T21:22:19Z</DateUtc></StartTime><FrequencyChanges><FrequencyChange><Frequency dt:dt="r8">3507744</Frequency><Timestamp dt:dt="r8">268081616011</Timestamp><Current dt:dt="r8">0</Current><DateUtc dt:dt="string">2016-07-29T21:22:19Z</DateUtc></FrequencyChange></FrequencyChanges></Clock>\n	Hungry_Donkey_bar_English_2-154-1	60.018	9	1.0.0.18	1	1794347040	Standard	2.0.10.353	2.0.10.353	07-29-2016	7/29/2016 9:22:19 PM	17:22:19	2.0.10.248	21	Bar50-50.bmp	44	1	?	0r_4g.bmp	0r_4g.bmp	0r_2g.bmp	0r_2g.bmp	0r_4g.bmp				TrialProc	TrialList	0	cvbn	-999999	17	105405	0	c	162	105567	68	-87	-19	8	-26	3	-4	7	3	21	0	0	0	0	4	4	2	2	0	4
Hungry_Donkey_bar_English_2	154	1	<?xml version="1.0"?>\n<Clock xmlns:dt="urn:schemas-microsoft-com:datatypes"><Description dt:dt="string">E-Prime Primary Realtime Clock</Description><StartTime><Timestamp dt:dt="int">0</Timestamp><DateUtc dt:dt="string">2016-07-29T21:22:19Z</DateUtc></StartTime><FrequencyChanges><FrequencyChange><Frequency dt:dt="r8">3507744</Frequency><Timestamp dt:dt="r8">268081616011</Timestamp><Current dt:dt="r8">0</Current><DateUtc dt:dt="string">2016-07-29T21:22:19Z</DateUtc></FrequencyChange></FrequencyChanges></Clock>\n	Hungry_Donkey_bar_English_2-154-1	60.018	9	1.0.0.18	1	1794347040	Standard	2.0.10.353	2.0.10.353	07-29-2016	7/29/2016 9:22:19 PM	17:22:19	2.0.10.248	22	Bar50-50.bmp	45	2	?	10r_4g.bmp	0r_4g.bmp	2r_2g.bmp	0r_2g.bmp		0r_4g.bmp			TrialProc	TrialList	0	cvbn	-999999	16	107604	0	v	299	107903	72	-87	-15	8	-22	3	-4	2	3	22	-10	0	-2	0	4	4	2	2	0	4
Hungry_Donkey_bar_English_2	154	1	<?xml version="1.0"?>\n<Clock xmlns:dt="urn:schemas-microsoft-com:datatypes"><Description dt:dt="string">E-Prime Primary Realtime Clock</Description><StartTime><Timestamp dt:dt="int">0</Timestamp><DateUtc dt:dt="string">2016-07-29T21:22:19Z</DateUtc></StartTime><FrequencyChanges><FrequencyChange><Frequency dt:dt="r8">3507744</Frequency><Timestamp dt:dt="r8">268081616011</Timestamp><Current dt:dt="r8">0</Current><DateUtc dt:dt="string">2016-07-29T21:22:19Z</DateUtc></FrequencyChange></FrequencyChanges></Clock>\n	Hungry_Donkey_bar_English_2-154-1	60.018	9	1.0.0.18	1	1794347040	Standard	2.0.10.353	2.0.10.353	07-29-2016	7/29/2016 9:22:19 PM	17:22:19	2.0.10.248	23	Bar50-50.bmp	46	3	?	0r_4g.bmp	0r_4g.bmp	0r_2g.bmp	0r_2g.bmp			0r_2g.bmp		TrialProc	TrialList	0	cvbn	-999999	16	109936	0	b	159	110095	74	-87	-13	8	-22	5	-4	6	3	23	0	0	0	0	4	4	2	2	0	2
Hungry_Donkey_bar_English_2	154	1	<?xml version="1.0"?>\n<Clock xmlns:dt="urn:schemas-microsoft-com:datatypes"><Description dt:dt="string">E-Prime Primary Realtime Clock</Description><StartTime><Timestamp dt:dt="int">0</Timestamp><DateUtc dt:dt="string">2016-07-29T21:22:19Z</DateUtc></StartTime><FrequencyChanges><FrequencyChange><Frequency dt:dt="r8">3507744</Frequency><Timestamp dt:dt="r8">268081616011</Timestamp><Current dt:dt="r8">0</Current><DateUtc dt:dt="string">2016-07-29T21:22:19Z</DateUtc></FrequencyChange></FrequencyChanges></Clock>\n	Hungry_Donkey_bar_English_2-154-1	60.018	9	1.0.0.18	1	1794347040	Standard	2.0.10.353	2.0.10.353	07-29-2016	7/29/2016 9:22:19 PM	17:22:19	2.0.10.248	24	Bar50-50.bmp	47	4	?	0r_4g.bmp	0r_4g.bmp	0r_2g.bmp	0r_2g.bmp				0r_2g.bmp	TrialProc	TrialList	0	cvbn	-999999	16	112119	0	n	2344	114463	76	-87	-11	8	-22	5	-2	10	3	24	0	0	0	0	4	4	2	2	0	2
Hungry_Donkey_bar_English_2	154	1	<?xml version="1.0"?>\n<Clock xmlns:dt="urn:schemas-microsoft-com:datatypes"><Description dt:dt="string">E-Prime Primary Realtime Clock</Description><StartTime><Timestamp dt:dt="int">0</Timestamp><DateUtc dt:dt="string">2016-07-29T21:22:19Z</DateUtc></StartTime><FrequencyChanges><FrequencyChange><Frequency dt:dt="r8">3507744</Frequency><Timestamp dt:dt="r8">268081616011</Timestamp><Current dt:dt="r8">0</Current><DateUtc dt:dt="string">2016-07-29T21:22:19Z</DateUtc></FrequencyChange></FrequencyChanges></Clock>\n	Hungry_Donkey_bar_English_2-154-1	60.018	9	1.0.0.18	1	1794347040	Standard	2.0.10.353	2.0.10.353	07-29-2016	7/29/2016 9:22:19 PM	17:22:19	2.0.10.248	25	Bar50-50.bmp	47	3	?	8r_4g.bmp	50r_4g.bmp	1r_2g.bmp	10r_2g.bmp			1r_2g.bmp		TrialProc	TrialList	0	cvbn	-999999	16	116501	0	b	489	116990	78	-88	-10	8	-22	6	-2	1	3	25	-8	-50	-1	-10	4	4	2	2	-1	2
Hungry_Donkey_bar_English_2	154	1	<?xml version="1.0"?>\n<Clock xmlns:dt="urn:schemas-microsoft-com:datatypes"><Description dt:dt="string">E-Prime Primary Realtime Clock</Description><StartTime><Timestamp dt:dt="int">0</Timestamp><DateUtc dt:dt="string">2016-07-29T21:22:19Z</DateUtc></StartTime><FrequencyChanges><FrequencyChange><Frequency dt:dt="r8">3507744</Frequency><Timestamp dt:dt="r8">268081616011</Timestamp><Current dt:dt="r8">0</Current><DateUtc dt:dt="string">2016-07-29T21:22:19Z</DateUtc></FrequencyChange></FrequencyChanges></Clock>\n	Hungry_Donkey_bar_English_2-154-1	60.018	9	1.0.0.18	1	1794347040	Standard	2.0.10.353	2.0.10.353	07-29-2016	7/29/2016 9:22:19 PM	17:22:19	2.0.10.248	26	Bar50-50.bmp	48	2	?	10r_4g.bmp	0r_4g.bmp	2r_2g.bmp	0r_2g.bmp		0r_4g.bmp			TrialProc	TrialList	0	cvbn	-999999	16	119034	0	v	372	119406	82	-88	-6	8	-18	6	-2	3	3	26	-10	0	-2	0	4	4	2	2	0	4
Hungry_Donkey_bar_English_2	154	1	<?xml version="1.0"?>\n<Clock xmlns:dt="urn:schemas-microsoft-com:datatypes"><Description dt:dt="string">E-Prime Primary Realtime Clock</Description><StartTime><Timestamp dt:dt="int">0</Timestamp><DateUtc dt:dt="string">2016-07-29T21:22:19Z</DateUtc></StartTime><FrequencyChanges><FrequencyChange><Frequency dt:dt="r8">3507744</Frequency><Timestamp dt:dt="r8">268081616011</Timestamp><Current dt:dt="r8">0</Current><DateUtc dt:dt="string">2016-07-29T21:22:19Z</DateUtc></FrequencyChange></FrequencyChanges></Clock>\n	Hungry_Donkey_bar_English_2-154-1	60.018	9	1.0.0.18	1	1794347040	Standard	2.0.10.353	2.0.10.353	07-29-2016	7/29/2016 9:22:19 PM	17:22:19	2.0.10.248	27	Bar50-50.bmp	49	1	?	0r_4g.bmp	0r_4g.bmp	0r_2g.bmp	0r_2g.bmp	0r_4g.bmp				TrialProc	TrialList	0	cvbn	-999999	16	121433	0	c	565	121998	86	-88	-2	12	-18	6	-2	8	3	27	0	0	0	0	4	4	2	2	0	4
Hungry_Donkey_bar_English_2	154	1	<?xml version="1.0"?>\n<Clock xmlns:dt="urn:schemas-microsoft-com:datatypes"><Description dt:dt="string">E-Prime Primary Realtime Clock</Description><StartTime><Timestamp dt:dt="int">0</Timestamp><DateUtc dt:dt="string">2016-07-29T21:22:19Z</DateUtc></StartTime><FrequencyChanges><FrequencyChange><Frequency dt:dt="r8">3507744</Frequency><Timestamp dt:dt="r8">268081616011</Timestamp><Current dt:dt="r8">0</Current><DateUtc dt:dt="string">2016-07-29T21:22:19Z</DateUtc></FrequencyChange></FrequencyChanges></Clock>\n	Hungry_Donkey_bar_English_2-154-1	60.018	9	1.0.0.18	1	1794347040	Standard	2.0.10.353	2.0.10.353	07-29-2016	7/29/2016 9:22:19 PM	17:22:19	2.0.10.248	28	Bar50-50.bmp	51	2	?	0r_4g.bmp	0r_4g.bmp	0r_2g.bmp	0r_2g.bmp		0r_4g.bmp			TrialProc	TrialList	0	cvbn	-999999	16	124032	0	v	798	124830	90	-88	2	12	-14	6	-2	9	3	28	0	0	0	0	4	4	2	2	0	4
Hungry_Donkey_bar_English_2	154	1	<?xml version="1.0"?>\n<Clock xmlns:dt="urn:schemas-microsoft-com:datatypes"><Description dt:dt="string">E-Prime Primary Realtime Clock</Description><StartTime><Timestamp dt:dt="int">0</Timestamp><DateUtc dt:dt="string">2016-07-29T21:22:19Z</DateUtc></StartTime><FrequencyChanges><FrequencyChange><Frequency dt:dt="r8">3507744</Frequency><Timestamp dt:dt="r8">268081616011</Timestamp><Current dt:dt="r8">0</Current><DateUtc dt:dt="string">2016-07-29T21:22:19Z</DateUtc></FrequencyChange></FrequencyChanges></Clock>\n	Hungry_Donkey_bar_English_2-154-1	60.018	9	1.0.0.18	1	1794347040	Standard	2.0.10.353	2.0.10.353	07-29-2016	7/29/2016 9:22:19 PM	17:22:19	2.0.10.248	29	Bar50-50.bmp	51	4	?	12r_4g.bmp	0r_4g.bmp	3r_2g.bmp	0r_2g.bmp				0r_2g.bmp	TrialProc	TrialList	0	cvbn	-999999	16	126865	0	n	1357	128222	92	-88	4	12	-14	6	0	5	3	29	-12	0	-3	0	4	4	2	2	0	2
Hungry_Donkey_bar_English_2	154	1	<?xml version="1.0"?>\n<Clock xmlns:dt="urn:schemas-microsoft-com:datatypes"><Description dt:dt="string">E-Prime Primary Realtime Clock</Description><StartTime><Timestamp dt:dt="int">0</Timestamp><DateUtc dt:dt="string">2016-07-29T21:22:19Z</DateUtc></StartTime><FrequencyChanges><FrequencyChange><Frequency dt:dt="r8">3507744</Frequency><Timestamp dt:dt="r8">268081616011</Timestamp><Current dt:dt="r8">0</Current><DateUtc dt:dt="string">2016-07-29T21:22:19Z</DateUtc></FrequencyChange></FrequencyChanges></Clock>\n	Hungry_Donkey_bar_English_2-154-1	60.018	9	1.0.0.18	1	1794347040	Standard	2.0.10.353	2.0.10.353	07-29-2016	7/29/2016 9:22:19 PM	17:22:19	2.0.10.248	30	Bar50-50.bmp	49	1	?	10r_4g.bmp	0r_4g.bmp	2r_2g.bmp	0r_2g.bmp	10r_4g.bmp				TrialProc	TrialList	0	cvbn	-999999	16	130264	0	c	15236	145500	96	-98	-2	6	-14	6	0	4	3	30	-10	0	-2	0	4	4	2	2	-10	4
Hungry_Donkey_bar_English_2	154	1	<?xml version="1.0"?>\n<Clock xmlns:dt="urn:schemas-microsoft-com:datatypes"><Description dt:dt="string">E-Prime Primary Realtime Clock</Description><StartTime><Timestamp dt:dt="int">0</Timestamp><DateUtc dt:dt="string">2016-07-29T21:22:19Z</DateUtc></StartTime><FrequencyChanges><FrequencyChange><Frequency dt:dt="r8">3507744</Frequency><Timestamp dt:dt="r8">268081616011</Timestamp><Current dt:dt="r8">0</Current><DateUtc dt:dt="string">2016-07-29T21:22:19Z</DateUtc></FrequencyChange></FrequencyChanges></Clock>\n	Hungry_Donkey_bar_English_2-154-1	60.018	9	1.0.0.18	1	1794347040	Standard	2.0.10.353	2.0.10.353	07-29-2016	7/29/2016 9:22:19 PM	17:22:19	2.0.10.248	31	Bar50-50.bmp	51	2	?	0r_4g.bmp	0r_4g.bmp	0r_2g.bmp	0r_2g.bmp		0r_4g.bmp			TrialProc	TrialList	0	cvbn	-999999	16	147542	0	v	470	148012	100	-98	2	6	-10	6	0	6	4	31	0	0	0	0	4	4	2	2	0	4
Hungry_Donkey_bar_English_2	154	1	<?xml version="1.0"?>\n<Clock xmlns:dt="urn:schemas-microsoft-com:datatypes"><Description dt:dt="string">E-Prime Primary Realtime Clock</Description><StartTime><Timestamp dt:dt="int">0</Timestamp><DateUtc dt:dt="string">2016-07-29T21:22:19Z</DateUtc></StartTime><FrequencyChanges><FrequencyChange><Frequency dt:dt="r8">3507744</Frequency><Timestamp dt:dt="r8">268081616011</Timestamp><Current dt:dt="r8">0</Current><DateUtc dt:dt="string">2016-07-29T21:22:19Z</DateUtc></FrequencyChange></FrequencyChanges></Clock>\n	Hungry_Donkey_bar_English_2-154-1	60.018	9	1.0.0.18	1	1794347040	Standard	2.0.10.353	2.0.10.353	07-29-2016	7/29/2016 9:22:19 PM	17:22:19	2.0.10.248	32	Bar50-50.bmp	50	3	?	10r_4g.bmp	0r_4g.bmp	2r_2g.bmp	0r_2g.bmp			2r_2g.bmp		TrialProc	TrialList	0	cvbn	-999999	16	150041	0	b	579	150620	102	-100	2	6	-10	6	0	2	4	32	-10	0	-2	0	4	4	2	2	-2	2
Hungry_Donkey_bar_English_2	154	1	<?xml version="1.0"?>\n<Clock xmlns:dt="urn:schemas-microsoft-com:datatypes"><Description dt:dt="string">E-Prime Primary Realtime Clock</Description><StartTime><Timestamp dt:dt="int">0</Timestamp><DateUtc dt:dt="string">2016-07-29T21:22:19Z</DateUtc></StartTime><FrequencyChanges><FrequencyChange><Frequency dt:dt="r8">3507744</Frequency><Timestamp dt:dt="r8">268081616011</Timestamp><Current dt:dt="r8">0</Current><DateUtc dt:dt="string">2016-07-29T21:22:19Z</DateUtc></FrequencyChange></FrequencyChanges></Clock>\n	Hungry_Donkey_bar_English_2-154-1	60.018	9	1.0.0.18	1	1794347040	Standard	2.0.10.353	2.0.10.353	07-29-2016	7/29/2016 9:22:19 PM	17:22:19	2.0.10.248	33	Bar50-50.bmp	51	4	?	10r_4g.bmp	0r_4g.bmp	2r_2g.bmp	0r_2g.bmp				0r_2g.bmp	TrialProc	TrialList	0	cvbn	-999999	16	152657	0	n	571	153228	104	-100	4	6	-10	6	2	3	4	33	-10	0	-2	0	4	4	2	2	0	2
Hungry_Donkey_bar_English_2	154	1	<?xml version="1.0"?>\n<Clock xmlns:dt="urn:schemas-microsoft-com:datatypes"><Description dt:dt="string">E-Prime Primary Realtime Clock</Description><StartTime><Timestamp dt:dt="int">0</Timestamp><DateUtc dt:dt="string">2016-07-29T21:22:19Z</DateUtc></StartTime><FrequencyChanges><FrequencyChange><Frequency dt:dt="r8">3507744</Frequency><Timestamp dt:dt="r8">268081616011</Timestamp><Current dt:dt="r8">0</Current><DateUtc dt:dt="string">2016-07-29T21:22:19Z</DateUtc></FrequencyChange></FrequencyChanges></Clock>\n	Hungry_Donkey_bar_English_2-154-1	60.018	9	1.0.0.18	1	1794347040	Standard	2.0.10.353	2.0.10.353	07-29-2016	7/29/2016 9:22:19 PM	17:22:19	2.0.10.248	34	Bar50-50.bmp	51	3	?	12r_4g.bmp	0r_4g.bmp	3r_2g.bmp	0r_2g.bmp			3r_2g.bmp		TrialProc	TrialList	0	cvbn	-999999	16	155256	0	b	804	156060	106	-103	3	6	-10	5	2	5	4	34	-12	0	-3	0	4	4	2	2	-3	2
Hungry_Donkey_bar_English_2	154	1	<?xml version="1.0"?>\n<Clock xmlns:dt="urn:schemas-microsoft-com:datatypes"><Description dt:dt="string">E-Prime Primary Realtime Clock</Description><StartTime><Timestamp dt:dt="int">0</Timestamp><DateUtc dt:dt="string">2016-07-29T21:22:19Z</DateUtc></StartTime><FrequencyChanges><FrequencyChange><Frequency dt:dt="r8">3507744</Frequency><Timestamp dt:dt="r8">268081616011</Timestamp><Current dt:dt="r8">0</Current><DateUtc dt:dt="string">2016-07-29T21:22:19Z</DateUtc></FrequencyChange></FrequencyChanges></Clock>\n	Hungry_Donkey_bar_English_2-154-1	60.018	9	1.0.0.18	1	1794347040	Standard	2.0.10.353	2.0.10.353	07-29-2016	7/29/2016 9:22:19 PM	17:22:19	2.0.10.248	35	Bar37-63.bmp	42	2	?	8r_4g.bmp	50r_4g.bmp	1r_2g.bmp	10r_2g.bmp		50r_4g.bmp			TrialProc	TrialList	0	cvbn	-999999	16	158088	0	v	420	158508	110	-153	-43	6	-56	5	2	1	4	35	-8	-50	-1	-10	4	4	2	2	-50	4
Hungry_Donkey_bar_English_2	154	1	<?xml version="1.0"?>\n<Clock xmlns:dt="urn:schemas-microsoft-com:datatypes"><Description dt:dt="string">E-Prime Primary Realtime Clock</Description><StartTime><Timestamp dt:dt="int">0</Timestamp><DateUtc dt:dt="string">2016-07-29T21:22:19Z</DateUtc></StartTime><FrequencyChanges><FrequencyChange><Frequency dt:dt="r8">3507744</Frequency><Timestamp dt:dt="r8">268081616011</Timestamp><Current dt:dt="r8">0</Current><DateUtc dt:dt="string">2016-07-29T21:22:19Z</DateUtc></FrequencyChange></FrequencyChanges></Clock>\n	Hungry_Donkey_bar_English_2-154-1	60.018	9	1.0.0.18	1	1794347040	Standard	2.0.10.353	2.0.10.353	07-29-2016	7/29/2016 9:22:19 PM	17:22:19	2.0.10.248	36	Bar37-63.bmp	43	2	?	0r_4g.bmp	0r_4g.bmp	0r_2g.bmp	0r_2g.bmp		0r_4g.bmp			TrialProc	TrialList	0	cvbn	-999999	16	160538	0	v	465	161003	114	-153	-39	6	-52	5	2	10	4	36	0	0	0	0	4	4	2	2	0	4
Hungry_Donkey_bar_English_2	154	1	<?xml version="1.0"?>\n<Clock xmlns:dt="urn:schemas-microsoft-com:datatypes"><Description dt:dt="string">E-Prime Primary Realtime Clock</Description><StartTime><Timestamp dt:dt="int">0</Timestamp><DateUtc dt:dt="string">2016-07-29T21:22:19Z</DateUtc></StartTime><FrequencyChanges><FrequencyChange><Frequency dt:dt="r8">3507744</Frequency><Timestamp dt:dt="r8">268081616011</Timestamp><Current dt:dt="r8">0</Current><DateUtc dt:dt="string">2016-07-29T21:22:19Z</DateUtc></FrequencyChange></FrequencyChanges></Clock>\n	Hungry_Donkey_bar_English_2-154-1	60.018	9	1.0.0.18	1	1794347040	Standard	2.0.10.353	2.0.10.353	07-29-2016	7/29/2016 9:22:19 PM	17:22:19	2.0.10.248	37	Bar50-50.bmp	44	2	?	0r_4g.bmp	0r_4g.bmp	0r_2g.bmp	0r_2g.bmp		0r_4g.bmp			TrialProc	TrialList	0	cvbn	-999999	16	163037	0	v	590	163627	118	-153	-35	6	-48	5	2	8	4	37	0	0	0	0	4	4	2	2	0	4
Hungry_Donkey_bar_English_2	154	1	<?xml version="1.0"?>\n<Clock xmlns:dt="urn:schemas-microsoft-com:datatypes"><Description dt:dt="string">E-Prime Primary Realtime Clock</Description><StartTime><Timestamp dt:dt="int">0</Timestamp><DateUtc dt:dt="string">2016-07-29T21:22:19Z</DateUtc></StartTime><FrequencyChanges><FrequencyChange><Frequency dt:dt="r8">3507744</Frequency><Timestamp dt:dt="r8">268081616011</Timestamp><Current dt:dt="r8">0</Current><DateUtc dt:dt="string">2016-07-29T21:22:19Z</DateUtc></FrequencyChange></FrequencyChanges></Clock>\n	Hungry_Donkey_bar_English_2-154-1	60.018	9	1.0.0.18	1	1794347040	Standard	2.0.10.353	2.0.10.353	07-29-2016	7/29/2016 9:22:19 PM	17:22:19	2.0.10.248	38	Bar50-50.bmp	44	1	?	0r_4g.bmp	0r_4g.bmp	0r_2g.bmp	0r_2g.bmp	0r_4g.bmp				TrialProc	TrialList	0	cvbn	-999999	16	165653	0	c	646	166299	122	-153	-31	10	-48	5	2	7	4	38	0	0	0	0	4	4	2	2	0	4
Hungry_Donkey_bar_English_2	154	1	<?xml version="1.0"?>\n<Clock xmlns:dt="urn:schemas-microsoft-com:datatypes"><Description dt:dt="string">E-Prime Primary Realtime Clock</Description><StartTime><Timestamp dt:dt="int">0</Timestamp><DateUtc dt:dt="string">2016-07-29T21:22:19Z</DateUtc></StartTime><FrequencyChanges><FrequencyChange><Frequency dt:dt="r8">3507744</Frequency><Timestamp dt:dt="r8">268081616011</Timestamp><Current dt:dt="r8">0</Current><DateUtc dt:dt="string">2016-07-29T21:22:19Z</DateUtc></FrequencyChange></FrequencyChanges></Clock>\n	Hungry_Donkey_bar_English_2-154-1	60.018	9	1.0.0.18	1	1794347040	Standard	2.0.10.353	2.0.10.353	07-29-2016	7/29/2016 9:22:19 PM	17:22:19	2.0.10.248	39	Bar50-50.bmp	45	1	?	0r_4g.bmp	0r_4g.bmp	0r_2g.bmp	0r_2g.bmp	0r_4g.bmp				TrialProc	TrialList	0	cvbn	-999999	16	168335	0	c	924	169259	126	-153	-27	14	-48	5	2	9	4	39	0	0	0	0	4	4	2	2	0	4
Hungry_Donkey_bar_English_2	154	1	<?xml version="1.0"?>\n<Clock xmlns:dt="urn:schemas-microsoft-com:datatypes"><Description dt:dt="string">E-Prime Primary Realtime Clock</Description><StartTime><Timestamp dt:dt="int">0</Timestamp><DateUtc dt:dt="string">2016-07-29T21:22:19Z</DateUtc></StartTime><FrequencyChanges><FrequencyChange><Frequency dt:dt="r8">3507744</Frequency><Timestamp dt:dt="r8">268081616011</Timestamp><Current dt:dt="r8">0</Current><DateUtc dt:dt="string">2016-07-29T21:22:19Z</DateUtc></FrequencyChange></FrequencyChanges></Clock>\n	Hungry_Donkey_bar_English_2-154-1	60.018	9	1.0.0.18	1	1794347040	Standard	2.0.10.353	2.0.10.353	07-29-2016	7/29/2016 9:22:19 PM	17:22:19	2.0.10.248	40	Bar50-50.bmp	46	2	?	10r_4g.bmp	0r_4g.bmp	2r_2g.bmp	0r_2g.bmp		0r_4g.bmp			TrialProc	TrialList	0	cvbn	-999999	16	171284	0	v	231	171515	130	-153	-23	14	-44	5	2	4	4	40	-10	0	-2	0	4	4	2	2	0	4
Hungry_Donkey_bar_English_2	154	1	<?xml version="1.0"?>\n<Clock xmlns:dt="urn:schemas-microsoft-com:datatypes"><Description dt:dt="string">E-Prime Primary Realtime Clock</Description><StartTime><Timestamp dt:dt="int">0</Timestamp><DateUtc dt:dt="string">2016-07-29T21:22:19Z</DateUtc></StartTime><FrequencyChanges><FrequencyChange><Frequency dt:dt="r8">3507744</Frequency><Timestamp dt:dt="r8">268081616011</Timestamp><Current dt:dt="r8">0</Current><DateUtc dt:dt="string">2016-07-29T21:22:19Z</DateUtc></FrequencyChange></FrequencyChanges></Clock>\n	Hungry_Donkey_bar_English_2-154-1	60.018	9	1.0.0.18	1	1794347040	Standard	2.0.10.353	2.0.10.353	07-29-2016	7/29/2016 9:22:19 PM	17:22:19	2.0.10.248	41	Bar50-50.bmp	46	3	?	10r_4g.bmp	0r_4g.bmp	2r_2g.bmp	0r_2g.bmp			2r_2g.bmp		TrialProc	TrialList	0	cvbn	-999999	16	173550	0	b	796	174346	132	-155	-23	14	-44	5	2	3	5	41	-10	0	-2	0	4	4	2	2	-2	2
Hungry_Donkey_bar_English_2	154	1	<?xml version="1.0"?>\n<Clock xmlns:dt="urn:schemas-microsoft-com:datatypes"><Description dt:dt="string">E-Prime Primary Realtime Clock</Description><StartTime><Timestamp dt:dt="int">0</Timestamp><DateUtc dt:dt="string">2016-07-29T21:22:19Z</DateUtc></StartTime><FrequencyChanges><FrequencyChange><Frequency dt:dt="r8">3507744</Frequency><Timestamp dt:dt="r8">268081616011</Timestamp><Current dt:dt="r8">0</Current><DateUtc dt:dt="string">2016-07-29T21:22:19Z</DateUtc></FrequencyChange></FrequencyChanges></Clock>\n	Hungry_Donkey_bar_English_2-154-1	60.018	9	1.0.0.18	1	1794347040	Standard	2.0.10.353	2.0.10.353	07-29-2016	7/29/2016 9:22:19 PM	17:22:19	2.0.10.248	42	Bar50-50.bmp	46	4	?	0r_4g.bmp	0r_4g.bmp	0r_2g.bmp	0r_2g.bmp				0r_2g.bmp	TrialProc	TrialList	0	cvbn	-999999	16	176383	0	n	571	176954	134	-155	-21	14	-44	5	4	7	5	42	0	0	0	0	4	4	2	2	0	2
Hungry_Donkey_bar_English_2	154	1	<?xml version="1.0"?>\n<Clock xmlns:dt="urn:schemas-microsoft-com:datatypes"><Description dt:dt="string">E-Prime Primary Realtime Clock</Description><StartTime><Timestamp dt:dt="int">0</Timestamp><DateUtc dt:dt="string">2016-07-29T21:22:19Z</DateUtc></StartTime><FrequencyChanges><FrequencyChange><Frequency dt:dt="r8">3507744</Frequency><Timestamp dt:dt="r8">268081616011</Timestamp><Current dt:dt="r8">0</Current><DateUtc dt:dt="string">2016-07-29T21:22:19Z</DateUtc></FrequencyChange></FrequencyChanges></Clock>\n	Hungry_Donkey_bar_English_2-154-1	60.018	9	1.0.0.18	1	1794347040	Standard	2.0.10.353	2.0.10.353	07-29-2016	7/29/2016 9:22:19 PM	17:22:19	2.0.10.248	43	Bar50-50.bmp	47	4	?	10r_4g.bmp	0r_4g.bmp	2r_2g.bmp	0r_2g.bmp				0r_2g.bmp	TrialProc	TrialList	0	cvbn	-999999	16	178982	0	n	964	179946	136	-155	-19	14	-44	5	6	4	5	43	-10	0	-2	0	4	4	2	2	0	2
Hungry_Donkey_bar_English_2	154	1	<?xml version="1.0"?>\n<Clock xmlns:dt="urn:schemas-microsoft-com:datatypes"><Description dt:dt="string">E-Prime Primary Realtime Clock</Description><StartTime><Timestamp dt:dt="int">0</Timestamp><DateUtc dt:dt="string">2016-07-29T21:22:19Z</DateUtc></StartTime><FrequencyChanges><FrequencyChange><Frequency dt:dt="r8">3507744</Frequency><Timestamp dt:dt="r8">268081616011</Timestamp><Current dt:dt="r8">0</Current><DateUtc dt:dt="string">2016-07-29T21:22:19Z</DateUtc></FrequencyChange></FrequencyChanges></Clock>\n	Hungry_Donkey_bar_English_2-154-1	60.018	9	1.0.0.18	1	1794347040	Standard	2.0.10.353	2.0.10.353	07-29-2016	7/29/2016 9:22:19 PM	17:22:19	2.0.10.248	44	Bar50-50.bmp	47	3	?	0r_4g.bmp	0r_4g.bmp	0r_2g.bmp	0r_2g.bmp			0r_2g.bmp		TrialProc	TrialList	0	cvbn	-999999	16	181981	0	b	461	182442	138	-155	-17	14	-44	7	6	9	5	44	0	0	0	0	4	4	2	2	0	2
Hungry_Donkey_bar_English_2	154	1	<?xml version="1.0"?>\n<Clock xmlns:dt="urn:schemas-microsoft-com:datatypes"><Description dt:dt="string">E-Prime Primary Realtime Clock</Description><StartTime><Timestamp dt:dt="int">0</Timestamp><DateUtc dt:dt="string">2016-07-29T21:22:19Z</DateUtc></StartTime><FrequencyChanges><FrequencyChange><Frequency dt:dt="r8">3507744</Frequency><Timestamp dt:dt="r8">268081616011</Timestamp><Current dt:dt="r8">0</Current><DateUtc dt:dt="string">2016-07-29T21:22:19Z</DateUtc></FrequencyChange></FrequencyChanges></Clock>\n	Hungry_Donkey_bar_English_2-154-1	60.018	9	1.0.0.18	1	1794347040	Standard	2.0.10.353	2.0.10.353	07-29-2016	7/29/2016 9:22:19 PM	17:22:19	2.0.10.248	45	Bar37-63.bmp	41	2	?	8r_4g.bmp	50r_4g.bmp	1r_2g.bmp	10r_2g.bmp		50r_4g.bmp			TrialProc	TrialList	0	cvbn	-999999	16	184480	0	v	170	184650	142	-205	-63	14	-90	7	6	1	5	45	-8	-50	-1	-10	4	4	2	2	-50	4
Hungry_Donkey_bar_English_2	154	1	<?xml version="1.0"?>\n<Clock xmlns:dt="urn:schemas-microsoft-com:datatypes"><Description dt:dt="string">E-Prime Primary Realtime Clock</Description><StartTime><Timestamp dt:dt="int">0</Timestamp><DateUtc dt:dt="string">2016-07-29T21:22:19Z</DateUtc></StartTime><FrequencyChanges><FrequencyChange><Frequency dt:dt="r8">3507744</Frequency><Timestamp dt:dt="r8">268081616011</Timestamp><Current dt:dt="r8">0</Current><DateUtc dt:dt="string">2016-07-29T21:22:19Z</DateUtc></FrequencyChange></FrequencyChanges></Clock>\n	Hungry_Donkey_bar_English_2-154-1	60.018	9	1.0.0.18	1	1794347040	Standard	2.0.10.353	2.0.10.353	07-29-2016	7/29/2016 9:22:19 PM	17:22:19	2.0.10.248	46	Bar37-63.bmp	40	1	?	12r_4g.bmp	0r_4g.bmp	3r_2g.bmp	0r_2g.bmp	12r_4g.bmp				TrialProc	TrialList	0	cvbn	-999999	16	186680	0	c	946	187626	146	-217	-71	6	-90	7	6	5	5	46	-12	0	-3	0	4	4	2	2	-12	4
Hungry_Donkey_bar_English_2	154	1	<?xml version="1.0"?>\n<Clock xmlns:dt="urn:schemas-microsoft-com:datatypes"><Description dt:dt="string">E-Prime Primary Realtime Clock</Description><StartTime><Timestamp dt:dt="int">0</Timestamp><DateUtc dt:dt="string">2016-07-29T21:22:19Z</DateUtc></StartTime><FrequencyChanges><FrequencyChange><Frequency dt:dt="r8">3507744</Frequency><Timestamp dt:dt="r8">268081616011</Timestamp><Current dt:dt="r8">0</Current><DateUtc dt:dt="string">2016-07-29T21:22:19Z</DateUtc></FrequencyChange></FrequencyChanges></Clock>\n	Hungry_Donkey_bar_English_2-154-1	60.018	9	1.0.0.18	1	1794347040	Standard	2.0.10.353	2.0.10.353	07-29-2016	7/29/2016 9:22:19 PM	17:22:19	2.0.10.248	47	Bar37-63.bmp	41	1	?	0r_4g.bmp	0r_4g.bmp	0r_2g.bmp	0r_2g.bmp	0r_4g.bmp				TrialProc	TrialList	0	cvbn	-999999	16	189662	0	c	2763	192425	150	-217	-67	10	-90	7	6	6	5	47	0	0	0	0	4	4	2	2	0	4
Hungry_Donkey_bar_English_2	154	1	<?xml version="1.0"?>\n<Clock xmlns:dt="urn:schemas-microsoft-com:datatypes"><Description dt:dt="string">E-Prime Primary Realtime Clock</Description><StartTime><Timestamp dt:dt="int">0</Timestamp><DateUtc dt:dt="string">2016-07-29T21:22:19Z</DateUtc></StartTime><FrequencyChanges><FrequencyChange><Frequency dt:dt="r8">3507744</Frequency><Timestamp dt:dt="r8">268081616011</Timestamp><Current dt:dt="r8">0</Current><DateUtc dt:dt="string">2016-07-29T21:22:19Z</DateUtc></FrequencyChange></FrequencyChanges></Clock>\n	Hungry_Donkey_bar_English_2-154-1	60.018	9	1.0.0.18	1	1794347040	Standard	2.0.10.353	2.0.10.353	07-29-2016	7/29/2016 9:22:19 PM	17:22:19	2.0.10.248	48	Bar37-63.bmp	42	2	?	0r_4g.bmp	0r_4g.bmp	0r_2g.bmp	0r_2g.bmp		0r_4g.bmp			TrialProc	TrialList	0	cvbn	-999999	16	194461	0	v	300	194761	154	-217	-63	10	-86	7	6	8	5	48	0	0	0	0	4	4	2	2	0	4
Hungry_Donkey_bar_English_2	154	1	<?xml version="1.0"?>\n<Clock xmlns:dt="urn:schemas-microsoft-com:datatypes"><Description dt:dt="string">E-Prime Primary Realtime Clock</Description><StartTime><Timestamp dt:dt="int">0</Timestamp><DateUtc dt:dt="string">2016-07-29T21:22:19Z</DateUtc></StartTime><FrequencyChanges><FrequencyChange><Frequency dt:dt="r8">3507744</Frequency><Timestamp dt:dt="r8">268081616011</Timestamp><Current dt:dt="r8">0</Current><DateUtc dt:dt="string">2016-07-29T21:22:19Z</DateUtc></FrequencyChange></FrequencyChanges></Clock>\n	Hungry_Donkey_bar_English_2-154-1	60.018	9	1.0.0.18	1	1794347040	Standard	2.0.10.353	2.0.10.353	07-29-2016	7/29/2016 9:22:19 PM	17:22:19	2.0.10.248	49	Bar37-63.bmp	42	3	?	0r_4g.bmp	0r_4g.bmp	0r_2g.bmp	0r_2g.bmp			0r_2g.bmp		TrialProc	TrialList	0	cvbn	-999999	16	196793	0	b	352	197145	156	-217	-61	10	-86	9	6	10	5	49	0	0	0	0	4	4	2	2	0	2
Hungry_Donkey_bar_English_2	154	1	<?xml version="1.0"?>\n<Clock xmlns:dt="urn:schemas-microsoft-com:datatypes"><Description dt:dt="string">E-Prime Primary Realtime Clock</Description><StartTime><Timestamp dt:dt="int">0</Timestamp><DateUtc dt:dt="string">2016-07-29T21:22:19Z</DateUtc></StartTime><FrequencyChanges><FrequencyChange><Frequency dt:dt="r8">3507744</Frequency><Timestamp dt:dt="r8">268081616011</Timestamp><Current dt:dt="r8">0</Current><DateUtc dt:dt="string">2016-07-29T21:22:19Z</DateUtc></FrequencyChange></FrequencyChanges></Clock>\n	Hungry_Donkey_bar_English_2-154-1	60.018	9	1.0.0.18	1	1794347040	Standard	2.0.10.353	2.0.10.353	07-29-2016	7/29/2016 9:22:19 PM	17:22:19	2.0.10.248	50	Bar37-63.bmp	42	4	?	10r_4g.bmp	0r_4g.bmp	2r_2g.bmp	0r_2g.bmp				0r_2g.bmp	TrialProc	TrialList	0	cvbn	-999999	16	199176	0	n	337	199513	158	-217	-59	10	-86	9	8	2	5	50	-10	0	-2	0	4	4	2	2	0	2
Hungry_Donkey_bar_English_2	154	1	<?xml version="1.0"?>\n<Clock xmlns:dt="urn:schemas-microsoft-com:datatypes"><Description dt:dt="string">E-Prime Primary Realtime Clock</Description><StartTime><Timestamp dt:dt="int">0</Timestamp><DateUtc dt:dt="string">2016-07-29T21:22:19Z</DateUtc></StartTime><FrequencyChanges><FrequencyChange><Frequency dt:dt="r8">3507744</Frequency><Timestamp dt:dt="r8">268081616011</Timestamp><Current dt:dt="r8">0</Current><DateUtc dt:dt="string">2016-07-29T21:22:19Z</DateUtc></FrequencyChange></FrequencyChanges></Clock>\n	Hungry_Donkey_bar_English_2-154-1	60.018	9	1.0.0.18	1	1794347040	Standard	2.0.10.353	2.0.10.353	07-29-2016	7/29/2016 9:22:19 PM	17:22:19	2.0.10.248	51	Bar37-63.bmp	42	4	?	10r_4g.bmp	0r_4g.bmp	2r_2g.bmp	0r_2g.bmp				0r_2g.bmp	TrialProc	TrialList	0	cvbn	-999999	16	201542	0	n	3442	204984	160	-217	-57	10	-86	9	10	2	6	51	-10	0	-2	0	4	4	2	2	0	2
Hungry_Donkey_bar_English_2	154	1	<?xml version="1.0"?>\n<Clock xmlns:dt="urn:schemas-microsoft-com:datatypes"><Description dt:dt="string">E-Prime Primary Realtime Clock</Description><StartTime><Timestamp dt:dt="int">0</Timestamp><DateUtc dt:dt="string">2016-07-29T21:22:19Z</DateUtc></StartTime><FrequencyChanges><FrequencyChange><Frequency dt:dt="r8">3507744</Frequency><Timestamp dt:dt="r8">268081616011</Timestamp><Current dt:dt="r8">0</Current><DateUtc dt:dt="string">2016-07-29T21:22:19Z</DateUtc></FrequencyChange></FrequencyChanges></Clock>\n	Hungry_Donkey_bar_English_2-154-1	60.018	9	1.0.0.18	1	1794347040	Standard	2.0.10.353	2.0.10.353	07-29-2016	7/29/2016 9:22:19 PM	17:22:19	2.0.10.248	52	Bar37-63.bmp	43	3	?	10r_4g.bmp	0r_4g.bmp	2r_2g.bmp	0r_2g.bmp			2r_2g.bmp		TrialProc	TrialList	0	cvbn	-999999	16	207023	0	b	521	207544	162	-219	-57	10	-86	9	10	4	6	52	-10	0	-2	0	4	4	2	2	-2	2
Hungry_Donkey_bar_English_2	154	1	<?xml version="1.0"?>\n<Clock xmlns:dt="urn:schemas-microsoft-com:datatypes"><Description dt:dt="string">E-Prime Primary Realtime Clock</Description><StartTime><Timestamp dt:dt="int">0</Timestamp><DateUtc dt:dt="string">2016-07-29T21:22:19Z</DateUtc></StartTime><FrequencyChanges><FrequencyChange><Frequency dt:dt="r8">3507744</Frequency><Timestamp dt:dt="r8">268081616011</Timestamp><Current dt:dt="r8">0</Current><DateUtc dt:dt="string">2016-07-29T21:22:19Z</DateUtc></FrequencyChange></FrequencyChanges></Clock>\n	Hungry_Donkey_bar_English_2-154-1	60.018	9	1.0.0.18	1	1794347040	Standard	2.0.10.353	2.0.10.353	07-29-2016	7/29/2016 9:22:19 PM	17:22:19	2.0.10.248	53	Bar37-63.bmp	42	1	?	12r_4g.bmp	0r_4g.bmp	3r_2g.bmp	0r_2g.bmp	12r_4g.bmp				TrialProc	TrialList	0	cvbn	-999999	16	209573	0	c	803	210376	166	-231	-65	2	-86	9	10	5	6	53	-12	0	-3	0	4	4	2	2	-12	4
Hungry_Donkey_bar_English_2	154	1	<?xml version="1.0"?>\n<Clock xmlns:dt="urn:schemas-microsoft-com:datatypes"><Description dt:dt="string">E-Prime Primary Realtime Clock</Description><StartTime><Timestamp dt:dt="int">0</Timestamp><DateUtc dt:dt="string">2016-07-29T21:22:19Z</DateUtc></StartTime><FrequencyChanges><FrequencyChange><Frequency dt:dt="r8">3507744</Frequency><Timestamp dt:dt="r8">268081616011</Timestamp><Current dt:dt="r8">0</Current><DateUtc dt:dt="string">2016-07-29T21:22:19Z</DateUtc></FrequencyChange></FrequencyChanges></Clock>\n	Hungry_Donkey_bar_English_2-154-1	60.018	9	1.0.0.18	1	1794347040	Standard	2.0.10.353	2.0.10.353	07-29-2016	7/29/2016 9:22:19 PM	17:22:19	2.0.10.248	54	Bar37-63.bmp	42	2	?	0r_4g.bmp	0r_4g.bmp	0r_2g.bmp	0r_2g.bmp		0r_4g.bmp			TrialProc	TrialList	0	cvbn	-999999	16	212405	0	v	323	212728	170	-231	-61	2	-82	9	10	7	6	54	0	0	0	0	4	4	2	2	0	4
Hungry_Donkey_bar_English_2	154	1	<?xml version="1.0"?>\n<Clock xmlns:dt="urn:schemas-microsoft-com:datatypes"><Description dt:dt="string">E-Prime Primary Realtime Clock</Description><StartTime><Timestamp dt:dt="int">0</Timestamp><DateUtc dt:dt="string">2016-07-29T21:22:19Z</DateUtc></StartTime><FrequencyChanges><FrequencyChange><Frequency dt:dt="r8">3507744</Frequency><Timestamp dt:dt="r8">268081616011</Timestamp><Current dt:dt="r8">0</Current><DateUtc dt:dt="string">2016-07-29T21:22:19Z</DateUtc></FrequencyChange></FrequencyChanges></Clock>\n	Hungry_Donkey_bar_English_2-154-1	60.018	9	1.0.0.18	1	1794347040	Standard	2.0.10.353	2.0.10.353	07-29-2016	7/29/2016 9:22:19 PM	17:22:19	2.0.10.248	55	Bar37-63.bmp	42	1	?	8r_4g.bmp	50r_4g.bmp	1r_2g.bmp	10r_2g.bmp	8r_4g.bmp				TrialProc	TrialList	0	cvbn	-999999	16	214754	0	c	694	215448	174	-239	-65	-2	-82	9	10	1	6	55	-8	-50	-1	-10	4	4	2	2	-8	4
Hungry_Donkey_bar_English_2	154	1	<?xml version="1.0"?>\n<Clock xmlns:dt="urn:schemas-microsoft-com:datatypes"><Description dt:dt="string">E-Prime Primary Realtime Clock</Description><StartTime><Timestamp dt:dt="int">0</Timestamp><DateUtc dt:dt="string">2016-07-29T21:22:19Z</DateUtc></StartTime><FrequencyChanges><FrequencyChange><Frequency dt:dt="r8">3507744</Frequency><Timestamp dt:dt="r8">268081616011</Timestamp><Current dt:dt="r8">0</Current><DateUtc dt:dt="string">2016-07-29T21:22:19Z</DateUtc></FrequencyChange></FrequencyChanges></Clock>\n	Hungry_Donkey_bar_English_2-154-1	60.018	9	1.0.0.18	1	1794347040	Standard	2.0.10.353	2.0.10.353	07-29-2016	7/29/2016 9:22:19 PM	17:22:19	2.0.10.248	56	Bar37-63.bmp	43	2	?	0r_4g.bmp	0r_4g.bmp	0r_2g.bmp	0r_2g.bmp		0r_4g.bmp			TrialProc	TrialList	0	cvbn	-999999	16	217487	0	v	376	217863	178	-239	-61	-2	-78	9	10	6	6	56	0	0	0	0	4	4	2	2	0	4
Hungry_Donkey_bar_English_2	154	1	<?xml version="1.0"?>\n<Clock xmlns:dt="urn:schemas-microsoft-com:datatypes"><Description dt:dt="string">E-Prime Primary Realtime Clock</Description><StartTime><Timestamp dt:dt="int">0</Timestamp><DateUtc dt:dt="string">2016-07-29T21:22:19Z</DateUtc></StartTime><FrequencyChanges><FrequencyChange><Frequency dt:dt="r8">3507744</Frequency><Timestamp dt:dt="r8">268081616011</Timestamp><Current dt:dt="r8">0</Current><DateUtc dt:dt="string">2016-07-29T21:22:19Z</DateUtc></FrequencyChange></FrequencyChanges></Clock>\n	Hungry_Donkey_bar_English_2-154-1	60.018	9	1.0.0.18	1	1794347040	Standard	2.0.10.353	2.0.10.353	07-29-2016	7/29/2016 9:22:19 PM	17:22:19	2.0.10.248	57	Bar37-63.bmp	43	3	?	0r_4g.bmp	0r_4g.bmp	0r_2g.bmp	0r_2g.bmp			0r_2g.bmp		TrialProc	TrialList	0	cvbn	-999999	16	219903	0	b	408	220311	180	-239	-59	-2	-78	11	10	10	6	57	0	0	0	0	4	4	2	2	0	2
Hungry_Donkey_bar_English_2	154	1	<?xml version="1.0"?>\n<Clock xmlns:dt="urn:schemas-microsoft-com:datatypes"><Description dt:dt="string">E-Prime Primary Realtime Clock</Description><StartTime><Timestamp dt:dt="int">0</Timestamp><DateUtc dt:dt="string">2016-07-29T21:22:19Z</DateUtc></StartTime><FrequencyChanges><FrequencyChange><Frequency dt:dt="r8">3507744</Frequency><Timestamp dt:dt="r8">268081616011</Timestamp><Current dt:dt="r8">0</Current><DateUtc dt:dt="string">2016-07-29T21:22:19Z</DateUtc></FrequencyChange></FrequencyChanges></Clock>\n	Hungry_Donkey_bar_English_2-154-1	60.018	9	1.0.0.18	1	1794347040	Standard	2.0.10.353	2.0.10.353	07-29-2016	7/29/2016 9:22:19 PM	17:22:19	2.0.10.248	58	Bar37-63.bmp	43	4	?	10r_4g.bmp	0r_4g.bmp	2r_2g.bmp	0r_2g.bmp				0r_2g.bmp	TrialProc	TrialList	0	cvbn	-999999	15	222335	0	n	360	222695	182	-239	-57	-2	-78	11	12	3	6	58	-10	0	-2	0	4	4	2	2	0	2
Hungry_Donkey_bar_English_2	154	1	<?xml version="1.0"?>\n<Clock xmlns:dt="urn:schemas-microsoft-com:datatypes"><Description dt:dt="string">E-Prime Primary Realtime Clock</Description><StartTime><Timestamp dt:dt="int">0</Timestamp><DateUtc dt:dt="string">2016-07-29T21:22:19Z</DateUtc></StartTime><FrequencyChanges><FrequencyChange><Frequency dt:dt="r8">3507744</Frequency><Timestamp dt:dt="r8">268081616011</Timestamp><Current dt:dt="r8">0</Current><DateUtc dt:dt="string">2016-07-29T21:22:19Z</DateUtc></FrequencyChange></FrequencyChanges></Clock>\n	Hungry_Donkey_bar_English_2-154-1	60.018	9	1.0.0.18	1	1794347040	Standard	2.0.10.353	2.0.10.353	07-29-2016	7/29/2016 9:22:19 PM	17:22:19	2.0.10.248	59	Bar37-63.bmp	43	4	?	0r_4g.bmp	0r_4g.bmp	0r_2g.bmp	0r_2g.bmp				0r_2g.bmp	TrialProc	TrialList	0	cvbn	-999999	16	224718	0	n	1241	225959	184	-239	-55	-2	-78	11	14	8	6	59	0	0	0	0	4	4	2	2	0	2
Hungry_Donkey_bar_English_2	154	1	<?xml version="1.0"?>\n<Clock xmlns:dt="urn:schemas-microsoft-com:datatypes"><Description dt:dt="string">E-Prime Primary Realtime Clock</Description><StartTime><Timestamp dt:dt="int">0</Timestamp><DateUtc dt:dt="string">2016-07-29T21:22:19Z</DateUtc></StartTime><FrequencyChanges><FrequencyChange><Frequency dt:dt="r8">3507744</Frequency><Timestamp dt:dt="r8">268081616011</Timestamp><Current dt:dt="r8">0</Current><DateUtc dt:dt="string">2016-07-29T21:22:19Z</DateUtc></FrequencyChange></FrequencyChanges></Clock>\n	Hungry_Donkey_bar_English_2-154-1	60.018	9	1.0.0.18	1	1794347040	Standard	2.0.10.353	2.0.10.353	07-29-2016	7/29/2016 9:22:19 PM	17:22:19	2.0.10.248	60	Bar50-50.bmp	44	3	?	0r_4g.bmp	0r_4g.bmp	0r_2g.bmp	0r_2g.bmp			0r_2g.bmp		TrialProc	TrialList	0	cvbn	-999999	16	227984	0	b	567	228551	186	-239	-53	-2	-78	13	14	9	6	60	0	0	0	0	4	4	2	2	0	2
Hungry_Donkey_bar_English_2	154	1	<?xml version="1.0"?>\n<Clock xmlns:dt="urn:schemas-microsoft-com:datatypes"><Description dt:dt="string">E-Prime Primary Realtime Clock</Description><StartTime><Timestamp dt:dt="int">0</Timestamp><DateUtc dt:dt="string">2016-07-29T21:22:19Z</DateUtc></StartTime><FrequencyChanges><FrequencyChange><Frequency dt:dt="r8">3507744</Frequency><Timestamp dt:dt="r8">268081616011</Timestamp><Current dt:dt="r8">0</Current><DateUtc dt:dt="string">2016-07-29T21:22:19Z</DateUtc></FrequencyChange></FrequencyChanges></Clock>\n	Hungry_Donkey_bar_English_2-154-1	60.018	9	1.0.0.18	1	1794347040	Standard	2.0.10.353	2.0.10.353	07-29-2016	7/29/2016 9:22:19 PM	17:22:19	2.0.10.248	61	Bar50-50.bmp	44	2	?	0r_4g.bmp	0r_4g.bmp	0r_2g.bmp	0r_2g.bmp		0r_4g.bmp			TrialProc	TrialList	0	cvbn	-999999	16	230583	0	v	464	231047	190	-239	-49	-2	-74	13	14	8	7	61	0	0	0	0	4	4	2	2	0	4
Hungry_Donkey_bar_English_2	154	1	<?xml version="1.0"?>\n<Clock xmlns:dt="urn:schemas-microsoft-com:datatypes"><Description dt:dt="string">E-Prime Primary Realtime Clock</Description><StartTime><Timestamp dt:dt="int">0</Timestamp><DateUtc dt:dt="string">2016-07-29T21:22:19Z</DateUtc></StartTime><FrequencyChanges><FrequencyChange><Frequency dt:dt="r8">3507744</Frequency><Timestamp dt:dt="r8">268081616011</Timestamp><Current dt:dt="r8">0</Current><DateUtc dt:dt="string">2016-07-29T21:22:19Z</DateUtc></FrequencyChange></FrequencyChanges></Clock>\n	Hungry_Donkey_bar_English_2-154-1	60.018	9	1.0.0.18	1	1794347040	Standard	2.0.10.353	2.0.10.353	07-29-2016	7/29/2016 9:22:19 PM	17:22:19	2.0.10.248	62	Bar37-63.bmp	40	2	?	8r_4g.bmp	50r_4g.bmp	1r_2g.bmp	10r_2g.bmp		50r_4g.bmp			TrialProc	TrialList	0	cvbn	-999999	16	233082	0	v	204	233286	194	-289	-95	-2	-120	13	14	1	7	62	-8	-50	-1	-10	4	4	2	2	-50	4
Hungry_Donkey_bar_English_2	154	1	<?xml version="1.0"?>\n<Clock xmlns:dt="urn:schemas-microsoft-com:datatypes"><Description dt:dt="string">E-Prime Primary Realtime Clock</Description><StartTime><Timestamp dt:dt="int">0</Timestamp><DateUtc dt:dt="string">2016-07-29T21:22:19Z</DateUtc></StartTime><FrequencyChanges><FrequencyChange><Frequency dt:dt="r8">3507744</Frequency><Timestamp dt:dt="r8">268081616011</Timestamp><Current dt:dt="r8">0</Current><DateUtc dt:dt="string">2016-07-29T21:22:19Z</DateUtc></FrequencyChange></FrequencyChanges></Clock>\n	Hungry_Donkey_bar_English_2-154-1	60.018	9	1.0.0.18	1	1794347040	Standard	2.0.10.353	2.0.10.353	07-29-2016	7/29/2016 9:22:19 PM	17:22:19	2.0.10.248	63	Bar37-63.bmp	40	1	?	10r_4g.bmp	0r_4g.bmp	2r_2g.bmp	0r_2g.bmp	10r_4g.bmp				TrialProc	TrialList	0	cvbn	-999999	16	235315	0	c	531	235846	198	-299	-101	-8	-120	13	14	2	7	63	-10	0	-2	0	4	4	2	2	-10	4
Hungry_Donkey_bar_English_2	154	1	<?xml version="1.0"?>\n<Clock xmlns:dt="urn:schemas-microsoft-com:datatypes"><Description dt:dt="string">E-Prime Primary Realtime Clock</Description><StartTime><Timestamp dt:dt="int">0</Timestamp><DateUtc dt:dt="string">2016-07-29T21:22:19Z</DateUtc></StartTime><FrequencyChanges><FrequencyChange><Frequency dt:dt="r8">3507744</Frequency><Timestamp dt:dt="r8">268081616011</Timestamp><Current dt:dt="r8">0</Current><DateUtc dt:dt="string">2016-07-29T21:22:19Z</DateUtc></FrequencyChange></FrequencyChanges></Clock>\n	Hungry_Donkey_bar_English_2-154-1	60.018	9	1.0.0.18	1	1794347040	Standard	2.0.10.353	2.0.10.353	07-29-2016	7/29/2016 9:22:19 PM	17:22:19	2.0.10.248	64	Bar37-63.bmp	40	1	?	10r_4g.bmp	0r_4g.bmp	2r_2g.bmp	0r_2g.bmp	10r_4g.bmp				TrialProc	TrialList	0	cvbn	-999999	16	237881	0	c	3501	241382	202	-309	-107	-14	-120	13	14	4	7	64	-10	0	-2	0	4	4	2	2	-10	4
Hungry_Donkey_bar_English_2	154	1	<?xml version="1.0"?>\n<Clock xmlns:dt="urn:schemas-microsoft-com:datatypes"><Description dt:dt="string">E-Prime Primary Realtime Clock</Description><StartTime><Timestamp dt:dt="int">0</Timestamp><DateUtc dt:dt="string">2016-07-29T21:22:19Z</DateUtc></StartTime><FrequencyChanges><FrequencyChange><Frequency dt:dt="r8">3507744</Frequency><Timestamp dt:dt="r8">268081616011</Timestamp><Current dt:dt="r8">0</Current><DateUtc dt:dt="string">2016-07-29T21:22:19Z</DateUtc></FrequencyChange></FrequencyChanges></Clock>\n	Hungry_Donkey_bar_English_2-154-1	60.018	9	1.0.0.18	1	1794347040	Standard	2.0.10.353	2.0.10.353	07-29-2016	7/29/2016 9:22:19 PM	17:22:19	2.0.10.248	65	Bar37-63.bmp	40	2	?	12r_4g.bmp	0r_4g.bmp	3r_2g.bmp	0r_2g.bmp		0r_4g.bmp			TrialProc	TrialList	0	cvbn	-999999	16	243412	0	v	642	244054	206	-309	-103	-14	-116	13	14	5	7	65	-12	0	-3	0	4	4	2	2	0	4
Hungry_Donkey_bar_English_2	154	1	<?xml version="1.0"?>\n<Clock xmlns:dt="urn:schemas-microsoft-com:datatypes"><Description dt:dt="string">E-Prime Primary Realtime Clock</Description><StartTime><Timestamp dt:dt="int">0</Timestamp><DateUtc dt:dt="string">2016-07-29T21:22:19Z</DateUtc></StartTime><FrequencyChanges><FrequencyChange><Frequency dt:dt="r8">3507744</Frequency><Timestamp dt:dt="r8">268081616011</Timestamp><Current dt:dt="r8">0</Current><DateUtc dt:dt="string">2016-07-29T21:22:19Z</DateUtc></FrequencyChange></FrequencyChanges></Clock>\n	Hungry_Donkey_bar_English_2-154-1	60.018	9	1.0.0.18	1	1794347040	Standard	2.0.10.353	2.0.10.353	07-29-2016	7/29/2016 9:22:19 PM	17:22:19	2.0.10.248	66	Bar37-63.bmp	40	3	?	0r_4g.bmp	0r_4g.bmp	0r_2g.bmp	0r_2g.bmp			0r_2g.bmp		TrialProc	TrialList	0	cvbn	-999999	16	246078	0	b	696	246774	208	-309	-101	-14	-116	15	14	7	7	66	0	0	0	0	4	4	2	2	0	2
Hungry_Donkey_bar_English_2	154	1	<?xml version="1.0"?>\n<Clock xmlns:dt="urn:schemas-microsoft-com:datatypes"><Description dt:dt="string">E-Prime Primary Realtime Clock</Description><StartTime><Timestamp dt:dt="int">0</Timestamp><DateUtc dt:dt="string">2016-07-29T21:22:19Z</DateUtc></StartTime><FrequencyChanges><FrequencyChange><Frequency dt:dt="r8">3507744</Frequency><Timestamp dt:dt="r8">268081616011</Timestamp><Current dt:dt="r8">0</Current><DateUtc dt:dt="string">2016-07-29T21:22:19Z</DateUtc></FrequencyChange></FrequencyChanges></Clock>\n	Hungry_Donkey_bar_English_2-154-1	60.018	9	1.0.0.18	1	1794347040	Standard	2.0.10.353	2.0.10.353	07-29-2016	7/29/2016 9:22:19 PM	17:22:19	2.0.10.248	67	Bar37-63.bmp	40	4	?	0r_4g.bmp	0r_4g.bmp	0r_2g.bmp	0r_2g.bmp				0r_2g.bmp	TrialProc	TrialList	0	cvbn	-999999	16	248811	0	n	394	249205	210	-309	-99	-14	-116	15	16	6	7	67	0	0	0	0	4	4	2	2	0	2
Hungry_Donkey_bar_English_2	154	1	<?xml version="1.0"?>\n<Clock xmlns:dt="urn:schemas-microsoft-com:datatypes"><Description dt:dt="string">E-Prime Primary Realtime Clock</Description><StartTime><Timestamp dt:dt="int">0</Timestamp><DateUtc dt:dt="string">2016-07-29T21:22:19Z</DateUtc></StartTime><FrequencyChanges><FrequencyChange><Frequency dt:dt="r8">3507744</Frequency><Timestamp dt:dt="r8">268081616011</Timestamp><Current dt:dt="r8">0</Current><DateUtc dt:dt="string">2016-07-29T21:22:19Z</DateUtc></FrequencyChange></FrequencyChanges></Clock>\n	Hungry_Donkey_bar_English_2-154-1	60.018	9	1.0.0.18	1	1794347040	Standard	2.0.10.353	2.0.10.353	07-29-2016	7/29/2016 9:22:19 PM	17:22:19	2.0.10.248	68	Bar37-63.bmp	41	3	?	10r_4g.bmp	0r_4g.bmp	2r_2g.bmp	0r_2g.bmp			2r_2g.bmp		TrialProc	TrialList	0	cvbn	-999999	16	251243	0	b	618	251861	212	-311	-99	-14	-116	15	16	3	7	68	-10	0	-2	0	4	4	2	2	-2	2
Hungry_Donkey_bar_English_2	154	1	<?xml version="1.0"?>\n<Clock xmlns:dt="urn:schemas-microsoft-com:datatypes"><Description dt:dt="string">E-Prime Primary Realtime Clock</Description><StartTime><Timestamp dt:dt="int">0</Timestamp><DateUtc dt:dt="string">2016-07-29T21:22:19Z</DateUtc></StartTime><FrequencyChanges><FrequencyChange><Frequency dt:dt="r8">3507744</Frequency><Timestamp dt:dt="r8">268081616011</Timestamp><Current dt:dt="r8">0</Current><DateUtc dt:dt="string">2016-07-29T21:22:19Z</DateUtc></FrequencyChange></FrequencyChanges></Clock>\n	Hungry_Donkey_bar_English_2-154-1	60.018	9	1.0.0.18	1	1794347040	Standard	2.0.10.353	2.0.10.353	07-29-2016	7/29/2016 9:22:19 PM	17:22:19	2.0.10.248	69	Bar37-63.bmp	41	4	?	0r_4g.bmp	0r_4g.bmp	0r_2g.bmp	0r_2g.bmp				0r_2g.bmp	TrialProc	TrialList	0	cvbn	-999999	16	253892	0	n	321	254213	214	-311	-97	-14	-116	15	18	9	7	69	0	0	0	0	4	4	2	2	0	2
Hungry_Donkey_bar_English_2	154	1	<?xml version="1.0"?>\n<Clock xmlns:dt="urn:schemas-microsoft-com:datatypes"><Description dt:dt="string">E-Prime Primary Realtime Clock</Description><StartTime><Timestamp dt:dt="int">0</Timestamp><DateUtc dt:dt="string">2016-07-29T21:22:19Z</DateUtc></StartTime><FrequencyChanges><FrequencyChange><Frequency dt:dt="r8">3507744</Frequency><Timestamp dt:dt="r8">268081616011</Timestamp><Current dt:dt="r8">0</Current><DateUtc dt:dt="string">2016-07-29T21:22:19Z</DateUtc></FrequencyChange></FrequencyChanges></Clock>\n	Hungry_Donkey_bar_English_2-154-1	60.018	9	1.0.0.18	1	1794347040	Standard	2.0.10.353	2.0.10.353	07-29-2016	7/29/2016 9:22:19 PM	17:22:19	2.0.10.248	70	Bar37-63.bmp	41	3	?	0r_4g.bmp	0r_4g.bmp	0r_2g.bmp	0r_2g.bmp			0r_2g.bmp		TrialProc	TrialList	0	cvbn	-999999	16	256242	0	b	467	256709	216	-311	-95	-14	-116	17	18	10	7	70	0	0	0	0	4	4	2	2	0	2
Hungry_Donkey_bar_English_2	154	1	<?xml version="1.0"?>\n<Clock xmlns:dt="urn:schemas-microsoft-com:datatypes"><Description dt:dt="string">E-Prime Primary Realtime Clock</Description><StartTime><Timestamp dt:dt="int">0</Timestamp><DateUtc dt:dt="string">2016-07-29T21:22:19Z</DateUtc></StartTime><FrequencyChanges><FrequencyChange><Frequency dt:dt="r8">3507744</Frequency><Timestamp dt:dt="r8">268081616011</Timestamp><Current dt:dt="r8">0</Current><DateUtc dt:dt="string">2016-07-29T21:22:19Z</DateUtc></FrequencyChange></FrequencyChanges></Clock>\n	Hungry_Donkey_bar_English_2-154-1	60.018	9	1.0.0.18	1	1794347040	Standard	2.0.10.353	2.0.10.353	07-29-2016	7/29/2016 9:22:19 PM	17:22:19	2.0.10.248	71	Bar37-63.bmp	41	2	?	10r_4g.bmp	0r_4g.bmp	2r_2g.bmp	0r_2g.bmp		0r_4g.bmp			TrialProc	TrialList	0	cvbn	-999999	16	258741	0	v	528	259269	220	-311	-91	-14	-112	17	18	3	8	71	-10	0	-2	0	4	4	2	2	0	4
Hungry_Donkey_bar_English_2	154	1	<?xml version="1.0"?>\n<Clock xmlns:dt="urn:schemas-microsoft-com:datatypes"><Description dt:dt="string">E-Prime Primary Realtime Clock</Description><StartTime><Timestamp dt:dt="int">0</Timestamp><DateUtc dt:dt="string">2016-07-29T21:22:19Z</DateUtc></StartTime><FrequencyChanges><FrequencyChange><Frequency dt:dt="r8">3507744</Frequency><Timestamp dt:dt="r8">268081616011</Timestamp><Current dt:dt="r8">0</Current><DateUtc dt:dt="string">2016-07-29T21:22:19Z</DateUtc></FrequencyChange></FrequencyChanges></Clock>\n	Hungry_Donkey_bar_English_2-154-1	60.018	9	1.0.0.18	1	1794347040	Standard	2.0.10.353	2.0.10.353	07-29-2016	7/29/2016 9:22:19 PM	17:22:19	2.0.10.248	72	Bar37-63.bmp	42	1	?	0r_4g.bmp	0r_4g.bmp	0r_2g.bmp	0r_2g.bmp	0r_4g.bmp				TrialProc	TrialList	0	cvbn	-999999	16	261307	0	c	570	261877	224	-311	-87	-10	-112	17	18	10	8	72	0	0	0	0	4	4	2	2	0	4
Hungry_Donkey_bar_English_2	154	1	<?xml version="1.0"?>\n<Clock xmlns:dt="urn:schemas-microsoft-com:datatypes"><Description dt:dt="string">E-Prime Primary Realtime Clock</Description><StartTime><Timestamp dt:dt="int">0</Timestamp><DateUtc dt:dt="string">2016-07-29T21:22:19Z</DateUtc></StartTime><FrequencyChanges><FrequencyChange><Frequency dt:dt="r8">3507744</Frequency><Timestamp dt:dt="r8">268081616011</Timestamp><Current dt:dt="r8">0</Current><DateUtc dt:dt="string">2016-07-29T21:22:19Z</DateUtc></FrequencyChange></FrequencyChanges></Clock>\n	Hungry_Donkey_bar_English_2-154-1	60.018	9	1.0.0.18	1	1794347040	Standard	2.0.10.353	2.0.10.353	07-29-2016	7/29/2016 9:22:19 PM	17:22:19	2.0.10.248	73	Bar37-63.bmp	42	2	?	10r_4g.bmp	0r_4g.bmp	2r_2g.bmp	0r_2g.bmp		0r_4g.bmp			TrialProc	TrialList	0	cvbn	-999999	16	263906	0	v	562	264468	228	-311	-83	-10	-108	17	18	4	8	73	-10	0	-2	0	4	4	2	2	0	4
Hungry_Donkey_bar_English_2	154	1	<?xml version="1.0"?>\n<Clock xmlns:dt="urn:schemas-microsoft-com:datatypes"><Description dt:dt="string">E-Prime Primary Realtime Clock</Description><StartTime><Timestamp dt:dt="int">0</Timestamp><DateUtc dt:dt="string">2016-07-29T21:22:19Z</DateUtc></StartTime><FrequencyChanges><FrequencyChange><Frequency dt:dt="r8">3507744</Frequency><Timestamp dt:dt="r8">268081616011</Timestamp><Current dt:dt="r8">0</Current><DateUtc dt:dt="string">2016-07-29T21:22:19Z</DateUtc></FrequencyChange></FrequencyChanges></Clock>\n	Hungry_Donkey_bar_English_2-154-1	60.018	9	1.0.0.18	1	1794347040	Standard	2.0.10.353	2.0.10.353	07-29-2016	7/29/2016 9:22:19 PM	17:22:19	2.0.10.248	74	Bar37-63.bmp	42	3	?	10r_4g.bmp	0r_4g.bmp	2r_2g.bmp	0r_2g.bmp			2r_2g.bmp		TrialProc	TrialList	0	cvbn	-999999	16	266505	0	b	523	267028	230	-313	-83	-10	-108	17	18	2	8	74	-10	0	-2	0	4	4	2	2	-2	2
Hungry_Donkey_bar_English_2	154	1	<?xml version="1.0"?>\n<Clock xmlns:dt="urn:schemas-microsoft-com:datatypes"><Description dt:dt="string">E-Prime Primary Realtime Clock</Description><StartTime><Timestamp dt:dt="int">0</Timestamp><DateUtc dt:dt="string">2016-07-29T21:22:19Z</DateUtc></StartTime><FrequencyChanges><FrequencyChange><Frequency dt:dt="r8">3507744</Frequency><Timestamp dt:dt="r8">268081616011</Timestamp><Current dt:dt="r8">0</Current><DateUtc dt:dt="string">2016-07-29T21:22:19Z</DateUtc></FrequencyChange></FrequencyChanges></Clock>\n	Hungry_Donkey_bar_English_2-154-1	60.018	9	1.0.0.18	1	1794347040	Standard	2.0.10.353	2.0.10.353	07-29-2016	7/29/2016 9:22:19 PM	17:22:19	2.0.10.248	75	Bar37-63.bmp	43	4	?	0r_4g.bmp	0r_4g.bmp	0r_2g.bmp	0r_2g.bmp				0r_2g.bmp	TrialProc	TrialList	0	cvbn	-999999	16	269054	0	n	630	269684	232	-313	-81	-10	-108	17	20	8	8	75	0	0	0	0	4	4	2	2	0	2
Hungry_Donkey_bar_English_2	154	1	<?xml version="1.0"?>\n<Clock xmlns:dt="urn:schemas-microsoft-com:datatypes"><Description dt:dt="string">E-Prime Primary Realtime Clock</Description><StartTime><Timestamp dt:dt="int">0</Timestamp><DateUtc dt:dt="string">2016-07-29T21:22:19Z</DateUtc></StartTime><FrequencyChanges><FrequencyChange><Frequency dt:dt="r8">3507744</Frequency><Timestamp dt:dt="r8">268081616011</Timestamp><Current dt:dt="r8">0</Current><DateUtc dt:dt="string">2016-07-29T21:22:19Z</DateUtc></FrequencyChange></FrequencyChanges></Clock>\n	Hungry_Donkey_bar_English_2-154-1	60.018	9	1.0.0.18	1	1794347040	Standard	2.0.10.353	2.0.10.353	07-29-2016	7/29/2016 9:22:19 PM	17:22:19	2.0.10.248	76	Bar37-63.bmp	43	2	?	0r_4g.bmp	0r_4g.bmp	0r_2g.bmp	0r_2g.bmp		0r_4g.bmp			TrialProc	TrialList	0	cvbn	-999999	16	271720	0	v	2300	274020	236	-313	-77	-10	-104	17	20	9	8	76	0	0	0	0	4	4	2	2	0	4
Hungry_Donkey_bar_English_2	154	1	<?xml version="1.0"?>\n<Clock xmlns:dt="urn:schemas-microsoft-com:datatypes"><Description dt:dt="string">E-Prime Primary Realtime Clock</Description><StartTime><Timestamp dt:dt="int">0</Timestamp><DateUtc dt:dt="string">2016-07-29T21:22:19Z</DateUtc></StartTime><FrequencyChanges><FrequencyChange><Frequency dt:dt="r8">3507744</Frequency><Timestamp dt:dt="r8">268081616011</Timestamp><Current dt:dt="r8">0</Current><DateUtc dt:dt="string">2016-07-29T21:22:19Z</DateUtc></FrequencyChange></FrequencyChanges></Clock>\n	Hungry_Donkey_bar_English_2-154-1	60.018	9	1.0.0.18	1	1794347040	Standard	2.0.10.353	2.0.10.353	07-29-2016	7/29/2016 9:22:19 PM	17:22:19	2.0.10.248	77	Bar37-63.bmp	43	1	?	8r_4g.bmp	50r_4g.bmp	1r_2g.bmp	10r_2g.bmp	8r_4g.bmp				TrialProc	TrialList	0	cvbn	-999999	16	276052	0	c	576	276628	240	-321	-81	-14	-104	17	20	1	8	77	-8	-50	-1	-10	4	4	2	2	-8	4
Hungry_Donkey_bar_English_2	154	1	<?xml version="1.0"?>\n<Clock xmlns:dt="urn:schemas-microsoft-com:datatypes"><Description dt:dt="string">E-Prime Primary Realtime Clock</Description><StartTime><Timestamp dt:dt="int">0</Timestamp><DateUtc dt:dt="string">2016-07-29T21:22:19Z</DateUtc></StartTime><FrequencyChanges><FrequencyChange><Frequency dt:dt="r8">3507744</Frequency><Timestamp dt:dt="r8">268081616011</Timestamp><Current dt:dt="r8">0</Current><DateUtc dt:dt="string">2016-07-29T21:22:19Z</DateUtc></FrequencyChange></FrequencyChanges></Clock>\n	Hungry_Donkey_bar_English_2-154-1	60.018	9	1.0.0.18	1	1794347040	Standard	2.0.10.353	2.0.10.353	07-29-2016	7/29/2016 9:22:19 PM	17:22:19	2.0.10.248	78	Bar37-63.bmp	43	2	?	12r_4g.bmp	0r_4g.bmp	3r_2g.bmp	0r_2g.bmp		0r_4g.bmp			TrialProc	TrialList	0	cvbn	-999999	16	278652	0	v	343	278995	244	-321	-77	-14	-100	17	20	5	8	78	-12	0	-3	0	4	4	2	2	0	4
Hungry_Donkey_bar_English_2	154	1	<?xml version="1.0"?>\n<Clock xmlns:dt="urn:schemas-microsoft-com:datatypes"><Description dt:dt="string">E-Prime Primary Realtime Clock</Description><StartTime><Timestamp dt:dt="int">0</Timestamp><DateUtc dt:dt="string">2016-07-29T21:22:19Z</DateUtc></StartTime><FrequencyChanges><FrequencyChange><Frequency dt:dt="r8">3507744</Frequency><Timestamp dt:dt="r8">268081616011</Timestamp><Current dt:dt="r8">0</Current><DateUtc dt:dt="string">2016-07-29T21:22:19Z</DateUtc></FrequencyChange></FrequencyChanges></Clock>\n	Hungry_Donkey_bar_English_2-154-1	60.018	9	1.0.0.18	1	1794347040	Standard	2.0.10.353	2.0.10.353	07-29-2016	7/29/2016 9:22:19 PM	17:22:19	2.0.10.248	79	Bar50-50.bmp	44	2	?	0r_4g.bmp	0r_4g.bmp	0r_2g.bmp	0r_2g.bmp		0r_4g.bmp			TrialProc	TrialList	0	cvbn	-999999	16	281034	0	v	569	281603	248	-321	-73	-14	-96	17	20	7	8	79	0	0	0	0	4	4	2	2	0	4
Hungry_Donkey_bar_English_2	154	1	<?xml version="1.0"?>\n<Clock xmlns:dt="urn:schemas-microsoft-com:datatypes"><Description dt:dt="string">E-Prime Primary Realtime Clock</Description><StartTime><Timestamp dt:dt="int">0</Timestamp><DateUtc dt:dt="string">2016-07-29T21:22:19Z</DateUtc></StartTime><FrequencyChanges><FrequencyChange><Frequency dt:dt="r8">3507744</Frequency><Timestamp dt:dt="r8">268081616011</Timestamp><Current dt:dt="r8">0</Current><DateUtc dt:dt="string">2016-07-29T21:22:19Z</DateUtc></FrequencyChange></FrequencyChanges></Clock>\n	Hungry_Donkey_bar_English_2-154-1	60.018	9	1.0.0.18	1	1794347040	Standard	2.0.10.353	2.0.10.353	07-29-2016	7/29/2016 9:22:19 PM	17:22:19	2.0.10.248	80	Bar50-50.bmp	44	3	?	0r_4g.bmp	0r_4g.bmp	0r_2g.bmp	0r_2g.bmp			0r_2g.bmp		TrialProc	TrialList	0	cvbn	-999999	16	283633	0	b	370	284003	250	-321	-71	-14	-96	19	20	6	8	80	0	0	0	0	4	4	2	2	0	2
Hungry_Donkey_bar_English_2	154	1	<?xml version="1.0"?>\n<Clock xmlns:dt="urn:schemas-microsoft-com:datatypes"><Description dt:dt="string">E-Prime Primary Realtime Clock</Description><StartTime><Timestamp dt:dt="int">0</Timestamp><DateUtc dt:dt="string">2016-07-29T21:22:19Z</DateUtc></StartTime><FrequencyChanges><FrequencyChange><Frequency dt:dt="r8">3507744</Frequency><Timestamp dt:dt="r8">268081616011</Timestamp><Current dt:dt="r8">0</Current><DateUtc dt:dt="string">2016-07-29T21:22:19Z</DateUtc></FrequencyChange></FrequencyChanges></Clock>\n	Hungry_Donkey_bar_English_2-154-1	60.018	9	1.0.0.18	1	1794347040	Standard	2.0.10.353	2.0.10.353	07-29-2016	7/29/2016 9:22:19 PM	17:22:19	2.0.10.248	81	Bar50-50.bmp	44	4	?	0r_4g.bmp	0r_4g.bmp	0r_2g.bmp	0r_2g.bmp				0r_2g.bmp	TrialProc	TrialList	0	cvbn	-999999	16	286033	0	n	386	286419	252	-321	-69	-14	-96	19	22	8	9	81	0	0	0	0	4	4	2	2	0	2
Hungry_Donkey_bar_English_2	154	1	<?xml version="1.0"?>\n<Clock xmlns:dt="urn:schemas-microsoft-com:datatypes"><Description dt:dt="string">E-Prime Primary Realtime Clock</Description><StartTime><Timestamp dt:dt="int">0</Timestamp><DateUtc dt:dt="string">2016-07-29T21:22:19Z</DateUtc></StartTime><FrequencyChanges><FrequencyChange><Frequency dt:dt="r8">3507744</Frequency><Timestamp dt:dt="r8">268081616011</Timestamp><Current dt:dt="r8">0</Current><DateUtc dt:dt="string">2016-07-29T21:22:19Z</DateUtc></FrequencyChange></FrequencyChanges></Clock>\n	Hungry_Donkey_bar_English_2-154-1	60.018	9	1.0.0.18	1	1794347040	Standard	2.0.10.353	2.0.10.353	07-29-2016	7/29/2016 9:22:19 PM	17:22:19	2.0.10.248	82	Bar50-50.bmp	44	4	?	0r_4g.bmp	0r_4g.bmp	0r_2g.bmp	0r_2g.bmp				0r_2g.bmp	TrialProc	TrialList	0	cvbn	-999999	16	288449	0	n	642	289091	254	-321	-67	-14	-96	19	24	10	9	82	0	0	0	0	4	4	2	2	0	2
Hungry_Donkey_bar_English_2	154	1	<?xml version="1.0"?>\n<Clock xmlns:dt="urn:schemas-microsoft-com:datatypes"><Description dt:dt="string">E-Prime Primary Realtime Clock</Description><StartTime><Timestamp dt:dt="int">0</Timestamp><DateUtc dt:dt="string">2016-07-29T21:22:19Z</DateUtc></StartTime><FrequencyChanges><FrequencyChange><Frequency dt:dt="r8">3507744</Frequency><Timestamp dt:dt="r8">268081616011</Timestamp><Current dt:dt="r8">0</Current><DateUtc dt:dt="string">2016-07-29T21:22:19Z</DateUtc></FrequencyChange></FrequencyChanges></Clock>\n	Hungry_Donkey_bar_English_2-154-1	60.018	9	1.0.0.18	1	1794347040	Standard	2.0.10.353	2.0.10.353	07-29-2016	7/29/2016 9:22:19 PM	17:22:19	2.0.10.248	83	Bar50-50.bmp	44	3	?	0r_4g.bmp	0r_4g.bmp	0r_2g.bmp	0r_2g.bmp			0r_2g.bmp		TrialProc	TrialList	0	cvbn	-999999	15	291114	0	b	392	291506	256	-321	-65	-14	-96	21	24	7	9	83	0	0	0	0	4	4	2	2	0	2
Hungry_Donkey_bar_English_2	154	1	<?xml version="1.0"?>\n<Clock xmlns:dt="urn:schemas-microsoft-com:datatypes"><Description dt:dt="string">E-Prime Primary Realtime Clock</Description><StartTime><Timestamp dt:dt="int">0</Timestamp><DateUtc dt:dt="string">2016-07-29T21:22:19Z</DateUtc></StartTime><FrequencyChanges><FrequencyChange><Frequency dt:dt="r8">3507744</Frequency><Timestamp dt:dt="r8">268081616011</Timestamp><Current dt:dt="r8">0</Current><DateUtc dt:dt="string">2016-07-29T21:22:19Z</DateUtc></FrequencyChange></FrequencyChanges></Clock>\n	Hungry_Donkey_bar_English_2-154-1	60.018	9	1.0.0.18	1	1794347040	Standard	2.0.10.353	2.0.10.353	07-29-2016	7/29/2016 9:22:19 PM	17:22:19	2.0.10.248	84	Bar37-63.bmp	41	2	?	8r_4g.bmp	50r_4g.bmp	1r_2g.bmp	10r_2g.bmp		50r_4g.bmp			TrialProc	TrialList	0	cvbn	-999999	16	293547	0	v	55	293602	260	-371	-111	-14	-142	21	24	1	9	84	-8	-50	-1	-10	4	4	2	2	-50	4
Hungry_Donkey_bar_English_2	154	1	<?xml version="1.0"?>\n<Clock xmlns:dt="urn:schemas-microsoft-com:datatypes"><Description dt:dt="string">E-Prime Primary Realtime Clock</Description><StartTime><Timestamp dt:dt="int">0</Timestamp><DateUtc dt:dt="string">2016-07-29T21:22:19Z</DateUtc></StartTime><FrequencyChanges><FrequencyChange><Frequency dt:dt="r8">3507744</Frequency><Timestamp dt:dt="r8">268081616011</Timestamp><Current dt:dt="r8">0</Current><DateUtc dt:dt="string">2016-07-29T21:22:19Z</DateUtc></FrequencyChange></FrequencyChanges></Clock>\n	Hungry_Donkey_bar_English_2-154-1	60.018	9	1.0.0.18	1	1794347040	Standard	2.0.10.353	2.0.10.353	07-29-2016	7/29/2016 9:22:19 PM	17:22:19	2.0.10.248	85	Bar37-63.bmp	42	1	?	0r_4g.bmp	0r_4g.bmp	0r_2g.bmp	0r_2g.bmp	0r_4g.bmp				TrialProc	TrialList	0	cvbn	-999999	16	295630	0	c	852	296482	264	-371	-107	-10	-142	21	24	6	9	85	0	0	0	0	4	4	2	2	0	4
Hungry_Donkey_bar_English_2	154	1	<?xml version="1.0"?>\n<Clock xmlns:dt="urn:schemas-microsoft-com:datatypes"><Description dt:dt="string">E-Prime Primary Realtime Clock</Description><StartTime><Timestamp dt:dt="int">0</Timestamp><DateUtc dt:dt="string">2016-07-29T21:22:19Z</DateUtc></StartTime><FrequencyChanges><FrequencyChange><Frequency dt:dt="r8">3507744</Frequency><Timestamp dt:dt="r8">268081616011</Timestamp><Current dt:dt="r8">0</Current><DateUtc dt:dt="string">2016-07-29T21:22:19Z</DateUtc></FrequencyChange></FrequencyChanges></Clock>\n	Hungry_Donkey_bar_English_2-154-1	60.018	9	1.0.0.18	1	1794347040	Standard	2.0.10.353	2.0.10.353	07-29-2016	7/29/2016 9:22:19 PM	17:22:19	2.0.10.248	86	Bar37-63.bmp	42	2	?	10r_4g.bmp	0r_4g.bmp	2r_2g.bmp	0r_2g.bmp		0r_4g.bmp			TrialProc	TrialList	0	cvbn	-999999	16	298512	0	v	354	298866	268	-371	-103	-10	-138	21	24	2	9	86	-10	0	-2	0	4	4	2	2	0	4
Hungry_Donkey_bar_English_2	154	1	<?xml version="1.0"?>\n<Clock xmlns:dt="urn:schemas-microsoft-com:datatypes"><Description dt:dt="string">E-Prime Primary Realtime Clock</Description><StartTime><Timestamp dt:dt="int">0</Timestamp><DateUtc dt:dt="string">2016-07-29T21:22:19Z</DateUtc></StartTime><FrequencyChanges><FrequencyChange><Frequency dt:dt="r8">3507744</Frequency><Timestamp dt:dt="r8">268081616011</Timestamp><Current dt:dt="r8">0</Current><DateUtc dt:dt="string">2016-07-29T21:22:19Z</DateUtc></FrequencyChange></FrequencyChanges></Clock>\n	Hungry_Donkey_bar_English_2-154-1	60.018	9	1.0.0.18	1	1794347040	Standard	2.0.10.353	2.0.10.353	07-29-2016	7/29/2016 9:22:19 PM	17:22:19	2.0.10.248	87	Bar37-63.bmp	42	3	?	10r_4g.bmp	0r_4g.bmp	2r_2g.bmp	0r_2g.bmp			2r_2g.bmp		TrialProc	TrialList	0	cvbn	-999999	16	300895	0	b	51	300946	270	-373	-103	-10	-138	21	24	3	9	87	-10	0	-2	0	4	4	2	2	-2	2
Hungry_Donkey_bar_English_2	154	1	<?xml version="1.0"?>\n<Clock xmlns:dt="urn:schemas-microsoft-com:datatypes"><Description dt:dt="string">E-Prime Primary Realtime Clock</Description><StartTime><Timestamp dt:dt="int">0</Timestamp><DateUtc dt:dt="string">2016-07-29T21:22:19Z</DateUtc></StartTime><FrequencyChanges><FrequencyChange><Frequency dt:dt="r8">3507744</Frequency><Timestamp dt:dt="r8">268081616011</Timestamp><Current dt:dt="r8">0</Current><DateUtc dt:dt="string">2016-07-29T21:22:19Z</DateUtc></FrequencyChange></FrequencyChanges></Clock>\n	Hungry_Donkey_bar_English_2-154-1	60.018	9	1.0.0.18	1	1794347040	Standard	2.0.10.353	2.0.10.353	07-29-2016	7/29/2016 9:22:19 PM	17:22:19	2.0.10.248	88	Bar37-63.bmp	42	4	?	0r_4g.bmp	0r_4g.bmp	0r_2g.bmp	0r_2g.bmp				0r_2g.bmp	TrialProc	TrialList	0	cvbn	-999999	16	302977	0	n	1249	304226	272	-373	-101	-10	-138	21	26	9	9	88	0	0	0	0	4	4	2	2	0	2
Hungry_Donkey_bar_English_2	154	1	<?xml version="1.0"?>\n<Clock xmlns:dt="urn:schemas-microsoft-com:datatypes"><Description dt:dt="string">E-Prime Primary Realtime Clock</Description><StartTime><Timestamp dt:dt="int">0</Timestamp><DateUtc dt:dt="string">2016-07-29T21:22:19Z</DateUtc></StartTime><FrequencyChanges><FrequencyChange><Frequency dt:dt="r8">3507744</Frequency><Timestamp dt:dt="r8">268081616011</Timestamp><Current dt:dt="r8">0</Current><DateUtc dt:dt="string">2016-07-29T21:22:19Z</DateUtc></FrequencyChange></FrequencyChanges></Clock>\n	Hungry_Donkey_bar_English_2-154-1	60.018	9	1.0.0.18	1	1794347040	Standard	2.0.10.353	2.0.10.353	07-29-2016	7/29/2016 9:22:19 PM	17:22:19	2.0.10.248	89	Bar37-63.bmp	42	4	?	10r_4g.bmp	0r_4g.bmp	2r_2g.bmp	0r_2g.bmp				0r_2g.bmp	TrialProc	TrialList	0	cvbn	-999999	16	306260	0	n	477	306737	274	-373	-99	-10	-138	21	28	4	9	89	-10	0	-2	0	4	4	2	2	0	2
Hungry_Donkey_bar_English_2	154	1	<?xml version="1.0"?>\n<Clock xmlns:dt="urn:schemas-microsoft-com:datatypes"><Description dt:dt="string">E-Prime Primary Realtime Clock</Description><StartTime><Timestamp dt:dt="int">0</Timestamp><DateUtc dt:dt="string">2016-07-29T21:22:19Z</DateUtc></StartTime><FrequencyChanges><FrequencyChange><Frequency dt:dt="r8">3507744</Frequency><Timestamp dt:dt="r8">268081616011</Timestamp><Current dt:dt="r8">0</Current><DateUtc dt:dt="string">2016-07-29T21:22:19Z</DateUtc></FrequencyChange></FrequencyChanges></Clock>\n	Hungry_Donkey_bar_English_2-154-1	60.018	9	1.0.0.18	1	1794347040	Standard	2.0.10.353	2.0.10.353	07-29-2016	7/29/2016 9:22:19 PM	17:22:19	2.0.10.248	90	Bar37-63.bmp	42	3	?	12r_4g.bmp	0r_4g.bmp	3r_2g.bmp	0r_2g.bmp			3r_2g.bmp		TrialProc	TrialList	0	cvbn	-999999	16	308776	0	b	617	309393	276	-376	-100	-10	-138	20	28	5	9	90	-12	0	-3	0	4	4	2	2	-3	2
Hungry_Donkey_bar_English_2	154	1	<?xml version="1.0"?>\n<Clock xmlns:dt="urn:schemas-microsoft-com:datatypes"><Description dt:dt="string">E-Prime Primary Realtime Clock</Description><StartTime><Timestamp dt:dt="int">0</Timestamp><DateUtc dt:dt="string">2016-07-29T21:22:19Z</DateUtc></StartTime><FrequencyChanges><FrequencyChange><Frequency dt:dt="r8">3507744</Frequency><Timestamp dt:dt="r8">268081616011</Timestamp><Current dt:dt="r8">0</Current><DateUtc dt:dt="string">2016-07-29T21:22:19Z</DateUtc></FrequencyChange></FrequencyChanges></Clock>\n	Hungry_Donkey_bar_English_2-154-1	60.018	9	1.0.0.18	1	1794347040	Standard	2.0.10.353	2.0.10.353	07-29-2016	7/29/2016 9:22:19 PM	17:22:19	2.0.10.248	91	Bar37-63.bmp	43	2	?	0r_4g.bmp	0r_4g.bmp	0r_2g.bmp	0r_2g.bmp		0r_4g.bmp			TrialProc	TrialList	0	cvbn	-999999	16	311425	0	v	1104	312529	280	-376	-96	-10	-134	20	28	6	10	91	0	0	0	0	4	4	2	2	0	4
Hungry_Donkey_bar_English_2	154	1	<?xml version="1.0"?>\n<Clock xmlns:dt="urn:schemas-microsoft-com:datatypes"><Description dt:dt="string">E-Prime Primary Realtime Clock</Description><StartTime><Timestamp dt:dt="int">0</Timestamp><DateUtc dt:dt="string">2016-07-29T21:22:19Z</DateUtc></StartTime><FrequencyChanges><FrequencyChange><Frequency dt:dt="r8">3507744</Frequency><Timestamp dt:dt="r8">268081616011</Timestamp><Current dt:dt="r8">0</Current><DateUtc dt:dt="string">2016-07-29T21:22:19Z</DateUtc></FrequencyChange></FrequencyChanges></Clock>\n	Hungry_Donkey_bar_English_2-154-1	60.018	9	1.0.0.18	1	1794347040	Standard	2.0.10.353	2.0.10.353	07-29-2016	7/29/2016 9:22:19 PM	17:22:19	2.0.10.248	92	Bar37-63.bmp	43	1	?	0r_4g.bmp	0r_4g.bmp	0r_2g.bmp	0r_2g.bmp	0r_4g.bmp				TrialProc	TrialList	0	cvbn	-999999	16	314557	0	c	36	314593	284	-376	-92	-6	-134	20	28	7	10	92	0	0	0	0	4	4	2	2	0	4
Hungry_Donkey_bar_English_2	154	1	<?xml version="1.0"?>\n<Clock xmlns:dt="urn:schemas-microsoft-com:datatypes"><Description dt:dt="string">E-Prime Primary Realtime Clock</Description><StartTime><Timestamp dt:dt="int">0</Timestamp><DateUtc dt:dt="string">2016-07-29T21:22:19Z</DateUtc></StartTime><FrequencyChanges><FrequencyChange><Frequency dt:dt="r8">3507744</Frequency><Timestamp dt:dt="r8">268081616011</Timestamp><Current dt:dt="r8">0</Current><DateUtc dt:dt="string">2016-07-29T21:22:19Z</DateUtc></FrequencyChange></FrequencyChanges></Clock>\n	Hungry_Donkey_bar_English_2-154-1	60.018	9	1.0.0.18	1	1794347040	Standard	2.0.10.353	2.0.10.353	07-29-2016	7/29/2016 9:22:19 PM	17:22:19	2.0.10.248	93	Bar37-63.bmp	43	1	?	0r_4g.bmp	0r_4g.bmp	0r_2g.bmp	0r_2g.bmp	0r_4g.bmp				TrialProc	TrialList	0	cvbn	-999999	16	316623	0	c	1010	317633	288	-376	-88	-2	-134	20	28	9	10	93	0	0	0	0	4	4	2	2	0	4
Hungry_Donkey_bar_English_2	154	1	<?xml version="1.0"?>\n<Clock xmlns:dt="urn:schemas-microsoft-com:datatypes"><Description dt:dt="string">E-Prime Primary Realtime Clock</Description><StartTime><Timestamp dt:dt="int">0</Timestamp><DateUtc dt:dt="string">2016-07-29T21:22:19Z</DateUtc></StartTime><FrequencyChanges><FrequencyChange><Frequency dt:dt="r8">3507744</Frequency><Timestamp dt:dt="r8">268081616011</Timestamp><Current dt:dt="r8">0</Current><DateUtc dt:dt="string">2016-07-29T21:22:19Z</DateUtc></FrequencyChange></FrequencyChanges></Clock>\n	Hungry_Donkey_bar_English_2-154-1	60.018	9	1.0.0.18	1	1794347040	Standard	2.0.10.353	2.0.10.353	07-29-2016	7/29/2016 9:22:19 PM	17:22:19	2.0.10.248	94	Bar50-50.bmp	44	2	?	10r_4g.bmp	0r_4g.bmp	2r_2g.bmp	0r_2g.bmp		0r_4g.bmp			TrialProc	TrialList	0	cvbn	-999999	16	319672	0	v	297	319969	292	-376	-84	-2	-130	20	28	2	10	94	-10	0	-2	0	4	4	2	2	0	4
Hungry_Donkey_bar_English_2	154	1	<?xml version="1.0"?>\n<Clock xmlns:dt="urn:schemas-microsoft-com:datatypes"><Description dt:dt="string">E-Prime Primary Realtime Clock</Description><StartTime><Timestamp dt:dt="int">0</Timestamp><DateUtc dt:dt="string">2016-07-29T21:22:19Z</DateUtc></StartTime><FrequencyChanges><FrequencyChange><Frequency dt:dt="r8">3507744</Frequency><Timestamp dt:dt="r8">268081616011</Timestamp><Current dt:dt="r8">0</Current><DateUtc dt:dt="string">2016-07-29T21:22:19Z</DateUtc></FrequencyChange></FrequencyChanges></Clock>\n	Hungry_Donkey_bar_English_2-154-1	60.018	9	1.0.0.18	1	1794347040	Standard	2.0.10.353	2.0.10.353	07-29-2016	7/29/2016 9:22:19 PM	17:22:19	2.0.10.248	95	Bar50-50.bmp	44	3	?	10r_4g.bmp	0r_4g.bmp	2r_2g.bmp	0r_2g.bmp			2r_2g.bmp		TrialProc	TrialList	0	cvbn	-999999	16	322005	0	b	635	322640	294	-378	-84	-2	-130	20	28	3	10	95	-10	0	-2	0	4	4	2	2	-2	2
Hungry_Donkey_bar_English_2	154	1	<?xml version="1.0"?>\n<Clock xmlns:dt="urn:schemas-microsoft-com:datatypes"><Description dt:dt="string">E-Prime Primary Realtime Clock</Description><StartTime><Timestamp dt:dt="int">0</Timestamp><DateUtc dt:dt="string">2016-07-29T21:22:19Z</DateUtc></StartTime><FrequencyChanges><FrequencyChange><Frequency dt:dt="r8">3507744</Frequency><Timestamp dt:dt="r8">268081616011</Timestamp><Current dt:dt="r8">0</Current><DateUtc dt:dt="string">2016-07-29T21:22:19Z</DateUtc></FrequencyChange></FrequencyChanges></Clock>\n	Hungry_Donkey_bar_English_2-154-1	60.018	9	1.0.0.18	1	1794347040	Standard	2.0.10.353	2.0.10.353	07-29-2016	7/29/2016 9:22:19 PM	17:22:19	2.0.10.248	96	Bar50-50.bmp	44	4	?	12r_4g.bmp	0r_4g.bmp	3r_2g.bmp	0r_2g.bmp				0r_2g.bmp	TrialProc	TrialList	0	cvbn	-999999	16	324671	0	n	529	325200	296	-378	-82	-2	-130	20	30	5	10	96	-12	0	-3	0	4	4	2	2	0	2
Hungry_Donkey_bar_English_2	154	1	<?xml version="1.0"?>\n<Clock xmlns:dt="urn:schemas-microsoft-com:datatypes"><Description dt:dt="string">E-Prime Primary Realtime Clock</Description><StartTime><Timestamp dt:dt="int">0</Timestamp><DateUtc dt:dt="string">2016-07-29T21:22:19Z</DateUtc></StartTime><FrequencyChanges><FrequencyChange><Frequency dt:dt="r8">3507744</Frequency><Timestamp dt:dt="r8">268081616011</Timestamp><Current dt:dt="r8">0</Current><DateUtc dt:dt="string">2016-07-29T21:22:19Z</DateUtc></FrequencyChange></FrequencyChanges></Clock>\n	Hungry_Donkey_bar_English_2-154-1	60.018	9	1.0.0.18	1	1794347040	Standard	2.0.10.353	2.0.10.353	07-29-2016	7/29/2016 9:22:19 PM	17:22:19	2.0.10.248	97	Bar37-63.bmp	43	4	?	8r_4g.bmp	50r_4g.bmp	1r_2g.bmp	10r_2g.bmp				10r_2g.bmp	TrialProc	TrialList	0	cvbn	-999999	16	327237	0	n	731	327968	298	-388	-90	-2	-130	20	22	1	10	97	-8	-50	-1	-10	4	4	2	2	-10	2
Hungry_Donkey_bar_English_2	154	1	<?xml version="1.0"?>\n<Clock xmlns:dt="urn:schemas-microsoft-com:datatypes"><Description dt:dt="string">E-Prime Primary Realtime Clock</Description><StartTime><Timestamp dt:dt="int">0</Timestamp><DateUtc dt:dt="string">2016-07-29T21:22:19Z</DateUtc></StartTime><FrequencyChanges><FrequencyChange><Frequency dt:dt="r8">3507744</Frequency><Timestamp dt:dt="r8">268081616011</Timestamp><Current dt:dt="r8">0</Current><DateUtc dt:dt="string">2016-07-29T21:22:19Z</DateUtc></FrequencyChange></FrequencyChanges></Clock>\n	Hungry_Donkey_bar_English_2-154-1	60.018	9	1.0.0.18	1	1794347040	Standard	2.0.10.353	2.0.10.353	07-29-2016	7/29/2016 9:22:19 PM	17:22:19	2.0.10.248	98	Bar37-63.bmp	43	3	?	10r_4g.bmp	0r_4g.bmp	2r_2g.bmp	0r_2g.bmp			2r_2g.bmp		TrialProc	TrialList	0	cvbn	-999999	17	330003	0	b	461	330464	300	-390	-90	-2	-130	20	22	4	10	98	-10	0	-2	0	4	4	2	2	-2	2
Hungry_Donkey_bar_English_2	154	1	<?xml version="1.0"?>\n<Clock xmlns:dt="urn:schemas-microsoft-com:datatypes"><Description dt:dt="string">E-Prime Primary Realtime Clock</Description><StartTime><Timestamp dt:dt="int">0</Timestamp><DateUtc dt:dt="string">2016-07-29T21:22:19Z</DateUtc></StartTime><FrequencyChanges><FrequencyChange><Frequency dt:dt="r8">3507744</Frequency><Timestamp dt:dt="r8">268081616011</Timestamp><Current dt:dt="r8">0</Current><DateUtc dt:dt="string">2016-07-29T21:22:19Z</DateUtc></FrequencyChange></FrequencyChanges></Clock>\n	Hungry_Donkey_bar_English_2-154-1	60.018	9	1.0.0.18	1	1794347040	Standard	2.0.10.353	2.0.10.353	07-29-2016	7/29/2016 9:22:19 PM	17:22:19	2.0.10.248	99	Bar50-50.bmp	44	2	?	0r_4g.bmp	0r_4g.bmp	0r_2g.bmp	0r_2g.bmp		0r_4g.bmp			TrialProc	TrialList	0	cvbn	-999999	16	332502	0	v	490	332992	304	-390	-86	-2	-126	20	22	8	10	99	0	0	0	0	4	4	2	2	0	4
Hungry_Donkey_bar_English_2	154	1	<?xml version="1.0"?>\n<Clock xmlns:dt="urn:schemas-microsoft-com:datatypes"><Description dt:dt="string">E-Prime Primary Realtime Clock</Description><StartTime><Timestamp dt:dt="int">0</Timestamp><DateUtc dt:dt="string">2016-07-29T21:22:19Z</DateUtc></StartTime><FrequencyChanges><FrequencyChange><Frequency dt:dt="r8">3507744</Frequency><Timestamp dt:dt="r8">268081616011</Timestamp><Current dt:dt="r8">0</Current><DateUtc dt:dt="string">2016-07-29T21:22:19Z</DateUtc></FrequencyChange></FrequencyChanges></Clock>\n	Hungry_Donkey_bar_English_2-154-1	60.018	9	1.0.0.18	1	1794347040	Standard	2.0.10.353	2.0.10.353	07-29-2016	7/29/2016 9:22:19 PM	17:22:19	2.0.10.248	100	Bar50-50.bmp	44	1	?	0r_4g.bmp	0r_4g.bmp	0r_2g.bmp	0r_2g.bmp	0r_4g.bmp				TrialProc	TrialList	0	cvbn	-999999	16	335018	0	c	374	335392	308	-390	-82	2	-126	20	22	10	10	100	0	0	0	0	4	4	2	2	0	4
Hungry_Donkey_bar_English_2	154	1	<?xml version="1.0"?>\n<Clock xmlns:dt="urn:schemas-microsoft-com:datatypes"><Description dt:dt="string">E-Prime Primary Realtime Clock</Description><StartTime><Timestamp dt:dt="int">0</Timestamp><DateUtc dt:dt="string">2016-07-29T21:22:19Z</DateUtc></StartTime><FrequencyChanges><FrequencyChange><Frequency dt:dt="r8">3507744</Frequency><Timestamp dt:dt="r8">268081616011</Timestamp><Current dt:dt="r8">0</Current><DateUtc dt:dt="string">2016-07-29T21:22:19Z</DateUtc></FrequencyChange></FrequencyChanges></Clock>\n	Hungry_Donkey_bar_English_2-154-1	60.018	9	1.0.0.18	1	1794347040	Standard	2.0.10.353	2.0.10.353	07-29-2016	7/29/2016 9:22:19 PM	17:22:19	2.0.10.248	101	Bar50-50.bmp	44	2	?	12r_4g.bmp	0r_4g.bmp	3r_2g.bmp	0r_2g.bmp		0r_4g.bmp			TrialProc	TrialList	0	cvbn	-999999	16	337417	0	v	294	337711	312	-390	-78	2	-122	20	22	5	11	101	-12	0	-3	0	4	4	2	2	0	4
Hungry_Donkey_bar_English_2	154	1	<?xml version="1.0"?>\n<Clock xmlns:dt="urn:schemas-microsoft-com:datatypes"><Description dt:dt="string">E-Prime Primary Realtime Clock</Description><StartTime><Timestamp dt:dt="int">0</Timestamp><DateUtc dt:dt="string">2016-07-29T21:22:19Z</DateUtc></StartTime><FrequencyChanges><FrequencyChange><Frequency dt:dt="r8">3507744</Frequency><Timestamp dt:dt="r8">268081616011</Timestamp><Current dt:dt="r8">0</Current><DateUtc dt:dt="string">2016-07-29T21:22:19Z</DateUtc></FrequencyChange></FrequencyChanges></Clock>\n	Hungry_Donkey_bar_English_2-154-1	60.018	9	1.0.0.18	1	1794347040	Standard	2.0.10.353	2.0.10.353	07-29-2016	7/29/2016 9:22:19 PM	17:22:19	2.0.10.248	102	Bar50-50.bmp	45	3	?	0r_4g.bmp	0r_4g.bmp	0r_2g.bmp	0r_2g.bmp			0r_2g.bmp		TrialProc	TrialList	0	cvbn	-999999	16	339750	0	b	777	340527	314	-390	-76	2	-122	22	22	6	11	102	0	0	0	0	4	4	2	2	0	2
Hungry_Donkey_bar_English_2	154	1	<?xml version="1.0"?>\n<Clock xmlns:dt="urn:schemas-microsoft-com:datatypes"><Description dt:dt="string">E-Prime Primary Realtime Clock</Description><StartTime><Timestamp dt:dt="int">0</Timestamp><DateUtc dt:dt="string">2016-07-29T21:22:19Z</DateUtc></StartTime><FrequencyChanges><FrequencyChange><Frequency dt:dt="r8">3507744</Frequency><Timestamp dt:dt="r8">268081616011</Timestamp><Current dt:dt="r8">0</Current><DateUtc dt:dt="string">2016-07-29T21:22:19Z</DateUtc></FrequencyChange></FrequencyChanges></Clock>\n	Hungry_Donkey_bar_English_2-154-1	60.018	9	1.0.0.18	1	1794347040	Standard	2.0.10.353	2.0.10.353	07-29-2016	7/29/2016 9:22:19 PM	17:22:19	2.0.10.248	103	Bar50-50.bmp	44	4	?	8r_4g.bmp	50r_4g.bmp	1r_2g.bmp	10r_2g.bmp				10r_2g.bmp	TrialProc	TrialList	0	cvbn	-999999	16	342565	0	n	298	342863	316	-400	-84	2	-122	22	14	1	11	103	-8	-50	-1	-10	4	4	2	2	-10	2
Hungry_Donkey_bar_English_2	154	1	<?xml version="1.0"?>\n<Clock xmlns:dt="urn:schemas-microsoft-com:datatypes"><Description dt:dt="string">E-Prime Primary Realtime Clock</Description><StartTime><Timestamp dt:dt="int">0</Timestamp><DateUtc dt:dt="string">2016-07-29T21:22:19Z</DateUtc></StartTime><FrequencyChanges><FrequencyChange><Frequency dt:dt="r8">3507744</Frequency><Timestamp dt:dt="r8">268081616011</Timestamp><Current dt:dt="r8">0</Current><DateUtc dt:dt="string">2016-07-29T21:22:19Z</DateUtc></FrequencyChange></FrequencyChanges></Clock>\n	Hungry_Donkey_bar_English_2-154-1	60.018	9	1.0.0.18	1	1794347040	Standard	2.0.10.353	2.0.10.353	07-29-2016	7/29/2016 9:22:19 PM	17:22:19	2.0.10.248	104	Bar50-50.bmp	44	4	?	0r_4g.bmp	0r_4g.bmp	0r_2g.bmp	0r_2g.bmp				0r_2g.bmp	TrialProc	TrialList	0	cvbn	-999999	16	344898	0	n	1789	346687	318	-400	-82	2	-122	22	16	8	11	104	0	0	0	0	4	4	2	2	0	2
Hungry_Donkey_bar_English_2	154	1	<?xml version="1.0"?>\n<Clock xmlns:dt="urn:schemas-microsoft-com:datatypes"><Description dt:dt="string">E-Prime Primary Realtime Clock</Description><StartTime><Timestamp dt:dt="int">0</Timestamp><DateUtc dt:dt="string">2016-07-29T21:22:19Z</DateUtc></StartTime><FrequencyChanges><FrequencyChange><Frequency dt:dt="r8">3507744</Frequency><Timestamp dt:dt="r8">268081616011</Timestamp><Current dt:dt="r8">0</Current><DateUtc dt:dt="string">2016-07-29T21:22:19Z</DateUtc></FrequencyChange></FrequencyChanges></Clock>\n	Hungry_Donkey_bar_English_2-154-1	60.018	9	1.0.0.18	1	1794347040	Standard	2.0.10.353	2.0.10.353	07-29-2016	7/29/2016 9:22:19 PM	17:22:19	2.0.10.248	105	Bar50-50.bmp	44	4	?	0r_4g.bmp	0r_4g.bmp	0r_2g.bmp	0r_2g.bmp				0r_2g.bmp	TrialProc	TrialList	0	cvbn	-999999	16	348730	0	n	629	349359	320	-400	-80	2	-122	22	18	7	11	105	0	0	0	0	4	4	2	2	0	2
Hungry_Donkey_bar_English_2	154	1	<?xml version="1.0"?>\n<Clock xmlns:dt="urn:schemas-microsoft-com:datatypes"><Description dt:dt="string">E-Prime Primary Realtime Clock</Description><StartTime><Timestamp dt:dt="int">0</Timestamp><DateUtc dt:dt="string">2016-07-29T21:22:19Z</DateUtc></StartTime><FrequencyChanges><FrequencyChange><Frequency dt:dt="r8">3507744</Frequency><Timestamp dt:dt="r8">268081616011</Timestamp><Current dt:dt="r8">0</Current><DateUtc dt:dt="string">2016-07-29T21:22:19Z</DateUtc></FrequencyChange></FrequencyChanges></Clock>\n	Hungry_Donkey_bar_English_2-154-1	60.018	9	1.0.0.18	1	1794347040	Standard	2.0.10.353	2.0.10.353	07-29-2016	7/29/2016 9:22:19 PM	17:22:19	2.0.10.248	106	Bar50-50.bmp	45	3	?	0r_4g.bmp	0r_4g.bmp	0r_2g.bmp	0r_2g.bmp			0r_2g.bmp		TrialProc	TrialList	0	cvbn	-999999	16	351396	0	b	362	351758	322	-400	-78	2	-122	24	18	10	11	106	0	0	0	0	4	4	2	2	0	2
Hungry_Donkey_bar_English_2	154	1	<?xml version="1.0"?>\n<Clock xmlns:dt="urn:schemas-microsoft-com:datatypes"><Description dt:dt="string">E-Prime Primary Realtime Clock</Description><StartTime><Timestamp dt:dt="int">0</Timestamp><DateUtc dt:dt="string">2016-07-29T21:22:19Z</DateUtc></StartTime><FrequencyChanges><FrequencyChange><Frequency dt:dt="r8">3507744</Frequency><Timestamp dt:dt="r8">268081616011</Timestamp><Current dt:dt="r8">0</Current><DateUtc dt:dt="string">2016-07-29T21:22:19Z</DateUtc></FrequencyChange></FrequencyChanges></Clock>\n	Hungry_Donkey_bar_English_2-154-1	60.018	9	1.0.0.18	1	1794347040	Standard	2.0.10.353	2.0.10.353	07-29-2016	7/29/2016 9:22:19 PM	17:22:19	2.0.10.248	107	Bar50-50.bmp	45	2	?	10r_4g.bmp	0r_4g.bmp	2r_2g.bmp	0r_2g.bmp		0r_4g.bmp			TrialProc	TrialList	0	cvbn	-999999	16	353795	0	v	107	353902	326	-400	-74	2	-118	24	18	4	11	107	-10	0	-2	0	4	4	2	2	0	4
Hungry_Donkey_bar_English_2	154	1	<?xml version="1.0"?>\n<Clock xmlns:dt="urn:schemas-microsoft-com:datatypes"><Description dt:dt="string">E-Prime Primary Realtime Clock</Description><StartTime><Timestamp dt:dt="int">0</Timestamp><DateUtc dt:dt="string">2016-07-29T21:22:19Z</DateUtc></StartTime><FrequencyChanges><FrequencyChange><Frequency dt:dt="r8">3507744</Frequency><Timestamp dt:dt="r8">268081616011</Timestamp><Current dt:dt="r8">0</Current><DateUtc dt:dt="string">2016-07-29T21:22:19Z</DateUtc></FrequencyChange></FrequencyChanges></Clock>\n	Hungry_Donkey_bar_English_2-154-1	60.018	9	1.0.0.18	1	1794347040	Standard	2.0.10.353	2.0.10.353	07-29-2016	7/29/2016 9:22:19 PM	17:22:19	2.0.10.248	108	Bar50-50.bmp	45	1	?	10r_4g.bmp	0r_4g.bmp	2r_2g.bmp	0r_2g.bmp	10r_4g.bmp				TrialProc	TrialList	0	cvbn	-999999	16	355928	0	c	774	356702	330	-410	-80	-4	-118	24	18	2	11	108	-10	0	-2	0	4	4	2	2	-10	4
Hungry_Donkey_bar_English_2	154	1	<?xml version="1.0"?>\n<Clock xmlns:dt="urn:schemas-microsoft-com:datatypes"><Description dt:dt="string">E-Prime Primary Realtime Clock</Description><StartTime><Timestamp dt:dt="int">0</Timestamp><DateUtc dt:dt="string">2016-07-29T21:22:19Z</DateUtc></StartTime><FrequencyChanges><FrequencyChange><Frequency dt:dt="r8">3507744</Frequency><Timestamp dt:dt="r8">268081616011</Timestamp><Current dt:dt="r8">0</Current><DateUtc dt:dt="string">2016-07-29T21:22:19Z</DateUtc></FrequencyChange></FrequencyChanges></Clock>\n	Hungry_Donkey_bar_English_2-154-1	60.018	9	1.0.0.18	1	1794347040	Standard	2.0.10.353	2.0.10.353	07-29-2016	7/29/2016 9:22:19 PM	17:22:19	2.0.10.248	109	Bar50-50.bmp	45	2	?	0r_4g.bmp	0r_4g.bmp	0r_2g.bmp	0r_2g.bmp		0r_4g.bmp			TrialProc	TrialList	0	cvbn	-999999	16	358727	0	v	855	359582	334	-410	-76	-4	-114	24	18	9	11	109	0	0	0	0	4	4	2	2	0	4
Hungry_Donkey_bar_English_2	154	1	<?xml version="1.0"?>\n<Clock xmlns:dt="urn:schemas-microsoft-com:datatypes"><Description dt:dt="string">E-Prime Primary Realtime Clock</Description><StartTime><Timestamp dt:dt="int">0</Timestamp><DateUtc dt:dt="string">2016-07-29T21:22:19Z</DateUtc></StartTime><FrequencyChanges><FrequencyChange><Frequency dt:dt="r8">3507744</Frequency><Timestamp dt:dt="r8">268081616011</Timestamp><Current dt:dt="r8">0</Current><DateUtc dt:dt="string">2016-07-29T21:22:19Z</DateUtc></FrequencyChange></FrequencyChanges></Clock>\n	Hungry_Donkey_bar_English_2-154-1	60.018	9	1.0.0.18	1	1794347040	Standard	2.0.10.353	2.0.10.353	07-29-2016	7/29/2016 9:22:19 PM	17:22:19	2.0.10.248	110	Bar50-50.bmp	45	3	?	10r_4g.bmp	0r_4g.bmp	2r_2g.bmp	0r_2g.bmp			2r_2g.bmp		TrialProc	TrialList	0	cvbn	-999999	17	361610	0	b	532	362142	336	-412	-76	-4	-114	24	18	3	11	110	-10	0	-2	0	4	4	2	2	-2	2
Hungry_Donkey_bar_English_2	154	1	<?xml version="1.0"?>\n<Clock xmlns:dt="urn:schemas-microsoft-com:datatypes"><Description dt:dt="string">E-Prime Primary Realtime Clock</Description><StartTime><Timestamp dt:dt="int">0</Timestamp><DateUtc dt:dt="string">2016-07-29T21:22:19Z</DateUtc></StartTime><FrequencyChanges><FrequencyChange><Frequency dt:dt="r8">3507744</Frequency><Timestamp dt:dt="r8">268081616011</Timestamp><Current dt:dt="r8">0</Current><DateUtc dt:dt="string">2016-07-29T21:22:19Z</DateUtc></FrequencyChange></FrequencyChanges></Clock>\n	Hungry_Donkey_bar_English_2-154-1	60.018	9	1.0.0.18	1	1794347040	Standard	2.0.10.353	2.0.10.353	07-29-2016	7/29/2016 9:22:19 PM	17:22:19	2.0.10.248	111	Bar50-50.bmp	45	4	?	10r_4g.bmp	0r_4g.bmp	2r_2g.bmp	0r_2g.bmp				0r_2g.bmp	TrialProc	TrialList	0	cvbn	-999999	16	364175	0	n	111	364286	338	-412	-74	-4	-114	24	20	3	12	111	-10	0	-2	0	4	4	2	2	0	2
