ExperimentName	Subject	Session	Clock.Information	DataFile.Basename	Display.RefreshRate	Eindtotaal[Session]	ExperimentVersion	Group	RandomSeed	RuntimeCapabilities	RuntimeVersion	RuntimeVersionExpected	SessionDate	SessionStartDateTimeUtc	SessionTime	StudioVersion	Block	BarImage	BarTotalWinst	DoorChoice	Eindtotaal[Block]	FBDoor1	FBDoor2	FBDoor3	FBDoor4	Image1	Image2	Image3	Image4	Procedure	Running	spel.ACC	spel.CRESP	spel.DurationError	spel.OnsetDelay	spel.OnsetTime	spel.OnsetToOnsetTime	spel.RESP	spel.RT	spel.RTTime	TotalGain	TotalLose	Totalsum	TotalsumD1	TotalsumD2	TotalsumD3	TotalsumD4	TrialList	TrialList.Cycle	TrialList.Sample	varV1	varV2	varV3	varV4	varW1	varW2	varW3	varW4	Verliesbedrag	Winstbedrag
Hungry_Donkey_bar_English_2	138	1	<?xml version="1.0"?>\n<Clock xmlns:dt="urn:schemas-microsoft-com:datatypes"><Description dt:dt="string">E-Prime Primary Realtime Clock</Description><StartTime><Timestamp dt:dt="int">0</Timestamp><DateUtc dt:dt="string">2016-04-15T21:34:07Z</DateUtc></StartTime><FrequencyChanges><FrequencyChange><Frequency dt:dt="r8">3507578</Frequency><Timestamp dt:dt="r8">14808792991</Timestamp><Current dt:dt="r8">0</Current><DateUtc dt:dt="string">2016-04-15T21:34:07Z</DateUtc></FrequencyChange></FrequencyChanges></Clock>\n	Hungry_Donkey_bar_English_2-138-1	60.016	-120	1.0.0.18	1	1924596460	Standard	2.0.10.353	2.0.10.353	04-15-2016	4/15/2016 9:34:07 PM	17:34:07	2.0.10.248	1	Bar100-0.bmp	100	3	?	0r_4g.bmp	0r_4g.bmp	0r_2g.bmp	0r_2g.bmp			0r_2g.bmp		TrialProc	TrialList	0	cvbn	-999999	14	49265	0	b	4898	54163	2	0	2	0	0	2	0	7	1	1	0	0	0	0	4	4	2	2	0	2
Hungry_Donkey_bar_English_2	138	1	<?xml version="1.0"?>\n<Clock xmlns:dt="urn:schemas-microsoft-com:datatypes"><Description dt:dt="string">E-Prime Primary Realtime Clock</Description><StartTime><Timestamp dt:dt="int">0</Timestamp><DateUtc dt:dt="string">2016-04-15T21:34:07Z</DateUtc></StartTime><FrequencyChanges><FrequencyChange><Frequency dt:dt="r8">3507578</Frequency><Timestamp dt:dt="r8">14808792991</Timestamp><Current dt:dt="r8">0</Current><DateUtc dt:dt="string">2016-04-15T21:34:07Z</DateUtc></FrequencyChange></FrequencyChanges></Clock>\n	Hungry_Donkey_bar_English_2-138-1	60.016	-120	1.0.0.18	1	1924596460	Standard	2.0.10.353	2.0.10.353	04-15-2016	4/15/2016 9:34:07 PM	17:34:07	2.0.10.248	2	Bar100-0.bmp	100	1	?	0r_4g.bmp	0r_4g.bmp	0r_2g.bmp	0r_2g.bmp	0r_4g.bmp				TrialProc	TrialList	0	cvbn	-999999	16	56197	0	c	1422	57619	6	0	6	4	0	2	0	10	1	2	0	0	0	0	4	4	2	2	0	4
Hungry_Donkey_bar_English_2	138	1	<?xml version="1.0"?>\n<Clock xmlns:dt="urn:schemas-microsoft-com:datatypes"><Description dt:dt="string">E-Prime Primary Realtime Clock</Description><StartTime><Timestamp dt:dt="int">0</Timestamp><DateUtc dt:dt="string">2016-04-15T21:34:07Z</DateUtc></StartTime><FrequencyChanges><FrequencyChange><Frequency dt:dt="r8">3507578</Frequency><Timestamp dt:dt="r8">14808792991</Timestamp><Current dt:dt="r8">0</Current><DateUtc dt:dt="string">2016-04-15T21:34:07Z</DateUtc></FrequencyChange></FrequencyChanges></Clock>\n	Hungry_Donkey_bar_English_2-138-1	60.016	-120	1.0.0.18	1	1924596460	Standard	2.0.10.353	2.0.10.353	04-15-2016	4/15/2016 9:34:07 PM	17:34:07	2.0.10.248	3	Bar13-87.bmp	17	2	?	8r_4g.bmp	50r_4g.bmp	1r_2g.bmp	10r_2g.bmp		50r_4g.bmp			TrialProc	TrialList	0	cvbn	-999999	16	59646	0	v	693	60339	10	-50	-40	4	-46	2	0	1	1	3	-8	-50	-1	-10	4	4	2	2	-50	4
Hungry_Donkey_bar_English_2	138	1	<?xml version="1.0"?>\n<Clock xmlns:dt="urn:schemas-microsoft-com:datatypes"><Description dt:dt="string">E-Prime Primary Realtime Clock</Description><StartTime><Timestamp dt:dt="int">0</Timestamp><DateUtc dt:dt="string">2016-04-15T21:34:07Z</DateUtc></StartTime><FrequencyChanges><FrequencyChange><Frequency dt:dt="r8">3507578</Frequency><Timestamp dt:dt="r8">14808792991</Timestamp><Current dt:dt="r8">0</Current><DateUtc dt:dt="string">2016-04-15T21:34:07Z</DateUtc></FrequencyChange></FrequencyChanges></Clock>\n	Hungry_Donkey_bar_English_2-138-1	60.016	-120	1.0.0.18	1	1924596460	Standard	2.0.10.353	2.0.10.353	04-15-2016	4/15/2016 9:34:07 PM	17:34:07	2.0.10.248	4	Bar13-87.bmp	19	4	?	12r_4g.bmp	0r_4g.bmp	3r_2g.bmp	0r_2g.bmp				0r_2g.bmp	TrialProc	TrialList	0	cvbn	-999999	16	62378	0	n	2073	64451	12	-50	-38	4	-46	2	2	5	1	4	-12	0	-3	0	4	4	2	2	0	2
Hungry_Donkey_bar_English_2	138	1	<?xml version="1.0"?>\n<Clock xmlns:dt="urn:schemas-microsoft-com:datatypes"><Description dt:dt="string">E-Prime Primary Realtime Clock</Description><StartTime><Timestamp dt:dt="int">0</Timestamp><DateUtc dt:dt="string">2016-04-15T21:34:07Z</DateUtc></StartTime><FrequencyChanges><FrequencyChange><Frequency dt:dt="r8">3507578</Frequency><Timestamp dt:dt="r8">14808792991</Timestamp><Current dt:dt="r8">0</Current><DateUtc dt:dt="string">2016-04-15T21:34:07Z</DateUtc></FrequencyChange></FrequencyChanges></Clock>\n	Hungry_Donkey_bar_English_2-138-1	60.016	-120	1.0.0.18	1	1924596460	Standard	2.0.10.353	2.0.10.353	04-15-2016	4/15/2016 9:34:07 PM	17:34:07	2.0.10.248	5	Bar25-75.bmp	21	1	?	10r_4g.bmp	0r_4g.bmp	2r_2g.bmp	0r_2g.bmp	10r_4g.bmp				TrialProc	TrialList	0	cvbn	-999999	16	66477	0	c	838	67315	16	-60	-44	-2	-46	2	2	3	1	5	-10	0	-2	0	4	4	2	2	-10	4
Hungry_Donkey_bar_English_2	138	1	<?xml version="1.0"?>\n<Clock xmlns:dt="urn:schemas-microsoft-com:datatypes"><Description dt:dt="string">E-Prime Primary Realtime Clock</Description><StartTime><Timestamp dt:dt="int">0</Timestamp><DateUtc dt:dt="string">2016-04-15T21:34:07Z</DateUtc></StartTime><FrequencyChanges><FrequencyChange><Frequency dt:dt="r8">3507578</Frequency><Timestamp dt:dt="r8">14808792991</Timestamp><Current dt:dt="r8">0</Current><DateUtc dt:dt="string">2016-04-15T21:34:07Z</DateUtc></FrequencyChange></FrequencyChanges></Clock>\n	Hungry_Donkey_bar_English_2-138-1	60.016	-120	1.0.0.18	1	1924596460	Standard	2.0.10.353	2.0.10.353	04-15-2016	4/15/2016 9:34:07 PM	17:34:07	2.0.10.248	6	Bar25-75.bmp	25	2	?	10r_4g.bmp	0r_4g.bmp	2r_2g.bmp	0r_2g.bmp		0r_4g.bmp			TrialProc	TrialList	0	cvbn	-999999	16	69343	0	v	596	69939	20	-60	-40	-2	-42	2	2	4	1	6	-10	0	-2	0	4	4	2	2	0	4
Hungry_Donkey_bar_English_2	138	1	<?xml version="1.0"?>\n<Clock xmlns:dt="urn:schemas-microsoft-com:datatypes"><Description dt:dt="string">E-Prime Primary Realtime Clock</Description><StartTime><Timestamp dt:dt="int">0</Timestamp><DateUtc dt:dt="string">2016-04-15T21:34:07Z</DateUtc></StartTime><FrequencyChanges><FrequencyChange><Frequency dt:dt="r8">3507578</Frequency><Timestamp dt:dt="r8">14808792991</Timestamp><Current dt:dt="r8">0</Current><DateUtc dt:dt="string">2016-04-15T21:34:07Z</DateUtc></FrequencyChange></FrequencyChanges></Clock>\n	Hungry_Donkey_bar_English_2-138-1	60.016	-120	1.0.0.18	1	1924596460	Standard	2.0.10.353	2.0.10.353	04-15-2016	4/15/2016 9:34:07 PM	17:34:07	2.0.10.248	7	Bar25-75.bmp	26	3	?	10r_4g.bmp	0r_4g.bmp	2r_2g.bmp	0r_2g.bmp			2r_2g.bmp		TrialProc	TrialList	0	cvbn	-999999	16	71976	0	b	1115	73091	22	-62	-40	-2	-42	2	2	2	1	7	-10	0	-2	0	4	4	2	2	-2	2
Hungry_Donkey_bar_English_2	138	1	<?xml version="1.0"?>\n<Clock xmlns:dt="urn:schemas-microsoft-com:datatypes"><Description dt:dt="string">E-Prime Primary Realtime Clock</Description><StartTime><Timestamp dt:dt="int">0</Timestamp><DateUtc dt:dt="string">2016-04-15T21:34:07Z</DateUtc></StartTime><FrequencyChanges><FrequencyChange><Frequency dt:dt="r8">3507578</Frequency><Timestamp dt:dt="r8">14808792991</Timestamp><Current dt:dt="r8">0</Current><DateUtc dt:dt="string">2016-04-15T21:34:07Z</DateUtc></FrequencyChange></FrequencyChanges></Clock>\n	Hungry_Donkey_bar_English_2-138-1	60.016	-120	1.0.0.18	1	1924596460	Standard	2.0.10.353	2.0.10.353	04-15-2016	4/15/2016 9:34:07 PM	17:34:07	2.0.10.248	8	Bar25-75.bmp	28	4	?	0r_4g.bmp	0r_4g.bmp	0r_2g.bmp	0r_2g.bmp				0r_2g.bmp	TrialProc	TrialList	0	cvbn	-999999	16	75125	0	n	1406	76531	24	-62	-38	-2	-42	2	4	6	1	8	0	0	0	0	4	4	2	2	0	2
Hungry_Donkey_bar_English_2	138	1	<?xml version="1.0"?>\n<Clock xmlns:dt="urn:schemas-microsoft-com:datatypes"><Description dt:dt="string">E-Prime Primary Realtime Clock</Description><StartTime><Timestamp dt:dt="int">0</Timestamp><DateUtc dt:dt="string">2016-04-15T21:34:07Z</DateUtc></StartTime><FrequencyChanges><FrequencyChange><Frequency dt:dt="r8">3507578</Frequency><Timestamp dt:dt="r8">14808792991</Timestamp><Current dt:dt="r8">0</Current><DateUtc dt:dt="string">2016-04-15T21:34:07Z</DateUtc></FrequencyChange></FrequencyChanges></Clock>\n	Hungry_Donkey_bar_English_2-138-1	60.016	-120	1.0.0.18	1	1924596460	Standard	2.0.10.353	2.0.10.353	04-15-2016	4/15/2016 9:34:07 PM	17:34:07	2.0.10.248	9	Bar25-75.bmp	30	3	?	0r_4g.bmp	0r_4g.bmp	0r_2g.bmp	0r_2g.bmp			0r_2g.bmp		TrialProc	TrialList	0	cvbn	-999999	17	78558	0	b	1461	80019	26	-62	-36	-2	-42	4	4	9	1	9	0	0	0	0	4	4	2	2	0	2
Hungry_Donkey_bar_English_2	138	1	<?xml version="1.0"?>\n<Clock xmlns:dt="urn:schemas-microsoft-com:datatypes"><Description dt:dt="string">E-Prime Primary Realtime Clock</Description><StartTime><Timestamp dt:dt="int">0</Timestamp><DateUtc dt:dt="string">2016-04-15T21:34:07Z</DateUtc></StartTime><FrequencyChanges><FrequencyChange><Frequency dt:dt="r8">3507578</Frequency><Timestamp dt:dt="r8">14808792991</Timestamp><Current dt:dt="r8">0</Current><DateUtc dt:dt="string">2016-04-15T21:34:07Z</DateUtc></FrequencyChange></FrequencyChanges></Clock>\n	Hungry_Donkey_bar_English_2-138-1	60.016	-120	1.0.0.18	1	1924596460	Standard	2.0.10.353	2.0.10.353	04-15-2016	4/15/2016 9:34:07 PM	17:34:07	2.0.10.248	10	Bar37-63.bmp	33	1	?	0r_4g.bmp	0r_4g.bmp	0r_2g.bmp	0r_2g.bmp	0r_4g.bmp				TrialProc	TrialList	0	cvbn	-999999	17	82057	0	c	1290	83347	30	-62	-32	2	-42	4	4	8	1	10	0	0	0	0	4	4	2	2	0	4
Hungry_Donkey_bar_English_2	138	1	<?xml version="1.0"?>\n<Clock xmlns:dt="urn:schemas-microsoft-com:datatypes"><Description dt:dt="string">E-Prime Primary Realtime Clock</Description><StartTime><Timestamp dt:dt="int">0</Timestamp><DateUtc dt:dt="string">2016-04-15T21:34:07Z</DateUtc></StartTime><FrequencyChanges><FrequencyChange><Frequency dt:dt="r8">3507578</Frequency><Timestamp dt:dt="r8">14808792991</Timestamp><Current dt:dt="r8">0</Current><DateUtc dt:dt="string">2016-04-15T21:34:07Z</DateUtc></FrequencyChange></FrequencyChanges></Clock>\n	Hungry_Donkey_bar_English_2-138-1	60.016	-120	1.0.0.18	1	1924596460	Standard	2.0.10.353	2.0.10.353	04-15-2016	4/15/2016 9:34:07 PM	17:34:07	2.0.10.248	11	Bar37-63.bmp	34	3	?	0r_4g.bmp	0r_4g.bmp	0r_2g.bmp	0r_2g.bmp			0r_2g.bmp		TrialProc	TrialList	0	cvbn	-999999	16	85372	0	b	727	86099	32	-62	-30	2	-42	6	4	6	2	11	0	0	0	0	4	4	2	2	0	2
Hungry_Donkey_bar_English_2	138	1	<?xml version="1.0"?>\n<Clock xmlns:dt="urn:schemas-microsoft-com:datatypes"><Description dt:dt="string">E-Prime Primary Realtime Clock</Description><StartTime><Timestamp dt:dt="int">0</Timestamp><DateUtc dt:dt="string">2016-04-15T21:34:07Z</DateUtc></StartTime><FrequencyChanges><FrequencyChange><Frequency dt:dt="r8">3507578</Frequency><Timestamp dt:dt="r8">14808792991</Timestamp><Current dt:dt="r8">0</Current><DateUtc dt:dt="string">2016-04-15T21:34:07Z</DateUtc></FrequencyChange></FrequencyChanges></Clock>\n	Hungry_Donkey_bar_English_2-138-1	60.016	-120	1.0.0.18	1	1924596460	Standard	2.0.10.353	2.0.10.353	04-15-2016	4/15/2016 9:34:07 PM	17:34:07	2.0.10.248	12	Bar37-63.bmp	35	4	?	0r_4g.bmp	0r_4g.bmp	0r_2g.bmp	0r_2g.bmp				0r_2g.bmp	TrialProc	TrialList	0	cvbn	-999999	16	88138	0	n	489	88627	34	-62	-28	2	-42	6	6	10	2	12	0	0	0	0	4	4	2	2	0	2
Hungry_Donkey_bar_English_2	138	1	<?xml version="1.0"?>\n<Clock xmlns:dt="urn:schemas-microsoft-com:datatypes"><Description dt:dt="string">E-Prime Primary Realtime Clock</Description><StartTime><Timestamp dt:dt="int">0</Timestamp><DateUtc dt:dt="string">2016-04-15T21:34:07Z</DateUtc></StartTime><FrequencyChanges><FrequencyChange><Frequency dt:dt="r8">3507578</Frequency><Timestamp dt:dt="r8">14808792991</Timestamp><Current dt:dt="r8">0</Current><DateUtc dt:dt="string">2016-04-15T21:34:07Z</DateUtc></FrequencyChange></FrequencyChanges></Clock>\n	Hungry_Donkey_bar_English_2-138-1	60.016	-120	1.0.0.18	1	1924596460	Standard	2.0.10.353	2.0.10.353	04-15-2016	4/15/2016 9:34:07 PM	17:34:07	2.0.10.248	13	Bar37-63.bmp	38	1	?	0r_4g.bmp	0r_4g.bmp	0r_2g.bmp	0r_2g.bmp	0r_4g.bmp				TrialProc	TrialList	0	cvbn	-999999	16	90654	0	c	1236	91890	38	-62	-24	6	-42	6	6	7	2	13	0	0	0	0	4	4	2	2	0	4
Hungry_Donkey_bar_English_2	138	1	<?xml version="1.0"?>\n<Clock xmlns:dt="urn:schemas-microsoft-com:datatypes"><Description dt:dt="string">E-Prime Primary Realtime Clock</Description><StartTime><Timestamp dt:dt="int">0</Timestamp><DateUtc dt:dt="string">2016-04-15T21:34:07Z</DateUtc></StartTime><FrequencyChanges><FrequencyChange><Frequency dt:dt="r8">3507578</Frequency><Timestamp dt:dt="r8">14808792991</Timestamp><Current dt:dt="r8">0</Current><DateUtc dt:dt="string">2016-04-15T21:34:07Z</DateUtc></FrequencyChange></FrequencyChanges></Clock>\n	Hungry_Donkey_bar_English_2-138-1	60.016	-120	1.0.0.18	1	1924596460	Standard	2.0.10.353	2.0.10.353	04-15-2016	4/15/2016 9:34:07 PM	17:34:07	2.0.10.248	14	Bar37-63.bmp	40	1	?	0r_4g.bmp	0r_4g.bmp	0r_2g.bmp	0r_2g.bmp	0r_4g.bmp				TrialProc	TrialList	0	cvbn	-999999	16	93920	0	c	450	94370	42	-62	-20	10	-42	6	6	8	2	14	0	0	0	0	4	4	2	2	0	4
Hungry_Donkey_bar_English_2	138	1	<?xml version="1.0"?>\n<Clock xmlns:dt="urn:schemas-microsoft-com:datatypes"><Description dt:dt="string">E-Prime Primary Realtime Clock</Description><StartTime><Timestamp dt:dt="int">0</Timestamp><DateUtc dt:dt="string">2016-04-15T21:34:07Z</DateUtc></StartTime><FrequencyChanges><FrequencyChange><Frequency dt:dt="r8">3507578</Frequency><Timestamp dt:dt="r8">14808792991</Timestamp><Current dt:dt="r8">0</Current><DateUtc dt:dt="string">2016-04-15T21:34:07Z</DateUtc></FrequencyChange></FrequencyChanges></Clock>\n	Hungry_Donkey_bar_English_2-138-1	60.016	-120	1.0.0.18	1	1924596460	Standard	2.0.10.353	2.0.10.353	04-15-2016	4/15/2016 9:34:07 PM	17:34:07	2.0.10.248	15	Bar37-63.bmp	39	1	?	10r_4g.bmp	0r_4g.bmp	2r_2g.bmp	0r_2g.bmp	10r_4g.bmp				TrialProc	TrialList	0	cvbn	-999999	16	96403	0	c	463	96866	46	-72	-26	4	-42	6	6	4	2	15	-10	0	-2	0	4	4	2	2	-10	4
Hungry_Donkey_bar_English_2	138	1	<?xml version="1.0"?>\n<Clock xmlns:dt="urn:schemas-microsoft-com:datatypes"><Description dt:dt="string">E-Prime Primary Realtime Clock</Description><StartTime><Timestamp dt:dt="int">0</Timestamp><DateUtc dt:dt="string">2016-04-15T21:34:07Z</DateUtc></StartTime><FrequencyChanges><FrequencyChange><Frequency dt:dt="r8">3507578</Frequency><Timestamp dt:dt="r8">14808792991</Timestamp><Current dt:dt="r8">0</Current><DateUtc dt:dt="string">2016-04-15T21:34:07Z</DateUtc></FrequencyChange></FrequencyChanges></Clock>\n	Hungry_Donkey_bar_English_2-138-1	60.016	-120	1.0.0.18	1	1924596460	Standard	2.0.10.353	2.0.10.353	04-15-2016	4/15/2016 9:34:07 PM	17:34:07	2.0.10.248	16	Bar37-63.bmp	38	1	?	10r_4g.bmp	0r_4g.bmp	2r_2g.bmp	0r_2g.bmp	10r_4g.bmp				TrialProc	TrialList	0	cvbn	-999999	16	98902	0	c	1356	100258	50	-82	-32	-2	-42	6	6	3	2	16	-10	0	-2	0	4	4	2	2	-10	4
Hungry_Donkey_bar_English_2	138	1	<?xml version="1.0"?>\n<Clock xmlns:dt="urn:schemas-microsoft-com:datatypes"><Description dt:dt="string">E-Prime Primary Realtime Clock</Description><StartTime><Timestamp dt:dt="int">0</Timestamp><DateUtc dt:dt="string">2016-04-15T21:34:07Z</DateUtc></StartTime><FrequencyChanges><FrequencyChange><Frequency dt:dt="r8">3507578</Frequency><Timestamp dt:dt="r8">14808792991</Timestamp><Current dt:dt="r8">0</Current><DateUtc dt:dt="string">2016-04-15T21:34:07Z</DateUtc></FrequencyChange></FrequencyChanges></Clock>\n	Hungry_Donkey_bar_English_2-138-1	60.016	-120	1.0.0.18	1	1924596460	Standard	2.0.10.353	2.0.10.353	04-15-2016	4/15/2016 9:34:07 PM	17:34:07	2.0.10.248	17	Bar37-63.bmp	39	4	?	0r_4g.bmp	0r_4g.bmp	0r_2g.bmp	0r_2g.bmp				0r_2g.bmp	TrialProc	TrialList	0	cvbn	-999999	16	102285	0	n	501	102786	52	-82	-30	-2	-42	6	8	9	2	17	0	0	0	0	4	4	2	2	0	2
Hungry_Donkey_bar_English_2	138	1	<?xml version="1.0"?>\n<Clock xmlns:dt="urn:schemas-microsoft-com:datatypes"><Description dt:dt="string">E-Prime Primary Realtime Clock</Description><StartTime><Timestamp dt:dt="int">0</Timestamp><DateUtc dt:dt="string">2016-04-15T21:34:07Z</DateUtc></StartTime><FrequencyChanges><FrequencyChange><Frequency dt:dt="r8">3507578</Frequency><Timestamp dt:dt="r8">14808792991</Timestamp><Current dt:dt="r8">0</Current><DateUtc dt:dt="string">2016-04-15T21:34:07Z</DateUtc></FrequencyChange></FrequencyChanges></Clock>\n	Hungry_Donkey_bar_English_2-138-1	60.016	-120	1.0.0.18	1	1924596460	Standard	2.0.10.353	2.0.10.353	04-15-2016	4/15/2016 9:34:07 PM	17:34:07	2.0.10.248	18	Bar37-63.bmp	40	4	?	12r_4g.bmp	0r_4g.bmp	3r_2g.bmp	0r_2g.bmp				0r_2g.bmp	TrialProc	TrialList	0	cvbn	-999999	16	104817	0	n	369	105186	54	-82	-28	-2	-42	6	10	5	2	18	-12	0	-3	0	4	4	2	2	0	2
Hungry_Donkey_bar_English_2	138	1	<?xml version="1.0"?>\n<Clock xmlns:dt="urn:schemas-microsoft-com:datatypes"><Description dt:dt="string">E-Prime Primary Realtime Clock</Description><StartTime><Timestamp dt:dt="int">0</Timestamp><DateUtc dt:dt="string">2016-04-15T21:34:07Z</DateUtc></StartTime><FrequencyChanges><FrequencyChange><Frequency dt:dt="r8">3507578</Frequency><Timestamp dt:dt="r8">14808792991</Timestamp><Current dt:dt="r8">0</Current><DateUtc dt:dt="string">2016-04-15T21:34:07Z</DateUtc></FrequencyChange></FrequencyChanges></Clock>\n	Hungry_Donkey_bar_English_2-138-1	60.016	-120	1.0.0.18	1	1924596460	Standard	2.0.10.353	2.0.10.353	04-15-2016	4/15/2016 9:34:07 PM	17:34:07	2.0.10.248	19	Bar37-63.bmp	38	4	?	8r_4g.bmp	50r_4g.bmp	1r_2g.bmp	10r_2g.bmp				10r_2g.bmp	TrialProc	TrialList	0	cvbn	-999999	16	107217	0	n	321	107538	56	-92	-36	-2	-42	6	2	1	2	19	-8	-50	-1	-10	4	4	2	2	-10	2
Hungry_Donkey_bar_English_2	138	1	<?xml version="1.0"?>\n<Clock xmlns:dt="urn:schemas-microsoft-com:datatypes"><Description dt:dt="string">E-Prime Primary Realtime Clock</Description><StartTime><Timestamp dt:dt="int">0</Timestamp><DateUtc dt:dt="string">2016-04-15T21:34:07Z</DateUtc></StartTime><FrequencyChanges><FrequencyChange><Frequency dt:dt="r8">3507578</Frequency><Timestamp dt:dt="r8">14808792991</Timestamp><Current dt:dt="r8">0</Current><DateUtc dt:dt="string">2016-04-15T21:34:07Z</DateUtc></FrequencyChange></FrequencyChanges></Clock>\n	Hungry_Donkey_bar_English_2-138-1	60.016	-120	1.0.0.18	1	1924596460	Standard	2.0.10.353	2.0.10.353	04-15-2016	4/15/2016 9:34:07 PM	17:34:07	2.0.10.248	20	Bar37-63.bmp	38	3	?	10r_4g.bmp	0r_4g.bmp	2r_2g.bmp	0r_2g.bmp			2r_2g.bmp		TrialProc	TrialList	0	cvbn	-999999	16	109566	0	b	340	109906	58	-94	-36	-2	-42	6	2	2	2	20	-10	0	-2	0	4	4	2	2	-2	2
Hungry_Donkey_bar_English_2	138	1	<?xml version="1.0"?>\n<Clock xmlns:dt="urn:schemas-microsoft-com:datatypes"><Description dt:dt="string">E-Prime Primary Realtime Clock</Description><StartTime><Timestamp dt:dt="int">0</Timestamp><DateUtc dt:dt="string">2016-04-15T21:34:07Z</DateUtc></StartTime><FrequencyChanges><FrequencyChange><Frequency dt:dt="r8">3507578</Frequency><Timestamp dt:dt="r8">14808792991</Timestamp><Current dt:dt="r8">0</Current><DateUtc dt:dt="string">2016-04-15T21:34:07Z</DateUtc></FrequencyChange></FrequencyChanges></Clock>\n	Hungry_Donkey_bar_English_2-138-1	60.016	-120	1.0.0.18	1	1924596460	Standard	2.0.10.353	2.0.10.353	04-15-2016	4/15/2016 9:34:07 PM	17:34:07	2.0.10.248	21	Bar37-63.bmp	40	2	?	0r_4g.bmp	0r_4g.bmp	0r_2g.bmp	0r_2g.bmp		0r_4g.bmp			TrialProc	TrialList	0	cvbn	-999999	15	111932	0	v	278	112210	62	-94	-32	-2	-38	6	2	7	3	21	0	0	0	0	4	4	2	2	0	4
Hungry_Donkey_bar_English_2	138	1	<?xml version="1.0"?>\n<Clock xmlns:dt="urn:schemas-microsoft-com:datatypes"><Description dt:dt="string">E-Prime Primary Realtime Clock</Description><StartTime><Timestamp dt:dt="int">0</Timestamp><DateUtc dt:dt="string">2016-04-15T21:34:07Z</DateUtc></StartTime><FrequencyChanges><FrequencyChange><Frequency dt:dt="r8">3507578</Frequency><Timestamp dt:dt="r8">14808792991</Timestamp><Current dt:dt="r8">0</Current><DateUtc dt:dt="string">2016-04-15T21:34:07Z</DateUtc></FrequencyChange></FrequencyChanges></Clock>\n	Hungry_Donkey_bar_English_2-138-1	60.016	-120	1.0.0.18	1	1924596460	Standard	2.0.10.353	2.0.10.353	04-15-2016	4/15/2016 9:34:07 PM	17:34:07	2.0.10.248	22	Bar37-63.bmp	41	2	?	12r_4g.bmp	0r_4g.bmp	3r_2g.bmp	0r_2g.bmp		0r_4g.bmp			TrialProc	TrialList	0	cvbn	-999999	16	114248	0	v	586	114834	66	-94	-28	-2	-34	6	2	5	3	22	-12	0	-3	0	4	4	2	2	0	4
Hungry_Donkey_bar_English_2	138	1	<?xml version="1.0"?>\n<Clock xmlns:dt="urn:schemas-microsoft-com:datatypes"><Description dt:dt="string">E-Prime Primary Realtime Clock</Description><StartTime><Timestamp dt:dt="int">0</Timestamp><DateUtc dt:dt="string">2016-04-15T21:34:07Z</DateUtc></StartTime><FrequencyChanges><FrequencyChange><Frequency dt:dt="r8">3507578</Frequency><Timestamp dt:dt="r8">14808792991</Timestamp><Current dt:dt="r8">0</Current><DateUtc dt:dt="string">2016-04-15T21:34:07Z</DateUtc></FrequencyChange></FrequencyChanges></Clock>\n	Hungry_Donkey_bar_English_2-138-1	60.016	-120	1.0.0.18	1	1924596460	Standard	2.0.10.353	2.0.10.353	04-15-2016	4/15/2016 9:34:07 PM	17:34:07	2.0.10.248	23	Bar37-63.bmp	43	2	?	10r_4g.bmp	0r_4g.bmp	2r_2g.bmp	0r_2g.bmp		0r_4g.bmp			TrialProc	TrialList	0	cvbn	-999999	16	116864	0	v	466	117330	70	-94	-24	-2	-30	6	2	2	3	23	-10	0	-2	0	4	4	2	2	0	4
Hungry_Donkey_bar_English_2	138	1	<?xml version="1.0"?>\n<Clock xmlns:dt="urn:schemas-microsoft-com:datatypes"><Description dt:dt="string">E-Prime Primary Realtime Clock</Description><StartTime><Timestamp dt:dt="int">0</Timestamp><DateUtc dt:dt="string">2016-04-15T21:34:07Z</DateUtc></StartTime><FrequencyChanges><FrequencyChange><Frequency dt:dt="r8">3507578</Frequency><Timestamp dt:dt="r8">14808792991</Timestamp><Current dt:dt="r8">0</Current><DateUtc dt:dt="string">2016-04-15T21:34:07Z</DateUtc></FrequencyChange></FrequencyChanges></Clock>\n	Hungry_Donkey_bar_English_2-138-1	60.016	-120	1.0.0.18	1	1924596460	Standard	2.0.10.353	2.0.10.353	04-15-2016	4/15/2016 9:34:07 PM	17:34:07	2.0.10.248	24	Bar37-63.bmp	43	3	?	10r_4g.bmp	0r_4g.bmp	2r_2g.bmp	0r_2g.bmp			2r_2g.bmp		TrialProc	TrialList	0	cvbn	-999999	16	119364	0	b	494	119858	72	-96	-24	-2	-30	6	2	4	3	24	-10	0	-2	0	4	4	2	2	-2	2
Hungry_Donkey_bar_English_2	138	1	<?xml version="1.0"?>\n<Clock xmlns:dt="urn:schemas-microsoft-com:datatypes"><Description dt:dt="string">E-Prime Primary Realtime Clock</Description><StartTime><Timestamp dt:dt="int">0</Timestamp><DateUtc dt:dt="string">2016-04-15T21:34:07Z</DateUtc></StartTime><FrequencyChanges><FrequencyChange><Frequency dt:dt="r8">3507578</Frequency><Timestamp dt:dt="r8">14808792991</Timestamp><Current dt:dt="r8">0</Current><DateUtc dt:dt="string">2016-04-15T21:34:07Z</DateUtc></FrequencyChange></FrequencyChanges></Clock>\n	Hungry_Donkey_bar_English_2-138-1	60.016	-120	1.0.0.18	1	1924596460	Standard	2.0.10.353	2.0.10.353	04-15-2016	4/15/2016 9:34:07 PM	17:34:07	2.0.10.248	25	Bar50-50.bmp	44	1	?	0r_4g.bmp	0r_4g.bmp	0r_2g.bmp	0r_2g.bmp	0r_4g.bmp				TrialProc	TrialList	0	cvbn	-999999	16	121896	0	c	458	122354	76	-96	-20	2	-30	6	2	9	3	25	0	0	0	0	4	4	2	2	0	4
Hungry_Donkey_bar_English_2	138	1	<?xml version="1.0"?>\n<Clock xmlns:dt="urn:schemas-microsoft-com:datatypes"><Description dt:dt="string">E-Prime Primary Realtime Clock</Description><StartTime><Timestamp dt:dt="int">0</Timestamp><DateUtc dt:dt="string">2016-04-15T21:34:07Z</DateUtc></StartTime><FrequencyChanges><FrequencyChange><Frequency dt:dt="r8">3507578</Frequency><Timestamp dt:dt="r8">14808792991</Timestamp><Current dt:dt="r8">0</Current><DateUtc dt:dt="string">2016-04-15T21:34:07Z</DateUtc></FrequencyChange></FrequencyChanges></Clock>\n	Hungry_Donkey_bar_English_2-138-1	60.016	-120	1.0.0.18	1	1924596460	Standard	2.0.10.353	2.0.10.353	04-15-2016	4/15/2016 9:34:07 PM	17:34:07	2.0.10.248	26	Bar37-63.bmp	35	2	?	8r_4g.bmp	50r_4g.bmp	1r_2g.bmp	10r_2g.bmp		50r_4g.bmp			TrialProc	TrialList	0	cvbn	-999999	16	124379	0	v	439	124818	80	-146	-66	2	-76	6	2	1	3	26	-8	-50	-1	-10	4	4	2	2	-50	4
Hungry_Donkey_bar_English_2	138	1	<?xml version="1.0"?>\n<Clock xmlns:dt="urn:schemas-microsoft-com:datatypes"><Description dt:dt="string">E-Prime Primary Realtime Clock</Description><StartTime><Timestamp dt:dt="int">0</Timestamp><DateUtc dt:dt="string">2016-04-15T21:34:07Z</DateUtc></StartTime><FrequencyChanges><FrequencyChange><Frequency dt:dt="r8">3507578</Frequency><Timestamp dt:dt="r8">14808792991</Timestamp><Current dt:dt="r8">0</Current><DateUtc dt:dt="string">2016-04-15T21:34:07Z</DateUtc></FrequencyChange></FrequencyChanges></Clock>\n	Hungry_Donkey_bar_English_2-138-1	60.016	-120	1.0.0.18	1	1924596460	Standard	2.0.10.353	2.0.10.353	04-15-2016	4/15/2016 9:34:07 PM	17:34:07	2.0.10.248	27	Bar37-63.bmp	37	1	?	0r_4g.bmp	0r_4g.bmp	0r_2g.bmp	0r_2g.bmp	0r_4g.bmp				TrialProc	TrialList	0	cvbn	-999999	16	126845	0	c	197	127042	84	-146	-62	6	-76	6	2	8	3	27	0	0	0	0	4	4	2	2	0	4
Hungry_Donkey_bar_English_2	138	1	<?xml version="1.0"?>\n<Clock xmlns:dt="urn:schemas-microsoft-com:datatypes"><Description dt:dt="string">E-Prime Primary Realtime Clock</Description><StartTime><Timestamp dt:dt="int">0</Timestamp><DateUtc dt:dt="string">2016-04-15T21:34:07Z</DateUtc></StartTime><FrequencyChanges><FrequencyChange><Frequency dt:dt="r8">3507578</Frequency><Timestamp dt:dt="r8">14808792991</Timestamp><Current dt:dt="r8">0</Current><DateUtc dt:dt="string">2016-04-15T21:34:07Z</DateUtc></FrequencyChange></FrequencyChanges></Clock>\n	Hungry_Donkey_bar_English_2-138-1	60.016	-120	1.0.0.18	1	1924596460	Standard	2.0.10.353	2.0.10.353	04-15-2016	4/15/2016 9:34:07 PM	17:34:07	2.0.10.248	28	Bar37-63.bmp	36	1	?	10r_4g.bmp	0r_4g.bmp	2r_2g.bmp	0r_2g.bmp	10r_4g.bmp				TrialProc	TrialList	0	cvbn	-999999	16	129078	0	c	236	129314	88	-156	-68	0	-76	6	2	3	3	28	-10	0	-2	0	4	4	2	2	-10	4
Hungry_Donkey_bar_English_2	138	1	<?xml version="1.0"?>\n<Clock xmlns:dt="urn:schemas-microsoft-com:datatypes"><Description dt:dt="string">E-Prime Primary Realtime Clock</Description><StartTime><Timestamp dt:dt="int">0</Timestamp><DateUtc dt:dt="string">2016-04-15T21:34:07Z</DateUtc></StartTime><FrequencyChanges><FrequencyChange><Frequency dt:dt="r8">3507578</Frequency><Timestamp dt:dt="r8">14808792991</Timestamp><Current dt:dt="r8">0</Current><DateUtc dt:dt="string">2016-04-15T21:34:07Z</DateUtc></FrequencyChange></FrequencyChanges></Clock>\n	Hungry_Donkey_bar_English_2-138-1	60.016	-120	1.0.0.18	1	1924596460	Standard	2.0.10.353	2.0.10.353	04-15-2016	4/15/2016 9:34:07 PM	17:34:07	2.0.10.248	29	Bar37-63.bmp	37	4	?	0r_4g.bmp	0r_4g.bmp	0r_2g.bmp	0r_2g.bmp				0r_2g.bmp	TrialProc	TrialList	0	cvbn	-999999	16	131344	0	n	178	131522	90	-156	-66	0	-76	6	4	6	3	29	0	0	0	0	4	4	2	2	0	2
Hungry_Donkey_bar_English_2	138	1	<?xml version="1.0"?>\n<Clock xmlns:dt="urn:schemas-microsoft-com:datatypes"><Description dt:dt="string">E-Prime Primary Realtime Clock</Description><StartTime><Timestamp dt:dt="int">0</Timestamp><DateUtc dt:dt="string">2016-04-15T21:34:07Z</DateUtc></StartTime><FrequencyChanges><FrequencyChange><Frequency dt:dt="r8">3507578</Frequency><Timestamp dt:dt="r8">14808792991</Timestamp><Current dt:dt="r8">0</Current><DateUtc dt:dt="string">2016-04-15T21:34:07Z</DateUtc></FrequencyChange></FrequencyChanges></Clock>\n	Hungry_Donkey_bar_English_2-138-1	60.016	-120	1.0.0.18	1	1924596460	Standard	2.0.10.353	2.0.10.353	04-15-2016	4/15/2016 9:34:07 PM	17:34:07	2.0.10.248	30	Bar37-63.bmp	37	3	?	0r_4g.bmp	0r_4g.bmp	0r_2g.bmp	0r_2g.bmp			0r_2g.bmp		TrialProc	TrialList	0	cvbn	-999999	16	133560	0	b	282	133842	92	-156	-64	0	-76	8	4	10	3	30	0	0	0	0	4	4	2	2	0	2
Hungry_Donkey_bar_English_2	138	1	<?xml version="1.0"?>\n<Clock xmlns:dt="urn:schemas-microsoft-com:datatypes"><Description dt:dt="string">E-Prime Primary Realtime Clock</Description><StartTime><Timestamp dt:dt="int">0</Timestamp><DateUtc dt:dt="string">2016-04-15T21:34:07Z</DateUtc></StartTime><FrequencyChanges><FrequencyChange><Frequency dt:dt="r8">3507578</Frequency><Timestamp dt:dt="r8">14808792991</Timestamp><Current dt:dt="r8">0</Current><DateUtc dt:dt="string">2016-04-15T21:34:07Z</DateUtc></FrequencyChange></FrequencyChanges></Clock>\n	Hungry_Donkey_bar_English_2-138-1	60.016	-120	1.0.0.18	1	1924596460	Standard	2.0.10.353	2.0.10.353	04-15-2016	4/15/2016 9:34:07 PM	17:34:07	2.0.10.248	31	Bar37-63.bmp	38	4	?	10r_4g.bmp	0r_4g.bmp	2r_2g.bmp	0r_2g.bmp				0r_2g.bmp	TrialProc	TrialList	0	cvbn	-999999	16	135876	0	n	302	136178	94	-156	-62	0	-76	8	6	2	4	31	-10	0	-2	0	4	4	2	2	0	2
Hungry_Donkey_bar_English_2	138	1	<?xml version="1.0"?>\n<Clock xmlns:dt="urn:schemas-microsoft-com:datatypes"><Description dt:dt="string">E-Prime Primary Realtime Clock</Description><StartTime><Timestamp dt:dt="int">0</Timestamp><DateUtc dt:dt="string">2016-04-15T21:34:07Z</DateUtc></StartTime><FrequencyChanges><FrequencyChange><Frequency dt:dt="r8">3507578</Frequency><Timestamp dt:dt="r8">14808792991</Timestamp><Current dt:dt="r8">0</Current><DateUtc dt:dt="string">2016-04-15T21:34:07Z</DateUtc></FrequencyChange></FrequencyChanges></Clock>\n	Hungry_Donkey_bar_English_2-138-1	60.016	-120	1.0.0.18	1	1924596460	Standard	2.0.10.353	2.0.10.353	04-15-2016	4/15/2016 9:34:07 PM	17:34:07	2.0.10.248	32	Bar37-63.bmp	39	2	?	0r_4g.bmp	0r_4g.bmp	0r_2g.bmp	0r_2g.bmp		0r_4g.bmp			TrialProc	TrialList	0	cvbn	-999999	16	138209	0	v	977	139186	98	-156	-58	0	-72	8	6	6	4	32	0	0	0	0	4	4	2	2	0	4
Hungry_Donkey_bar_English_2	138	1	<?xml version="1.0"?>\n<Clock xmlns:dt="urn:schemas-microsoft-com:datatypes"><Description dt:dt="string">E-Prime Primary Realtime Clock</Description><StartTime><Timestamp dt:dt="int">0</Timestamp><DateUtc dt:dt="string">2016-04-15T21:34:07Z</DateUtc></StartTime><FrequencyChanges><FrequencyChange><Frequency dt:dt="r8">3507578</Frequency><Timestamp dt:dt="r8">14808792991</Timestamp><Current dt:dt="r8">0</Current><DateUtc dt:dt="string">2016-04-15T21:34:07Z</DateUtc></FrequencyChange></FrequencyChanges></Clock>\n	Hungry_Donkey_bar_English_2-138-1	60.016	-120	1.0.0.18	1	1924596460	Standard	2.0.10.353	2.0.10.353	04-15-2016	4/15/2016 9:34:07 PM	17:34:07	2.0.10.248	33	Bar37-63.bmp	33	2	?	8r_4g.bmp	50r_4g.bmp	1r_2g.bmp	10r_2g.bmp		50r_4g.bmp			TrialProc	TrialList	0	cvbn	-999999	16	141225	0	v	408	141633	102	-206	-104	0	-118	8	6	1	4	33	-8	-50	-1	-10	4	4	2	2	-50	4
Hungry_Donkey_bar_English_2	138	1	<?xml version="1.0"?>\n<Clock xmlns:dt="urn:schemas-microsoft-com:datatypes"><Description dt:dt="string">E-Prime Primary Realtime Clock</Description><StartTime><Timestamp dt:dt="int">0</Timestamp><DateUtc dt:dt="string">2016-04-15T21:34:07Z</DateUtc></StartTime><FrequencyChanges><FrequencyChange><Frequency dt:dt="r8">3507578</Frequency><Timestamp dt:dt="r8">14808792991</Timestamp><Current dt:dt="r8">0</Current><DateUtc dt:dt="string">2016-04-15T21:34:07Z</DateUtc></FrequencyChange></FrequencyChanges></Clock>\n	Hungry_Donkey_bar_English_2-138-1	60.016	-120	1.0.0.18	1	1924596460	Standard	2.0.10.353	2.0.10.353	04-15-2016	4/15/2016 9:34:07 PM	17:34:07	2.0.10.248	34	Bar37-63.bmp	34	4	?	10r_4g.bmp	0r_4g.bmp	2r_2g.bmp	0r_2g.bmp				0r_2g.bmp	TrialProc	TrialList	0	cvbn	-999999	16	143674	0	n	103	143777	104	-206	-102	0	-118	8	8	3	4	34	-10	0	-2	0	4	4	2	2	0	2
Hungry_Donkey_bar_English_2	138	1	<?xml version="1.0"?>\n<Clock xmlns:dt="urn:schemas-microsoft-com:datatypes"><Description dt:dt="string">E-Prime Primary Realtime Clock</Description><StartTime><Timestamp dt:dt="int">0</Timestamp><DateUtc dt:dt="string">2016-04-15T21:34:07Z</DateUtc></StartTime><FrequencyChanges><FrequencyChange><Frequency dt:dt="r8">3507578</Frequency><Timestamp dt:dt="r8">14808792991</Timestamp><Current dt:dt="r8">0</Current><DateUtc dt:dt="string">2016-04-15T21:34:07Z</DateUtc></FrequencyChange></FrequencyChanges></Clock>\n	Hungry_Donkey_bar_English_2-138-1	60.016	-120	1.0.0.18	1	1924596460	Standard	2.0.10.353	2.0.10.353	04-15-2016	4/15/2016 9:34:07 PM	17:34:07	2.0.10.248	35	Bar37-63.bmp	34	3	?	12r_4g.bmp	0r_4g.bmp	3r_2g.bmp	0r_2g.bmp			3r_2g.bmp		TrialProc	TrialList	0	cvbn	-999999	16	145807	0	b	370	146177	106	-209	-103	0	-118	7	8	5	4	35	-12	0	-3	0	4	4	2	2	-3	2
Hungry_Donkey_bar_English_2	138	1	<?xml version="1.0"?>\n<Clock xmlns:dt="urn:schemas-microsoft-com:datatypes"><Description dt:dt="string">E-Prime Primary Realtime Clock</Description><StartTime><Timestamp dt:dt="int">0</Timestamp><DateUtc dt:dt="string">2016-04-15T21:34:07Z</DateUtc></StartTime><FrequencyChanges><FrequencyChange><Frequency dt:dt="r8">3507578</Frequency><Timestamp dt:dt="r8">14808792991</Timestamp><Current dt:dt="r8">0</Current><DateUtc dt:dt="string">2016-04-15T21:34:07Z</DateUtc></FrequencyChange></FrequencyChanges></Clock>\n	Hungry_Donkey_bar_English_2-138-1	60.016	-120	1.0.0.18	1	1924596460	Standard	2.0.10.353	2.0.10.353	04-15-2016	4/15/2016 9:34:07 PM	17:34:07	2.0.10.248	36	Bar37-63.bmp	34	4	?	10r_4g.bmp	0r_4g.bmp	2r_2g.bmp	0r_2g.bmp				0r_2g.bmp	TrialProc	TrialList	0	cvbn	-999999	16	148206	0	n	307	148513	108	-209	-101	0	-118	7	10	4	4	36	-10	0	-2	0	4	4	2	2	0	2
Hungry_Donkey_bar_English_2	138	1	<?xml version="1.0"?>\n<Clock xmlns:dt="urn:schemas-microsoft-com:datatypes"><Description dt:dt="string">E-Prime Primary Realtime Clock</Description><StartTime><Timestamp dt:dt="int">0</Timestamp><DateUtc dt:dt="string">2016-04-15T21:34:07Z</DateUtc></StartTime><FrequencyChanges><FrequencyChange><Frequency dt:dt="r8">3507578</Frequency><Timestamp dt:dt="r8">14808792991</Timestamp><Current dt:dt="r8">0</Current><DateUtc dt:dt="string">2016-04-15T21:34:07Z</DateUtc></FrequencyChange></FrequencyChanges></Clock>\n	Hungry_Donkey_bar_English_2-138-1	60.016	-120	1.0.0.18	1	1924596460	Standard	2.0.10.353	2.0.10.353	04-15-2016	4/15/2016 9:34:07 PM	17:34:07	2.0.10.248	37	Bar37-63.bmp	34	4	?	0r_4g.bmp	0r_4g.bmp	0r_2g.bmp	0r_2g.bmp				0r_2g.bmp	TrialProc	TrialList	0	cvbn	-999999	16	150539	0	n	262	150801	110	-209	-99	0	-118	7	12	10	4	37	0	0	0	0	4	4	2	2	0	2
Hungry_Donkey_bar_English_2	138	1	<?xml version="1.0"?>\n<Clock xmlns:dt="urn:schemas-microsoft-com:datatypes"><Description dt:dt="string">E-Prime Primary Realtime Clock</Description><StartTime><Timestamp dt:dt="int">0</Timestamp><DateUtc dt:dt="string">2016-04-15T21:34:07Z</DateUtc></StartTime><FrequencyChanges><FrequencyChange><Frequency dt:dt="r8">3507578</Frequency><Timestamp dt:dt="r8">14808792991</Timestamp><Current dt:dt="r8">0</Current><DateUtc dt:dt="string">2016-04-15T21:34:07Z</DateUtc></FrequencyChange></FrequencyChanges></Clock>\n	Hungry_Donkey_bar_English_2-138-1	60.016	-120	1.0.0.18	1	1924596460	Standard	2.0.10.353	2.0.10.353	04-15-2016	4/15/2016 9:34:07 PM	17:34:07	2.0.10.248	38	Bar37-63.bmp	35	4	?	0r_4g.bmp	0r_4g.bmp	0r_2g.bmp	0r_2g.bmp				0r_2g.bmp	TrialProc	TrialList	0	cvbn	-999999	16	152838	0	n	315	153153	112	-209	-97	0	-118	7	14	8	4	38	0	0	0	0	4	4	2	2	0	2
Hungry_Donkey_bar_English_2	138	1	<?xml version="1.0"?>\n<Clock xmlns:dt="urn:schemas-microsoft-com:datatypes"><Description dt:dt="string">E-Prime Primary Realtime Clock</Description><StartTime><Timestamp dt:dt="int">0</Timestamp><DateUtc dt:dt="string">2016-04-15T21:34:07Z</DateUtc></StartTime><FrequencyChanges><FrequencyChange><Frequency dt:dt="r8">3507578</Frequency><Timestamp dt:dt="r8">14808792991</Timestamp><Current dt:dt="r8">0</Current><DateUtc dt:dt="string">2016-04-15T21:34:07Z</DateUtc></FrequencyChange></FrequencyChanges></Clock>\n	Hungry_Donkey_bar_English_2-138-1	60.016	-120	1.0.0.18	1	1924596460	Standard	2.0.10.353	2.0.10.353	04-15-2016	4/15/2016 9:34:07 PM	17:34:07	2.0.10.248	39	Bar37-63.bmp	35	4	?	0r_4g.bmp	0r_4g.bmp	0r_2g.bmp	0r_2g.bmp				0r_2g.bmp	TrialProc	TrialList	0	cvbn	-999999	16	155188	0	n	589	155777	114	-209	-95	0	-118	7	16	9	4	39	0	0	0	0	4	4	2	2	0	2
Hungry_Donkey_bar_English_2	138	1	<?xml version="1.0"?>\n<Clock xmlns:dt="urn:schemas-microsoft-com:datatypes"><Description dt:dt="string">E-Prime Primary Realtime Clock</Description><StartTime><Timestamp dt:dt="int">0</Timestamp><DateUtc dt:dt="string">2016-04-15T21:34:07Z</DateUtc></StartTime><FrequencyChanges><FrequencyChange><Frequency dt:dt="r8">3507578</Frequency><Timestamp dt:dt="r8">14808792991</Timestamp><Current dt:dt="r8">0</Current><DateUtc dt:dt="string">2016-04-15T21:34:07Z</DateUtc></FrequencyChange></FrequencyChanges></Clock>\n	Hungry_Donkey_bar_English_2-138-1	60.016	-120	1.0.0.18	1	1924596460	Standard	2.0.10.353	2.0.10.353	04-15-2016	4/15/2016 9:34:07 PM	17:34:07	2.0.10.248	40	Bar37-63.bmp	36	4	?	0r_4g.bmp	0r_4g.bmp	0r_2g.bmp	0r_2g.bmp				0r_2g.bmp	TrialProc	TrialList	0	cvbn	-999999	16	157804	0	n	261	158065	116	-209	-93	0	-118	7	18	7	4	40	0	0	0	0	4	4	2	2	0	2
Hungry_Donkey_bar_English_2	138	1	<?xml version="1.0"?>\n<Clock xmlns:dt="urn:schemas-microsoft-com:datatypes"><Description dt:dt="string">E-Prime Primary Realtime Clock</Description><StartTime><Timestamp dt:dt="int">0</Timestamp><DateUtc dt:dt="string">2016-04-15T21:34:07Z</DateUtc></StartTime><FrequencyChanges><FrequencyChange><Frequency dt:dt="r8">3507578</Frequency><Timestamp dt:dt="r8">14808792991</Timestamp><Current dt:dt="r8">0</Current><DateUtc dt:dt="string">2016-04-15T21:34:07Z</DateUtc></FrequencyChange></FrequencyChanges></Clock>\n	Hungry_Donkey_bar_English_2-138-1	60.016	-120	1.0.0.18	1	1924596460	Standard	2.0.10.353	2.0.10.353	04-15-2016	4/15/2016 9:34:07 PM	17:34:07	2.0.10.248	41	Bar37-63.bmp	36	4	?	10r_4g.bmp	0r_4g.bmp	2r_2g.bmp	0r_2g.bmp				0r_2g.bmp	TrialProc	TrialList	0	cvbn	-999999	16	160103	0	n	346	160449	118	-209	-91	0	-118	7	20	2	5	41	-10	0	-2	0	4	4	2	2	0	2
Hungry_Donkey_bar_English_2	138	1	<?xml version="1.0"?>\n<Clock xmlns:dt="urn:schemas-microsoft-com:datatypes"><Description dt:dt="string">E-Prime Primary Realtime Clock</Description><StartTime><Timestamp dt:dt="int">0</Timestamp><DateUtc dt:dt="string">2016-04-15T21:34:07Z</DateUtc></StartTime><FrequencyChanges><FrequencyChange><Frequency dt:dt="r8">3507578</Frequency><Timestamp dt:dt="r8">14808792991</Timestamp><Current dt:dt="r8">0</Current><DateUtc dt:dt="string">2016-04-15T21:34:07Z</DateUtc></FrequencyChange></FrequencyChanges></Clock>\n	Hungry_Donkey_bar_English_2-138-1	60.016	-120	1.0.0.18	1	1924596460	Standard	2.0.10.353	2.0.10.353	04-15-2016	4/15/2016 9:34:07 PM	17:34:07	2.0.10.248	42	Bar37-63.bmp	36	4	?	0r_4g.bmp	0r_4g.bmp	0r_2g.bmp	0r_2g.bmp				0r_2g.bmp	TrialProc	TrialList	0	cvbn	-999999	16	162486	0	n	283	162769	120	-209	-89	0	-118	7	22	6	5	42	0	0	0	0	4	4	2	2	0	2
Hungry_Donkey_bar_English_2	138	1	<?xml version="1.0"?>\n<Clock xmlns:dt="urn:schemas-microsoft-com:datatypes"><Description dt:dt="string">E-Prime Primary Realtime Clock</Description><StartTime><Timestamp dt:dt="int">0</Timestamp><DateUtc dt:dt="string">2016-04-15T21:34:07Z</DateUtc></StartTime><FrequencyChanges><FrequencyChange><Frequency dt:dt="r8">3507578</Frequency><Timestamp dt:dt="r8">14808792991</Timestamp><Current dt:dt="r8">0</Current><DateUtc dt:dt="string">2016-04-15T21:34:07Z</DateUtc></FrequencyChange></FrequencyChanges></Clock>\n	Hungry_Donkey_bar_English_2-138-1	60.016	-120	1.0.0.18	1	1924596460	Standard	2.0.10.353	2.0.10.353	04-15-2016	4/15/2016 9:34:07 PM	17:34:07	2.0.10.248	43	Bar37-63.bmp	37	4	?	0r_4g.bmp	0r_4g.bmp	0r_2g.bmp	0r_2g.bmp				0r_2g.bmp	TrialProc	TrialList	0	cvbn	-999999	16	164802	0	n	399	165201	122	-209	-87	0	-118	7	24	8	5	43	0	0	0	0	4	4	2	2	0	2
Hungry_Donkey_bar_English_2	138	1	<?xml version="1.0"?>\n<Clock xmlns:dt="urn:schemas-microsoft-com:datatypes"><Description dt:dt="string">E-Prime Primary Realtime Clock</Description><StartTime><Timestamp dt:dt="int">0</Timestamp><DateUtc dt:dt="string">2016-04-15T21:34:07Z</DateUtc></StartTime><FrequencyChanges><FrequencyChange><Frequency dt:dt="r8">3507578</Frequency><Timestamp dt:dt="r8">14808792991</Timestamp><Current dt:dt="r8">0</Current><DateUtc dt:dt="string">2016-04-15T21:34:07Z</DateUtc></FrequencyChange></FrequencyChanges></Clock>\n	Hungry_Donkey_bar_English_2-138-1	60.016	-120	1.0.0.18	1	1924596460	Standard	2.0.10.353	2.0.10.353	04-15-2016	4/15/2016 9:34:07 PM	17:34:07	2.0.10.248	44	Bar37-63.bmp	37	4	?	12r_4g.bmp	0r_4g.bmp	3r_2g.bmp	0r_2g.bmp				0r_2g.bmp	TrialProc	TrialList	0	cvbn	-999999	17	167235	0	n	302	167537	124	-209	-85	0	-118	7	26	5	5	44	-12	0	-3	0	4	4	2	2	0	2
Hungry_Donkey_bar_English_2	138	1	<?xml version="1.0"?>\n<Clock xmlns:dt="urn:schemas-microsoft-com:datatypes"><Description dt:dt="string">E-Prime Primary Realtime Clock</Description><StartTime><Timestamp dt:dt="int">0</Timestamp><DateUtc dt:dt="string">2016-04-15T21:34:07Z</DateUtc></StartTime><FrequencyChanges><FrequencyChange><Frequency dt:dt="r8">3507578</Frequency><Timestamp dt:dt="r8">14808792991</Timestamp><Current dt:dt="r8">0</Current><DateUtc dt:dt="string">2016-04-15T21:34:07Z</DateUtc></FrequencyChange></FrequencyChanges></Clock>\n	Hungry_Donkey_bar_English_2-138-1	60.016	-120	1.0.0.18	1	1924596460	Standard	2.0.10.353	2.0.10.353	04-15-2016	4/15/2016 9:34:07 PM	17:34:07	2.0.10.248	45	Bar37-63.bmp	38	4	?	0r_4g.bmp	0r_4g.bmp	0r_2g.bmp	0r_2g.bmp				0r_2g.bmp	TrialProc	TrialList	0	cvbn	-999999	16	169567	0	n	338	169905	126	-209	-83	0	-118	7	28	10	5	45	0	0	0	0	4	4	2	2	0	2
Hungry_Donkey_bar_English_2	138	1	<?xml version="1.0"?>\n<Clock xmlns:dt="urn:schemas-microsoft-com:datatypes"><Description dt:dt="string">E-Prime Primary Realtime Clock</Description><StartTime><Timestamp dt:dt="int">0</Timestamp><DateUtc dt:dt="string">2016-04-15T21:34:07Z</DateUtc></StartTime><FrequencyChanges><FrequencyChange><Frequency dt:dt="r8">3507578</Frequency><Timestamp dt:dt="r8">14808792991</Timestamp><Current dt:dt="r8">0</Current><DateUtc dt:dt="string">2016-04-15T21:34:07Z</DateUtc></FrequencyChange></FrequencyChanges></Clock>\n	Hungry_Donkey_bar_English_2-138-1	60.016	-120	1.0.0.18	1	1924596460	Standard	2.0.10.353	2.0.10.353	04-15-2016	4/15/2016 9:34:07 PM	17:34:07	2.0.10.248	46	Bar37-63.bmp	38	4	?	0r_4g.bmp	0r_4g.bmp	0r_2g.bmp	0r_2g.bmp				0r_2g.bmp	TrialProc	TrialList	0	cvbn	-999999	16	171933	0	n	324	172257	128	-209	-81	0	-118	7	30	9	5	46	0	0	0	0	4	4	2	2	0	2
Hungry_Donkey_bar_English_2	138	1	<?xml version="1.0"?>\n<Clock xmlns:dt="urn:schemas-microsoft-com:datatypes"><Description dt:dt="string">E-Prime Primary Realtime Clock</Description><StartTime><Timestamp dt:dt="int">0</Timestamp><DateUtc dt:dt="string">2016-04-15T21:34:07Z</DateUtc></StartTime><FrequencyChanges><FrequencyChange><Frequency dt:dt="r8">3507578</Frequency><Timestamp dt:dt="r8">14808792991</Timestamp><Current dt:dt="r8">0</Current><DateUtc dt:dt="string">2016-04-15T21:34:07Z</DateUtc></FrequencyChange></FrequencyChanges></Clock>\n	Hungry_Donkey_bar_English_2-138-1	60.016	-120	1.0.0.18	1	1924596460	Standard	2.0.10.353	2.0.10.353	04-15-2016	4/15/2016 9:34:07 PM	17:34:07	2.0.10.248	47	Bar37-63.bmp	38	4	?	10r_4g.bmp	0r_4g.bmp	2r_2g.bmp	0r_2g.bmp				0r_2g.bmp	TrialProc	TrialList	0	cvbn	-999999	16	174283	0	n	278	174561	130	-209	-79	0	-118	7	32	3	5	47	-10	0	-2	0	4	4	2	2	0	2
Hungry_Donkey_bar_English_2	138	1	<?xml version="1.0"?>\n<Clock xmlns:dt="urn:schemas-microsoft-com:datatypes"><Description dt:dt="string">E-Prime Primary Realtime Clock</Description><StartTime><Timestamp dt:dt="int">0</Timestamp><DateUtc dt:dt="string">2016-04-15T21:34:07Z</DateUtc></StartTime><FrequencyChanges><FrequencyChange><Frequency dt:dt="r8">3507578</Frequency><Timestamp dt:dt="r8">14808792991</Timestamp><Current dt:dt="r8">0</Current><DateUtc dt:dt="string">2016-04-15T21:34:07Z</DateUtc></FrequencyChange></FrequencyChanges></Clock>\n	Hungry_Donkey_bar_English_2-138-1	60.016	-120	1.0.0.18	1	1924596460	Standard	2.0.10.353	2.0.10.353	04-15-2016	4/15/2016 9:34:07 PM	17:34:07	2.0.10.248	48	Bar37-63.bmp	39	4	?	10r_4g.bmp	0r_4g.bmp	2r_2g.bmp	0r_2g.bmp				0r_2g.bmp	TrialProc	TrialList	0	cvbn	-999999	16	176599	0	n	394	176993	132	-209	-77	0	-118	7	34	4	5	48	-10	0	-2	0	4	4	2	2	0	2
Hungry_Donkey_bar_English_2	138	1	<?xml version="1.0"?>\n<Clock xmlns:dt="urn:schemas-microsoft-com:datatypes"><Description dt:dt="string">E-Prime Primary Realtime Clock</Description><StartTime><Timestamp dt:dt="int">0</Timestamp><DateUtc dt:dt="string">2016-04-15T21:34:07Z</DateUtc></StartTime><FrequencyChanges><FrequencyChange><Frequency dt:dt="r8">3507578</Frequency><Timestamp dt:dt="r8">14808792991</Timestamp><Current dt:dt="r8">0</Current><DateUtc dt:dt="string">2016-04-15T21:34:07Z</DateUtc></FrequencyChange></FrequencyChanges></Clock>\n	Hungry_Donkey_bar_English_2-138-1	60.016	-120	1.0.0.18	1	1924596460	Standard	2.0.10.353	2.0.10.353	04-15-2016	4/15/2016 9:34:07 PM	17:34:07	2.0.10.248	49	Bar37-63.bmp	39	4	?	0r_4g.bmp	0r_4g.bmp	0r_2g.bmp	0r_2g.bmp				0r_2g.bmp	TrialProc	TrialList	0	cvbn	-999999	17	179032	0	n	281	179313	134	-209	-75	0	-118	7	36	7	5	49	0	0	0	0	4	4	2	2	0	2
Hungry_Donkey_bar_English_2	138	1	<?xml version="1.0"?>\n<Clock xmlns:dt="urn:schemas-microsoft-com:datatypes"><Description dt:dt="string">E-Prime Primary Realtime Clock</Description><StartTime><Timestamp dt:dt="int">0</Timestamp><DateUtc dt:dt="string">2016-04-15T21:34:07Z</DateUtc></StartTime><FrequencyChanges><FrequencyChange><Frequency dt:dt="r8">3507578</Frequency><Timestamp dt:dt="r8">14808792991</Timestamp><Current dt:dt="r8">0</Current><DateUtc dt:dt="string">2016-04-15T21:34:07Z</DateUtc></FrequencyChange></FrequencyChanges></Clock>\n	Hungry_Donkey_bar_English_2-138-1	60.016	-120	1.0.0.18	1	1924596460	Standard	2.0.10.353	2.0.10.353	04-15-2016	4/15/2016 9:34:07 PM	17:34:07	2.0.10.248	50	Bar37-63.bmp	38	4	?	8r_4g.bmp	50r_4g.bmp	1r_2g.bmp	10r_2g.bmp				10r_2g.bmp	TrialProc	TrialList	0	cvbn	-999999	16	181348	0	n	541	181889	136	-219	-83	0	-118	7	28	1	5	50	-8	-50	-1	-10	4	4	2	2	-10	2
Hungry_Donkey_bar_English_2	138	1	<?xml version="1.0"?>\n<Clock xmlns:dt="urn:schemas-microsoft-com:datatypes"><Description dt:dt="string">E-Prime Primary Realtime Clock</Description><StartTime><Timestamp dt:dt="int">0</Timestamp><DateUtc dt:dt="string">2016-04-15T21:34:07Z</DateUtc></StartTime><FrequencyChanges><FrequencyChange><Frequency dt:dt="r8">3507578</Frequency><Timestamp dt:dt="r8">14808792991</Timestamp><Current dt:dt="r8">0</Current><DateUtc dt:dt="string">2016-04-15T21:34:07Z</DateUtc></FrequencyChange></FrequencyChanges></Clock>\n	Hungry_Donkey_bar_English_2-138-1	60.016	-120	1.0.0.18	1	1924596460	Standard	2.0.10.353	2.0.10.353	04-15-2016	4/15/2016 9:34:07 PM	17:34:07	2.0.10.248	51	Bar37-63.bmp	39	2	?	10r_4g.bmp	0r_4g.bmp	2r_2g.bmp	0r_2g.bmp		0r_4g.bmp			TrialProc	TrialList	0	cvbn	-999999	16	183914	0	v	487	184401	140	-219	-79	0	-114	7	28	3	6	51	-10	0	-2	0	4	4	2	2	0	4
Hungry_Donkey_bar_English_2	138	1	<?xml version="1.0"?>\n<Clock xmlns:dt="urn:schemas-microsoft-com:datatypes"><Description dt:dt="string">E-Prime Primary Realtime Clock</Description><StartTime><Timestamp dt:dt="int">0</Timestamp><DateUtc dt:dt="string">2016-04-15T21:34:07Z</DateUtc></StartTime><FrequencyChanges><FrequencyChange><Frequency dt:dt="r8">3507578</Frequency><Timestamp dt:dt="r8">14808792991</Timestamp><Current dt:dt="r8">0</Current><DateUtc dt:dt="string">2016-04-15T21:34:07Z</DateUtc></FrequencyChange></FrequencyChanges></Clock>\n	Hungry_Donkey_bar_English_2-138-1	60.016	-120	1.0.0.18	1	1924596460	Standard	2.0.10.353	2.0.10.353	04-15-2016	4/15/2016 9:34:07 PM	17:34:07	2.0.10.248	52	Bar37-63.bmp	40	2	?	0r_4g.bmp	0r_4g.bmp	0r_2g.bmp	0r_2g.bmp		0r_4g.bmp			TrialProc	TrialList	0	cvbn	-999999	16	186430	0	v	307	186737	144	-219	-75	0	-110	7	28	7	6	52	0	0	0	0	4	4	2	2	0	4
Hungry_Donkey_bar_English_2	138	1	<?xml version="1.0"?>\n<Clock xmlns:dt="urn:schemas-microsoft-com:datatypes"><Description dt:dt="string">E-Prime Primary Realtime Clock</Description><StartTime><Timestamp dt:dt="int">0</Timestamp><DateUtc dt:dt="string">2016-04-15T21:34:07Z</DateUtc></StartTime><FrequencyChanges><FrequencyChange><Frequency dt:dt="r8">3507578</Frequency><Timestamp dt:dt="r8">14808792991</Timestamp><Current dt:dt="r8">0</Current><DateUtc dt:dt="string">2016-04-15T21:34:07Z</DateUtc></FrequencyChange></FrequencyChanges></Clock>\n	Hungry_Donkey_bar_English_2-138-1	60.016	-120	1.0.0.18	1	1924596460	Standard	2.0.10.353	2.0.10.353	04-15-2016	4/15/2016 9:34:07 PM	17:34:07	2.0.10.248	53	Bar37-63.bmp	40	2	?	10r_4g.bmp	0r_4g.bmp	2r_2g.bmp	0r_2g.bmp		0r_4g.bmp			TrialProc	TrialList	0	cvbn	-999999	16	188762	0	v	471	189233	148	-219	-71	0	-106	7	28	2	6	53	-10	0	-2	0	4	4	2	2	0	4
Hungry_Donkey_bar_English_2	138	1	<?xml version="1.0"?>\n<Clock xmlns:dt="urn:schemas-microsoft-com:datatypes"><Description dt:dt="string">E-Prime Primary Realtime Clock</Description><StartTime><Timestamp dt:dt="int">0</Timestamp><DateUtc dt:dt="string">2016-04-15T21:34:07Z</DateUtc></StartTime><FrequencyChanges><FrequencyChange><Frequency dt:dt="r8">3507578</Frequency><Timestamp dt:dt="r8">14808792991</Timestamp><Current dt:dt="r8">0</Current><DateUtc dt:dt="string">2016-04-15T21:34:07Z</DateUtc></FrequencyChange></FrequencyChanges></Clock>\n	Hungry_Donkey_bar_English_2-138-1	60.016	-120	1.0.0.18	1	1924596460	Standard	2.0.10.353	2.0.10.353	04-15-2016	4/15/2016 9:34:07 PM	17:34:07	2.0.10.248	54	Bar37-63.bmp	36	2	?	8r_4g.bmp	50r_4g.bmp	1r_2g.bmp	10r_2g.bmp		50r_4g.bmp			TrialProc	TrialList	0	cvbn	-999999	16	191262	0	v	722	191984	152	-269	-117	0	-152	7	28	1	6	54	-8	-50	-1	-10	4	4	2	2	-50	4
Hungry_Donkey_bar_English_2	138	1	<?xml version="1.0"?>\n<Clock xmlns:dt="urn:schemas-microsoft-com:datatypes"><Description dt:dt="string">E-Prime Primary Realtime Clock</Description><StartTime><Timestamp dt:dt="int">0</Timestamp><DateUtc dt:dt="string">2016-04-15T21:34:07Z</DateUtc></StartTime><FrequencyChanges><FrequencyChange><Frequency dt:dt="r8">3507578</Frequency><Timestamp dt:dt="r8">14808792991</Timestamp><Current dt:dt="r8">0</Current><DateUtc dt:dt="string">2016-04-15T21:34:07Z</DateUtc></FrequencyChange></FrequencyChanges></Clock>\n	Hungry_Donkey_bar_English_2-138-1	60.016	-120	1.0.0.18	1	1924596460	Standard	2.0.10.353	2.0.10.353	04-15-2016	4/15/2016 9:34:07 PM	17:34:07	2.0.10.248	55	Bar37-63.bmp	37	1	?	0r_4g.bmp	0r_4g.bmp	0r_2g.bmp	0r_2g.bmp	0r_4g.bmp				TrialProc	TrialList	0	cvbn	-999999	16	194011	0	c	21	194032	156	-269	-113	4	-152	7	28	6	6	55	0	0	0	0	4	4	2	2	0	4
Hungry_Donkey_bar_English_2	138	1	<?xml version="1.0"?>\n<Clock xmlns:dt="urn:schemas-microsoft-com:datatypes"><Description dt:dt="string">E-Prime Primary Realtime Clock</Description><StartTime><Timestamp dt:dt="int">0</Timestamp><DateUtc dt:dt="string">2016-04-15T21:34:07Z</DateUtc></StartTime><FrequencyChanges><FrequencyChange><Frequency dt:dt="r8">3507578</Frequency><Timestamp dt:dt="r8">14808792991</Timestamp><Current dt:dt="r8">0</Current><DateUtc dt:dt="string">2016-04-15T21:34:07Z</DateUtc></FrequencyChange></FrequencyChanges></Clock>\n	Hungry_Donkey_bar_English_2-138-1	60.016	-120	1.0.0.18	1	1924596460	Standard	2.0.10.353	2.0.10.353	04-15-2016	4/15/2016 9:34:07 PM	17:34:07	2.0.10.248	56	Bar37-63.bmp	37	4	?	0r_4g.bmp	0r_4g.bmp	0r_2g.bmp	0r_2g.bmp				0r_2g.bmp	TrialProc	TrialList	0	cvbn	-999999	17	196061	0	n	419	196480	158	-269	-111	4	-152	7	30	8	6	56	0	0	0	0	4	4	2	2	0	2
Hungry_Donkey_bar_English_2	138	1	<?xml version="1.0"?>\n<Clock xmlns:dt="urn:schemas-microsoft-com:datatypes"><Description dt:dt="string">E-Prime Primary Realtime Clock</Description><StartTime><Timestamp dt:dt="int">0</Timestamp><DateUtc dt:dt="string">2016-04-15T21:34:07Z</DateUtc></StartTime><FrequencyChanges><FrequencyChange><Frequency dt:dt="r8">3507578</Frequency><Timestamp dt:dt="r8">14808792991</Timestamp><Current dt:dt="r8">0</Current><DateUtc dt:dt="string">2016-04-15T21:34:07Z</DateUtc></FrequencyChange></FrequencyChanges></Clock>\n	Hungry_Donkey_bar_English_2-138-1	60.016	-120	1.0.0.18	1	1924596460	Standard	2.0.10.353	2.0.10.353	04-15-2016	4/15/2016 9:34:07 PM	17:34:07	2.0.10.248	57	Bar37-63.bmp	37	3	?	12r_4g.bmp	0r_4g.bmp	3r_2g.bmp	0r_2g.bmp			3r_2g.bmp		TrialProc	TrialList	0	cvbn	-999999	16	198510	0	b	162	198672	160	-272	-112	4	-152	6	30	5	6	57	-12	0	-3	0	4	4	2	2	-3	2
Hungry_Donkey_bar_English_2	138	1	<?xml version="1.0"?>\n<Clock xmlns:dt="urn:schemas-microsoft-com:datatypes"><Description dt:dt="string">E-Prime Primary Realtime Clock</Description><StartTime><Timestamp dt:dt="int">0</Timestamp><DateUtc dt:dt="string">2016-04-15T21:34:07Z</DateUtc></StartTime><FrequencyChanges><FrequencyChange><Frequency dt:dt="r8">3507578</Frequency><Timestamp dt:dt="r8">14808792991</Timestamp><Current dt:dt="r8">0</Current><DateUtc dt:dt="string">2016-04-15T21:34:07Z</DateUtc></FrequencyChange></FrequencyChanges></Clock>\n	Hungry_Donkey_bar_English_2-138-1	60.016	-120	1.0.0.18	1	1924596460	Standard	2.0.10.353	2.0.10.353	04-15-2016	4/15/2016 9:34:07 PM	17:34:07	2.0.10.248	58	Bar37-63.bmp	38	1	?	0r_4g.bmp	0r_4g.bmp	0r_2g.bmp	0r_2g.bmp	0r_4g.bmp				TrialProc	TrialList	0	cvbn	-999999	16	200709	0	c	315	201024	164	-272	-108	8	-152	6	30	9	6	58	0	0	0	0	4	4	2	2	0	4
Hungry_Donkey_bar_English_2	138	1	<?xml version="1.0"?>\n<Clock xmlns:dt="urn:schemas-microsoft-com:datatypes"><Description dt:dt="string">E-Prime Primary Realtime Clock</Description><StartTime><Timestamp dt:dt="int">0</Timestamp><DateUtc dt:dt="string">2016-04-15T21:34:07Z</DateUtc></StartTime><FrequencyChanges><FrequencyChange><Frequency dt:dt="r8">3507578</Frequency><Timestamp dt:dt="r8">14808792991</Timestamp><Current dt:dt="r8">0</Current><DateUtc dt:dt="string">2016-04-15T21:34:07Z</DateUtc></FrequencyChange></FrequencyChanges></Clock>\n	Hungry_Donkey_bar_English_2-138-1	60.016	-120	1.0.0.18	1	1924596460	Standard	2.0.10.353	2.0.10.353	04-15-2016	4/15/2016 9:34:07 PM	17:34:07	2.0.10.248	59	Bar37-63.bmp	37	1	?	10r_4g.bmp	0r_4g.bmp	2r_2g.bmp	0r_2g.bmp	10r_4g.bmp				TrialProc	TrialList	0	cvbn	-999999	16	203059	0	c	317	203376	168	-282	-114	2	-152	6	30	4	6	59	-10	0	-2	0	4	4	2	2	-10	4
Hungry_Donkey_bar_English_2	138	1	<?xml version="1.0"?>\n<Clock xmlns:dt="urn:schemas-microsoft-com:datatypes"><Description dt:dt="string">E-Prime Primary Realtime Clock</Description><StartTime><Timestamp dt:dt="int">0</Timestamp><DateUtc dt:dt="string">2016-04-15T21:34:07Z</DateUtc></StartTime><FrequencyChanges><FrequencyChange><Frequency dt:dt="r8">3507578</Frequency><Timestamp dt:dt="r8">14808792991</Timestamp><Current dt:dt="r8">0</Current><DateUtc dt:dt="string">2016-04-15T21:34:07Z</DateUtc></FrequencyChange></FrequencyChanges></Clock>\n	Hungry_Donkey_bar_English_2-138-1	60.016	-120	1.0.0.18	1	1924596460	Standard	2.0.10.353	2.0.10.353	04-15-2016	4/15/2016 9:34:07 PM	17:34:07	2.0.10.248	60	Bar37-63.bmp	38	2	?	0r_4g.bmp	0r_4g.bmp	0r_2g.bmp	0r_2g.bmp		0r_4g.bmp			TrialProc	TrialList	0	cvbn	-999999	16	205408	0	v	304	205712	172	-282	-110	2	-148	6	30	10	6	60	0	0	0	0	4	4	2	2	0	4
Hungry_Donkey_bar_English_2	138	1	<?xml version="1.0"?>\n<Clock xmlns:dt="urn:schemas-microsoft-com:datatypes"><Description dt:dt="string">E-Prime Primary Realtime Clock</Description><StartTime><Timestamp dt:dt="int">0</Timestamp><DateUtc dt:dt="string">2016-04-15T21:34:07Z</DateUtc></StartTime><FrequencyChanges><FrequencyChange><Frequency dt:dt="r8">3507578</Frequency><Timestamp dt:dt="r8">14808792991</Timestamp><Current dt:dt="r8">0</Current><DateUtc dt:dt="string">2016-04-15T21:34:07Z</DateUtc></FrequencyChange></FrequencyChanges></Clock>\n	Hungry_Donkey_bar_English_2-138-1	60.016	-120	1.0.0.18	1	1924596460	Standard	2.0.10.353	2.0.10.353	04-15-2016	4/15/2016 9:34:07 PM	17:34:07	2.0.10.248	61	Bar37-63.bmp	38	2	?	0r_4g.bmp	0r_4g.bmp	0r_2g.bmp	0r_2g.bmp		0r_4g.bmp			TrialProc	TrialList	0	cvbn	-999999	16	207741	0	v	467	208208	176	-282	-106	2	-144	6	30	7	7	61	0	0	0	0	4	4	2	2	0	4
Hungry_Donkey_bar_English_2	138	1	<?xml version="1.0"?>\n<Clock xmlns:dt="urn:schemas-microsoft-com:datatypes"><Description dt:dt="string">E-Prime Primary Realtime Clock</Description><StartTime><Timestamp dt:dt="int">0</Timestamp><DateUtc dt:dt="string">2016-04-15T21:34:07Z</DateUtc></StartTime><FrequencyChanges><FrequencyChange><Frequency dt:dt="r8">3507578</Frequency><Timestamp dt:dt="r8">14808792991</Timestamp><Current dt:dt="r8">0</Current><DateUtc dt:dt="string">2016-04-15T21:34:07Z</DateUtc></FrequencyChange></FrequencyChanges></Clock>\n	Hungry_Donkey_bar_English_2-138-1	60.016	-120	1.0.0.18	1	1924596460	Standard	2.0.10.353	2.0.10.353	04-15-2016	4/15/2016 9:34:07 PM	17:34:07	2.0.10.248	62	Bar37-63.bmp	39	2	?	0r_4g.bmp	0r_4g.bmp	0r_2g.bmp	0r_2g.bmp		0r_4g.bmp			TrialProc	TrialList	0	cvbn	-999999	16	210240	0	v	448	210688	180	-282	-102	2	-140	6	30	10	7	62	0	0	0	0	4	4	2	2	0	4
Hungry_Donkey_bar_English_2	138	1	<?xml version="1.0"?>\n<Clock xmlns:dt="urn:schemas-microsoft-com:datatypes"><Description dt:dt="string">E-Prime Primary Realtime Clock</Description><StartTime><Timestamp dt:dt="int">0</Timestamp><DateUtc dt:dt="string">2016-04-15T21:34:07Z</DateUtc></StartTime><FrequencyChanges><FrequencyChange><Frequency dt:dt="r8">3507578</Frequency><Timestamp dt:dt="r8">14808792991</Timestamp><Current dt:dt="r8">0</Current><DateUtc dt:dt="string">2016-04-15T21:34:07Z</DateUtc></FrequencyChange></FrequencyChanges></Clock>\n	Hungry_Donkey_bar_English_2-138-1	60.016	-120	1.0.0.18	1	1924596460	Standard	2.0.10.353	2.0.10.353	04-15-2016	4/15/2016 9:34:07 PM	17:34:07	2.0.10.248	63	Bar37-63.bmp	39	2	?	12r_4g.bmp	0r_4g.bmp	3r_2g.bmp	0r_2g.bmp		0r_4g.bmp			TrialProc	TrialList	0	cvbn	-999999	16	212723	0	v	445	213168	184	-282	-98	2	-136	6	30	5	7	63	-12	0	-3	0	4	4	2	2	0	4
Hungry_Donkey_bar_English_2	138	1	<?xml version="1.0"?>\n<Clock xmlns:dt="urn:schemas-microsoft-com:datatypes"><Description dt:dt="string">E-Prime Primary Realtime Clock</Description><StartTime><Timestamp dt:dt="int">0</Timestamp><DateUtc dt:dt="string">2016-04-15T21:34:07Z</DateUtc></StartTime><FrequencyChanges><FrequencyChange><Frequency dt:dt="r8">3507578</Frequency><Timestamp dt:dt="r8">14808792991</Timestamp><Current dt:dt="r8">0</Current><DateUtc dt:dt="string">2016-04-15T21:34:07Z</DateUtc></FrequencyChange></FrequencyChanges></Clock>\n	Hungry_Donkey_bar_English_2-138-1	60.016	-120	1.0.0.18	1	1924596460	Standard	2.0.10.353	2.0.10.353	04-15-2016	4/15/2016 9:34:07 PM	17:34:07	2.0.10.248	64	Bar37-63.bmp	40	2	?	10r_4g.bmp	0r_4g.bmp	2r_2g.bmp	0r_2g.bmp		0r_4g.bmp			TrialProc	TrialList	0	cvbn	-999999	17	215206	0	v	378	215584	188	-282	-94	2	-132	6	30	2	7	64	-10	0	-2	0	4	4	2	2	0	4
Hungry_Donkey_bar_English_2	138	1	<?xml version="1.0"?>\n<Clock xmlns:dt="urn:schemas-microsoft-com:datatypes"><Description dt:dt="string">E-Prime Primary Realtime Clock</Description><StartTime><Timestamp dt:dt="int">0</Timestamp><DateUtc dt:dt="string">2016-04-15T21:34:07Z</DateUtc></StartTime><FrequencyChanges><FrequencyChange><Frequency dt:dt="r8">3507578</Frequency><Timestamp dt:dt="r8">14808792991</Timestamp><Current dt:dt="r8">0</Current><DateUtc dt:dt="string">2016-04-15T21:34:07Z</DateUtc></FrequencyChange></FrequencyChanges></Clock>\n	Hungry_Donkey_bar_English_2-138-1	60.016	-120	1.0.0.18	1	1924596460	Standard	2.0.10.353	2.0.10.353	04-15-2016	4/15/2016 9:34:07 PM	17:34:07	2.0.10.248	65	Bar37-63.bmp	41	2	?	0r_4g.bmp	0r_4g.bmp	0r_2g.bmp	0r_2g.bmp		0r_4g.bmp			TrialProc	TrialList	0	cvbn	-999999	17	217622	0	v	394	218016	192	-282	-90	2	-128	6	30	9	7	65	0	0	0	0	4	4	2	2	0	4
Hungry_Donkey_bar_English_2	138	1	<?xml version="1.0"?>\n<Clock xmlns:dt="urn:schemas-microsoft-com:datatypes"><Description dt:dt="string">E-Prime Primary Realtime Clock</Description><StartTime><Timestamp dt:dt="int">0</Timestamp><DateUtc dt:dt="string">2016-04-15T21:34:07Z</DateUtc></StartTime><FrequencyChanges><FrequencyChange><Frequency dt:dt="r8">3507578</Frequency><Timestamp dt:dt="r8">14808792991</Timestamp><Current dt:dt="r8">0</Current><DateUtc dt:dt="string">2016-04-15T21:34:07Z</DateUtc></FrequencyChange></FrequencyChanges></Clock>\n	Hungry_Donkey_bar_English_2-138-1	60.016	-120	1.0.0.18	1	1924596460	Standard	2.0.10.353	2.0.10.353	04-15-2016	4/15/2016 9:34:07 PM	17:34:07	2.0.10.248	66	Bar37-63.bmp	41	2	?	0r_4g.bmp	0r_4g.bmp	0r_2g.bmp	0r_2g.bmp		0r_4g.bmp			TrialProc	TrialList	0	cvbn	-999999	16	220054	0	v	282	220336	196	-282	-86	2	-124	6	30	6	7	66	0	0	0	0	4	4	2	2	0	4
Hungry_Donkey_bar_English_2	138	1	<?xml version="1.0"?>\n<Clock xmlns:dt="urn:schemas-microsoft-com:datatypes"><Description dt:dt="string">E-Prime Primary Realtime Clock</Description><StartTime><Timestamp dt:dt="int">0</Timestamp><DateUtc dt:dt="string">2016-04-15T21:34:07Z</DateUtc></StartTime><FrequencyChanges><FrequencyChange><Frequency dt:dt="r8">3507578</Frequency><Timestamp dt:dt="r8">14808792991</Timestamp><Current dt:dt="r8">0</Current><DateUtc dt:dt="string">2016-04-15T21:34:07Z</DateUtc></FrequencyChange></FrequencyChanges></Clock>\n	Hungry_Donkey_bar_English_2-138-1	60.016	-120	1.0.0.18	1	1924596460	Standard	2.0.10.353	2.0.10.353	04-15-2016	4/15/2016 9:34:07 PM	17:34:07	2.0.10.248	67	Bar37-63.bmp	41	2	?	10r_4g.bmp	0r_4g.bmp	2r_2g.bmp	0r_2g.bmp		0r_4g.bmp			TrialProc	TrialList	0	cvbn	-999999	16	222370	0	v	622	222992	200	-282	-82	2	-120	6	30	4	7	67	-10	0	-2	0	4	4	2	2	0	4
Hungry_Donkey_bar_English_2	138	1	<?xml version="1.0"?>\n<Clock xmlns:dt="urn:schemas-microsoft-com:datatypes"><Description dt:dt="string">E-Prime Primary Realtime Clock</Description><StartTime><Timestamp dt:dt="int">0</Timestamp><DateUtc dt:dt="string">2016-04-15T21:34:07Z</DateUtc></StartTime><FrequencyChanges><FrequencyChange><Frequency dt:dt="r8">3507578</Frequency><Timestamp dt:dt="r8">14808792991</Timestamp><Current dt:dt="r8">0</Current><DateUtc dt:dt="string">2016-04-15T21:34:07Z</DateUtc></FrequencyChange></FrequencyChanges></Clock>\n	Hungry_Donkey_bar_English_2-138-1	60.016	-120	1.0.0.18	1	1924596460	Standard	2.0.10.353	2.0.10.353	04-15-2016	4/15/2016 9:34:07 PM	17:34:07	2.0.10.248	68	Bar37-63.bmp	42	2	?	10r_4g.bmp	0r_4g.bmp	2r_2g.bmp	0r_2g.bmp		0r_4g.bmp			TrialProc	TrialList	0	cvbn	-999999	16	225020	0	v	548	225568	204	-282	-78	2	-116	6	30	3	7	68	-10	0	-2	0	4	4	2	2	0	4
Hungry_Donkey_bar_English_2	138	1	<?xml version="1.0"?>\n<Clock xmlns:dt="urn:schemas-microsoft-com:datatypes"><Description dt:dt="string">E-Prime Primary Realtime Clock</Description><StartTime><Timestamp dt:dt="int">0</Timestamp><DateUtc dt:dt="string">2016-04-15T21:34:07Z</DateUtc></StartTime><FrequencyChanges><FrequencyChange><Frequency dt:dt="r8">3507578</Frequency><Timestamp dt:dt="r8">14808792991</Timestamp><Current dt:dt="r8">0</Current><DateUtc dt:dt="string">2016-04-15T21:34:07Z</DateUtc></FrequencyChange></FrequencyChanges></Clock>\n	Hungry_Donkey_bar_English_2-138-1	60.016	-120	1.0.0.18	1	1924596460	Standard	2.0.10.353	2.0.10.353	04-15-2016	4/15/2016 9:34:07 PM	17:34:07	2.0.10.248	69	Bar37-63.bmp	42	2	?	0r_4g.bmp	0r_4g.bmp	0r_2g.bmp	0r_2g.bmp		0r_4g.bmp			TrialProc	TrialList	0	cvbn	-999999	16	227602	0	v	926	228528	208	-282	-74	2	-112	6	30	8	7	69	0	0	0	0	4	4	2	2	0	4
Hungry_Donkey_bar_English_2	138	1	<?xml version="1.0"?>\n<Clock xmlns:dt="urn:schemas-microsoft-com:datatypes"><Description dt:dt="string">E-Prime Primary Realtime Clock</Description><StartTime><Timestamp dt:dt="int">0</Timestamp><DateUtc dt:dt="string">2016-04-15T21:34:07Z</DateUtc></StartTime><FrequencyChanges><FrequencyChange><Frequency dt:dt="r8">3507578</Frequency><Timestamp dt:dt="r8">14808792991</Timestamp><Current dt:dt="r8">0</Current><DateUtc dt:dt="string">2016-04-15T21:34:07Z</DateUtc></FrequencyChange></FrequencyChanges></Clock>\n	Hungry_Donkey_bar_English_2-138-1	60.016	-120	1.0.0.18	1	1924596460	Standard	2.0.10.353	2.0.10.353	04-15-2016	4/15/2016 9:34:07 PM	17:34:07	2.0.10.248	70	Bar37-63.bmp	42	4	?	8r_4g.bmp	50r_4g.bmp	1r_2g.bmp	10r_2g.bmp				10r_2g.bmp	TrialProc	TrialList	0	cvbn	-999999	17	230552	0	n	904	231456	210	-292	-82	2	-112	6	22	1	7	70	-8	-50	-1	-10	4	4	2	2	-10	2
Hungry_Donkey_bar_English_2	138	1	<?xml version="1.0"?>\n<Clock xmlns:dt="urn:schemas-microsoft-com:datatypes"><Description dt:dt="string">E-Prime Primary Realtime Clock</Description><StartTime><Timestamp dt:dt="int">0</Timestamp><DateUtc dt:dt="string">2016-04-15T21:34:07Z</DateUtc></StartTime><FrequencyChanges><FrequencyChange><Frequency dt:dt="r8">3507578</Frequency><Timestamp dt:dt="r8">14808792991</Timestamp><Current dt:dt="r8">0</Current><DateUtc dt:dt="string">2016-04-15T21:34:07Z</DateUtc></FrequencyChange></FrequencyChanges></Clock>\n	Hungry_Donkey_bar_English_2-138-1	60.016	-120	1.0.0.18	1	1924596460	Standard	2.0.10.353	2.0.10.353	04-15-2016	4/15/2016 9:34:07 PM	17:34:07	2.0.10.248	71	Bar37-63.bmp	42	3	?	8r_4g.bmp	50r_4g.bmp	1r_2g.bmp	10r_2g.bmp			1r_2g.bmp		TrialProc	TrialList	0	cvbn	-999999	16	233484	0	b	388	233872	212	-293	-81	2	-112	7	22	1	8	71	-8	-50	-1	-10	4	4	2	2	-1	2
Hungry_Donkey_bar_English_2	138	1	<?xml version="1.0"?>\n<Clock xmlns:dt="urn:schemas-microsoft-com:datatypes"><Description dt:dt="string">E-Prime Primary Realtime Clock</Description><StartTime><Timestamp dt:dt="int">0</Timestamp><DateUtc dt:dt="string">2016-04-15T21:34:07Z</DateUtc></StartTime><FrequencyChanges><FrequencyChange><Frequency dt:dt="r8">3507578</Frequency><Timestamp dt:dt="r8">14808792991</Timestamp><Current dt:dt="r8">0</Current><DateUtc dt:dt="string">2016-04-15T21:34:07Z</DateUtc></FrequencyChange></FrequencyChanges></Clock>\n	Hungry_Donkey_bar_English_2-138-1	60.016	-120	1.0.0.18	1	1924596460	Standard	2.0.10.353	2.0.10.353	04-15-2016	4/15/2016 9:34:07 PM	17:34:07	2.0.10.248	72	Bar37-63.bmp	41	1	?	12r_4g.bmp	0r_4g.bmp	3r_2g.bmp	0r_2g.bmp	12r_4g.bmp				TrialProc	TrialList	0	cvbn	-999999	16	235900	0	c	324	236224	216	-305	-89	-6	-112	7	22	5	8	72	-12	0	-3	0	4	4	2	2	-12	4
Hungry_Donkey_bar_English_2	138	1	<?xml version="1.0"?>\n<Clock xmlns:dt="urn:schemas-microsoft-com:datatypes"><Description dt:dt="string">E-Prime Primary Realtime Clock</Description><StartTime><Timestamp dt:dt="int">0</Timestamp><DateUtc dt:dt="string">2016-04-15T21:34:07Z</DateUtc></StartTime><FrequencyChanges><FrequencyChange><Frequency dt:dt="r8">3507578</Frequency><Timestamp dt:dt="r8">14808792991</Timestamp><Current dt:dt="r8">0</Current><DateUtc dt:dt="string">2016-04-15T21:34:07Z</DateUtc></FrequencyChange></FrequencyChanges></Clock>\n	Hungry_Donkey_bar_English_2-138-1	60.016	-120	1.0.0.18	1	1924596460	Standard	2.0.10.353	2.0.10.353	04-15-2016	4/15/2016 9:34:07 PM	17:34:07	2.0.10.248	73	Bar37-63.bmp	42	2	?	0r_4g.bmp	0r_4g.bmp	0r_2g.bmp	0r_2g.bmp		0r_4g.bmp			TrialProc	TrialList	0	cvbn	-999999	17	238250	0	v	485	238735	220	-305	-85	-6	-108	7	22	7	8	73	0	0	0	0	4	4	2	2	0	4
Hungry_Donkey_bar_English_2	138	1	<?xml version="1.0"?>\n<Clock xmlns:dt="urn:schemas-microsoft-com:datatypes"><Description dt:dt="string">E-Prime Primary Realtime Clock</Description><StartTime><Timestamp dt:dt="int">0</Timestamp><DateUtc dt:dt="string">2016-04-15T21:34:07Z</DateUtc></StartTime><FrequencyChanges><FrequencyChange><Frequency dt:dt="r8">3507578</Frequency><Timestamp dt:dt="r8">14808792991</Timestamp><Current dt:dt="r8">0</Current><DateUtc dt:dt="string">2016-04-15T21:34:07Z</DateUtc></FrequencyChange></FrequencyChanges></Clock>\n	Hungry_Donkey_bar_English_2-138-1	60.016	-120	1.0.0.18	1	1924596460	Standard	2.0.10.353	2.0.10.353	04-15-2016	4/15/2016 9:34:07 PM	17:34:07	2.0.10.248	74	Bar37-63.bmp	42	2	?	0r_4g.bmp	0r_4g.bmp	0r_2g.bmp	0r_2g.bmp		0r_4g.bmp			TrialProc	TrialList	0	cvbn	-999999	16	240766	0	v	305	241071	224	-305	-81	-6	-104	7	22	9	8	74	0	0	0	0	4	4	2	2	0	4
Hungry_Donkey_bar_English_2	138	1	<?xml version="1.0"?>\n<Clock xmlns:dt="urn:schemas-microsoft-com:datatypes"><Description dt:dt="string">E-Prime Primary Realtime Clock</Description><StartTime><Timestamp dt:dt="int">0</Timestamp><DateUtc dt:dt="string">2016-04-15T21:34:07Z</DateUtc></StartTime><FrequencyChanges><FrequencyChange><Frequency dt:dt="r8">3507578</Frequency><Timestamp dt:dt="r8">14808792991</Timestamp><Current dt:dt="r8">0</Current><DateUtc dt:dt="string">2016-04-15T21:34:07Z</DateUtc></FrequencyChange></FrequencyChanges></Clock>\n	Hungry_Donkey_bar_English_2-138-1	60.016	-120	1.0.0.18	1	1924596460	Standard	2.0.10.353	2.0.10.353	04-15-2016	4/15/2016 9:34:07 PM	17:34:07	2.0.10.248	75	Bar37-63.bmp	43	2	?	10r_4g.bmp	0r_4g.bmp	2r_2g.bmp	0r_2g.bmp		0r_4g.bmp			TrialProc	TrialList	0	cvbn	-999999	16	243098	0	v	21	243119	228	-305	-77	-6	-100	7	22	2	8	75	-10	0	-2	0	4	4	2	2	0	4
Hungry_Donkey_bar_English_2	138	1	<?xml version="1.0"?>\n<Clock xmlns:dt="urn:schemas-microsoft-com:datatypes"><Description dt:dt="string">E-Prime Primary Realtime Clock</Description><StartTime><Timestamp dt:dt="int">0</Timestamp><DateUtc dt:dt="string">2016-04-15T21:34:07Z</DateUtc></StartTime><FrequencyChanges><FrequencyChange><Frequency dt:dt="r8">3507578</Frequency><Timestamp dt:dt="r8">14808792991</Timestamp><Current dt:dt="r8">0</Current><DateUtc dt:dt="string">2016-04-15T21:34:07Z</DateUtc></FrequencyChange></FrequencyChanges></Clock>\n	Hungry_Donkey_bar_English_2-138-1	60.016	-120	1.0.0.18	1	1924596460	Standard	2.0.10.353	2.0.10.353	04-15-2016	4/15/2016 9:34:07 PM	17:34:07	2.0.10.248	76	Bar37-63.bmp	43	2	?	10r_4g.bmp	0r_4g.bmp	2r_2g.bmp	0r_2g.bmp		0r_4g.bmp			TrialProc	TrialList	0	cvbn	-999999	16	245148	0	v	131	245279	232	-305	-73	-6	-96	7	22	4	8	76	-10	0	-2	0	4	4	2	2	0	4
Hungry_Donkey_bar_English_2	138	1	<?xml version="1.0"?>\n<Clock xmlns:dt="urn:schemas-microsoft-com:datatypes"><Description dt:dt="string">E-Prime Primary Realtime Clock</Description><StartTime><Timestamp dt:dt="int">0</Timestamp><DateUtc dt:dt="string">2016-04-15T21:34:07Z</DateUtc></StartTime><FrequencyChanges><FrequencyChange><Frequency dt:dt="r8">3507578</Frequency><Timestamp dt:dt="r8">14808792991</Timestamp><Current dt:dt="r8">0</Current><DateUtc dt:dt="string">2016-04-15T21:34:07Z</DateUtc></FrequencyChange></FrequencyChanges></Clock>\n	Hungry_Donkey_bar_English_2-138-1	60.016	-120	1.0.0.18	1	1924596460	Standard	2.0.10.353	2.0.10.353	04-15-2016	4/15/2016 9:34:07 PM	17:34:07	2.0.10.248	77	Bar50-50.bmp	44	2	?	0r_4g.bmp	0r_4g.bmp	0r_2g.bmp	0r_2g.bmp		0r_4g.bmp			TrialProc	TrialList	0	cvbn	-999999	16	247314	0	v	45	247359	236	-305	-69	-6	-92	7	22	8	8	77	0	0	0	0	4	4	2	2	0	4
Hungry_Donkey_bar_English_2	138	1	<?xml version="1.0"?>\n<Clock xmlns:dt="urn:schemas-microsoft-com:datatypes"><Description dt:dt="string">E-Prime Primary Realtime Clock</Description><StartTime><Timestamp dt:dt="int">0</Timestamp><DateUtc dt:dt="string">2016-04-15T21:34:07Z</DateUtc></StartTime><FrequencyChanges><FrequencyChange><Frequency dt:dt="r8">3507578</Frequency><Timestamp dt:dt="r8">14808792991</Timestamp><Current dt:dt="r8">0</Current><DateUtc dt:dt="string">2016-04-15T21:34:07Z</DateUtc></FrequencyChange></FrequencyChanges></Clock>\n	Hungry_Donkey_bar_English_2-138-1	60.016	-120	1.0.0.18	1	1924596460	Standard	2.0.10.353	2.0.10.353	04-15-2016	4/15/2016 9:34:07 PM	17:34:07	2.0.10.248	78	Bar50-50.bmp	44	2	?	0r_4g.bmp	0r_4g.bmp	0r_2g.bmp	0r_2g.bmp		0r_4g.bmp			TrialProc	TrialList	0	cvbn	-999999	16	249397	0	v	314	249711	240	-305	-65	-6	-88	7	22	10	8	78	0	0	0	0	4	4	2	2	0	4
Hungry_Donkey_bar_English_2	138	1	<?xml version="1.0"?>\n<Clock xmlns:dt="urn:schemas-microsoft-com:datatypes"><Description dt:dt="string">E-Prime Primary Realtime Clock</Description><StartTime><Timestamp dt:dt="int">0</Timestamp><DateUtc dt:dt="string">2016-04-15T21:34:07Z</DateUtc></StartTime><FrequencyChanges><FrequencyChange><Frequency dt:dt="r8">3507578</Frequency><Timestamp dt:dt="r8">14808792991</Timestamp><Current dt:dt="r8">0</Current><DateUtc dt:dt="string">2016-04-15T21:34:07Z</DateUtc></FrequencyChange></FrequencyChanges></Clock>\n	Hungry_Donkey_bar_English_2-138-1	60.016	-120	1.0.0.18	1	1924596460	Standard	2.0.10.353	2.0.10.353	04-15-2016	4/15/2016 9:34:07 PM	17:34:07	2.0.10.248	79	Bar50-50.bmp	44	2	?	0r_4g.bmp	0r_4g.bmp	0r_2g.bmp	0r_2g.bmp		0r_4g.bmp			TrialProc	TrialList	0	cvbn	-999999	16	251746	0	v	253	251999	244	-305	-61	-6	-84	7	22	6	8	79	0	0	0	0	4	4	2	2	0	4
Hungry_Donkey_bar_English_2	138	1	<?xml version="1.0"?>\n<Clock xmlns:dt="urn:schemas-microsoft-com:datatypes"><Description dt:dt="string">E-Prime Primary Realtime Clock</Description><StartTime><Timestamp dt:dt="int">0</Timestamp><DateUtc dt:dt="string">2016-04-15T21:34:07Z</DateUtc></StartTime><FrequencyChanges><FrequencyChange><Frequency dt:dt="r8">3507578</Frequency><Timestamp dt:dt="r8">14808792991</Timestamp><Current dt:dt="r8">0</Current><DateUtc dt:dt="string">2016-04-15T21:34:07Z</DateUtc></FrequencyChange></FrequencyChanges></Clock>\n	Hungry_Donkey_bar_English_2-138-1	60.016	-120	1.0.0.18	1	1924596460	Standard	2.0.10.353	2.0.10.353	04-15-2016	4/15/2016 9:34:07 PM	17:34:07	2.0.10.248	80	Bar50-50.bmp	45	2	?	10r_4g.bmp	0r_4g.bmp	2r_2g.bmp	0r_2g.bmp		0r_4g.bmp			TrialProc	TrialList	0	cvbn	-999999	16	254029	0	v	338	254367	248	-305	-57	-6	-80	7	22	3	8	80	-10	0	-2	0	4	4	2	2	0	4
Hungry_Donkey_bar_English_2	138	1	<?xml version="1.0"?>\n<Clock xmlns:dt="urn:schemas-microsoft-com:datatypes"><Description dt:dt="string">E-Prime Primary Realtime Clock</Description><StartTime><Timestamp dt:dt="int">0</Timestamp><DateUtc dt:dt="string">2016-04-15T21:34:07Z</DateUtc></StartTime><FrequencyChanges><FrequencyChange><Frequency dt:dt="r8">3507578</Frequency><Timestamp dt:dt="r8">14808792991</Timestamp><Current dt:dt="r8">0</Current><DateUtc dt:dt="string">2016-04-15T21:34:07Z</DateUtc></FrequencyChange></FrequencyChanges></Clock>\n	Hungry_Donkey_bar_English_2-138-1	60.016	-120	1.0.0.18	1	1924596460	Standard	2.0.10.353	2.0.10.353	04-15-2016	4/15/2016 9:34:07 PM	17:34:07	2.0.10.248	81	Bar50-50.bmp	45	2	?	10r_4g.bmp	0r_4g.bmp	2r_2g.bmp	0r_2g.bmp		0r_4g.bmp			TrialProc	TrialList	0	cvbn	-999999	16	256395	0	v	324	256719	252	-305	-53	-6	-76	7	22	4	9	81	-10	0	-2	0	4	4	2	2	0	4
Hungry_Donkey_bar_English_2	138	1	<?xml version="1.0"?>\n<Clock xmlns:dt="urn:schemas-microsoft-com:datatypes"><Description dt:dt="string">E-Prime Primary Realtime Clock</Description><StartTime><Timestamp dt:dt="int">0</Timestamp><DateUtc dt:dt="string">2016-04-15T21:34:07Z</DateUtc></StartTime><FrequencyChanges><FrequencyChange><Frequency dt:dt="r8">3507578</Frequency><Timestamp dt:dt="r8">14808792991</Timestamp><Current dt:dt="r8">0</Current><DateUtc dt:dt="string">2016-04-15T21:34:07Z</DateUtc></FrequencyChange></FrequencyChanges></Clock>\n	Hungry_Donkey_bar_English_2-138-1	60.016	-120	1.0.0.18	1	1924596460	Standard	2.0.10.353	2.0.10.353	04-15-2016	4/15/2016 9:34:07 PM	17:34:07	2.0.10.248	82	Bar37-63.bmp	42	2	?	8r_4g.bmp	50r_4g.bmp	1r_2g.bmp	10r_2g.bmp		50r_4g.bmp			TrialProc	TrialList	0	cvbn	-999999	16	258761	0	v	358	259119	256	-355	-99	-6	-122	7	22	1	9	82	-8	-50	-1	-10	4	4	2	2	-50	4
Hungry_Donkey_bar_English_2	138	1	<?xml version="1.0"?>\n<Clock xmlns:dt="urn:schemas-microsoft-com:datatypes"><Description dt:dt="string">E-Prime Primary Realtime Clock</Description><StartTime><Timestamp dt:dt="int">0</Timestamp><DateUtc dt:dt="string">2016-04-15T21:34:07Z</DateUtc></StartTime><FrequencyChanges><FrequencyChange><Frequency dt:dt="r8">3507578</Frequency><Timestamp dt:dt="r8">14808792991</Timestamp><Current dt:dt="r8">0</Current><DateUtc dt:dt="string">2016-04-15T21:34:07Z</DateUtc></FrequencyChange></FrequencyChanges></Clock>\n	Hungry_Donkey_bar_English_2-138-1	60.016	-120	1.0.0.18	1	1924596460	Standard	2.0.10.353	2.0.10.353	04-15-2016	4/15/2016 9:34:07 PM	17:34:07	2.0.10.248	83	Bar37-63.bmp	42	4	?	0r_4g.bmp	0r_4g.bmp	0r_2g.bmp	0r_2g.bmp				0r_2g.bmp	TrialProc	TrialList	0	cvbn	-999999	16	261144	0	n	375	261519	258	-355	-97	-6	-122	7	24	7	9	83	0	0	0	0	4	4	2	2	0	2
Hungry_Donkey_bar_English_2	138	1	<?xml version="1.0"?>\n<Clock xmlns:dt="urn:schemas-microsoft-com:datatypes"><Description dt:dt="string">E-Prime Primary Realtime Clock</Description><StartTime><Timestamp dt:dt="int">0</Timestamp><DateUtc dt:dt="string">2016-04-15T21:34:07Z</DateUtc></StartTime><FrequencyChanges><FrequencyChange><Frequency dt:dt="r8">3507578</Frequency><Timestamp dt:dt="r8">14808792991</Timestamp><Current dt:dt="r8">0</Current><DateUtc dt:dt="string">2016-04-15T21:34:07Z</DateUtc></FrequencyChange></FrequencyChanges></Clock>\n	Hungry_Donkey_bar_English_2-138-1	60.016	-120	1.0.0.18	1	1924596460	Standard	2.0.10.353	2.0.10.353	04-15-2016	4/15/2016 9:34:07 PM	17:34:07	2.0.10.248	84	Bar37-63.bmp	42	4	?	10r_4g.bmp	0r_4g.bmp	2r_2g.bmp	0r_2g.bmp				0r_2g.bmp	TrialProc	TrialList	0	cvbn	-999999	16	263543	0	n	520	264063	260	-355	-95	-6	-122	7	26	3	9	84	-10	0	-2	0	4	4	2	2	0	2
Hungry_Donkey_bar_English_2	138	1	<?xml version="1.0"?>\n<Clock xmlns:dt="urn:schemas-microsoft-com:datatypes"><Description dt:dt="string">E-Prime Primary Realtime Clock</Description><StartTime><Timestamp dt:dt="int">0</Timestamp><DateUtc dt:dt="string">2016-04-15T21:34:07Z</DateUtc></StartTime><FrequencyChanges><FrequencyChange><Frequency dt:dt="r8">3507578</Frequency><Timestamp dt:dt="r8">14808792991</Timestamp><Current dt:dt="r8">0</Current><DateUtc dt:dt="string">2016-04-15T21:34:07Z</DateUtc></FrequencyChange></FrequencyChanges></Clock>\n	Hungry_Donkey_bar_English_2-138-1	60.016	-120	1.0.0.18	1	1924596460	Standard	2.0.10.353	2.0.10.353	04-15-2016	4/15/2016 9:34:07 PM	17:34:07	2.0.10.248	85	Bar37-63.bmp	42	4	?	10r_4g.bmp	0r_4g.bmp	2r_2g.bmp	0r_2g.bmp				0r_2g.bmp	TrialProc	TrialList	0	cvbn	-999999	16	266092	0	n	323	266415	262	-355	-93	-6	-122	7	28	2	9	85	-10	0	-2	0	4	4	2	2	0	2
Hungry_Donkey_bar_English_2	138	1	<?xml version="1.0"?>\n<Clock xmlns:dt="urn:schemas-microsoft-com:datatypes"><Description dt:dt="string">E-Prime Primary Realtime Clock</Description><StartTime><Timestamp dt:dt="int">0</Timestamp><DateUtc dt:dt="string">2016-04-15T21:34:07Z</DateUtc></StartTime><FrequencyChanges><FrequencyChange><Frequency dt:dt="r8">3507578</Frequency><Timestamp dt:dt="r8">14808792991</Timestamp><Current dt:dt="r8">0</Current><DateUtc dt:dt="string">2016-04-15T21:34:07Z</DateUtc></FrequencyChange></FrequencyChanges></Clock>\n	Hungry_Donkey_bar_English_2-138-1	60.016	-120	1.0.0.18	1	1924596460	Standard	2.0.10.353	2.0.10.353	04-15-2016	4/15/2016 9:34:07 PM	17:34:07	2.0.10.248	86	Bar37-63.bmp	43	4	?	0r_4g.bmp	0r_4g.bmp	0r_2g.bmp	0r_2g.bmp				0r_2g.bmp	TrialProc	TrialList	0	cvbn	-999999	16	268442	0	n	69	268511	264	-355	-91	-6	-122	7	30	8	9	86	0	0	0	0	4	4	2	2	0	2
Hungry_Donkey_bar_English_2	138	1	<?xml version="1.0"?>\n<Clock xmlns:dt="urn:schemas-microsoft-com:datatypes"><Description dt:dt="string">E-Prime Primary Realtime Clock</Description><StartTime><Timestamp dt:dt="int">0</Timestamp><DateUtc dt:dt="string">2016-04-15T21:34:07Z</DateUtc></StartTime><FrequencyChanges><FrequencyChange><Frequency dt:dt="r8">3507578</Frequency><Timestamp dt:dt="r8">14808792991</Timestamp><Current dt:dt="r8">0</Current><DateUtc dt:dt="string">2016-04-15T21:34:07Z</DateUtc></FrequencyChange></FrequencyChanges></Clock>\n	Hungry_Donkey_bar_English_2-138-1	60.016	-120	1.0.0.18	1	1924596460	Standard	2.0.10.353	2.0.10.353	04-15-2016	4/15/2016 9:34:07 PM	17:34:07	2.0.10.248	87	Bar37-63.bmp	43	4	?	0r_4g.bmp	0r_4g.bmp	0r_2g.bmp	0r_2g.bmp				0r_2g.bmp	TrialProc	TrialList	0	cvbn	-999999	16	270541	0	n	226	270767	266	-355	-89	-6	-122	7	32	6	9	87	0	0	0	0	4	4	2	2	0	2
Hungry_Donkey_bar_English_2	138	1	<?xml version="1.0"?>\n<Clock xmlns:dt="urn:schemas-microsoft-com:datatypes"><Description dt:dt="string">E-Prime Primary Realtime Clock</Description><StartTime><Timestamp dt:dt="int">0</Timestamp><DateUtc dt:dt="string">2016-04-15T21:34:07Z</DateUtc></StartTime><FrequencyChanges><FrequencyChange><Frequency dt:dt="r8">3507578</Frequency><Timestamp dt:dt="r8">14808792991</Timestamp><Current dt:dt="r8">0</Current><DateUtc dt:dt="string">2016-04-15T21:34:07Z</DateUtc></FrequencyChange></FrequencyChanges></Clock>\n	Hungry_Donkey_bar_English_2-138-1	60.016	-120	1.0.0.18	1	1924596460	Standard	2.0.10.353	2.0.10.353	04-15-2016	4/15/2016 9:34:07 PM	17:34:07	2.0.10.248	88	Bar37-63.bmp	43	4	?	0r_4g.bmp	0r_4g.bmp	0r_2g.bmp	0r_2g.bmp				0r_2g.bmp	TrialProc	TrialList	0	cvbn	-999999	16	272791	0	n	264	273055	268	-355	-87	-6	-122	7	34	10	9	88	0	0	0	0	4	4	2	2	0	2
Hungry_Donkey_bar_English_2	138	1	<?xml version="1.0"?>\n<Clock xmlns:dt="urn:schemas-microsoft-com:datatypes"><Description dt:dt="string">E-Prime Primary Realtime Clock</Description><StartTime><Timestamp dt:dt="int">0</Timestamp><DateUtc dt:dt="string">2016-04-15T21:34:07Z</DateUtc></StartTime><FrequencyChanges><FrequencyChange><Frequency dt:dt="r8">3507578</Frequency><Timestamp dt:dt="r8">14808792991</Timestamp><Current dt:dt="r8">0</Current><DateUtc dt:dt="string">2016-04-15T21:34:07Z</DateUtc></FrequencyChange></FrequencyChanges></Clock>\n	Hungry_Donkey_bar_English_2-138-1	60.016	-120	1.0.0.18	1	1924596460	Standard	2.0.10.353	2.0.10.353	04-15-2016	4/15/2016 9:34:07 PM	17:34:07	2.0.10.248	89	Bar37-63.bmp	43	4	?	12r_4g.bmp	0r_4g.bmp	3r_2g.bmp	0r_2g.bmp				0r_2g.bmp	TrialProc	TrialList	0	cvbn	-999999	16	275090	0	n	493	275583	270	-355	-85	-6	-122	7	36	5	9	89	-12	0	-3	0	4	4	2	2	0	2
Hungry_Donkey_bar_English_2	138	1	<?xml version="1.0"?>\n<Clock xmlns:dt="urn:schemas-microsoft-com:datatypes"><Description dt:dt="string">E-Prime Primary Realtime Clock</Description><StartTime><Timestamp dt:dt="int">0</Timestamp><DateUtc dt:dt="string">2016-04-15T21:34:07Z</DateUtc></StartTime><FrequencyChanges><FrequencyChange><Frequency dt:dt="r8">3507578</Frequency><Timestamp dt:dt="r8">14808792991</Timestamp><Current dt:dt="r8">0</Current><DateUtc dt:dt="string">2016-04-15T21:34:07Z</DateUtc></FrequencyChange></FrequencyChanges></Clock>\n	Hungry_Donkey_bar_English_2-138-1	60.016	-120	1.0.0.18	1	1924596460	Standard	2.0.10.353	2.0.10.353	04-15-2016	4/15/2016 9:34:07 PM	17:34:07	2.0.10.248	90	Bar37-63.bmp	43	4	?	0r_4g.bmp	0r_4g.bmp	0r_2g.bmp	0r_2g.bmp				0r_2g.bmp	TrialProc	TrialList	0	cvbn	-999999	15	277606	0	n	345	277951	272	-355	-83	-6	-122	7	38	9	9	90	0	0	0	0	4	4	2	2	0	2
Hungry_Donkey_bar_English_2	138	1	<?xml version="1.0"?>\n<Clock xmlns:dt="urn:schemas-microsoft-com:datatypes"><Description dt:dt="string">E-Prime Primary Realtime Clock</Description><StartTime><Timestamp dt:dt="int">0</Timestamp><DateUtc dt:dt="string">2016-04-15T21:34:07Z</DateUtc></StartTime><FrequencyChanges><FrequencyChange><Frequency dt:dt="r8">3507578</Frequency><Timestamp dt:dt="r8">14808792991</Timestamp><Current dt:dt="r8">0</Current><DateUtc dt:dt="string">2016-04-15T21:34:07Z</DateUtc></FrequencyChange></FrequencyChanges></Clock>\n	Hungry_Donkey_bar_English_2-138-1	60.016	-120	1.0.0.18	1	1924596460	Standard	2.0.10.353	2.0.10.353	04-15-2016	4/15/2016 9:34:07 PM	17:34:07	2.0.10.248	91	Bar50-50.bmp	44	4	?	0r_4g.bmp	0r_4g.bmp	0r_2g.bmp	0r_2g.bmp				0r_2g.bmp	TrialProc	TrialList	0	cvbn	-999999	16	279989	0	n	234	280223	274	-355	-81	-6	-122	7	40	6	10	91	0	0	0	0	4	4	2	2	0	2
Hungry_Donkey_bar_English_2	138	1	<?xml version="1.0"?>\n<Clock xmlns:dt="urn:schemas-microsoft-com:datatypes"><Description dt:dt="string">E-Prime Primary Realtime Clock</Description><StartTime><Timestamp dt:dt="int">0</Timestamp><DateUtc dt:dt="string">2016-04-15T21:34:07Z</DateUtc></StartTime><FrequencyChanges><FrequencyChange><Frequency dt:dt="r8">3507578</Frequency><Timestamp dt:dt="r8">14808792991</Timestamp><Current dt:dt="r8">0</Current><DateUtc dt:dt="string">2016-04-15T21:34:07Z</DateUtc></FrequencyChange></FrequencyChanges></Clock>\n	Hungry_Donkey_bar_English_2-138-1	60.016	-120	1.0.0.18	1	1924596460	Standard	2.0.10.353	2.0.10.353	04-15-2016	4/15/2016 9:34:07 PM	17:34:07	2.0.10.248	92	Bar50-50.bmp	44	4	?	10r_4g.bmp	0r_4g.bmp	2r_2g.bmp	0r_2g.bmp				0r_2g.bmp	TrialProc	TrialList	0	cvbn	-999999	16	282255	0	n	592	282847	276	-355	-79	-6	-122	7	42	3	10	92	-10	0	-2	0	4	4	2	2	0	2
Hungry_Donkey_bar_English_2	138	1	<?xml version="1.0"?>\n<Clock xmlns:dt="urn:schemas-microsoft-com:datatypes"><Description dt:dt="string">E-Prime Primary Realtime Clock</Description><StartTime><Timestamp dt:dt="int">0</Timestamp><DateUtc dt:dt="string">2016-04-15T21:34:07Z</DateUtc></StartTime><FrequencyChanges><FrequencyChange><Frequency dt:dt="r8">3507578</Frequency><Timestamp dt:dt="r8">14808792991</Timestamp><Current dt:dt="r8">0</Current><DateUtc dt:dt="string">2016-04-15T21:34:07Z</DateUtc></FrequencyChange></FrequencyChanges></Clock>\n	Hungry_Donkey_bar_English_2-138-1	60.016	-120	1.0.0.18	1	1924596460	Standard	2.0.10.353	2.0.10.353	04-15-2016	4/15/2016 9:34:07 PM	17:34:07	2.0.10.248	93	Bar37-63.bmp	43	4	?	8r_4g.bmp	50r_4g.bmp	1r_2g.bmp	10r_2g.bmp				10r_2g.bmp	TrialProc	TrialList	0	cvbn	-999999	17	284888	0	n	407	285295	278	-365	-87	-6	-122	7	34	1	10	93	-8	-50	-1	-10	4	4	2	2	-10	2
Hungry_Donkey_bar_English_2	138	1	<?xml version="1.0"?>\n<Clock xmlns:dt="urn:schemas-microsoft-com:datatypes"><Description dt:dt="string">E-Prime Primary Realtime Clock</Description><StartTime><Timestamp dt:dt="int">0</Timestamp><DateUtc dt:dt="string">2016-04-15T21:34:07Z</DateUtc></StartTime><FrequencyChanges><FrequencyChange><Frequency dt:dt="r8">3507578</Frequency><Timestamp dt:dt="r8">14808792991</Timestamp><Current dt:dt="r8">0</Current><DateUtc dt:dt="string">2016-04-15T21:34:07Z</DateUtc></FrequencyChange></FrequencyChanges></Clock>\n	Hungry_Donkey_bar_English_2-138-1	60.016	-120	1.0.0.18	1	1924596460	Standard	2.0.10.353	2.0.10.353	04-15-2016	4/15/2016 9:34:07 PM	17:34:07	2.0.10.248	94	Bar50-50.bmp	44	1	?	0r_4g.bmp	0r_4g.bmp	0r_2g.bmp	0r_2g.bmp	0r_4g.bmp				TrialProc	TrialList	0	cvbn	-999999	16	287320	0	c	311	287631	282	-365	-83	-2	-122	7	34	7	10	94	0	0	0	0	4	4	2	2	0	4
Hungry_Donkey_bar_English_2	138	1	<?xml version="1.0"?>\n<Clock xmlns:dt="urn:schemas-microsoft-com:datatypes"><Description dt:dt="string">E-Prime Primary Realtime Clock</Description><StartTime><Timestamp dt:dt="int">0</Timestamp><DateUtc dt:dt="string">2016-04-15T21:34:07Z</DateUtc></StartTime><FrequencyChanges><FrequencyChange><Frequency dt:dt="r8">3507578</Frequency><Timestamp dt:dt="r8">14808792991</Timestamp><Current dt:dt="r8">0</Current><DateUtc dt:dt="string">2016-04-15T21:34:07Z</DateUtc></FrequencyChange></FrequencyChanges></Clock>\n	Hungry_Donkey_bar_English_2-138-1	60.016	-120	1.0.0.18	1	1924596460	Standard	2.0.10.353	2.0.10.353	04-15-2016	4/15/2016 9:34:07 PM	17:34:07	2.0.10.248	95	Bar50-50.bmp	44	1	?	0r_4g.bmp	0r_4g.bmp	0r_2g.bmp	0r_2g.bmp	0r_4g.bmp				TrialProc	TrialList	0	cvbn	-999999	16	289670	0	c	280	289950	286	-365	-79	2	-122	7	34	9	10	95	0	0	0	0	4	4	2	2	0	4
Hungry_Donkey_bar_English_2	138	1	<?xml version="1.0"?>\n<Clock xmlns:dt="urn:schemas-microsoft-com:datatypes"><Description dt:dt="string">E-Prime Primary Realtime Clock</Description><StartTime><Timestamp dt:dt="int">0</Timestamp><DateUtc dt:dt="string">2016-04-15T21:34:07Z</DateUtc></StartTime><FrequencyChanges><FrequencyChange><Frequency dt:dt="r8">3507578</Frequency><Timestamp dt:dt="r8">14808792991</Timestamp><Current dt:dt="r8">0</Current><DateUtc dt:dt="string">2016-04-15T21:34:07Z</DateUtc></FrequencyChange></FrequencyChanges></Clock>\n	Hungry_Donkey_bar_English_2-138-1	60.016	-120	1.0.0.18	1	1924596460	Standard	2.0.10.353	2.0.10.353	04-15-2016	4/15/2016 9:34:07 PM	17:34:07	2.0.10.248	96	Bar50-50.bmp	44	1	?	10r_4g.bmp	0r_4g.bmp	2r_2g.bmp	0r_2g.bmp	10r_4g.bmp				TrialProc	TrialList	0	cvbn	-999999	16	291986	0	c	428	292414	290	-375	-85	-4	-122	7	34	4	10	96	-10	0	-2	0	4	4	2	2	-10	4
Hungry_Donkey_bar_English_2	138	1	<?xml version="1.0"?>\n<Clock xmlns:dt="urn:schemas-microsoft-com:datatypes"><Description dt:dt="string">E-Prime Primary Realtime Clock</Description><StartTime><Timestamp dt:dt="int">0</Timestamp><DateUtc dt:dt="string">2016-04-15T21:34:07Z</DateUtc></StartTime><FrequencyChanges><FrequencyChange><Frequency dt:dt="r8">3507578</Frequency><Timestamp dt:dt="r8">14808792991</Timestamp><Current dt:dt="r8">0</Current><DateUtc dt:dt="string">2016-04-15T21:34:07Z</DateUtc></FrequencyChange></FrequencyChanges></Clock>\n	Hungry_Donkey_bar_English_2-138-1	60.016	-120	1.0.0.18	1	1924596460	Standard	2.0.10.353	2.0.10.353	04-15-2016	4/15/2016 9:34:07 PM	17:34:07	2.0.10.248	97	Bar50-50.bmp	44	2	?	10r_4g.bmp	0r_4g.bmp	2r_2g.bmp	0r_2g.bmp		0r_4g.bmp			TrialProc	TrialList	0	cvbn	-999999	16	294452	0	v	154	294606	294	-375	-81	-4	-118	7	34	2	10	97	-10	0	-2	0	4	4	2	2	0	4
Hungry_Donkey_bar_English_2	138	1	<?xml version="1.0"?>\n<Clock xmlns:dt="urn:schemas-microsoft-com:datatypes"><Description dt:dt="string">E-Prime Primary Realtime Clock</Description><StartTime><Timestamp dt:dt="int">0</Timestamp><DateUtc dt:dt="string">2016-04-15T21:34:07Z</DateUtc></StartTime><FrequencyChanges><FrequencyChange><Frequency dt:dt="r8">3507578</Frequency><Timestamp dt:dt="r8">14808792991</Timestamp><Current dt:dt="r8">0</Current><DateUtc dt:dt="string">2016-04-15T21:34:07Z</DateUtc></FrequencyChange></FrequencyChanges></Clock>\n	Hungry_Donkey_bar_English_2-138-1	60.016	-120	1.0.0.18	1	1924596460	Standard	2.0.10.353	2.0.10.353	04-15-2016	4/15/2016 9:34:07 PM	17:34:07	2.0.10.248	98	Bar50-50.bmp	44	2	?	0r_4g.bmp	0r_4g.bmp	0r_2g.bmp	0r_2g.bmp		0r_4g.bmp			TrialProc	TrialList	0	cvbn	-999999	17	296635	0	v	67	296702	298	-375	-77	-4	-114	7	34	8	10	98	0	0	0	0	4	4	2	2	0	4
Hungry_Donkey_bar_English_2	138	1	<?xml version="1.0"?>\n<Clock xmlns:dt="urn:schemas-microsoft-com:datatypes"><Description dt:dt="string">E-Prime Primary Realtime Clock</Description><StartTime><Timestamp dt:dt="int">0</Timestamp><DateUtc dt:dt="string">2016-04-15T21:34:07Z</DateUtc></StartTime><FrequencyChanges><FrequencyChange><Frequency dt:dt="r8">3507578</Frequency><Timestamp dt:dt="r8">14808792991</Timestamp><Current dt:dt="r8">0</Current><DateUtc dt:dt="string">2016-04-15T21:34:07Z</DateUtc></FrequencyChange></FrequencyChanges></Clock>\n	Hungry_Donkey_bar_English_2-138-1	60.016	-120	1.0.0.18	1	1924596460	Standard	2.0.10.353	2.0.10.353	04-15-2016	4/15/2016 9:34:07 PM	17:34:07	2.0.10.248	99	Bar50-50.bmp	45	2	?	12r_4g.bmp	0r_4g.bmp	3r_2g.bmp	0r_2g.bmp		0r_4g.bmp			TrialProc	TrialList	0	cvbn	-999999	16	298734	0	v	64	298798	302	-375	-73	-4	-110	7	34	5	10	99	-12	0	-3	0	4	4	2	2	0	4
Hungry_Donkey_bar_English_2	138	1	<?xml version="1.0"?>\n<Clock xmlns:dt="urn:schemas-microsoft-com:datatypes"><Description dt:dt="string">E-Prime Primary Realtime Clock</Description><StartTime><Timestamp dt:dt="int">0</Timestamp><DateUtc dt:dt="string">2016-04-15T21:34:07Z</DateUtc></StartTime><FrequencyChanges><FrequencyChange><Frequency dt:dt="r8">3507578</Frequency><Timestamp dt:dt="r8">14808792991</Timestamp><Current dt:dt="r8">0</Current><DateUtc dt:dt="string">2016-04-15T21:34:07Z</DateUtc></FrequencyChange></FrequencyChanges></Clock>\n	Hungry_Donkey_bar_English_2-138-1	60.016	-120	1.0.0.18	1	1924596460	Standard	2.0.10.353	2.0.10.353	04-15-2016	4/15/2016 9:34:07 PM	17:34:07	2.0.10.248	100	Bar50-50.bmp	45	2	?	0r_4g.bmp	0r_4g.bmp	0r_2g.bmp	0r_2g.bmp		0r_4g.bmp			TrialProc	TrialList	0	cvbn	-999999	16	300833	0	v	1245	302078	306	-375	-69	-4	-106	7	34	10	10	100	0	0	0	0	4	4	2	2	0	4
Hungry_Donkey_bar_English_2	138	1	<?xml version="1.0"?>\n<Clock xmlns:dt="urn:schemas-microsoft-com:datatypes"><Description dt:dt="string">E-Prime Primary Realtime Clock</Description><StartTime><Timestamp dt:dt="int">0</Timestamp><DateUtc dt:dt="string">2016-04-15T21:34:07Z</DateUtc></StartTime><FrequencyChanges><FrequencyChange><Frequency dt:dt="r8">3507578</Frequency><Timestamp dt:dt="r8">14808792991</Timestamp><Current dt:dt="r8">0</Current><DateUtc dt:dt="string">2016-04-15T21:34:07Z</DateUtc></FrequencyChange></FrequencyChanges></Clock>\n	Hungry_Donkey_bar_English_2-138-1	60.016	-120	1.0.0.18	1	1924596460	Standard	2.0.10.353	2.0.10.353	04-15-2016	4/15/2016 9:34:07 PM	17:34:07	2.0.10.248	101	Bar50-50.bmp	45	2	?	0r_4g.bmp	0r_4g.bmp	0r_2g.bmp	0r_2g.bmp		0r_4g.bmp			TrialProc	TrialList	0	cvbn	-999999	16	304116	0	v	394	304510	310	-375	-65	-4	-102	7	34	10	11	101	0	0	0	0	4	4	2	2	0	4
Hungry_Donkey_bar_English_2	138	1	<?xml version="1.0"?>\n<Clock xmlns:dt="urn:schemas-microsoft-com:datatypes"><Description dt:dt="string">E-Prime Primary Realtime Clock</Description><StartTime><Timestamp dt:dt="int">0</Timestamp><DateUtc dt:dt="string">2016-04-15T21:34:07Z</DateUtc></StartTime><FrequencyChanges><FrequencyChange><Frequency dt:dt="r8">3507578</Frequency><Timestamp dt:dt="r8">14808792991</Timestamp><Current dt:dt="r8">0</Current><DateUtc dt:dt="string">2016-04-15T21:34:07Z</DateUtc></FrequencyChange></FrequencyChanges></Clock>\n	Hungry_Donkey_bar_English_2-138-1	60.016	-120	1.0.0.18	1	1924596460	Standard	2.0.10.353	2.0.10.353	04-15-2016	4/15/2016 9:34:07 PM	17:34:07	2.0.10.248	102	Bar50-50.bmp	45	4	?	0r_4g.bmp	0r_4g.bmp	0r_2g.bmp	0r_2g.bmp				0r_2g.bmp	TrialProc	TrialList	0	cvbn	-999999	16	306549	0	n	601	307150	312	-375	-63	-4	-102	7	36	8	11	102	0	0	0	0	4	4	2	2	0	2
Hungry_Donkey_bar_English_2	138	1	<?xml version="1.0"?>\n<Clock xmlns:dt="urn:schemas-microsoft-com:datatypes"><Description dt:dt="string">E-Prime Primary Realtime Clock</Description><StartTime><Timestamp dt:dt="int">0</Timestamp><DateUtc dt:dt="string">2016-04-15T21:34:07Z</DateUtc></StartTime><FrequencyChanges><FrequencyChange><Frequency dt:dt="r8">3507578</Frequency><Timestamp dt:dt="r8">14808792991</Timestamp><Current dt:dt="r8">0</Current><DateUtc dt:dt="string">2016-04-15T21:34:07Z</DateUtc></FrequencyChange></FrequencyChanges></Clock>\n	Hungry_Donkey_bar_English_2-138-1	60.016	-120	1.0.0.18	1	1924596460	Standard	2.0.10.353	2.0.10.353	04-15-2016	4/15/2016 9:34:07 PM	17:34:07	2.0.10.248	103	Bar50-50.bmp	46	2	?	0r_4g.bmp	0r_4g.bmp	0r_2g.bmp	0r_2g.bmp		0r_4g.bmp			TrialProc	TrialList	0	cvbn	-999999	16	309181	0	v	465	309646	316	-375	-59	-4	-98	7	36	9	11	103	0	0	0	0	4	4	2	2	0	4
Hungry_Donkey_bar_English_2	138	1	<?xml version="1.0"?>\n<Clock xmlns:dt="urn:schemas-microsoft-com:datatypes"><Description dt:dt="string">E-Prime Primary Realtime Clock</Description><StartTime><Timestamp dt:dt="int">0</Timestamp><DateUtc dt:dt="string">2016-04-15T21:34:07Z</DateUtc></StartTime><FrequencyChanges><FrequencyChange><Frequency dt:dt="r8">3507578</Frequency><Timestamp dt:dt="r8">14808792991</Timestamp><Current dt:dt="r8">0</Current><DateUtc dt:dt="string">2016-04-15T21:34:07Z</DateUtc></FrequencyChange></FrequencyChanges></Clock>\n	Hungry_Donkey_bar_English_2-138-1	60.016	-120	1.0.0.18	1	1924596460	Standard	2.0.10.353	2.0.10.353	04-15-2016	4/15/2016 9:34:07 PM	17:34:07	2.0.10.248	104	Bar50-50.bmp	46	3	?	0r_4g.bmp	0r_4g.bmp	0r_2g.bmp	0r_2g.bmp			0r_2g.bmp		TrialProc	TrialList	0	cvbn	-999999	16	311681	0	b	349	312030	318	-375	-57	-4	-98	9	36	7	11	104	0	0	0	0	4	4	2	2	0	2
Hungry_Donkey_bar_English_2	138	1	<?xml version="1.0"?>\n<Clock xmlns:dt="urn:schemas-microsoft-com:datatypes"><Description dt:dt="string">E-Prime Primary Realtime Clock</Description><StartTime><Timestamp dt:dt="int">0</Timestamp><DateUtc dt:dt="string">2016-04-15T21:34:07Z</DateUtc></StartTime><FrequencyChanges><FrequencyChange><Frequency dt:dt="r8">3507578</Frequency><Timestamp dt:dt="r8">14808792991</Timestamp><Current dt:dt="r8">0</Current><DateUtc dt:dt="string">2016-04-15T21:34:07Z</DateUtc></FrequencyChange></FrequencyChanges></Clock>\n	Hungry_Donkey_bar_English_2-138-1	60.016	-120	1.0.0.18	1	1924596460	Standard	2.0.10.353	2.0.10.353	04-15-2016	4/15/2016 9:34:07 PM	17:34:07	2.0.10.248	105	Bar50-50.bmp	46	2	?	10r_4g.bmp	0r_4g.bmp	2r_2g.bmp	0r_2g.bmp		0r_4g.bmp			TrialProc	TrialList	0	cvbn	-999999	16	314063	0	v	239	314302	322	-375	-53	-4	-94	9	36	3	11	105	-10	0	-2	0	4	4	2	2	0	4
Hungry_Donkey_bar_English_2	138	1	<?xml version="1.0"?>\n<Clock xmlns:dt="urn:schemas-microsoft-com:datatypes"><Description dt:dt="string">E-Prime Primary Realtime Clock</Description><StartTime><Timestamp dt:dt="int">0</Timestamp><DateUtc dt:dt="string">2016-04-15T21:34:07Z</DateUtc></StartTime><FrequencyChanges><FrequencyChange><Frequency dt:dt="r8">3507578</Frequency><Timestamp dt:dt="r8">14808792991</Timestamp><Current dt:dt="r8">0</Current><DateUtc dt:dt="string">2016-04-15T21:34:07Z</DateUtc></FrequencyChange></FrequencyChanges></Clock>\n	Hungry_Donkey_bar_English_2-138-1	60.016	-120	1.0.0.18	1	1924596460	Standard	2.0.10.353	2.0.10.353	04-15-2016	4/15/2016 9:34:07 PM	17:34:07	2.0.10.248	106	Bar50-50.bmp	46	4	?	12r_4g.bmp	0r_4g.bmp	3r_2g.bmp	0r_2g.bmp				0r_2g.bmp	TrialProc	TrialList	0	cvbn	-999999	16	316329	0	n	21	316350	324	-375	-51	-4	-94	9	38	5	11	106	-12	0	-3	0	4	4	2	2	0	2
Hungry_Donkey_bar_English_2	138	1	<?xml version="1.0"?>\n<Clock xmlns:dt="urn:schemas-microsoft-com:datatypes"><Description dt:dt="string">E-Prime Primary Realtime Clock</Description><StartTime><Timestamp dt:dt="int">0</Timestamp><DateUtc dt:dt="string">2016-04-15T21:34:07Z</DateUtc></StartTime><FrequencyChanges><FrequencyChange><Frequency dt:dt="r8">3507578</Frequency><Timestamp dt:dt="r8">14808792991</Timestamp><Current dt:dt="r8">0</Current><DateUtc dt:dt="string">2016-04-15T21:34:07Z</DateUtc></FrequencyChange></FrequencyChanges></Clock>\n	Hungry_Donkey_bar_English_2-138-1	60.016	-120	1.0.0.18	1	1924596460	Standard	2.0.10.353	2.0.10.353	04-15-2016	4/15/2016 9:34:07 PM	17:34:07	2.0.10.248	107	Bar50-50.bmp	46	3	?	10r_4g.bmp	0r_4g.bmp	2r_2g.bmp	0r_2g.bmp			2r_2g.bmp		TrialProc	TrialList	0	cvbn	-999999	16	318379	0	b	627	319006	326	-377	-51	-4	-94	9	38	2	11	107	-10	0	-2	0	4	4	2	2	-2	2
Hungry_Donkey_bar_English_2	138	1	<?xml version="1.0"?>\n<Clock xmlns:dt="urn:schemas-microsoft-com:datatypes"><Description dt:dt="string">E-Prime Primary Realtime Clock</Description><StartTime><Timestamp dt:dt="int">0</Timestamp><DateUtc dt:dt="string">2016-04-15T21:34:07Z</DateUtc></StartTime><FrequencyChanges><FrequencyChange><Frequency dt:dt="r8">3507578</Frequency><Timestamp dt:dt="r8">14808792991</Timestamp><Current dt:dt="r8">0</Current><DateUtc dt:dt="string">2016-04-15T21:34:07Z</DateUtc></FrequencyChange></FrequencyChanges></Clock>\n	Hungry_Donkey_bar_English_2-138-1	60.016	-120	1.0.0.18	1	1924596460	Standard	2.0.10.353	2.0.10.353	04-15-2016	4/15/2016 9:34:07 PM	17:34:07	2.0.10.248	108	Bar50-50.bmp	47	4	?	10r_4g.bmp	0r_4g.bmp	2r_2g.bmp	0r_2g.bmp				0r_2g.bmp	TrialProc	TrialList	0	cvbn	-999999	16	321045	0	n	265	321310	328	-377	-49	-4	-94	9	40	4	11	108	-10	0	-2	0	4	4	2	2	0	2
Hungry_Donkey_bar_English_2	138	1	<?xml version="1.0"?>\n<Clock xmlns:dt="urn:schemas-microsoft-com:datatypes"><Description dt:dt="string">E-Prime Primary Realtime Clock</Description><StartTime><Timestamp dt:dt="int">0</Timestamp><DateUtc dt:dt="string">2016-04-15T21:34:07Z</DateUtc></StartTime><FrequencyChanges><FrequencyChange><Frequency dt:dt="r8">3507578</Frequency><Timestamp dt:dt="r8">14808792991</Timestamp><Current dt:dt="r8">0</Current><DateUtc dt:dt="string">2016-04-15T21:34:07Z</DateUtc></FrequencyChange></FrequencyChanges></Clock>\n	Hungry_Donkey_bar_English_2-138-1	60.016	-120	1.0.0.18	1	1924596460	Standard	2.0.10.353	2.0.10.353	04-15-2016	4/15/2016 9:34:07 PM	17:34:07	2.0.10.248	109	Bar50-50.bmp	47	1	?	0r_4g.bmp	0r_4g.bmp	0r_2g.bmp	0r_2g.bmp	0r_4g.bmp				TrialProc	TrialList	0	cvbn	-999999	16	323344	0	c	542	323886	332	-377	-45	0	-94	9	40	6	11	109	0	0	0	0	4	4	2	2	0	4
Hungry_Donkey_bar_English_2	138	1	<?xml version="1.0"?>\n<Clock xmlns:dt="urn:schemas-microsoft-com:datatypes"><Description dt:dt="string">E-Prime Primary Realtime Clock</Description><StartTime><Timestamp dt:dt="int">0</Timestamp><DateUtc dt:dt="string">2016-04-15T21:34:07Z</DateUtc></StartTime><FrequencyChanges><FrequencyChange><Frequency dt:dt="r8">3507578</Frequency><Timestamp dt:dt="r8">14808792991</Timestamp><Current dt:dt="r8">0</Current><DateUtc dt:dt="string">2016-04-15T21:34:07Z</DateUtc></FrequencyChange></FrequencyChanges></Clock>\n	Hungry_Donkey_bar_English_2-138-1	60.016	-120	1.0.0.18	1	1924596460	Standard	2.0.10.353	2.0.10.353	04-15-2016	4/15/2016 9:34:07 PM	17:34:07	2.0.10.248	110	Bar50-50.bmp	44	2	?	8r_4g.bmp	50r_4g.bmp	1r_2g.bmp	10r_2g.bmp		50r_4g.bmp			TrialProc	TrialList	0	cvbn	-999999	16	325910	0	v	360	326270	336	-427	-91	0	-140	9	40	1	11	110	-8	-50	-1	-10	4	4	2	2	-50	4
Hungry_Donkey_bar_English_2	138	1	<?xml version="1.0"?>\n<Clock xmlns:dt="urn:schemas-microsoft-com:datatypes"><Description dt:dt="string">E-Prime Primary Realtime Clock</Description><StartTime><Timestamp dt:dt="int">0</Timestamp><DateUtc dt:dt="string">2016-04-15T21:34:07Z</DateUtc></StartTime><FrequencyChanges><FrequencyChange><Frequency dt:dt="r8">3507578</Frequency><Timestamp dt:dt="r8">14808792991</Timestamp><Current dt:dt="r8">0</Current><DateUtc dt:dt="string">2016-04-15T21:34:07Z</DateUtc></FrequencyChange></FrequencyChanges></Clock>\n	Hungry_Donkey_bar_English_2-138-1	60.016	-120	1.0.0.18	1	1924596460	Standard	2.0.10.353	2.0.10.353	04-15-2016	4/15/2016 9:34:07 PM	17:34:07	2.0.10.248	111	Bar50-50.bmp	44	4	?	0r_4g.bmp	0r_4g.bmp	0r_2g.bmp	0r_2g.bmp				0r_2g.bmp	TrialProc	TrialList	0	cvbn	-999999	16	328310	0	n	408	328718	338	-427	-89	0	-140	9	42	8	12	111	0	0	0	0	4	4	2	2	0	2
