ExperimentName	Subject	Session	Clock.Information	DataFile.Basename	Display.RefreshRate	Eindtotaal[Session]	ExperimentVersion	Group	RandomSeed	RuntimeCapabilities	RuntimeVersion	RuntimeVersionExpected	SessionDate	SessionStartDateTimeUtc	SessionTime	StudioVersion	Block	BarImage	BarTotalWinst	DoorChoice	Eindtotaal[Block]	FBDoor1	FBDoor2	FBDoor3	FBDoor4	Image1	Image2	Image3	Image4	Procedure	Running	spel.ACC	spel.CRESP	spel.DurationError	spel.OnsetDelay	spel.OnsetTime	spel.OnsetToOnsetTime	spel.RESP	spel.RT	spel.RTTime	TotalGain	TotalLose	Totalsum	TotalsumD1	TotalsumD2	TotalsumD3	TotalsumD4	TrialList	TrialList.Cycle	TrialList.Sample	varV1	varV2	varV3	varV4	varW1	varW2	varW3	varW4	Verliesbedrag	Winstbedrag
Hungry_Donkey_bar_English_2	105	3	<?xml version="1.0"?>\n<Clock xmlns:dt="urn:schemas-microsoft-com:datatypes"><Description dt:dt="string">E-Prime Primary Realtime Clock</Description><StartTime><Timestamp dt:dt="int">0</Timestamp><DateUtc dt:dt="string">2015-05-29T21:36:12Z</DateUtc></StartTime><FrequencyChanges><FrequencyChange><Frequency dt:dt="r8">3507705</Frequency><Timestamp dt:dt="r8">3384070818</Timestamp><Current dt:dt="r8">0</Current><DateUtc dt:dt="string">2015-05-29T21:36:12Z</DateUtc></FrequencyChange></FrequencyChanges></Clock>\n	Hungry_Donkey_bar_English_2-105-3	60.007	105	1.0.0.18	1	-910215952	Standard	2.0.10.353	2.0.10.353	05-29-2015	5/29/2015 9:36:13 PM	17:36:13	2.0.10.248	1	Bar100-0.bmp	100	2	?	10r_4g.bmp	0r_4g.bmp	2r_2g.bmp	0r_2g.bmp		0r_4g.bmp			TrialProc	TrialList	0	cvbn	-999999	33	86675	0	v	2255	88930	4	0	4	0	4	0	0	3	1	1	-10	0	-2	0	4	4	2	2	0	4
Hungry_Donkey_bar_English_2	105	3	<?xml version="1.0"?>\n<Clock xmlns:dt="urn:schemas-microsoft-com:datatypes"><Description dt:dt="string">E-Prime Primary Realtime Clock</Description><StartTime><Timestamp dt:dt="int">0</Timestamp><DateUtc dt:dt="string">2015-05-29T21:36:12Z</DateUtc></StartTime><FrequencyChanges><FrequencyChange><Frequency dt:dt="r8">3507705</Frequency><Timestamp dt:dt="r8">3384070818</Timestamp><Current dt:dt="r8">0</Current><DateUtc dt:dt="string">2015-05-29T21:36:12Z</DateUtc></FrequencyChange></FrequencyChanges></Clock>\n	Hungry_Donkey_bar_English_2-105-3	60.007	105	1.0.0.18	1	-910215952	Standard	2.0.10.353	2.0.10.353	05-29-2015	5/29/2015 9:36:13 PM	17:36:13	2.0.10.248	2	Bar75-25.bmp	75	3	?	10r_4g.bmp	0r_4g.bmp	2r_2g.bmp	0r_2g.bmp			2r_2g.bmp		TrialProc	TrialList	0	cvbn	-999999	17	90975	0	b	1170	92145	6	-2	4	0	4	0	0	2	1	2	-10	0	-2	0	4	4	2	2	-2	2
Hungry_Donkey_bar_English_2	105	3	<?xml version="1.0"?>\n<Clock xmlns:dt="urn:schemas-microsoft-com:datatypes"><Description dt:dt="string">E-Prime Primary Realtime Clock</Description><StartTime><Timestamp dt:dt="int">0</Timestamp><DateUtc dt:dt="string">2015-05-29T21:36:12Z</DateUtc></StartTime><FrequencyChanges><FrequencyChange><Frequency dt:dt="r8">3507705</Frequency><Timestamp dt:dt="r8">3384070818</Timestamp><Current dt:dt="r8">0</Current><DateUtc dt:dt="string">2015-05-29T21:36:12Z</DateUtc></FrequencyChange></FrequencyChanges></Clock>\n	Hungry_Donkey_bar_English_2-105-3	60.007	105	1.0.0.18	1	-910215952	Standard	2.0.10.353	2.0.10.353	05-29-2015	5/29/2015 9:36:13 PM	17:36:13	2.0.10.248	3	Bar50-50.bmp	45	1	?	10r_4g.bmp	0r_4g.bmp	2r_2g.bmp	0r_2g.bmp	10r_4g.bmp				TrialProc	TrialList	0	cvbn	-999999	16	94174	0	c	3251	97425	10	-12	-2	-6	4	0	0	4	1	3	-10	0	-2	0	4	4	2	2	-10	4
Hungry_Donkey_bar_English_2	105	3	<?xml version="1.0"?>\n<Clock xmlns:dt="urn:schemas-microsoft-com:datatypes"><Description dt:dt="string">E-Prime Primary Realtime Clock</Description><StartTime><Timestamp dt:dt="int">0</Timestamp><DateUtc dt:dt="string">2015-05-29T21:36:12Z</DateUtc></StartTime><FrequencyChanges><FrequencyChange><Frequency dt:dt="r8">3507705</Frequency><Timestamp dt:dt="r8">3384070818</Timestamp><Current dt:dt="r8">0</Current><DateUtc dt:dt="string">2015-05-29T21:36:12Z</DateUtc></FrequencyChange></FrequencyChanges></Clock>\n	Hungry_Donkey_bar_English_2-105-3	60.007	105	1.0.0.18	1	-910215952	Standard	2.0.10.353	2.0.10.353	05-29-2015	5/29/2015 9:36:13 PM	17:36:13	2.0.10.248	4	Bar50-50.bmp	50	4	?	12r_4g.bmp	0r_4g.bmp	3r_2g.bmp	0r_2g.bmp				0r_2g.bmp	TrialProc	TrialList	0	cvbn	-999999	17	99457	0	n	1968	101425	12	-12	0	-6	4	0	2	5	1	4	-12	0	-3	0	4	4	2	2	0	2
Hungry_Donkey_bar_English_2	105	3	<?xml version="1.0"?>\n<Clock xmlns:dt="urn:schemas-microsoft-com:datatypes"><Description dt:dt="string">E-Prime Primary Realtime Clock</Description><StartTime><Timestamp dt:dt="int">0</Timestamp><DateUtc dt:dt="string">2015-05-29T21:36:12Z</DateUtc></StartTime><FrequencyChanges><FrequencyChange><Frequency dt:dt="r8">3507705</Frequency><Timestamp dt:dt="r8">3384070818</Timestamp><Current dt:dt="r8">0</Current><DateUtc dt:dt="string">2015-05-29T21:36:12Z</DateUtc></FrequencyChange></FrequencyChanges></Clock>\n	Hungry_Donkey_bar_English_2-105-3	60.007	105	1.0.0.18	1	-910215952	Standard	2.0.10.353	2.0.10.353	05-29-2015	5/29/2015 9:36:13 PM	17:36:13	2.0.10.248	5	Bar50-50.bmp	54	4	?	0r_4g.bmp	0r_4g.bmp	0r_2g.bmp	0r_2g.bmp				0r_2g.bmp	TrialProc	TrialList	0	cvbn	-999999	16	103456	0	n	1425	104881	14	-12	2	-6	4	0	4	10	1	5	0	0	0	0	4	4	2	2	0	2
Hungry_Donkey_bar_English_2	105	3	<?xml version="1.0"?>\n<Clock xmlns:dt="urn:schemas-microsoft-com:datatypes"><Description dt:dt="string">E-Prime Primary Realtime Clock</Description><StartTime><Timestamp dt:dt="int">0</Timestamp><DateUtc dt:dt="string">2015-05-29T21:36:12Z</DateUtc></StartTime><FrequencyChanges><FrequencyChange><Frequency dt:dt="r8">3507705</Frequency><Timestamp dt:dt="r8">3384070818</Timestamp><Current dt:dt="r8">0</Current><DateUtc dt:dt="string">2015-05-29T21:36:12Z</DateUtc></FrequencyChange></FrequencyChanges></Clock>\n	Hungry_Donkey_bar_English_2-105-3	60.007	105	1.0.0.18	1	-910215952	Standard	2.0.10.353	2.0.10.353	05-29-2015	5/29/2015 9:36:13 PM	17:36:13	2.0.10.248	6	Bar63-37.bmp	57	3	?	0r_4g.bmp	0r_4g.bmp	0r_2g.bmp	0r_2g.bmp			0r_2g.bmp		TrialProc	TrialList	0	cvbn	-999999	17	106923	0	b	1557	108480	16	-12	4	-6	4	2	4	6	1	6	0	0	0	0	4	4	2	2	0	2
Hungry_Donkey_bar_English_2	105	3	<?xml version="1.0"?>\n<Clock xmlns:dt="urn:schemas-microsoft-com:datatypes"><Description dt:dt="string">E-Prime Primary Realtime Clock</Description><StartTime><Timestamp dt:dt="int">0</Timestamp><DateUtc dt:dt="string">2015-05-29T21:36:12Z</DateUtc></StartTime><FrequencyChanges><FrequencyChange><Frequency dt:dt="r8">3507705</Frequency><Timestamp dt:dt="r8">3384070818</Timestamp><Current dt:dt="r8">0</Current><DateUtc dt:dt="string">2015-05-29T21:36:12Z</DateUtc></FrequencyChange></FrequencyChanges></Clock>\n	Hungry_Donkey_bar_English_2-105-3	60.007	105	1.0.0.18	1	-910215952	Standard	2.0.10.353	2.0.10.353	05-29-2015	5/29/2015 9:36:13 PM	17:36:13	2.0.10.248	7	Bar63-37.bmp	58	3	?	8r_4g.bmp	50r_4g.bmp	1r_2g.bmp	10r_2g.bmp			1r_2g.bmp		TrialProc	TrialList	0	cvbn	-999999	16	110506	0	b	1430	111936	18	-13	5	-6	4	3	4	1	1	7	-8	-50	-1	-10	4	4	2	2	-1	2
Hungry_Donkey_bar_English_2	105	3	<?xml version="1.0"?>\n<Clock xmlns:dt="urn:schemas-microsoft-com:datatypes"><Description dt:dt="string">E-Prime Primary Realtime Clock</Description><StartTime><Timestamp dt:dt="int">0</Timestamp><DateUtc dt:dt="string">2015-05-29T21:36:12Z</DateUtc></StartTime><FrequencyChanges><FrequencyChange><Frequency dt:dt="r8">3507705</Frequency><Timestamp dt:dt="r8">3384070818</Timestamp><Current dt:dt="r8">0</Current><DateUtc dt:dt="string">2015-05-29T21:36:12Z</DateUtc></FrequencyChange></FrequencyChanges></Clock>\n	Hungry_Donkey_bar_English_2-105-3	60.007	105	1.0.0.18	1	-910215952	Standard	2.0.10.353	2.0.10.353	05-29-2015	5/29/2015 9:36:13 PM	17:36:13	2.0.10.248	8	Bar63-37.bmp	63	2	?	0r_4g.bmp	0r_4g.bmp	0r_2g.bmp	0r_2g.bmp		0r_4g.bmp			TrialProc	TrialList	0	cvbn	-999999	17	113972	0	v	1036	115008	22	-13	9	-6	8	3	4	9	1	8	0	0	0	0	4	4	2	2	0	4
Hungry_Donkey_bar_English_2	105	3	<?xml version="1.0"?>\n<Clock xmlns:dt="urn:schemas-microsoft-com:datatypes"><Description dt:dt="string">E-Prime Primary Realtime Clock</Description><StartTime><Timestamp dt:dt="int">0</Timestamp><DateUtc dt:dt="string">2015-05-29T21:36:12Z</DateUtc></StartTime><FrequencyChanges><FrequencyChange><Frequency dt:dt="r8">3507705</Frequency><Timestamp dt:dt="r8">3384070818</Timestamp><Current dt:dt="r8">0</Current><DateUtc dt:dt="string">2015-05-29T21:36:12Z</DateUtc></FrequencyChange></FrequencyChanges></Clock>\n	Hungry_Donkey_bar_English_2-105-3	60.007	105	1.0.0.18	1	-910215952	Standard	2.0.10.353	2.0.10.353	05-29-2015	5/29/2015 9:36:13 PM	17:36:13	2.0.10.248	9	Bar63-37.bmp	67	1	?	0r_4g.bmp	0r_4g.bmp	0r_2g.bmp	0r_2g.bmp	0r_4g.bmp				TrialProc	TrialList	0	cvbn	-999999	16	117038	0	c	1298	118336	26	-13	13	-2	8	3	4	7	1	9	0	0	0	0	4	4	2	2	0	4
Hungry_Donkey_bar_English_2	105	3	<?xml version="1.0"?>\n<Clock xmlns:dt="urn:schemas-microsoft-com:datatypes"><Description dt:dt="string">E-Prime Primary Realtime Clock</Description><StartTime><Timestamp dt:dt="int">0</Timestamp><DateUtc dt:dt="string">2015-05-29T21:36:12Z</DateUtc></StartTime><FrequencyChanges><FrequencyChange><Frequency dt:dt="r8">3507705</Frequency><Timestamp dt:dt="r8">3384070818</Timestamp><Current dt:dt="r8">0</Current><DateUtc dt:dt="string">2015-05-29T21:36:12Z</DateUtc></FrequencyChange></FrequencyChanges></Clock>\n	Hungry_Donkey_bar_English_2-105-3	60.007	105	1.0.0.18	1	-910215952	Standard	2.0.10.353	2.0.10.353	05-29-2015	5/29/2015 9:36:13 PM	17:36:13	2.0.10.248	10	Bar63-37.bmp	68	3	?	0r_4g.bmp	0r_4g.bmp	0r_2g.bmp	0r_2g.bmp			0r_2g.bmp		TrialProc	TrialList	0	cvbn	-999999	16	120371	0	b	1901	122272	28	-13	15	-2	8	5	4	8	1	10	0	0	0	0	4	4	2	2	0	2
Hungry_Donkey_bar_English_2	105	3	<?xml version="1.0"?>\n<Clock xmlns:dt="urn:schemas-microsoft-com:datatypes"><Description dt:dt="string">E-Prime Primary Realtime Clock</Description><StartTime><Timestamp dt:dt="int">0</Timestamp><DateUtc dt:dt="string">2015-05-29T21:36:12Z</DateUtc></StartTime><FrequencyChanges><FrequencyChange><Frequency dt:dt="r8">3507705</Frequency><Timestamp dt:dt="r8">3384070818</Timestamp><Current dt:dt="r8">0</Current><DateUtc dt:dt="string">2015-05-29T21:36:12Z</DateUtc></FrequencyChange></FrequencyChanges></Clock>\n	Hungry_Donkey_bar_English_2-105-3	60.007	105	1.0.0.18	1	-910215952	Standard	2.0.10.353	2.0.10.353	05-29-2015	5/29/2015 9:36:13 PM	17:36:13	2.0.10.248	11	Bar75-25.bmp	70	4	?	12r_4g.bmp	0r_4g.bmp	3r_2g.bmp	0r_2g.bmp				0r_2g.bmp	TrialProc	TrialList	0	cvbn	-999999	16	124304	0	n	1216	125520	30	-13	17	-2	8	5	6	5	2	11	-12	0	-3	0	4	4	2	2	0	2
Hungry_Donkey_bar_English_2	105	3	<?xml version="1.0"?>\n<Clock xmlns:dt="urn:schemas-microsoft-com:datatypes"><Description dt:dt="string">E-Prime Primary Realtime Clock</Description><StartTime><Timestamp dt:dt="int">0</Timestamp><DateUtc dt:dt="string">2015-05-29T21:36:12Z</DateUtc></StartTime><FrequencyChanges><FrequencyChange><Frequency dt:dt="r8">3507705</Frequency><Timestamp dt:dt="r8">3384070818</Timestamp><Current dt:dt="r8">0</Current><DateUtc dt:dt="string">2015-05-29T21:36:12Z</DateUtc></FrequencyChange></FrequencyChanges></Clock>\n	Hungry_Donkey_bar_English_2-105-3	60.007	105	1.0.0.18	1	-910215952	Standard	2.0.10.353	2.0.10.353	05-29-2015	5/29/2015 9:36:13 PM	17:36:13	2.0.10.248	12	Bar75-25.bmp	72	2	?	0r_4g.bmp	0r_4g.bmp	0r_2g.bmp	0r_2g.bmp		0r_4g.bmp			TrialProc	TrialList	0	cvbn	-999999	17	127554	0	v	877	128431	34	-13	21	-2	12	5	6	6	2	12	0	0	0	0	4	4	2	2	0	4
Hungry_Donkey_bar_English_2	105	3	<?xml version="1.0"?>\n<Clock xmlns:dt="urn:schemas-microsoft-com:datatypes"><Description dt:dt="string">E-Prime Primary Realtime Clock</Description><StartTime><Timestamp dt:dt="int">0</Timestamp><DateUtc dt:dt="string">2015-05-29T21:36:12Z</DateUtc></StartTime><FrequencyChanges><FrequencyChange><Frequency dt:dt="r8">3507705</Frequency><Timestamp dt:dt="r8">3384070818</Timestamp><Current dt:dt="r8">0</Current><DateUtc dt:dt="string">2015-05-29T21:36:12Z</DateUtc></FrequencyChange></FrequencyChanges></Clock>\n	Hungry_Donkey_bar_English_2-105-3	60.007	105	1.0.0.18	1	-910215952	Standard	2.0.10.353	2.0.10.353	05-29-2015	5/29/2015 9:36:13 PM	17:36:13	2.0.10.248	13	Bar75-25.bmp	75	1	?	0r_4g.bmp	0r_4g.bmp	0r_2g.bmp	0r_2g.bmp	0r_4g.bmp				TrialProc	TrialList	0	cvbn	-999999	17	130470	0	c	505	130975	38	-13	25	2	12	5	6	7	2	13	0	0	0	0	4	4	2	2	0	4
Hungry_Donkey_bar_English_2	105	3	<?xml version="1.0"?>\n<Clock xmlns:dt="urn:schemas-microsoft-com:datatypes"><Description dt:dt="string">E-Prime Primary Realtime Clock</Description><StartTime><Timestamp dt:dt="int">0</Timestamp><DateUtc dt:dt="string">2015-05-29T21:36:12Z</DateUtc></StartTime><FrequencyChanges><FrequencyChange><Frequency dt:dt="r8">3507705</Frequency><Timestamp dt:dt="r8">3384070818</Timestamp><Current dt:dt="r8">0</Current><DateUtc dt:dt="string">2015-05-29T21:36:12Z</DateUtc></FrequencyChange></FrequencyChanges></Clock>\n	Hungry_Donkey_bar_English_2-105-3	60.007	105	1.0.0.18	1	-910215952	Standard	2.0.10.353	2.0.10.353	05-29-2015	5/29/2015 9:36:13 PM	17:36:13	2.0.10.248	14	Bar63-37.bmp	63	4	?	8r_4g.bmp	50r_4g.bmp	1r_2g.bmp	10r_2g.bmp				10r_2g.bmp	TrialProc	TrialList	0	cvbn	-999999	16	133003	0	n	1156	134159	40	-23	17	2	12	5	-2	1	2	14	-8	-50	-1	-10	4	4	2	2	-10	2
Hungry_Donkey_bar_English_2	105	3	<?xml version="1.0"?>\n<Clock xmlns:dt="urn:schemas-microsoft-com:datatypes"><Description dt:dt="string">E-Prime Primary Realtime Clock</Description><StartTime><Timestamp dt:dt="int">0</Timestamp><DateUtc dt:dt="string">2015-05-29T21:36:12Z</DateUtc></StartTime><FrequencyChanges><FrequencyChange><Frequency dt:dt="r8">3507705</Frequency><Timestamp dt:dt="r8">3384070818</Timestamp><Current dt:dt="r8">0</Current><DateUtc dt:dt="string">2015-05-29T21:36:12Z</DateUtc></FrequencyChange></FrequencyChanges></Clock>\n	Hungry_Donkey_bar_English_2-105-3	60.007	105	1.0.0.18	1	-910215952	Standard	2.0.10.353	2.0.10.353	05-29-2015	5/29/2015 9:36:13 PM	17:36:13	2.0.10.248	15	Bar63-37.bmp	63	3	?	10r_4g.bmp	0r_4g.bmp	2r_2g.bmp	0r_2g.bmp			2r_2g.bmp		TrialProc	TrialList	0	cvbn	-999999	16	136186	0	b	1445	137631	42	-25	17	2	12	5	-2	4	2	15	-10	0	-2	0	4	4	2	2	-2	2
Hungry_Donkey_bar_English_2	105	3	<?xml version="1.0"?>\n<Clock xmlns:dt="urn:schemas-microsoft-com:datatypes"><Description dt:dt="string">E-Prime Primary Realtime Clock</Description><StartTime><Timestamp dt:dt="int">0</Timestamp><DateUtc dt:dt="string">2015-05-29T21:36:12Z</DateUtc></StartTime><FrequencyChanges><FrequencyChange><Frequency dt:dt="r8">3507705</Frequency><Timestamp dt:dt="r8">3384070818</Timestamp><Current dt:dt="r8">0</Current><DateUtc dt:dt="string">2015-05-29T21:36:12Z</DateUtc></FrequencyChange></FrequencyChanges></Clock>\n	Hungry_Donkey_bar_English_2-105-3	60.007	105	1.0.0.18	1	-910215952	Standard	2.0.10.353	2.0.10.353	05-29-2015	5/29/2015 9:36:13 PM	17:36:13	2.0.10.248	16	Bar63-37.bmp	65	2	?	0r_4g.bmp	0r_4g.bmp	0r_2g.bmp	0r_2g.bmp		0r_4g.bmp			TrialProc	TrialList	0	cvbn	-999999	17	139669	0	v	1354	141023	46	-25	21	2	16	5	-2	10	2	16	0	0	0	0	4	4	2	2	0	4
Hungry_Donkey_bar_English_2	105	3	<?xml version="1.0"?>\n<Clock xmlns:dt="urn:schemas-microsoft-com:datatypes"><Description dt:dt="string">E-Prime Primary Realtime Clock</Description><StartTime><Timestamp dt:dt="int">0</Timestamp><DateUtc dt:dt="string">2015-05-29T21:36:12Z</DateUtc></StartTime><FrequencyChanges><FrequencyChange><Frequency dt:dt="r8">3507705</Frequency><Timestamp dt:dt="r8">3384070818</Timestamp><Current dt:dt="r8">0</Current><DateUtc dt:dt="string">2015-05-29T21:36:12Z</DateUtc></FrequencyChange></FrequencyChanges></Clock>\n	Hungry_Donkey_bar_English_2-105-3	60.007	105	1.0.0.18	1	-910215952	Standard	2.0.10.353	2.0.10.353	05-29-2015	5/29/2015 9:36:13 PM	17:36:13	2.0.10.248	17	Bar63-37.bmp	67	1	?	0r_4g.bmp	0r_4g.bmp	0r_2g.bmp	0r_2g.bmp	0r_4g.bmp				TrialProc	TrialList	0	cvbn	-999999	17	143052	0	c	1202	144254	50	-25	25	6	16	5	-2	9	2	17	0	0	0	0	4	4	2	2	0	4
Hungry_Donkey_bar_English_2	105	3	<?xml version="1.0"?>\n<Clock xmlns:dt="urn:schemas-microsoft-com:datatypes"><Description dt:dt="string">E-Prime Primary Realtime Clock</Description><StartTime><Timestamp dt:dt="int">0</Timestamp><DateUtc dt:dt="string">2015-05-29T21:36:12Z</DateUtc></StartTime><FrequencyChanges><FrequencyChange><Frequency dt:dt="r8">3507705</Frequency><Timestamp dt:dt="r8">3384070818</Timestamp><Current dt:dt="r8">0</Current><DateUtc dt:dt="string">2015-05-29T21:36:12Z</DateUtc></FrequencyChange></FrequencyChanges></Clock>\n	Hungry_Donkey_bar_English_2-105-3	60.007	105	1.0.0.18	1	-910215952	Standard	2.0.10.353	2.0.10.353	05-29-2015	5/29/2015 9:36:13 PM	17:36:13	2.0.10.248	18	Bar63-37.bmp	68	4	?	10r_4g.bmp	0r_4g.bmp	2r_2g.bmp	0r_2g.bmp				0r_2g.bmp	TrialProc	TrialList	0	cvbn	-999999	17	146285	0	n	2033	148318	52	-25	27	6	16	5	0	2	2	18	-10	0	-2	0	4	4	2	2	0	2
Hungry_Donkey_bar_English_2	105	3	<?xml version="1.0"?>\n<Clock xmlns:dt="urn:schemas-microsoft-com:datatypes"><Description dt:dt="string">E-Prime Primary Realtime Clock</Description><StartTime><Timestamp dt:dt="int">0</Timestamp><DateUtc dt:dt="string">2015-05-29T21:36:12Z</DateUtc></StartTime><FrequencyChanges><FrequencyChange><Frequency dt:dt="r8">3507705</Frequency><Timestamp dt:dt="r8">3384070818</Timestamp><Current dt:dt="r8">0</Current><DateUtc dt:dt="string">2015-05-29T21:36:12Z</DateUtc></FrequencyChange></FrequencyChanges></Clock>\n	Hungry_Donkey_bar_English_2-105-3	60.007	105	1.0.0.18	1	-910215952	Standard	2.0.10.353	2.0.10.353	05-29-2015	5/29/2015 9:36:13 PM	17:36:13	2.0.10.248	19	Bar63-37.bmp	68	3	?	0r_4g.bmp	0r_4g.bmp	0r_2g.bmp	0r_2g.bmp			0r_2g.bmp		TrialProc	TrialList	0	cvbn	-999999	17	150351	0	b	1743	152094	54	-25	29	6	16	7	0	8	2	19	0	0	0	0	4	4	2	2	0	2
Hungry_Donkey_bar_English_2	105	3	<?xml version="1.0"?>\n<Clock xmlns:dt="urn:schemas-microsoft-com:datatypes"><Description dt:dt="string">E-Prime Primary Realtime Clock</Description><StartTime><Timestamp dt:dt="int">0</Timestamp><DateUtc dt:dt="string">2015-05-29T21:36:12Z</DateUtc></StartTime><FrequencyChanges><FrequencyChange><Frequency dt:dt="r8">3507705</Frequency><Timestamp dt:dt="r8">3384070818</Timestamp><Current dt:dt="r8">0</Current><DateUtc dt:dt="string">2015-05-29T21:36:12Z</DateUtc></FrequencyChange></FrequencyChanges></Clock>\n	Hungry_Donkey_bar_English_2-105-3	60.007	105	1.0.0.18	1	-910215952	Standard	2.0.10.353	2.0.10.353	05-29-2015	5/29/2015 9:36:13 PM	17:36:13	2.0.10.248	20	Bar75-25.bmp	70	2	?	10r_4g.bmp	0r_4g.bmp	2r_2g.bmp	0r_2g.bmp		0r_4g.bmp			TrialProc	TrialList	0	cvbn	-999999	15	154117	0	v	793	154910	58	-25	33	6	20	7	0	3	2	20	-10	0	-2	0	4	4	2	2	0	4
Hungry_Donkey_bar_English_2	105	3	<?xml version="1.0"?>\n<Clock xmlns:dt="urn:schemas-microsoft-com:datatypes"><Description dt:dt="string">E-Prime Primary Realtime Clock</Description><StartTime><Timestamp dt:dt="int">0</Timestamp><DateUtc dt:dt="string">2015-05-29T21:36:12Z</DateUtc></StartTime><FrequencyChanges><FrequencyChange><Frequency dt:dt="r8">3507705</Frequency><Timestamp dt:dt="r8">3384070818</Timestamp><Current dt:dt="r8">0</Current><DateUtc dt:dt="string">2015-05-29T21:36:12Z</DateUtc></FrequencyChange></FrequencyChanges></Clock>\n	Hungry_Donkey_bar_English_2-105-3	60.007	105	1.0.0.18	1	-910215952	Standard	2.0.10.353	2.0.10.353	05-29-2015	5/29/2015 9:36:13 PM	17:36:13	2.0.10.248	21	Bar63-37.bmp	64	1	?	10r_4g.bmp	0r_4g.bmp	2r_2g.bmp	0r_2g.bmp	10r_4g.bmp				TrialProc	TrialList	0	cvbn	-999999	16	156933	0	c	1625	158558	62	-35	27	0	20	7	0	2	3	21	-10	0	-2	0	4	4	2	2	-10	4
Hungry_Donkey_bar_English_2	105	3	<?xml version="1.0"?>\n<Clock xmlns:dt="urn:schemas-microsoft-com:datatypes"><Description dt:dt="string">E-Prime Primary Realtime Clock</Description><StartTime><Timestamp dt:dt="int">0</Timestamp><DateUtc dt:dt="string">2015-05-29T21:36:12Z</DateUtc></StartTime><FrequencyChanges><FrequencyChange><Frequency dt:dt="r8">3507705</Frequency><Timestamp dt:dt="r8">3384070818</Timestamp><Current dt:dt="r8">0</Current><DateUtc dt:dt="string">2015-05-29T21:36:12Z</DateUtc></FrequencyChange></FrequencyChanges></Clock>\n	Hungry_Donkey_bar_English_2-105-3	60.007	105	1.0.0.18	1	-910215952	Standard	2.0.10.353	2.0.10.353	05-29-2015	5/29/2015 9:36:13 PM	17:36:13	2.0.10.248	22	Bar63-37.bmp	64	3	?	8r_4g.bmp	50r_4g.bmp	1r_2g.bmp	10r_2g.bmp			1r_2g.bmp		TrialProc	TrialList	0	cvbn	-999999	16	160583	0	b	1638	162221	64	-36	28	0	20	8	0	1	3	22	-8	-50	-1	-10	4	4	2	2	-1	2
Hungry_Donkey_bar_English_2	105	3	<?xml version="1.0"?>\n<Clock xmlns:dt="urn:schemas-microsoft-com:datatypes"><Description dt:dt="string">E-Prime Primary Realtime Clock</Description><StartTime><Timestamp dt:dt="int">0</Timestamp><DateUtc dt:dt="string">2015-05-29T21:36:12Z</DateUtc></StartTime><FrequencyChanges><FrequencyChange><Frequency dt:dt="r8">3507705</Frequency><Timestamp dt:dt="r8">3384070818</Timestamp><Current dt:dt="r8">0</Current><DateUtc dt:dt="string">2015-05-29T21:36:12Z</DateUtc></FrequencyChange></FrequencyChanges></Clock>\n	Hungry_Donkey_bar_English_2-105-3	60.007	105	1.0.0.18	1	-910215952	Standard	2.0.10.353	2.0.10.353	05-29-2015	5/29/2015 9:36:13 PM	17:36:13	2.0.10.248	23	Bar63-37.bmp	65	2	?	0r_4g.bmp	0r_4g.bmp	0r_2g.bmp	0r_2g.bmp		0r_4g.bmp			TrialProc	TrialList	0	cvbn	-999999	16	164249	0	v	1028	165277	68	-36	32	0	24	8	0	10	3	23	0	0	0	0	4	4	2	2	0	4
Hungry_Donkey_bar_English_2	105	3	<?xml version="1.0"?>\n<Clock xmlns:dt="urn:schemas-microsoft-com:datatypes"><Description dt:dt="string">E-Prime Primary Realtime Clock</Description><StartTime><Timestamp dt:dt="int">0</Timestamp><DateUtc dt:dt="string">2015-05-29T21:36:12Z</DateUtc></StartTime><FrequencyChanges><FrequencyChange><Frequency dt:dt="r8">3507705</Frequency><Timestamp dt:dt="r8">3384070818</Timestamp><Current dt:dt="r8">0</Current><DateUtc dt:dt="string">2015-05-29T21:36:12Z</DateUtc></FrequencyChange></FrequencyChanges></Clock>\n	Hungry_Donkey_bar_English_2-105-3	60.007	105	1.0.0.18	1	-910215952	Standard	2.0.10.353	2.0.10.353	05-29-2015	5/29/2015 9:36:13 PM	17:36:13	2.0.10.248	24	Bar63-37.bmp	66	4	?	0r_4g.bmp	0r_4g.bmp	0r_2g.bmp	0r_2g.bmp				0r_2g.bmp	TrialProc	TrialList	0	cvbn	-999999	17	167316	0	n	1577	168893	70	-36	34	0	24	8	2	8	3	24	0	0	0	0	4	4	2	2	0	2
Hungry_Donkey_bar_English_2	105	3	<?xml version="1.0"?>\n<Clock xmlns:dt="urn:schemas-microsoft-com:datatypes"><Description dt:dt="string">E-Prime Primary Realtime Clock</Description><StartTime><Timestamp dt:dt="int">0</Timestamp><DateUtc dt:dt="string">2015-05-29T21:36:12Z</DateUtc></StartTime><FrequencyChanges><FrequencyChange><Frequency dt:dt="r8">3507705</Frequency><Timestamp dt:dt="r8">3384070818</Timestamp><Current dt:dt="r8">0</Current><DateUtc dt:dt="string">2015-05-29T21:36:12Z</DateUtc></FrequencyChange></FrequencyChanges></Clock>\n	Hungry_Donkey_bar_English_2-105-3	60.007	105	1.0.0.18	1	-910215952	Standard	2.0.10.353	2.0.10.353	05-29-2015	5/29/2015 9:36:13 PM	17:36:13	2.0.10.248	25	Bar63-37.bmp	65	3	?	10r_4g.bmp	0r_4g.bmp	2r_2g.bmp	0r_2g.bmp			2r_2g.bmp		TrialProc	TrialList	0	cvbn	-999999	17	170932	0	b	1545	172477	72	-38	34	0	24	8	2	4	3	25	-10	0	-2	0	4	4	2	2	-2	2
Hungry_Donkey_bar_English_2	105	3	<?xml version="1.0"?>\n<Clock xmlns:dt="urn:schemas-microsoft-com:datatypes"><Description dt:dt="string">E-Prime Primary Realtime Clock</Description><StartTime><Timestamp dt:dt="int">0</Timestamp><DateUtc dt:dt="string">2015-05-29T21:36:12Z</DateUtc></StartTime><FrequencyChanges><FrequencyChange><Frequency dt:dt="r8">3507705</Frequency><Timestamp dt:dt="r8">3384070818</Timestamp><Current dt:dt="r8">0</Current><DateUtc dt:dt="string">2015-05-29T21:36:12Z</DateUtc></FrequencyChange></FrequencyChanges></Clock>\n	Hungry_Donkey_bar_English_2-105-3	60.007	105	1.0.0.18	1	-910215952	Standard	2.0.10.353	2.0.10.353	05-29-2015	5/29/2015 9:36:13 PM	17:36:13	2.0.10.248	26	Bar63-37.bmp	67	2	?	10r_4g.bmp	0r_4g.bmp	2r_2g.bmp	0r_2g.bmp		0r_4g.bmp			TrialProc	TrialList	0	cvbn	-999999	17	174515	0	v	1994	176509	76	-38	38	0	28	8	2	3	3	26	-10	0	-2	0	4	4	2	2	0	4
Hungry_Donkey_bar_English_2	105	3	<?xml version="1.0"?>\n<Clock xmlns:dt="urn:schemas-microsoft-com:datatypes"><Description dt:dt="string">E-Prime Primary Realtime Clock</Description><StartTime><Timestamp dt:dt="int">0</Timestamp><DateUtc dt:dt="string">2015-05-29T21:36:12Z</DateUtc></StartTime><FrequencyChanges><FrequencyChange><Frequency dt:dt="r8">3507705</Frequency><Timestamp dt:dt="r8">3384070818</Timestamp><Current dt:dt="r8">0</Current><DateUtc dt:dt="string">2015-05-29T21:36:12Z</DateUtc></FrequencyChange></FrequencyChanges></Clock>\n	Hungry_Donkey_bar_English_2-105-3	60.007	105	1.0.0.18	1	-910215952	Standard	2.0.10.353	2.0.10.353	05-29-2015	5/29/2015 9:36:13 PM	17:36:13	2.0.10.248	27	Bar63-37.bmp	68	1	?	0r_4g.bmp	0r_4g.bmp	0r_2g.bmp	0r_2g.bmp	0r_4g.bmp				TrialProc	TrialList	0	cvbn	-999999	17	178548	0	c	1864	180412	80	-38	42	4	28	8	2	9	3	27	0	0	0	0	4	4	2	2	0	4
Hungry_Donkey_bar_English_2	105	3	<?xml version="1.0"?>\n<Clock xmlns:dt="urn:schemas-microsoft-com:datatypes"><Description dt:dt="string">E-Prime Primary Realtime Clock</Description><StartTime><Timestamp dt:dt="int">0</Timestamp><DateUtc dt:dt="string">2015-05-29T21:36:12Z</DateUtc></StartTime><FrequencyChanges><FrequencyChange><Frequency dt:dt="r8">3507705</Frequency><Timestamp dt:dt="r8">3384070818</Timestamp><Current dt:dt="r8">0</Current><DateUtc dt:dt="string">2015-05-29T21:36:12Z</DateUtc></FrequencyChange></FrequencyChanges></Clock>\n	Hungry_Donkey_bar_English_2-105-3	60.007	105	1.0.0.18	1	-910215952	Standard	2.0.10.353	2.0.10.353	05-29-2015	5/29/2015 9:36:13 PM	17:36:13	2.0.10.248	28	Bar63-37.bmp	68	4	?	12r_4g.bmp	0r_4g.bmp	3r_2g.bmp	0r_2g.bmp				0r_2g.bmp	TrialProc	TrialList	0	cvbn	-999999	16	182447	0	n	2173	184620	82	-38	44	4	28	8	4	5	3	28	-12	0	-3	0	4	4	2	2	0	2
Hungry_Donkey_bar_English_2	105	3	<?xml version="1.0"?>\n<Clock xmlns:dt="urn:schemas-microsoft-com:datatypes"><Description dt:dt="string">E-Prime Primary Realtime Clock</Description><StartTime><Timestamp dt:dt="int">0</Timestamp><DateUtc dt:dt="string">2015-05-29T21:36:12Z</DateUtc></StartTime><FrequencyChanges><FrequencyChange><Frequency dt:dt="r8">3507705</Frequency><Timestamp dt:dt="r8">3384070818</Timestamp><Current dt:dt="r8">0</Current><DateUtc dt:dt="string">2015-05-29T21:36:12Z</DateUtc></FrequencyChange></FrequencyChanges></Clock>\n	Hungry_Donkey_bar_English_2-105-3	60.007	105	1.0.0.18	1	-910215952	Standard	2.0.10.353	2.0.10.353	05-29-2015	5/29/2015 9:36:13 PM	17:36:13	2.0.10.248	29	Bar63-37.bmp	69	3	?	0r_4g.bmp	0r_4g.bmp	0r_2g.bmp	0r_2g.bmp			0r_2g.bmp		TrialProc	TrialList	0	cvbn	-999999	17	186647	0	b	1605	188252	84	-38	46	4	28	10	4	6	3	29	0	0	0	0	4	4	2	2	0	2
Hungry_Donkey_bar_English_2	105	3	<?xml version="1.0"?>\n<Clock xmlns:dt="urn:schemas-microsoft-com:datatypes"><Description dt:dt="string">E-Prime Primary Realtime Clock</Description><StartTime><Timestamp dt:dt="int">0</Timestamp><DateUtc dt:dt="string">2015-05-29T21:36:12Z</DateUtc></StartTime><FrequencyChanges><FrequencyChange><Frequency dt:dt="r8">3507705</Frequency><Timestamp dt:dt="r8">3384070818</Timestamp><Current dt:dt="r8">0</Current><DateUtc dt:dt="string">2015-05-29T21:36:12Z</DateUtc></FrequencyChange></FrequencyChanges></Clock>\n	Hungry_Donkey_bar_English_2-105-3	60.007	105	1.0.0.18	1	-910215952	Standard	2.0.10.353	2.0.10.353	05-29-2015	5/29/2015 9:36:13 PM	17:36:13	2.0.10.248	30	Bar75-25.bmp	70	2	?	0r_4g.bmp	0r_4g.bmp	0r_2g.bmp	0r_2g.bmp		0r_4g.bmp			TrialProc	TrialList	0	cvbn	-999999	17	190280	0	v	1252	191532	88	-38	50	4	32	10	4	7	3	30	0	0	0	0	4	4	2	2	0	4
Hungry_Donkey_bar_English_2	105	3	<?xml version="1.0"?>\n<Clock xmlns:dt="urn:schemas-microsoft-com:datatypes"><Description dt:dt="string">E-Prime Primary Realtime Clock</Description><StartTime><Timestamp dt:dt="int">0</Timestamp><DateUtc dt:dt="string">2015-05-29T21:36:12Z</DateUtc></StartTime><FrequencyChanges><FrequencyChange><Frequency dt:dt="r8">3507705</Frequency><Timestamp dt:dt="r8">3384070818</Timestamp><Current dt:dt="r8">0</Current><DateUtc dt:dt="string">2015-05-29T21:36:12Z</DateUtc></FrequencyChange></FrequencyChanges></Clock>\n	Hungry_Donkey_bar_English_2-105-3	60.007	105	1.0.0.18	1	-910215952	Standard	2.0.10.353	2.0.10.353	05-29-2015	5/29/2015 9:36:13 PM	17:36:13	2.0.10.248	31	Bar63-37.bmp	66	1	?	10r_4g.bmp	0r_4g.bmp	2r_2g.bmp	0r_2g.bmp	10r_4g.bmp				TrialProc	TrialList	0	cvbn	-999999	17	193563	0	c	817	194380	92	-48	44	-2	32	10	4	2	4	31	-10	0	-2	0	4	4	2	2	-10	4
Hungry_Donkey_bar_English_2	105	3	<?xml version="1.0"?>\n<Clock xmlns:dt="urn:schemas-microsoft-com:datatypes"><Description dt:dt="string">E-Prime Primary Realtime Clock</Description><StartTime><Timestamp dt:dt="int">0</Timestamp><DateUtc dt:dt="string">2015-05-29T21:36:12Z</DateUtc></StartTime><FrequencyChanges><FrequencyChange><Frequency dt:dt="r8">3507705</Frequency><Timestamp dt:dt="r8">3384070818</Timestamp><Current dt:dt="r8">0</Current><DateUtc dt:dt="string">2015-05-29T21:36:12Z</DateUtc></FrequencyChange></FrequencyChanges></Clock>\n	Hungry_Donkey_bar_English_2-105-3	60.007	105	1.0.0.18	1	-910215952	Standard	2.0.10.353	2.0.10.353	05-29-2015	5/29/2015 9:36:13 PM	17:36:13	2.0.10.248	32	Bar63-37.bmp	62	4	?	8r_4g.bmp	50r_4g.bmp	1r_2g.bmp	10r_2g.bmp				10r_2g.bmp	TrialProc	TrialList	0	cvbn	-999999	16	196412	0	n	1343	197755	94	-58	36	-2	32	10	-4	1	4	32	-8	-50	-1	-10	4	4	2	2	-10	2
Hungry_Donkey_bar_English_2	105	3	<?xml version="1.0"?>\n<Clock xmlns:dt="urn:schemas-microsoft-com:datatypes"><Description dt:dt="string">E-Prime Primary Realtime Clock</Description><StartTime><Timestamp dt:dt="int">0</Timestamp><DateUtc dt:dt="string">2015-05-29T21:36:12Z</DateUtc></StartTime><FrequencyChanges><FrequencyChange><Frequency dt:dt="r8">3507705</Frequency><Timestamp dt:dt="r8">3384070818</Timestamp><Current dt:dt="r8">0</Current><DateUtc dt:dt="string">2015-05-29T21:36:12Z</DateUtc></FrequencyChange></FrequencyChanges></Clock>\n	Hungry_Donkey_bar_English_2-105-3	60.007	105	1.0.0.18	1	-910215952	Standard	2.0.10.353	2.0.10.353	05-29-2015	5/29/2015 9:36:13 PM	17:36:13	2.0.10.248	33	Bar63-37.bmp	62	3	?	0r_4g.bmp	0r_4g.bmp	0r_2g.bmp	0r_2g.bmp			0r_2g.bmp		TrialProc	TrialList	0	cvbn	-999999	16	199795	0	b	1720	201515	96	-58	38	-2	32	12	-4	8	4	33	0	0	0	0	4	4	2	2	0	2
Hungry_Donkey_bar_English_2	105	3	<?xml version="1.0"?>\n<Clock xmlns:dt="urn:schemas-microsoft-com:datatypes"><Description dt:dt="string">E-Prime Primary Realtime Clock</Description><StartTime><Timestamp dt:dt="int">0</Timestamp><DateUtc dt:dt="string">2015-05-29T21:36:12Z</DateUtc></StartTime><FrequencyChanges><FrequencyChange><Frequency dt:dt="r8">3507705</Frequency><Timestamp dt:dt="r8">3384070818</Timestamp><Current dt:dt="r8">0</Current><DateUtc dt:dt="string">2015-05-29T21:36:12Z</DateUtc></FrequencyChange></FrequencyChanges></Clock>\n	Hungry_Donkey_bar_English_2-105-3	60.007	105	1.0.0.18	1	-910215952	Standard	2.0.10.353	2.0.10.353	05-29-2015	5/29/2015 9:36:13 PM	17:36:13	2.0.10.248	34	Bar63-37.bmp	62	3	?	10r_4g.bmp	0r_4g.bmp	2r_2g.bmp	0r_2g.bmp			2r_2g.bmp		TrialProc	TrialList	0	cvbn	-999999	17	203545	0	b	2338	205883	98	-60	38	-2	32	12	-4	4	4	34	-10	0	-2	0	4	4	2	2	-2	2
Hungry_Donkey_bar_English_2	105	3	<?xml version="1.0"?>\n<Clock xmlns:dt="urn:schemas-microsoft-com:datatypes"><Description dt:dt="string">E-Prime Primary Realtime Clock</Description><StartTime><Timestamp dt:dt="int">0</Timestamp><DateUtc dt:dt="string">2015-05-29T21:36:12Z</DateUtc></StartTime><FrequencyChanges><FrequencyChange><Frequency dt:dt="r8">3507705</Frequency><Timestamp dt:dt="r8">3384070818</Timestamp><Current dt:dt="r8">0</Current><DateUtc dt:dt="string">2015-05-29T21:36:12Z</DateUtc></FrequencyChange></FrequencyChanges></Clock>\n	Hungry_Donkey_bar_English_2-105-3	60.007	105	1.0.0.18	1	-910215952	Standard	2.0.10.353	2.0.10.353	05-29-2015	5/29/2015 9:36:13 PM	17:36:13	2.0.10.248	35	Bar63-37.bmp	63	2	?	0r_4g.bmp	0r_4g.bmp	0r_2g.bmp	0r_2g.bmp		0r_4g.bmp			TrialProc	TrialList	0	cvbn	-999999	17	207911	0	v	804	208715	102	-60	42	-2	36	12	-4	10	4	35	0	0	0	0	4	4	2	2	0	4
Hungry_Donkey_bar_English_2	105	3	<?xml version="1.0"?>\n<Clock xmlns:dt="urn:schemas-microsoft-com:datatypes"><Description dt:dt="string">E-Prime Primary Realtime Clock</Description><StartTime><Timestamp dt:dt="int">0</Timestamp><DateUtc dt:dt="string">2015-05-29T21:36:12Z</DateUtc></StartTime><FrequencyChanges><FrequencyChange><Frequency dt:dt="r8">3507705</Frequency><Timestamp dt:dt="r8">3384070818</Timestamp><Current dt:dt="r8">0</Current><DateUtc dt:dt="string">2015-05-29T21:36:12Z</DateUtc></FrequencyChange></FrequencyChanges></Clock>\n	Hungry_Donkey_bar_English_2-105-3	60.007	105	1.0.0.18	1	-910215952	Standard	2.0.10.353	2.0.10.353	05-29-2015	5/29/2015 9:36:13 PM	17:36:13	2.0.10.248	36	Bar63-37.bmp	64	1	?	0r_4g.bmp	0r_4g.bmp	0r_2g.bmp	0r_2g.bmp	0r_4g.bmp				TrialProc	TrialList	0	cvbn	-999999	17	210744	0	c	803	211547	106	-60	46	2	36	12	-4	9	4	36	0	0	0	0	4	4	2	2	0	4
Hungry_Donkey_bar_English_2	105	3	<?xml version="1.0"?>\n<Clock xmlns:dt="urn:schemas-microsoft-com:datatypes"><Description dt:dt="string">E-Prime Primary Realtime Clock</Description><StartTime><Timestamp dt:dt="int">0</Timestamp><DateUtc dt:dt="string">2015-05-29T21:36:12Z</DateUtc></StartTime><FrequencyChanges><FrequencyChange><Frequency dt:dt="r8">3507705</Frequency><Timestamp dt:dt="r8">3384070818</Timestamp><Current dt:dt="r8">0</Current><DateUtc dt:dt="string">2015-05-29T21:36:12Z</DateUtc></FrequencyChange></FrequencyChanges></Clock>\n	Hungry_Donkey_bar_English_2-105-3	60.007	105	1.0.0.18	1	-910215952	Standard	2.0.10.353	2.0.10.353	05-29-2015	5/29/2015 9:36:13 PM	17:36:13	2.0.10.248	37	Bar63-37.bmp	64	4	?	0r_4g.bmp	0r_4g.bmp	0r_2g.bmp	0r_2g.bmp				0r_2g.bmp	TrialProc	TrialList	0	cvbn	-999999	17	213577	0	n	1041	214618	108	-60	48	2	36	12	-2	6	4	37	0	0	0	0	4	4	2	2	0	2
Hungry_Donkey_bar_English_2	105	3	<?xml version="1.0"?>\n<Clock xmlns:dt="urn:schemas-microsoft-com:datatypes"><Description dt:dt="string">E-Prime Primary Realtime Clock</Description><StartTime><Timestamp dt:dt="int">0</Timestamp><DateUtc dt:dt="string">2015-05-29T21:36:12Z</DateUtc></StartTime><FrequencyChanges><FrequencyChange><Frequency dt:dt="r8">3507705</Frequency><Timestamp dt:dt="r8">3384070818</Timestamp><Current dt:dt="r8">0</Current><DateUtc dt:dt="string">2015-05-29T21:36:12Z</DateUtc></FrequencyChange></FrequencyChanges></Clock>\n	Hungry_Donkey_bar_English_2-105-3	60.007	105	1.0.0.18	1	-910215952	Standard	2.0.10.353	2.0.10.353	05-29-2015	5/29/2015 9:36:13 PM	17:36:13	2.0.10.248	38	Bar63-37.bmp	64	3	?	12r_4g.bmp	0r_4g.bmp	3r_2g.bmp	0r_2g.bmp			3r_2g.bmp		TrialProc	TrialList	0	cvbn	-999999	17	216660	0	b	1126	217786	110	-63	47	2	36	11	-2	5	4	38	-12	0	-3	0	4	4	2	2	-3	2
Hungry_Donkey_bar_English_2	105	3	<?xml version="1.0"?>\n<Clock xmlns:dt="urn:schemas-microsoft-com:datatypes"><Description dt:dt="string">E-Prime Primary Realtime Clock</Description><StartTime><Timestamp dt:dt="int">0</Timestamp><DateUtc dt:dt="string">2015-05-29T21:36:12Z</DateUtc></StartTime><FrequencyChanges><FrequencyChange><Frequency dt:dt="r8">3507705</Frequency><Timestamp dt:dt="r8">3384070818</Timestamp><Current dt:dt="r8">0</Current><DateUtc dt:dt="string">2015-05-29T21:36:12Z</DateUtc></FrequencyChange></FrequencyChanges></Clock>\n	Hungry_Donkey_bar_English_2-105-3	60.007	105	1.0.0.18	1	-910215952	Standard	2.0.10.353	2.0.10.353	05-29-2015	5/29/2015 9:36:13 PM	17:36:13	2.0.10.248	39	Bar63-37.bmp	64	2	?	10r_4g.bmp	0r_4g.bmp	2r_2g.bmp	0r_2g.bmp		0r_4g.bmp			TrialProc	TrialList	0	cvbn	-999999	16	219826	0	v	1384	221210	114	-63	51	2	40	11	-2	3	4	39	-10	0	-2	0	4	4	2	2	0	4
Hungry_Donkey_bar_English_2	105	3	<?xml version="1.0"?>\n<Clock xmlns:dt="urn:schemas-microsoft-com:datatypes"><Description dt:dt="string">E-Prime Primary Realtime Clock</Description><StartTime><Timestamp dt:dt="int">0</Timestamp><DateUtc dt:dt="string">2015-05-29T21:36:12Z</DateUtc></StartTime><FrequencyChanges><FrequencyChange><Frequency dt:dt="r8">3507705</Frequency><Timestamp dt:dt="r8">3384070818</Timestamp><Current dt:dt="r8">0</Current><DateUtc dt:dt="string">2015-05-29T21:36:12Z</DateUtc></FrequencyChange></FrequencyChanges></Clock>\n	Hungry_Donkey_bar_English_2-105-3	60.007	105	1.0.0.18	1	-910215952	Standard	2.0.10.353	2.0.10.353	05-29-2015	5/29/2015 9:36:13 PM	17:36:13	2.0.10.248	40	Bar63-37.bmp	65	1	?	0r_4g.bmp	0r_4g.bmp	0r_2g.bmp	0r_2g.bmp	0r_4g.bmp				TrialProc	TrialList	0	cvbn	-999999	16	223242	0	c	1936	225178	118	-63	55	6	40	11	-2	7	4	40	0	0	0	0	4	4	2	2	0	4
Hungry_Donkey_bar_English_2	105	3	<?xml version="1.0"?>\n<Clock xmlns:dt="urn:schemas-microsoft-com:datatypes"><Description dt:dt="string">E-Prime Primary Realtime Clock</Description><StartTime><Timestamp dt:dt="int">0</Timestamp><DateUtc dt:dt="string">2015-05-29T21:36:12Z</DateUtc></StartTime><FrequencyChanges><FrequencyChange><Frequency dt:dt="r8">3507705</Frequency><Timestamp dt:dt="r8">3384070818</Timestamp><Current dt:dt="r8">0</Current><DateUtc dt:dt="string">2015-05-29T21:36:12Z</DateUtc></FrequencyChange></FrequencyChanges></Clock>\n	Hungry_Donkey_bar_English_2-105-3	60.007	105	1.0.0.18	1	-910215952	Standard	2.0.10.353	2.0.10.353	05-29-2015	5/29/2015 9:36:13 PM	17:36:13	2.0.10.248	41	Bar63-37.bmp	66	4	?	0r_4g.bmp	0r_4g.bmp	0r_2g.bmp	0r_2g.bmp				0r_2g.bmp	TrialProc	TrialList	0	cvbn	-999999	17	227209	0	n	1409	228618	120	-63	57	6	40	11	0	8	5	41	0	0	0	0	4	4	2	2	0	2
Hungry_Donkey_bar_English_2	105	3	<?xml version="1.0"?>\n<Clock xmlns:dt="urn:schemas-microsoft-com:datatypes"><Description dt:dt="string">E-Prime Primary Realtime Clock</Description><StartTime><Timestamp dt:dt="int">0</Timestamp><DateUtc dt:dt="string">2015-05-29T21:36:12Z</DateUtc></StartTime><FrequencyChanges><FrequencyChange><Frequency dt:dt="r8">3507705</Frequency><Timestamp dt:dt="r8">3384070818</Timestamp><Current dt:dt="r8">0</Current><DateUtc dt:dt="string">2015-05-29T21:36:12Z</DateUtc></FrequencyChange></FrequencyChanges></Clock>\n	Hungry_Donkey_bar_English_2-105-3	60.007	105	1.0.0.18	1	-910215952	Standard	2.0.10.353	2.0.10.353	05-29-2015	5/29/2015 9:36:13 PM	17:36:13	2.0.10.248	42	Bar63-37.bmp	65	3	?	12r_4g.bmp	0r_4g.bmp	3r_2g.bmp	0r_2g.bmp			3r_2g.bmp		TrialProc	TrialList	0	cvbn	-999999	16	230658	0	b	824	231482	122	-66	56	6	40	10	0	5	5	42	-12	0	-3	0	4	4	2	2	-3	2
Hungry_Donkey_bar_English_2	105	3	<?xml version="1.0"?>\n<Clock xmlns:dt="urn:schemas-microsoft-com:datatypes"><Description dt:dt="string">E-Prime Primary Realtime Clock</Description><StartTime><Timestamp dt:dt="int">0</Timestamp><DateUtc dt:dt="string">2015-05-29T21:36:12Z</DateUtc></StartTime><FrequencyChanges><FrequencyChange><Frequency dt:dt="r8">3507705</Frequency><Timestamp dt:dt="r8">3384070818</Timestamp><Current dt:dt="r8">0</Current><DateUtc dt:dt="string">2015-05-29T21:36:12Z</DateUtc></FrequencyChange></FrequencyChanges></Clock>\n	Hungry_Donkey_bar_English_2-105-3	60.007	105	1.0.0.18	1	-910215952	Standard	2.0.10.353	2.0.10.353	05-29-2015	5/29/2015 9:36:13 PM	17:36:13	2.0.10.248	43	Bar63-37.bmp	66	2	?	0r_4g.bmp	0r_4g.bmp	0r_2g.bmp	0r_2g.bmp		0r_4g.bmp			TrialProc	TrialList	0	cvbn	-999999	16	233508	0	v	1109	234617	126	-66	60	6	44	10	0	10	5	43	0	0	0	0	4	4	2	2	0	4
Hungry_Donkey_bar_English_2	105	3	<?xml version="1.0"?>\n<Clock xmlns:dt="urn:schemas-microsoft-com:datatypes"><Description dt:dt="string">E-Prime Primary Realtime Clock</Description><StartTime><Timestamp dt:dt="int">0</Timestamp><DateUtc dt:dt="string">2015-05-29T21:36:12Z</DateUtc></StartTime><FrequencyChanges><FrequencyChange><Frequency dt:dt="r8">3507705</Frequency><Timestamp dt:dt="r8">3384070818</Timestamp><Current dt:dt="r8">0</Current><DateUtc dt:dt="string">2015-05-29T21:36:12Z</DateUtc></FrequencyChange></FrequencyChanges></Clock>\n	Hungry_Donkey_bar_English_2-105-3	60.007	105	1.0.0.18	1	-910215952	Standard	2.0.10.353	2.0.10.353	05-29-2015	5/29/2015 9:36:13 PM	17:36:13	2.0.10.248	44	Bar63-37.bmp	66	1	?	0r_4g.bmp	0r_4g.bmp	0r_2g.bmp	0r_2g.bmp	0r_4g.bmp				TrialProc	TrialList	0	cvbn	-999999	16	236641	0	c	1560	238201	130	-66	64	10	44	10	0	9	5	44	0	0	0	0	4	4	2	2	0	4
Hungry_Donkey_bar_English_2	105	3	<?xml version="1.0"?>\n<Clock xmlns:dt="urn:schemas-microsoft-com:datatypes"><Description dt:dt="string">E-Prime Primary Realtime Clock</Description><StartTime><Timestamp dt:dt="int">0</Timestamp><DateUtc dt:dt="string">2015-05-29T21:36:12Z</DateUtc></StartTime><FrequencyChanges><FrequencyChange><Frequency dt:dt="r8">3507705</Frequency><Timestamp dt:dt="r8">3384070818</Timestamp><Current dt:dt="r8">0</Current><DateUtc dt:dt="string">2015-05-29T21:36:12Z</DateUtc></FrequencyChange></FrequencyChanges></Clock>\n	Hungry_Donkey_bar_English_2-105-3	60.007	105	1.0.0.18	1	-910215952	Standard	2.0.10.353	2.0.10.353	05-29-2015	5/29/2015 9:36:13 PM	17:36:13	2.0.10.248	45	Bar63-37.bmp	63	4	?	8r_4g.bmp	50r_4g.bmp	1r_2g.bmp	10r_2g.bmp				10r_2g.bmp	TrialProc	TrialList	0	cvbn	-999999	16	240240	0	n	1897	242137	132	-76	56	10	44	10	-8	1	5	45	-8	-50	-1	-10	4	4	2	2	-10	2
Hungry_Donkey_bar_English_2	105	3	<?xml version="1.0"?>\n<Clock xmlns:dt="urn:schemas-microsoft-com:datatypes"><Description dt:dt="string">E-Prime Primary Realtime Clock</Description><StartTime><Timestamp dt:dt="int">0</Timestamp><DateUtc dt:dt="string">2015-05-29T21:36:12Z</DateUtc></StartTime><FrequencyChanges><FrequencyChange><Frequency dt:dt="r8">3507705</Frequency><Timestamp dt:dt="r8">3384070818</Timestamp><Current dt:dt="r8">0</Current><DateUtc dt:dt="string">2015-05-29T21:36:12Z</DateUtc></FrequencyChange></FrequencyChanges></Clock>\n	Hungry_Donkey_bar_English_2-105-3	60.007	105	1.0.0.18	1	-910215952	Standard	2.0.10.353	2.0.10.353	05-29-2015	5/29/2015 9:36:13 PM	17:36:13	2.0.10.248	46	Bar63-37.bmp	64	3	?	0r_4g.bmp	0r_4g.bmp	0r_2g.bmp	0r_2g.bmp			0r_2g.bmp		TrialProc	TrialList	0	cvbn	-999999	16	244173	0	b	1724	245897	134	-76	58	10	44	12	-8	7	5	46	0	0	0	0	4	4	2	2	0	2
Hungry_Donkey_bar_English_2	105	3	<?xml version="1.0"?>\n<Clock xmlns:dt="urn:schemas-microsoft-com:datatypes"><Description dt:dt="string">E-Prime Primary Realtime Clock</Description><StartTime><Timestamp dt:dt="int">0</Timestamp><DateUtc dt:dt="string">2015-05-29T21:36:12Z</DateUtc></StartTime><FrequencyChanges><FrequencyChange><Frequency dt:dt="r8">3507705</Frequency><Timestamp dt:dt="r8">3384070818</Timestamp><Current dt:dt="r8">0</Current><DateUtc dt:dt="string">2015-05-29T21:36:12Z</DateUtc></FrequencyChange></FrequencyChanges></Clock>\n	Hungry_Donkey_bar_English_2-105-3	60.007	105	1.0.0.18	1	-910215952	Standard	2.0.10.353	2.0.10.353	05-29-2015	5/29/2015 9:36:13 PM	17:36:13	2.0.10.248	47	Bar63-37.bmp	64	2	?	10r_4g.bmp	0r_4g.bmp	2r_2g.bmp	0r_2g.bmp		0r_4g.bmp			TrialProc	TrialList	0	cvbn	-999999	17	247923	0	v	950	248873	138	-76	62	10	48	12	-8	2	5	47	-10	0	-2	0	4	4	2	2	0	4
Hungry_Donkey_bar_English_2	105	3	<?xml version="1.0"?>\n<Clock xmlns:dt="urn:schemas-microsoft-com:datatypes"><Description dt:dt="string">E-Prime Primary Realtime Clock</Description><StartTime><Timestamp dt:dt="int">0</Timestamp><DateUtc dt:dt="string">2015-05-29T21:36:12Z</DateUtc></StartTime><FrequencyChanges><FrequencyChange><Frequency dt:dt="r8">3507705</Frequency><Timestamp dt:dt="r8">3384070818</Timestamp><Current dt:dt="r8">0</Current><DateUtc dt:dt="string">2015-05-29T21:36:12Z</DateUtc></FrequencyChange></FrequencyChanges></Clock>\n	Hungry_Donkey_bar_English_2-105-3	60.007	105	1.0.0.18	1	-910215952	Standard	2.0.10.353	2.0.10.353	05-29-2015	5/29/2015 9:36:13 PM	17:36:13	2.0.10.248	48	Bar63-37.bmp	62	1	?	10r_4g.bmp	0r_4g.bmp	2r_2g.bmp	0r_2g.bmp	10r_4g.bmp				TrialProc	TrialList	0	cvbn	-999999	17	250906	0	c	1918	252824	142	-86	56	4	48	12	-8	4	5	48	-10	0	-2	0	4	4	2	2	-10	4
Hungry_Donkey_bar_English_2	105	3	<?xml version="1.0"?>\n<Clock xmlns:dt="urn:schemas-microsoft-com:datatypes"><Description dt:dt="string">E-Prime Primary Realtime Clock</Description><StartTime><Timestamp dt:dt="int">0</Timestamp><DateUtc dt:dt="string">2015-05-29T21:36:12Z</DateUtc></StartTime><FrequencyChanges><FrequencyChange><Frequency dt:dt="r8">3507705</Frequency><Timestamp dt:dt="r8">3384070818</Timestamp><Current dt:dt="r8">0</Current><DateUtc dt:dt="string">2015-05-29T21:36:12Z</DateUtc></FrequencyChange></FrequencyChanges></Clock>\n	Hungry_Donkey_bar_English_2-105-3	60.007	105	1.0.0.18	1	-910215952	Standard	2.0.10.353	2.0.10.353	05-29-2015	5/29/2015 9:36:13 PM	17:36:13	2.0.10.248	49	Bar63-37.bmp	63	2	?	10r_4g.bmp	0r_4g.bmp	2r_2g.bmp	0r_2g.bmp		0r_4g.bmp			TrialProc	TrialList	0	cvbn	-999999	16	254855	0	v	1233	256088	146	-86	60	4	52	12	-8	3	5	49	-10	0	-2	0	4	4	2	2	0	4
Hungry_Donkey_bar_English_2	105	3	<?xml version="1.0"?>\n<Clock xmlns:dt="urn:schemas-microsoft-com:datatypes"><Description dt:dt="string">E-Prime Primary Realtime Clock</Description><StartTime><Timestamp dt:dt="int">0</Timestamp><DateUtc dt:dt="string">2015-05-29T21:36:12Z</DateUtc></StartTime><FrequencyChanges><FrequencyChange><Frequency dt:dt="r8">3507705</Frequency><Timestamp dt:dt="r8">3384070818</Timestamp><Current dt:dt="r8">0</Current><DateUtc dt:dt="string">2015-05-29T21:36:12Z</DateUtc></FrequencyChange></FrequencyChanges></Clock>\n	Hungry_Donkey_bar_English_2-105-3	60.007	105	1.0.0.18	1	-910215952	Standard	2.0.10.353	2.0.10.353	05-29-2015	5/29/2015 9:36:13 PM	17:36:13	2.0.10.248	50	Bar63-37.bmp	63	3	?	0r_4g.bmp	0r_4g.bmp	0r_2g.bmp	0r_2g.bmp			0r_2g.bmp		TrialProc	TrialList	0	cvbn	-999999	17	258122	0	b	1662	259784	148	-86	62	4	52	14	-8	6	5	50	0	0	0	0	4	4	2	2	0	2
Hungry_Donkey_bar_English_2	105	3	<?xml version="1.0"?>\n<Clock xmlns:dt="urn:schemas-microsoft-com:datatypes"><Description dt:dt="string">E-Prime Primary Realtime Clock</Description><StartTime><Timestamp dt:dt="int">0</Timestamp><DateUtc dt:dt="string">2015-05-29T21:36:12Z</DateUtc></StartTime><FrequencyChanges><FrequencyChange><Frequency dt:dt="r8">3507705</Frequency><Timestamp dt:dt="r8">3384070818</Timestamp><Current dt:dt="r8">0</Current><DateUtc dt:dt="string">2015-05-29T21:36:12Z</DateUtc></FrequencyChange></FrequencyChanges></Clock>\n	Hungry_Donkey_bar_English_2-105-3	60.007	105	1.0.0.18	1	-910215952	Standard	2.0.10.353	2.0.10.353	05-29-2015	5/29/2015 9:36:13 PM	17:36:13	2.0.10.248	51	Bar63-37.bmp	61	4	?	8r_4g.bmp	50r_4g.bmp	1r_2g.bmp	10r_2g.bmp				10r_2g.bmp	TrialProc	TrialList	0	cvbn	-999999	16	261821	0	n	1803	263624	150	-96	54	4	52	14	-16	1	6	51	-8	-50	-1	-10	4	4	2	2	-10	2
Hungry_Donkey_bar_English_2	105	3	<?xml version="1.0"?>\n<Clock xmlns:dt="urn:schemas-microsoft-com:datatypes"><Description dt:dt="string">E-Prime Primary Realtime Clock</Description><StartTime><Timestamp dt:dt="int">0</Timestamp><DateUtc dt:dt="string">2015-05-29T21:36:12Z</DateUtc></StartTime><FrequencyChanges><FrequencyChange><Frequency dt:dt="r8">3507705</Frequency><Timestamp dt:dt="r8">3384070818</Timestamp><Current dt:dt="r8">0</Current><DateUtc dt:dt="string">2015-05-29T21:36:12Z</DateUtc></FrequencyChange></FrequencyChanges></Clock>\n	Hungry_Donkey_bar_English_2-105-3	60.007	105	1.0.0.18	1	-910215952	Standard	2.0.10.353	2.0.10.353	05-29-2015	5/29/2015 9:36:13 PM	17:36:13	2.0.10.248	52	Bar63-37.bmp	61	3	?	10r_4g.bmp	0r_4g.bmp	2r_2g.bmp	0r_2g.bmp			2r_2g.bmp		TrialProc	TrialList	0	cvbn	-999999	16	265654	0	b	2177	267831	152	-98	54	4	52	14	-16	2	6	52	-10	0	-2	0	4	4	2	2	-2	2
Hungry_Donkey_bar_English_2	105	3	<?xml version="1.0"?>\n<Clock xmlns:dt="urn:schemas-microsoft-com:datatypes"><Description dt:dt="string">E-Prime Primary Realtime Clock</Description><StartTime><Timestamp dt:dt="int">0</Timestamp><DateUtc dt:dt="string">2015-05-29T21:36:12Z</DateUtc></StartTime><FrequencyChanges><FrequencyChange><Frequency dt:dt="r8">3507705</Frequency><Timestamp dt:dt="r8">3384070818</Timestamp><Current dt:dt="r8">0</Current><DateUtc dt:dt="string">2015-05-29T21:36:12Z</DateUtc></FrequencyChange></FrequencyChanges></Clock>\n	Hungry_Donkey_bar_English_2-105-3	60.007	105	1.0.0.18	1	-910215952	Standard	2.0.10.353	2.0.10.353	05-29-2015	5/29/2015 9:36:13 PM	17:36:13	2.0.10.248	53	Bar63-37.bmp	61	2	?	12r_4g.bmp	0r_4g.bmp	3r_2g.bmp	0r_2g.bmp		0r_4g.bmp			TrialProc	TrialList	0	cvbn	-999999	16	269870	0	v	1705	271575	156	-98	58	4	56	14	-16	5	6	53	-12	0	-3	0	4	4	2	2	0	4
Hungry_Donkey_bar_English_2	105	3	<?xml version="1.0"?>\n<Clock xmlns:dt="urn:schemas-microsoft-com:datatypes"><Description dt:dt="string">E-Prime Primary Realtime Clock</Description><StartTime><Timestamp dt:dt="int">0</Timestamp><DateUtc dt:dt="string">2015-05-29T21:36:12Z</DateUtc></StartTime><FrequencyChanges><FrequencyChange><Frequency dt:dt="r8">3507705</Frequency><Timestamp dt:dt="r8">3384070818</Timestamp><Current dt:dt="r8">0</Current><DateUtc dt:dt="string">2015-05-29T21:36:12Z</DateUtc></FrequencyChange></FrequencyChanges></Clock>\n	Hungry_Donkey_bar_English_2-105-3	60.007	105	1.0.0.18	1	-910215952	Standard	2.0.10.353	2.0.10.353	05-29-2015	5/29/2015 9:36:13 PM	17:36:13	2.0.10.248	54	Bar63-37.bmp	62	1	?	0r_4g.bmp	0r_4g.bmp	0r_2g.bmp	0r_2g.bmp	0r_4g.bmp				TrialProc	TrialList	0	cvbn	-999999	16	273603	0	c	1476	275079	160	-98	62	8	56	14	-16	6	6	54	0	0	0	0	4	4	2	2	0	4
Hungry_Donkey_bar_English_2	105	3	<?xml version="1.0"?>\n<Clock xmlns:dt="urn:schemas-microsoft-com:datatypes"><Description dt:dt="string">E-Prime Primary Realtime Clock</Description><StartTime><Timestamp dt:dt="int">0</Timestamp><DateUtc dt:dt="string">2015-05-29T21:36:12Z</DateUtc></StartTime><FrequencyChanges><FrequencyChange><Frequency dt:dt="r8">3507705</Frequency><Timestamp dt:dt="r8">3384070818</Timestamp><Current dt:dt="r8">0</Current><DateUtc dt:dt="string">2015-05-29T21:36:12Z</DateUtc></FrequencyChange></FrequencyChanges></Clock>\n	Hungry_Donkey_bar_English_2-105-3	60.007	105	1.0.0.18	1	-910215952	Standard	2.0.10.353	2.0.10.353	05-29-2015	5/29/2015 9:36:13 PM	17:36:13	2.0.10.248	55	Bar63-37.bmp	62	4	?	10r_4g.bmp	0r_4g.bmp	2r_2g.bmp	0r_2g.bmp				0r_2g.bmp	TrialProc	TrialList	0	cvbn	-999999	16	277119	0	n	1528	278647	162	-98	64	8	56	14	-14	3	6	55	-10	0	-2	0	4	4	2	2	0	2
Hungry_Donkey_bar_English_2	105	3	<?xml version="1.0"?>\n<Clock xmlns:dt="urn:schemas-microsoft-com:datatypes"><Description dt:dt="string">E-Prime Primary Realtime Clock</Description><StartTime><Timestamp dt:dt="int">0</Timestamp><DateUtc dt:dt="string">2015-05-29T21:36:12Z</DateUtc></StartTime><FrequencyChanges><FrequencyChange><Frequency dt:dt="r8">3507705</Frequency><Timestamp dt:dt="r8">3384070818</Timestamp><Current dt:dt="r8">0</Current><DateUtc dt:dt="string">2015-05-29T21:36:12Z</DateUtc></FrequencyChange></FrequencyChanges></Clock>\n	Hungry_Donkey_bar_English_2-105-3	60.007	105	1.0.0.18	1	-910215952	Standard	2.0.10.353	2.0.10.353	05-29-2015	5/29/2015 9:36:13 PM	17:36:13	2.0.10.248	56	Bar63-37.bmp	62	3	?	10r_4g.bmp	0r_4g.bmp	2r_2g.bmp	0r_2g.bmp			2r_2g.bmp		TrialProc	TrialList	0	cvbn	-999999	17	280686	0	b	841	281527	164	-100	64	8	56	14	-14	4	6	56	-10	0	-2	0	4	4	2	2	-2	2
Hungry_Donkey_bar_English_2	105	3	<?xml version="1.0"?>\n<Clock xmlns:dt="urn:schemas-microsoft-com:datatypes"><Description dt:dt="string">E-Prime Primary Realtime Clock</Description><StartTime><Timestamp dt:dt="int">0</Timestamp><DateUtc dt:dt="string">2015-05-29T21:36:12Z</DateUtc></StartTime><FrequencyChanges><FrequencyChange><Frequency dt:dt="r8">3507705</Frequency><Timestamp dt:dt="r8">3384070818</Timestamp><Current dt:dt="r8">0</Current><DateUtc dt:dt="string">2015-05-29T21:36:12Z</DateUtc></FrequencyChange></FrequencyChanges></Clock>\n	Hungry_Donkey_bar_English_2-105-3	60.007	105	1.0.0.18	1	-910215952	Standard	2.0.10.353	2.0.10.353	05-29-2015	5/29/2015 9:36:13 PM	17:36:13	2.0.10.248	57	Bar63-37.bmp	63	2	?	0r_4g.bmp	0r_4g.bmp	0r_2g.bmp	0r_2g.bmp		0r_4g.bmp			TrialProc	TrialList	0	cvbn	-999999	16	283552	0	v	1638	285190	168	-100	68	8	60	14	-14	9	6	57	0	0	0	0	4	4	2	2	0	4
Hungry_Donkey_bar_English_2	105	3	<?xml version="1.0"?>\n<Clock xmlns:dt="urn:schemas-microsoft-com:datatypes"><Description dt:dt="string">E-Prime Primary Realtime Clock</Description><StartTime><Timestamp dt:dt="int">0</Timestamp><DateUtc dt:dt="string">2015-05-29T21:36:12Z</DateUtc></StartTime><FrequencyChanges><FrequencyChange><Frequency dt:dt="r8">3507705</Frequency><Timestamp dt:dt="r8">3384070818</Timestamp><Current dt:dt="r8">0</Current><DateUtc dt:dt="string">2015-05-29T21:36:12Z</DateUtc></FrequencyChange></FrequencyChanges></Clock>\n	Hungry_Donkey_bar_English_2-105-3	60.007	105	1.0.0.18	1	-910215952	Standard	2.0.10.353	2.0.10.353	05-29-2015	5/29/2015 9:36:13 PM	17:36:13	2.0.10.248	58	Bar63-37.bmp	63	1	?	0r_4g.bmp	0r_4g.bmp	0r_2g.bmp	0r_2g.bmp	0r_4g.bmp				TrialProc	TrialList	0	cvbn	-999999	17	287235	0	c	1107	288342	172	-100	72	12	60	14	-14	10	6	58	0	0	0	0	4	4	2	2	0	4
Hungry_Donkey_bar_English_2	105	3	<?xml version="1.0"?>\n<Clock xmlns:dt="urn:schemas-microsoft-com:datatypes"><Description dt:dt="string">E-Prime Primary Realtime Clock</Description><StartTime><Timestamp dt:dt="int">0</Timestamp><DateUtc dt:dt="string">2015-05-29T21:36:12Z</DateUtc></StartTime><FrequencyChanges><FrequencyChange><Frequency dt:dt="r8">3507705</Frequency><Timestamp dt:dt="r8">3384070818</Timestamp><Current dt:dt="r8">0</Current><DateUtc dt:dt="string">2015-05-29T21:36:12Z</DateUtc></FrequencyChange></FrequencyChanges></Clock>\n	Hungry_Donkey_bar_English_2-105-3	60.007	105	1.0.0.18	1	-910215952	Standard	2.0.10.353	2.0.10.353	05-29-2015	5/29/2015 9:36:13 PM	17:36:13	2.0.10.248	59	Bar63-37.bmp	64	4	?	0r_4g.bmp	0r_4g.bmp	0r_2g.bmp	0r_2g.bmp				0r_2g.bmp	TrialProc	TrialList	0	cvbn	-999999	17	290368	0	n	1366	291734	174	-100	74	12	60	14	-12	7	6	59	0	0	0	0	4	4	2	2	0	2
Hungry_Donkey_bar_English_2	105	3	<?xml version="1.0"?>\n<Clock xmlns:dt="urn:schemas-microsoft-com:datatypes"><Description dt:dt="string">E-Prime Primary Realtime Clock</Description><StartTime><Timestamp dt:dt="int">0</Timestamp><DateUtc dt:dt="string">2015-05-29T21:36:12Z</DateUtc></StartTime><FrequencyChanges><FrequencyChange><Frequency dt:dt="r8">3507705</Frequency><Timestamp dt:dt="r8">3384070818</Timestamp><Current dt:dt="r8">0</Current><DateUtc dt:dt="string">2015-05-29T21:36:12Z</DateUtc></FrequencyChange></FrequencyChanges></Clock>\n	Hungry_Donkey_bar_English_2-105-3	60.007	105	1.0.0.18	1	-910215952	Standard	2.0.10.353	2.0.10.353	05-29-2015	5/29/2015 9:36:13 PM	17:36:13	2.0.10.248	60	Bar63-37.bmp	64	3	?	0r_4g.bmp	0r_4g.bmp	0r_2g.bmp	0r_2g.bmp			0r_2g.bmp		TrialProc	TrialList	0	cvbn	-999999	16	293767	0	b	2223	295990	176	-100	76	12	60	16	-12	8	6	60	0	0	0	0	4	4	2	2	0	2
Hungry_Donkey_bar_English_2	105	3	<?xml version="1.0"?>\n<Clock xmlns:dt="urn:schemas-microsoft-com:datatypes"><Description dt:dt="string">E-Prime Primary Realtime Clock</Description><StartTime><Timestamp dt:dt="int">0</Timestamp><DateUtc dt:dt="string">2015-05-29T21:36:12Z</DateUtc></StartTime><FrequencyChanges><FrequencyChange><Frequency dt:dt="r8">3507705</Frequency><Timestamp dt:dt="r8">3384070818</Timestamp><Current dt:dt="r8">0</Current><DateUtc dt:dt="string">2015-05-29T21:36:12Z</DateUtc></FrequencyChange></FrequencyChanges></Clock>\n	Hungry_Donkey_bar_English_2-105-3	60.007	105	1.0.0.18	1	-910215952	Standard	2.0.10.353	2.0.10.353	05-29-2015	5/29/2015 9:36:13 PM	17:36:13	2.0.10.248	61	Bar63-37.bmp	64	2	?	0r_4g.bmp	0r_4g.bmp	0r_2g.bmp	0r_2g.bmp		0r_4g.bmp			TrialProc	TrialList	0	cvbn	-999999	16	298017	0	v	1829	299846	180	-100	80	12	64	16	-12	6	7	61	0	0	0	0	4	4	2	2	0	4
Hungry_Donkey_bar_English_2	105	3	<?xml version="1.0"?>\n<Clock xmlns:dt="urn:schemas-microsoft-com:datatypes"><Description dt:dt="string">E-Prime Primary Realtime Clock</Description><StartTime><Timestamp dt:dt="int">0</Timestamp><DateUtc dt:dt="string">2015-05-29T21:36:12Z</DateUtc></StartTime><FrequencyChanges><FrequencyChange><Frequency dt:dt="r8">3507705</Frequency><Timestamp dt:dt="r8">3384070818</Timestamp><Current dt:dt="r8">0</Current><DateUtc dt:dt="string">2015-05-29T21:36:12Z</DateUtc></FrequencyChange></FrequencyChanges></Clock>\n	Hungry_Donkey_bar_English_2-105-3	60.007	105	1.0.0.18	1	-910215952	Standard	2.0.10.353	2.0.10.353	05-29-2015	5/29/2015 9:36:13 PM	17:36:13	2.0.10.248	62	Bar63-37.bmp	63	1	?	10r_4g.bmp	0r_4g.bmp	2r_2g.bmp	0r_2g.bmp	10r_4g.bmp				TrialProc	TrialList	0	cvbn	-999999	16	301883	0	c	1066	302949	184	-110	74	6	64	16	-12	3	7	62	-10	0	-2	0	4	4	2	2	-10	4
Hungry_Donkey_bar_English_2	105	3	<?xml version="1.0"?>\n<Clock xmlns:dt="urn:schemas-microsoft-com:datatypes"><Description dt:dt="string">E-Prime Primary Realtime Clock</Description><StartTime><Timestamp dt:dt="int">0</Timestamp><DateUtc dt:dt="string">2015-05-29T21:36:12Z</DateUtc></StartTime><FrequencyChanges><FrequencyChange><Frequency dt:dt="r8">3507705</Frequency><Timestamp dt:dt="r8">3384070818</Timestamp><Current dt:dt="r8">0</Current><DateUtc dt:dt="string">2015-05-29T21:36:12Z</DateUtc></FrequencyChange></FrequencyChanges></Clock>\n	Hungry_Donkey_bar_English_2-105-3	60.007	105	1.0.0.18	1	-910215952	Standard	2.0.10.353	2.0.10.353	05-29-2015	5/29/2015 9:36:13 PM	17:36:13	2.0.10.248	63	Bar63-37.bmp	63	4	?	0r_4g.bmp	0r_4g.bmp	0r_2g.bmp	0r_2g.bmp				0r_2g.bmp	TrialProc	TrialList	0	cvbn	-999999	17	304983	0	n	2110	307093	186	-110	76	6	64	16	-10	8	7	63	0	0	0	0	4	4	2	2	0	2
Hungry_Donkey_bar_English_2	105	3	<?xml version="1.0"?>\n<Clock xmlns:dt="urn:schemas-microsoft-com:datatypes"><Description dt:dt="string">E-Prime Primary Realtime Clock</Description><StartTime><Timestamp dt:dt="int">0</Timestamp><DateUtc dt:dt="string">2015-05-29T21:36:12Z</DateUtc></StartTime><FrequencyChanges><FrequencyChange><Frequency dt:dt="r8">3507705</Frequency><Timestamp dt:dt="r8">3384070818</Timestamp><Current dt:dt="r8">0</Current><DateUtc dt:dt="string">2015-05-29T21:36:12Z</DateUtc></FrequencyChange></FrequencyChanges></Clock>\n	Hungry_Donkey_bar_English_2-105-3	60.007	105	1.0.0.18	1	-910215952	Standard	2.0.10.353	2.0.10.353	05-29-2015	5/29/2015 9:36:13 PM	17:36:13	2.0.10.248	64	Bar63-37.bmp	63	3	?	0r_4g.bmp	0r_4g.bmp	0r_2g.bmp	0r_2g.bmp			0r_2g.bmp		TrialProc	TrialList	0	cvbn	-999999	16	309132	0	b	665	309797	188	-110	78	6	64	18	-10	7	7	64	0	0	0	0	4	4	2	2	0	2
Hungry_Donkey_bar_English_2	105	3	<?xml version="1.0"?>\n<Clock xmlns:dt="urn:schemas-microsoft-com:datatypes"><Description dt:dt="string">E-Prime Primary Realtime Clock</Description><StartTime><Timestamp dt:dt="int">0</Timestamp><DateUtc dt:dt="string">2015-05-29T21:36:12Z</DateUtc></StartTime><FrequencyChanges><FrequencyChange><Frequency dt:dt="r8">3507705</Frequency><Timestamp dt:dt="r8">3384070818</Timestamp><Current dt:dt="r8">0</Current><DateUtc dt:dt="string">2015-05-29T21:36:12Z</DateUtc></FrequencyChange></FrequencyChanges></Clock>\n	Hungry_Donkey_bar_English_2-105-3	60.007	105	1.0.0.18	1	-910215952	Standard	2.0.10.353	2.0.10.353	05-29-2015	5/29/2015 9:36:13 PM	17:36:13	2.0.10.248	65	Bar63-37.bmp	64	2	?	0r_4g.bmp	0r_4g.bmp	0r_2g.bmp	0r_2g.bmp		0r_4g.bmp			TrialProc	TrialList	0	cvbn	-999999	16	311832	0	v	1421	313253	192	-110	82	6	68	18	-10	10	7	65	0	0	0	0	4	4	2	2	0	4
Hungry_Donkey_bar_English_2	105	3	<?xml version="1.0"?>\n<Clock xmlns:dt="urn:schemas-microsoft-com:datatypes"><Description dt:dt="string">E-Prime Primary Realtime Clock</Description><StartTime><Timestamp dt:dt="int">0</Timestamp><DateUtc dt:dt="string">2015-05-29T21:36:12Z</DateUtc></StartTime><FrequencyChanges><FrequencyChange><Frequency dt:dt="r8">3507705</Frequency><Timestamp dt:dt="r8">3384070818</Timestamp><Current dt:dt="r8">0</Current><DateUtc dt:dt="string">2015-05-29T21:36:12Z</DateUtc></FrequencyChange></FrequencyChanges></Clock>\n	Hungry_Donkey_bar_English_2-105-3	60.007	105	1.0.0.18	1	-910215952	Standard	2.0.10.353	2.0.10.353	05-29-2015	5/29/2015 9:36:13 PM	17:36:13	2.0.10.248	66	Bar63-37.bmp	62	1	?	12r_4g.bmp	0r_4g.bmp	3r_2g.bmp	0r_2g.bmp	12r_4g.bmp				TrialProc	TrialList	0	cvbn	-999999	17	315282	0	c	1363	316645	196	-122	74	-2	68	18	-10	5	7	66	-12	0	-3	0	4	4	2	2	-12	4
Hungry_Donkey_bar_English_2	105	3	<?xml version="1.0"?>\n<Clock xmlns:dt="urn:schemas-microsoft-com:datatypes"><Description dt:dt="string">E-Prime Primary Realtime Clock</Description><StartTime><Timestamp dt:dt="int">0</Timestamp><DateUtc dt:dt="string">2015-05-29T21:36:12Z</DateUtc></StartTime><FrequencyChanges><FrequencyChange><Frequency dt:dt="r8">3507705</Frequency><Timestamp dt:dt="r8">3384070818</Timestamp><Current dt:dt="r8">0</Current><DateUtc dt:dt="string">2015-05-29T21:36:12Z</DateUtc></FrequencyChange></FrequencyChanges></Clock>\n	Hungry_Donkey_bar_English_2-105-3	60.007	105	1.0.0.18	1	-910215952	Standard	2.0.10.353	2.0.10.353	05-29-2015	5/29/2015 9:36:13 PM	17:36:13	2.0.10.248	67	Bar63-37.bmp	62	4	?	10r_4g.bmp	0r_4g.bmp	2r_2g.bmp	0r_2g.bmp				0r_2g.bmp	TrialProc	TrialList	0	cvbn	-999999	16	318681	0	n	1867	320548	198	-122	76	-2	68	18	-8	4	7	67	-10	0	-2	0	4	4	2	2	0	2
Hungry_Donkey_bar_English_2	105	3	<?xml version="1.0"?>\n<Clock xmlns:dt="urn:schemas-microsoft-com:datatypes"><Description dt:dt="string">E-Prime Primary Realtime Clock</Description><StartTime><Timestamp dt:dt="int">0</Timestamp><DateUtc dt:dt="string">2015-05-29T21:36:12Z</DateUtc></StartTime><FrequencyChanges><FrequencyChange><Frequency dt:dt="r8">3507705</Frequency><Timestamp dt:dt="r8">3384070818</Timestamp><Current dt:dt="r8">0</Current><DateUtc dt:dt="string">2015-05-29T21:36:12Z</DateUtc></FrequencyChange></FrequencyChanges></Clock>\n	Hungry_Donkey_bar_English_2-105-3	60.007	105	1.0.0.18	1	-910215952	Standard	2.0.10.353	2.0.10.353	05-29-2015	5/29/2015 9:36:13 PM	17:36:13	2.0.10.248	68	Bar63-37.bmp	62	3	?	8r_4g.bmp	50r_4g.bmp	1r_2g.bmp	10r_2g.bmp			1r_2g.bmp		TrialProc	TrialList	0	cvbn	-999999	17	322581	0	b	351	322932	200	-123	77	-2	68	19	-8	1	7	68	-8	-50	-1	-10	4	4	2	2	-1	2
Hungry_Donkey_bar_English_2	105	3	<?xml version="1.0"?>\n<Clock xmlns:dt="urn:schemas-microsoft-com:datatypes"><Description dt:dt="string">E-Prime Primary Realtime Clock</Description><StartTime><Timestamp dt:dt="int">0</Timestamp><DateUtc dt:dt="string">2015-05-29T21:36:12Z</DateUtc></StartTime><FrequencyChanges><FrequencyChange><Frequency dt:dt="r8">3507705</Frequency><Timestamp dt:dt="r8">3384070818</Timestamp><Current dt:dt="r8">0</Current><DateUtc dt:dt="string">2015-05-29T21:36:12Z</DateUtc></FrequencyChange></FrequencyChanges></Clock>\n	Hungry_Donkey_bar_English_2-105-3	60.007	105	1.0.0.18	1	-910215952	Standard	2.0.10.353	2.0.10.353	05-29-2015	5/29/2015 9:36:13 PM	17:36:13	2.0.10.248	69	Bar63-37.bmp	62	2	?	10r_4g.bmp	0r_4g.bmp	2r_2g.bmp	0r_2g.bmp		0r_4g.bmp			TrialProc	TrialList	0	cvbn	-999999	17	324964	0	v	1792	326756	204	-123	81	-2	72	19	-8	2	7	69	-10	0	-2	0	4	4	2	2	0	4
Hungry_Donkey_bar_English_2	105	3	<?xml version="1.0"?>\n<Clock xmlns:dt="urn:schemas-microsoft-com:datatypes"><Description dt:dt="string">E-Prime Primary Realtime Clock</Description><StartTime><Timestamp dt:dt="int">0</Timestamp><DateUtc dt:dt="string">2015-05-29T21:36:12Z</DateUtc></StartTime><FrequencyChanges><FrequencyChange><Frequency dt:dt="r8">3507705</Frequency><Timestamp dt:dt="r8">3384070818</Timestamp><Current dt:dt="r8">0</Current><DateUtc dt:dt="string">2015-05-29T21:36:12Z</DateUtc></FrequencyChange></FrequencyChanges></Clock>\n	Hungry_Donkey_bar_English_2-105-3	60.007	105	1.0.0.18	1	-910215952	Standard	2.0.10.353	2.0.10.353	05-29-2015	5/29/2015 9:36:13 PM	17:36:13	2.0.10.248	70	Bar63-37.bmp	63	1	?	0r_4g.bmp	0r_4g.bmp	0r_2g.bmp	0r_2g.bmp	0r_4g.bmp				TrialProc	TrialList	0	cvbn	-999999	17	328797	0	c	1799	330596	208	-123	85	2	72	19	-8	9	7	70	0	0	0	0	4	4	2	2	0	4
Hungry_Donkey_bar_English_2	105	3	<?xml version="1.0"?>\n<Clock xmlns:dt="urn:schemas-microsoft-com:datatypes"><Description dt:dt="string">E-Prime Primary Realtime Clock</Description><StartTime><Timestamp dt:dt="int">0</Timestamp><DateUtc dt:dt="string">2015-05-29T21:36:12Z</DateUtc></StartTime><FrequencyChanges><FrequencyChange><Frequency dt:dt="r8">3507705</Frequency><Timestamp dt:dt="r8">3384070818</Timestamp><Current dt:dt="r8">0</Current><DateUtc dt:dt="string">2015-05-29T21:36:12Z</DateUtc></FrequencyChange></FrequencyChanges></Clock>\n	Hungry_Donkey_bar_English_2-105-3	60.007	105	1.0.0.18	1	-910215952	Standard	2.0.10.353	2.0.10.353	05-29-2015	5/29/2015 9:36:13 PM	17:36:13	2.0.10.248	71	Bar63-37.bmp	63	4	?	10r_4g.bmp	0r_4g.bmp	2r_2g.bmp	0r_2g.bmp				0r_2g.bmp	TrialProc	TrialList	0	cvbn	-999999	17	332630	0	n	1742	334372	210	-123	87	2	72	19	-6	4	8	71	-10	0	-2	0	4	4	2	2	0	2
Hungry_Donkey_bar_English_2	105	3	<?xml version="1.0"?>\n<Clock xmlns:dt="urn:schemas-microsoft-com:datatypes"><Description dt:dt="string">E-Prime Primary Realtime Clock</Description><StartTime><Timestamp dt:dt="int">0</Timestamp><DateUtc dt:dt="string">2015-05-29T21:36:12Z</DateUtc></StartTime><FrequencyChanges><FrequencyChange><Frequency dt:dt="r8">3507705</Frequency><Timestamp dt:dt="r8">3384070818</Timestamp><Current dt:dt="r8">0</Current><DateUtc dt:dt="string">2015-05-29T21:36:12Z</DateUtc></FrequencyChange></FrequencyChanges></Clock>\n	Hungry_Donkey_bar_English_2-105-3	60.007	105	1.0.0.18	1	-910215952	Standard	2.0.10.353	2.0.10.353	05-29-2015	5/29/2015 9:36:13 PM	17:36:13	2.0.10.248	72	Bar63-37.bmp	64	2	?	10r_4g.bmp	0r_4g.bmp	2r_2g.bmp	0r_2g.bmp		0r_4g.bmp			TrialProc	TrialList	0	cvbn	-999999	16	336412	0	v	2423	338835	214	-123	91	2	76	19	-6	3	8	72	-10	0	-2	0	4	4	2	2	0	4
Hungry_Donkey_bar_English_2	105	3	<?xml version="1.0"?>\n<Clock xmlns:dt="urn:schemas-microsoft-com:datatypes"><Description dt:dt="string">E-Prime Primary Realtime Clock</Description><StartTime><Timestamp dt:dt="int">0</Timestamp><DateUtc dt:dt="string">2015-05-29T21:36:12Z</DateUtc></StartTime><FrequencyChanges><FrequencyChange><Frequency dt:dt="r8">3507705</Frequency><Timestamp dt:dt="r8">3384070818</Timestamp><Current dt:dt="r8">0</Current><DateUtc dt:dt="string">2015-05-29T21:36:12Z</DateUtc></FrequencyChange></FrequencyChanges></Clock>\n	Hungry_Donkey_bar_English_2-105-3	60.007	105	1.0.0.18	1	-910215952	Standard	2.0.10.353	2.0.10.353	05-29-2015	5/29/2015 9:36:13 PM	17:36:13	2.0.10.248	73	Bar63-37.bmp	62	1	?	8r_4g.bmp	50r_4g.bmp	1r_2g.bmp	10r_2g.bmp	8r_4g.bmp				TrialProc	TrialList	0	cvbn	-999999	16	340862	0	c	2197	343059	218	-131	87	-2	76	19	-6	1	8	73	-8	-50	-1	-10	4	4	2	2	-8	4
Hungry_Donkey_bar_English_2	105	3	<?xml version="1.0"?>\n<Clock xmlns:dt="urn:schemas-microsoft-com:datatypes"><Description dt:dt="string">E-Prime Primary Realtime Clock</Description><StartTime><Timestamp dt:dt="int">0</Timestamp><DateUtc dt:dt="string">2015-05-29T21:36:12Z</DateUtc></StartTime><FrequencyChanges><FrequencyChange><Frequency dt:dt="r8">3507705</Frequency><Timestamp dt:dt="r8">3384070818</Timestamp><Current dt:dt="r8">0</Current><DateUtc dt:dt="string">2015-05-29T21:36:12Z</DateUtc></FrequencyChange></FrequencyChanges></Clock>\n	Hungry_Donkey_bar_English_2-105-3	60.007	105	1.0.0.18	1	-910215952	Standard	2.0.10.353	2.0.10.353	05-29-2015	5/29/2015 9:36:13 PM	17:36:13	2.0.10.248	74	Bar63-37.bmp	63	2	?	12r_4g.bmp	0r_4g.bmp	3r_2g.bmp	0r_2g.bmp		0r_4g.bmp			TrialProc	TrialList	0	cvbn	-999999	17	345095	0	v	1548	346643	222	-131	91	-2	80	19	-6	5	8	74	-12	0	-3	0	4	4	2	2	0	4
Hungry_Donkey_bar_English_2	105	3	<?xml version="1.0"?>\n<Clock xmlns:dt="urn:schemas-microsoft-com:datatypes"><Description dt:dt="string">E-Prime Primary Realtime Clock</Description><StartTime><Timestamp dt:dt="int">0</Timestamp><DateUtc dt:dt="string">2015-05-29T21:36:12Z</DateUtc></StartTime><FrequencyChanges><FrequencyChange><Frequency dt:dt="r8">3507705</Frequency><Timestamp dt:dt="r8">3384070818</Timestamp><Current dt:dt="r8">0</Current><DateUtc dt:dt="string">2015-05-29T21:36:12Z</DateUtc></FrequencyChange></FrequencyChanges></Clock>\n	Hungry_Donkey_bar_English_2-105-3	60.007	105	1.0.0.18	1	-910215952	Standard	2.0.10.353	2.0.10.353	05-29-2015	5/29/2015 9:36:13 PM	17:36:13	2.0.10.248	75	Bar63-37.bmp	63	4	?	0r_4g.bmp	0r_4g.bmp	0r_2g.bmp	0r_2g.bmp				0r_2g.bmp	TrialProc	TrialList	0	cvbn	-999999	17	348678	0	n	941	349619	224	-131	93	-2	80	19	-4	7	8	75	0	0	0	0	4	4	2	2	0	2
Hungry_Donkey_bar_English_2	105	3	<?xml version="1.0"?>\n<Clock xmlns:dt="urn:schemas-microsoft-com:datatypes"><Description dt:dt="string">E-Prime Primary Realtime Clock</Description><StartTime><Timestamp dt:dt="int">0</Timestamp><DateUtc dt:dt="string">2015-05-29T21:36:12Z</DateUtc></StartTime><FrequencyChanges><FrequencyChange><Frequency dt:dt="r8">3507705</Frequency><Timestamp dt:dt="r8">3384070818</Timestamp><Current dt:dt="r8">0</Current><DateUtc dt:dt="string">2015-05-29T21:36:12Z</DateUtc></FrequencyChange></FrequencyChanges></Clock>\n	Hungry_Donkey_bar_English_2-105-3	60.007	105	1.0.0.18	1	-910215952	Standard	2.0.10.353	2.0.10.353	05-29-2015	5/29/2015 9:36:13 PM	17:36:13	2.0.10.248	76	Bar63-37.bmp	63	3	?	0r_4g.bmp	0r_4g.bmp	0r_2g.bmp	0r_2g.bmp			0r_2g.bmp		TrialProc	TrialList	0	cvbn	-999999	16	351644	0	b	1719	353363	226	-131	95	-2	80	21	-4	6	8	76	0	0	0	0	4	4	2	2	0	2
Hungry_Donkey_bar_English_2	105	3	<?xml version="1.0"?>\n<Clock xmlns:dt="urn:schemas-microsoft-com:datatypes"><Description dt:dt="string">E-Prime Primary Realtime Clock</Description><StartTime><Timestamp dt:dt="int">0</Timestamp><DateUtc dt:dt="string">2015-05-29T21:36:12Z</DateUtc></StartTime><FrequencyChanges><FrequencyChange><Frequency dt:dt="r8">3507705</Frequency><Timestamp dt:dt="r8">3384070818</Timestamp><Current dt:dt="r8">0</Current><DateUtc dt:dt="string">2015-05-29T21:36:12Z</DateUtc></FrequencyChange></FrequencyChanges></Clock>\n	Hungry_Donkey_bar_English_2-105-3	60.007	105	1.0.0.18	1	-910215952	Standard	2.0.10.353	2.0.10.353	05-29-2015	5/29/2015 9:36:13 PM	17:36:13	2.0.10.248	77	Bar63-37.bmp	64	4	?	0r_4g.bmp	0r_4g.bmp	0r_2g.bmp	0r_2g.bmp				0r_2g.bmp	TrialProc	TrialList	0	cvbn	-999999	17	355394	0	n	832	356226	228	-131	97	-2	80	21	-2	8	8	77	0	0	0	0	4	4	2	2	0	2
Hungry_Donkey_bar_English_2	105	3	<?xml version="1.0"?>\n<Clock xmlns:dt="urn:schemas-microsoft-com:datatypes"><Description dt:dt="string">E-Prime Primary Realtime Clock</Description><StartTime><Timestamp dt:dt="int">0</Timestamp><DateUtc dt:dt="string">2015-05-29T21:36:12Z</DateUtc></StartTime><FrequencyChanges><FrequencyChange><Frequency dt:dt="r8">3507705</Frequency><Timestamp dt:dt="r8">3384070818</Timestamp><Current dt:dt="r8">0</Current><DateUtc dt:dt="string">2015-05-29T21:36:12Z</DateUtc></FrequencyChange></FrequencyChanges></Clock>\n	Hungry_Donkey_bar_English_2-105-3	60.007	105	1.0.0.18	1	-910215952	Standard	2.0.10.353	2.0.10.353	05-29-2015	5/29/2015 9:36:13 PM	17:36:13	2.0.10.248	78	Bar63-37.bmp	64	3	?	0r_4g.bmp	0r_4g.bmp	0r_2g.bmp	0r_2g.bmp			0r_2g.bmp		TrialProc	TrialList	0	cvbn	-999999	16	358260	0	b	1326	359586	230	-131	99	-2	80	23	-2	10	8	78	0	0	0	0	4	4	2	2	0	2
Hungry_Donkey_bar_English_2	105	3	<?xml version="1.0"?>\n<Clock xmlns:dt="urn:schemas-microsoft-com:datatypes"><Description dt:dt="string">E-Prime Primary Realtime Clock</Description><StartTime><Timestamp dt:dt="int">0</Timestamp><DateUtc dt:dt="string">2015-05-29T21:36:12Z</DateUtc></StartTime><FrequencyChanges><FrequencyChange><Frequency dt:dt="r8">3507705</Frequency><Timestamp dt:dt="r8">3384070818</Timestamp><Current dt:dt="r8">0</Current><DateUtc dt:dt="string">2015-05-29T21:36:12Z</DateUtc></FrequencyChange></FrequencyChanges></Clock>\n	Hungry_Donkey_bar_English_2-105-3	60.007	105	1.0.0.18	1	-910215952	Standard	2.0.10.353	2.0.10.353	05-29-2015	5/29/2015 9:36:13 PM	17:36:13	2.0.10.248	79	Bar63-37.bmp	64	2	?	0r_4g.bmp	0r_4g.bmp	0r_2g.bmp	0r_2g.bmp		0r_4g.bmp			TrialProc	TrialList	0	cvbn	-999999	17	361610	0	v	1256	362866	234	-131	103	-2	84	23	-2	9	8	79	0	0	0	0	4	4	2	2	0	4
Hungry_Donkey_bar_English_2	105	3	<?xml version="1.0"?>\n<Clock xmlns:dt="urn:schemas-microsoft-com:datatypes"><Description dt:dt="string">E-Prime Primary Realtime Clock</Description><StartTime><Timestamp dt:dt="int">0</Timestamp><DateUtc dt:dt="string">2015-05-29T21:36:12Z</DateUtc></StartTime><FrequencyChanges><FrequencyChange><Frequency dt:dt="r8">3507705</Frequency><Timestamp dt:dt="r8">3384070818</Timestamp><Current dt:dt="r8">0</Current><DateUtc dt:dt="string">2015-05-29T21:36:12Z</DateUtc></FrequencyChange></FrequencyChanges></Clock>\n	Hungry_Donkey_bar_English_2-105-3	60.007	105	1.0.0.18	1	-910215952	Standard	2.0.10.353	2.0.10.353	05-29-2015	5/29/2015 9:36:13 PM	17:36:13	2.0.10.248	80	Bar63-37.bmp	63	1	?	10r_4g.bmp	0r_4g.bmp	2r_2g.bmp	0r_2g.bmp	10r_4g.bmp				TrialProc	TrialList	0	cvbn	-999999	16	364892	0	c	1430	366322	238	-141	97	-8	84	23	-2	2	8	80	-10	0	-2	0	4	4	2	2	-10	4
Hungry_Donkey_bar_English_2	105	3	<?xml version="1.0"?>\n<Clock xmlns:dt="urn:schemas-microsoft-com:datatypes"><Description dt:dt="string">E-Prime Primary Realtime Clock</Description><StartTime><Timestamp dt:dt="int">0</Timestamp><DateUtc dt:dt="string">2015-05-29T21:36:12Z</DateUtc></StartTime><FrequencyChanges><FrequencyChange><Frequency dt:dt="r8">3507705</Frequency><Timestamp dt:dt="r8">3384070818</Timestamp><Current dt:dt="r8">0</Current><DateUtc dt:dt="string">2015-05-29T21:36:12Z</DateUtc></FrequencyChange></FrequencyChanges></Clock>\n	Hungry_Donkey_bar_English_2-105-3	60.007	105	1.0.0.18	1	-910215952	Standard	2.0.10.353	2.0.10.353	05-29-2015	5/29/2015 9:36:13 PM	17:36:13	2.0.10.248	81	Bar63-37.bmp	63	4	?	0r_4g.bmp	0r_4g.bmp	0r_2g.bmp	0r_2g.bmp				0r_2g.bmp	TrialProc	TrialList	0	cvbn	-999999	17	368359	0	n	2395	370754	240	-141	99	-8	84	23	0	7	9	81	0	0	0	0	4	4	2	2	0	2
Hungry_Donkey_bar_English_2	105	3	<?xml version="1.0"?>\n<Clock xmlns:dt="urn:schemas-microsoft-com:datatypes"><Description dt:dt="string">E-Prime Primary Realtime Clock</Description><StartTime><Timestamp dt:dt="int">0</Timestamp><DateUtc dt:dt="string">2015-05-29T21:36:12Z</DateUtc></StartTime><FrequencyChanges><FrequencyChange><Frequency dt:dt="r8">3507705</Frequency><Timestamp dt:dt="r8">3384070818</Timestamp><Current dt:dt="r8">0</Current><DateUtc dt:dt="string">2015-05-29T21:36:12Z</DateUtc></FrequencyChange></FrequencyChanges></Clock>\n	Hungry_Donkey_bar_English_2-105-3	60.007	105	1.0.0.18	1	-910215952	Standard	2.0.10.353	2.0.10.353	05-29-2015	5/29/2015 9:36:13 PM	17:36:13	2.0.10.248	82	Bar63-37.bmp	63	3	?	0r_4g.bmp	0r_4g.bmp	0r_2g.bmp	0r_2g.bmp			0r_2g.bmp		TrialProc	TrialList	0	cvbn	-999999	17	372792	0	b	1033	373825	242	-141	101	-8	84	25	0	10	9	82	0	0	0	0	4	4	2	2	0	2
Hungry_Donkey_bar_English_2	105	3	<?xml version="1.0"?>\n<Clock xmlns:dt="urn:schemas-microsoft-com:datatypes"><Description dt:dt="string">E-Prime Primary Realtime Clock</Description><StartTime><Timestamp dt:dt="int">0</Timestamp><DateUtc dt:dt="string">2015-05-29T21:36:12Z</DateUtc></StartTime><FrequencyChanges><FrequencyChange><Frequency dt:dt="r8">3507705</Frequency><Timestamp dt:dt="r8">3384070818</Timestamp><Current dt:dt="r8">0</Current><DateUtc dt:dt="string">2015-05-29T21:36:12Z</DateUtc></FrequencyChange></FrequencyChanges></Clock>\n	Hungry_Donkey_bar_English_2-105-3	60.007	105	1.0.0.18	1	-910215952	Standard	2.0.10.353	2.0.10.353	05-29-2015	5/29/2015 9:36:13 PM	17:36:13	2.0.10.248	83	Bar63-37.bmp	64	2	?	0r_4g.bmp	0r_4g.bmp	0r_2g.bmp	0r_2g.bmp		0r_4g.bmp			TrialProc	TrialList	0	cvbn	-999999	17	375858	0	v	1087	376945	246	-141	105	-8	88	25	0	9	9	83	0	0	0	0	4	4	2	2	0	4
Hungry_Donkey_bar_English_2	105	3	<?xml version="1.0"?>\n<Clock xmlns:dt="urn:schemas-microsoft-com:datatypes"><Description dt:dt="string">E-Prime Primary Realtime Clock</Description><StartTime><Timestamp dt:dt="int">0</Timestamp><DateUtc dt:dt="string">2015-05-29T21:36:12Z</DateUtc></StartTime><FrequencyChanges><FrequencyChange><Frequency dt:dt="r8">3507705</Frequency><Timestamp dt:dt="r8">3384070818</Timestamp><Current dt:dt="r8">0</Current><DateUtc dt:dt="string">2015-05-29T21:36:12Z</DateUtc></FrequencyChange></FrequencyChanges></Clock>\n	Hungry_Donkey_bar_English_2-105-3	60.007	105	1.0.0.18	1	-910215952	Standard	2.0.10.353	2.0.10.353	05-29-2015	5/29/2015 9:36:13 PM	17:36:13	2.0.10.248	84	Bar63-37.bmp	62	1	?	10r_4g.bmp	0r_4g.bmp	2r_2g.bmp	0r_2g.bmp	10r_4g.bmp				TrialProc	TrialList	0	cvbn	-999999	16	378974	0	c	1539	380513	250	-151	99	-14	88	25	0	2	9	84	-10	0	-2	0	4	4	2	2	-10	4
Hungry_Donkey_bar_English_2	105	3	<?xml version="1.0"?>\n<Clock xmlns:dt="urn:schemas-microsoft-com:datatypes"><Description dt:dt="string">E-Prime Primary Realtime Clock</Description><StartTime><Timestamp dt:dt="int">0</Timestamp><DateUtc dt:dt="string">2015-05-29T21:36:12Z</DateUtc></StartTime><FrequencyChanges><FrequencyChange><Frequency dt:dt="r8">3507705</Frequency><Timestamp dt:dt="r8">3384070818</Timestamp><Current dt:dt="r8">0</Current><DateUtc dt:dt="string">2015-05-29T21:36:12Z</DateUtc></FrequencyChange></FrequencyChanges></Clock>\n	Hungry_Donkey_bar_English_2-105-3	60.007	105	1.0.0.18	1	-910215952	Standard	2.0.10.353	2.0.10.353	05-29-2015	5/29/2015 9:36:13 PM	17:36:13	2.0.10.248	85	Bar63-37.bmp	63	4	?	10r_4g.bmp	0r_4g.bmp	2r_2g.bmp	0r_2g.bmp				0r_2g.bmp	TrialProc	TrialList	0	cvbn	-999999	16	382540	0	n	1829	384369	252	-151	101	-14	88	25	2	4	9	85	-10	0	-2	0	4	4	2	2	0	2
Hungry_Donkey_bar_English_2	105	3	<?xml version="1.0"?>\n<Clock xmlns:dt="urn:schemas-microsoft-com:datatypes"><Description dt:dt="string">E-Prime Primary Realtime Clock</Description><StartTime><Timestamp dt:dt="int">0</Timestamp><DateUtc dt:dt="string">2015-05-29T21:36:12Z</DateUtc></StartTime><FrequencyChanges><FrequencyChange><Frequency dt:dt="r8">3507705</Frequency><Timestamp dt:dt="r8">3384070818</Timestamp><Current dt:dt="r8">0</Current><DateUtc dt:dt="string">2015-05-29T21:36:12Z</DateUtc></FrequencyChange></FrequencyChanges></Clock>\n	Hungry_Donkey_bar_English_2-105-3	60.007	105	1.0.0.18	1	-910215952	Standard	2.0.10.353	2.0.10.353	05-29-2015	5/29/2015 9:36:13 PM	17:36:13	2.0.10.248	86	Bar63-37.bmp	62	3	?	10r_4g.bmp	0r_4g.bmp	2r_2g.bmp	0r_2g.bmp			2r_2g.bmp		TrialProc	TrialList	0	cvbn	-999999	17	386407	0	b	762	387169	254	-153	101	-14	88	25	2	3	9	86	-10	0	-2	0	4	4	2	2	-2	2
Hungry_Donkey_bar_English_2	105	3	<?xml version="1.0"?>\n<Clock xmlns:dt="urn:schemas-microsoft-com:datatypes"><Description dt:dt="string">E-Prime Primary Realtime Clock</Description><StartTime><Timestamp dt:dt="int">0</Timestamp><DateUtc dt:dt="string">2015-05-29T21:36:12Z</DateUtc></StartTime><FrequencyChanges><FrequencyChange><Frequency dt:dt="r8">3507705</Frequency><Timestamp dt:dt="r8">3384070818</Timestamp><Current dt:dt="r8">0</Current><DateUtc dt:dt="string">2015-05-29T21:36:12Z</DateUtc></FrequencyChange></FrequencyChanges></Clock>\n	Hungry_Donkey_bar_English_2-105-3	60.007	105	1.0.0.18	1	-910215952	Standard	2.0.10.353	2.0.10.353	05-29-2015	5/29/2015 9:36:13 PM	17:36:13	2.0.10.248	87	Bar63-37.bmp	63	2	?	0r_4g.bmp	0r_4g.bmp	0r_2g.bmp	0r_2g.bmp		0r_4g.bmp			TrialProc	TrialList	0	cvbn	-999999	16	389206	0	v	1594	390800	258	-153	105	-14	92	25	2	6	9	87	0	0	0	0	4	4	2	2	0	4
Hungry_Donkey_bar_English_2	105	3	<?xml version="1.0"?>\n<Clock xmlns:dt="urn:schemas-microsoft-com:datatypes"><Description dt:dt="string">E-Prime Primary Realtime Clock</Description><StartTime><Timestamp dt:dt="int">0</Timestamp><DateUtc dt:dt="string">2015-05-29T21:36:12Z</DateUtc></StartTime><FrequencyChanges><FrequencyChange><Frequency dt:dt="r8">3507705</Frequency><Timestamp dt:dt="r8">3384070818</Timestamp><Current dt:dt="r8">0</Current><DateUtc dt:dt="string">2015-05-29T21:36:12Z</DateUtc></FrequencyChange></FrequencyChanges></Clock>\n	Hungry_Donkey_bar_English_2-105-3	60.007	105	1.0.0.18	1	-910215952	Standard	2.0.10.353	2.0.10.353	05-29-2015	5/29/2015 9:36:13 PM	17:36:13	2.0.10.248	88	Bar63-37.bmp	61	1	?	12r_4g.bmp	0r_4g.bmp	3r_2g.bmp	0r_2g.bmp	12r_4g.bmp				TrialProc	TrialList	0	cvbn	-999999	16	392839	0	c	1033	393872	262	-165	97	-22	92	25	2	5	9	88	-12	0	-3	0	4	4	2	2	-12	4
Hungry_Donkey_bar_English_2	105	3	<?xml version="1.0"?>\n<Clock xmlns:dt="urn:schemas-microsoft-com:datatypes"><Description dt:dt="string">E-Prime Primary Realtime Clock</Description><StartTime><Timestamp dt:dt="int">0</Timestamp><DateUtc dt:dt="string">2015-05-29T21:36:12Z</DateUtc></StartTime><FrequencyChanges><FrequencyChange><Frequency dt:dt="r8">3507705</Frequency><Timestamp dt:dt="r8">3384070818</Timestamp><Current dt:dt="r8">0</Current><DateUtc dt:dt="string">2015-05-29T21:36:12Z</DateUtc></FrequencyChange></FrequencyChanges></Clock>\n	Hungry_Donkey_bar_English_2-105-3	60.007	105	1.0.0.18	1	-910215952	Standard	2.0.10.353	2.0.10.353	05-29-2015	5/29/2015 9:36:13 PM	17:36:13	2.0.10.248	89	Bar63-37.bmp	60	4	?	8r_4g.bmp	50r_4g.bmp	1r_2g.bmp	10r_2g.bmp				10r_2g.bmp	TrialProc	TrialList	0	cvbn	-999999	17	395906	0	n	1742	397648	264	-175	89	-22	92	25	-6	1	9	89	-8	-50	-1	-10	4	4	2	2	-10	2
Hungry_Donkey_bar_English_2	105	3	<?xml version="1.0"?>\n<Clock xmlns:dt="urn:schemas-microsoft-com:datatypes"><Description dt:dt="string">E-Prime Primary Realtime Clock</Description><StartTime><Timestamp dt:dt="int">0</Timestamp><DateUtc dt:dt="string">2015-05-29T21:36:12Z</DateUtc></StartTime><FrequencyChanges><FrequencyChange><Frequency dt:dt="r8">3507705</Frequency><Timestamp dt:dt="r8">3384070818</Timestamp><Current dt:dt="r8">0</Current><DateUtc dt:dt="string">2015-05-29T21:36:12Z</DateUtc></FrequencyChange></FrequencyChanges></Clock>\n	Hungry_Donkey_bar_English_2-105-3	60.007	105	1.0.0.18	1	-910215952	Standard	2.0.10.353	2.0.10.353	05-29-2015	5/29/2015 9:36:13 PM	17:36:13	2.0.10.248	90	Bar63-37.bmp	60	3	?	0r_4g.bmp	0r_4g.bmp	0r_2g.bmp	0r_2g.bmp			0r_2g.bmp		TrialProc	TrialList	0	cvbn	-999999	16	399688	0	b	1512	401200	266	-175	91	-22	92	27	-6	8	9	90	0	0	0	0	4	4	2	2	0	2
Hungry_Donkey_bar_English_2	105	3	<?xml version="1.0"?>\n<Clock xmlns:dt="urn:schemas-microsoft-com:datatypes"><Description dt:dt="string">E-Prime Primary Realtime Clock</Description><StartTime><Timestamp dt:dt="int">0</Timestamp><DateUtc dt:dt="string">2015-05-29T21:36:12Z</DateUtc></StartTime><FrequencyChanges><FrequencyChange><Frequency dt:dt="r8">3507705</Frequency><Timestamp dt:dt="r8">3384070818</Timestamp><Current dt:dt="r8">0</Current><DateUtc dt:dt="string">2015-05-29T21:36:12Z</DateUtc></FrequencyChange></FrequencyChanges></Clock>\n	Hungry_Donkey_bar_English_2-105-3	60.007	105	1.0.0.18	1	-910215952	Standard	2.0.10.353	2.0.10.353	05-29-2015	5/29/2015 9:36:13 PM	17:36:13	2.0.10.248	91	Bar63-37.bmp	61	2	?	0r_4g.bmp	0r_4g.bmp	0r_2g.bmp	0r_2g.bmp		0r_4g.bmp			TrialProc	TrialList	0	cvbn	-999999	16	403238	0	v	1674	404912	270	-175	95	-22	96	27	-6	7	10	91	0	0	0	0	4	4	2	2	0	4
Hungry_Donkey_bar_English_2	105	3	<?xml version="1.0"?>\n<Clock xmlns:dt="urn:schemas-microsoft-com:datatypes"><Description dt:dt="string">E-Prime Primary Realtime Clock</Description><StartTime><Timestamp dt:dt="int">0</Timestamp><DateUtc dt:dt="string">2015-05-29T21:36:12Z</DateUtc></StartTime><FrequencyChanges><FrequencyChange><Frequency dt:dt="r8">3507705</Frequency><Timestamp dt:dt="r8">3384070818</Timestamp><Current dt:dt="r8">0</Current><DateUtc dt:dt="string">2015-05-29T21:36:12Z</DateUtc></FrequencyChange></FrequencyChanges></Clock>\n	Hungry_Donkey_bar_English_2-105-3	60.007	105	1.0.0.18	1	-910215952	Standard	2.0.10.353	2.0.10.353	05-29-2015	5/29/2015 9:36:13 PM	17:36:13	2.0.10.248	92	Bar50-50.bmp	55	2	?	8r_4g.bmp	50r_4g.bmp	1r_2g.bmp	10r_2g.bmp		50r_4g.bmp			TrialProc	TrialList	0	cvbn	-999999	17	406938	0	v	1445	408383	274	-225	49	-22	50	27	-6	1	10	92	-8	-50	-1	-10	4	4	2	2	-50	4
Hungry_Donkey_bar_English_2	105	3	<?xml version="1.0"?>\n<Clock xmlns:dt="urn:schemas-microsoft-com:datatypes"><Description dt:dt="string">E-Prime Primary Realtime Clock</Description><StartTime><Timestamp dt:dt="int">0</Timestamp><DateUtc dt:dt="string">2015-05-29T21:36:12Z</DateUtc></StartTime><FrequencyChanges><FrequencyChange><Frequency dt:dt="r8">3507705</Frequency><Timestamp dt:dt="r8">3384070818</Timestamp><Current dt:dt="r8">0</Current><DateUtc dt:dt="string">2015-05-29T21:36:12Z</DateUtc></FrequencyChange></FrequencyChanges></Clock>\n	Hungry_Donkey_bar_English_2-105-3	60.007	105	1.0.0.18	1	-910215952	Standard	2.0.10.353	2.0.10.353	05-29-2015	5/29/2015 9:36:13 PM	17:36:13	2.0.10.248	93	Bar50-50.bmp	54	1	?	10r_4g.bmp	0r_4g.bmp	2r_2g.bmp	0r_2g.bmp	10r_4g.bmp				TrialProc	TrialList	0	cvbn	-999999	17	410421	0	c	3818	414239	278	-235	43	-28	50	27	-6	4	10	93	-10	0	-2	0	4	4	2	2	-10	4
Hungry_Donkey_bar_English_2	105	3	<?xml version="1.0"?>\n<Clock xmlns:dt="urn:schemas-microsoft-com:datatypes"><Description dt:dt="string">E-Prime Primary Realtime Clock</Description><StartTime><Timestamp dt:dt="int">0</Timestamp><DateUtc dt:dt="string">2015-05-29T21:36:12Z</DateUtc></StartTime><FrequencyChanges><FrequencyChange><Frequency dt:dt="r8">3507705</Frequency><Timestamp dt:dt="r8">3384070818</Timestamp><Current dt:dt="r8">0</Current><DateUtc dt:dt="string">2015-05-29T21:36:12Z</DateUtc></FrequencyChange></FrequencyChanges></Clock>\n	Hungry_Donkey_bar_English_2-105-3	60.007	105	1.0.0.18	1	-910215952	Standard	2.0.10.353	2.0.10.353	05-29-2015	5/29/2015 9:36:13 PM	17:36:13	2.0.10.248	94	Bar50-50.bmp	55	2	?	12r_4g.bmp	0r_4g.bmp	3r_2g.bmp	0r_2g.bmp		0r_4g.bmp			TrialProc	TrialList	0	cvbn	-999999	17	416270	0	v	1809	418079	282	-235	47	-28	54	27	-6	5	10	94	-12	0	-3	0	4	4	2	2	0	4
Hungry_Donkey_bar_English_2	105	3	<?xml version="1.0"?>\n<Clock xmlns:dt="urn:schemas-microsoft-com:datatypes"><Description dt:dt="string">E-Prime Primary Realtime Clock</Description><StartTime><Timestamp dt:dt="int">0</Timestamp><DateUtc dt:dt="string">2015-05-29T21:36:12Z</DateUtc></StartTime><FrequencyChanges><FrequencyChange><Frequency dt:dt="r8">3507705</Frequency><Timestamp dt:dt="r8">3384070818</Timestamp><Current dt:dt="r8">0</Current><DateUtc dt:dt="string">2015-05-29T21:36:12Z</DateUtc></FrequencyChange></FrequencyChanges></Clock>\n	Hungry_Donkey_bar_English_2-105-3	60.007	105	1.0.0.18	1	-910215952	Standard	2.0.10.353	2.0.10.353	05-29-2015	5/29/2015 9:36:13 PM	17:36:13	2.0.10.248	95	Bar50-50.bmp	55	3	?	0r_4g.bmp	0r_4g.bmp	0r_2g.bmp	0r_2g.bmp			0r_2g.bmp		TrialProc	TrialList	0	cvbn	-999999	16	420119	0	b	1224	421343	284	-235	49	-28	54	29	-6	6	10	95	0	0	0	0	4	4	2	2	0	2
Hungry_Donkey_bar_English_2	105	3	<?xml version="1.0"?>\n<Clock xmlns:dt="urn:schemas-microsoft-com:datatypes"><Description dt:dt="string">E-Prime Primary Realtime Clock</Description><StartTime><Timestamp dt:dt="int">0</Timestamp><DateUtc dt:dt="string">2015-05-29T21:36:12Z</DateUtc></StartTime><FrequencyChanges><FrequencyChange><Frequency dt:dt="r8">3507705</Frequency><Timestamp dt:dt="r8">3384070818</Timestamp><Current dt:dt="r8">0</Current><DateUtc dt:dt="string">2015-05-29T21:36:12Z</DateUtc></FrequencyChange></FrequencyChanges></Clock>\n	Hungry_Donkey_bar_English_2-105-3	60.007	105	1.0.0.18	1	-910215952	Standard	2.0.10.353	2.0.10.353	05-29-2015	5/29/2015 9:36:13 PM	17:36:13	2.0.10.248	96	Bar50-50.bmp	55	4	?	0r_4g.bmp	0r_4g.bmp	0r_2g.bmp	0r_2g.bmp				0r_2g.bmp	TrialProc	TrialList	0	cvbn	-999999	16	423369	0	n	1302	424671	286	-235	51	-28	54	29	-4	10	10	96	0	0	0	0	4	4	2	2	0	2
Hungry_Donkey_bar_English_2	105	3	<?xml version="1.0"?>\n<Clock xmlns:dt="urn:schemas-microsoft-com:datatypes"><Description dt:dt="string">E-Prime Primary Realtime Clock</Description><StartTime><Timestamp dt:dt="int">0</Timestamp><DateUtc dt:dt="string">2015-05-29T21:36:12Z</DateUtc></StartTime><FrequencyChanges><FrequencyChange><Frequency dt:dt="r8">3507705</Frequency><Timestamp dt:dt="r8">3384070818</Timestamp><Current dt:dt="r8">0</Current><DateUtc dt:dt="string">2015-05-29T21:36:12Z</DateUtc></FrequencyChange></FrequencyChanges></Clock>\n	Hungry_Donkey_bar_English_2-105-3	60.007	105	1.0.0.18	1	-910215952	Standard	2.0.10.353	2.0.10.353	05-29-2015	5/29/2015 9:36:13 PM	17:36:13	2.0.10.248	97	Bar50-50.bmp	55	3	?	0r_4g.bmp	0r_4g.bmp	0r_2g.bmp	0r_2g.bmp			0r_2g.bmp		TrialProc	TrialList	0	cvbn	-999999	17	426702	0	b	2416	429118	288	-235	53	-28	54	31	-4	9	10	97	0	0	0	0	4	4	2	2	0	2
Hungry_Donkey_bar_English_2	105	3	<?xml version="1.0"?>\n<Clock xmlns:dt="urn:schemas-microsoft-com:datatypes"><Description dt:dt="string">E-Prime Primary Realtime Clock</Description><StartTime><Timestamp dt:dt="int">0</Timestamp><DateUtc dt:dt="string">2015-05-29T21:36:12Z</DateUtc></StartTime><FrequencyChanges><FrequencyChange><Frequency dt:dt="r8">3507705</Frequency><Timestamp dt:dt="r8">3384070818</Timestamp><Current dt:dt="r8">0</Current><DateUtc dt:dt="string">2015-05-29T21:36:12Z</DateUtc></FrequencyChange></FrequencyChanges></Clock>\n	Hungry_Donkey_bar_English_2-105-3	60.007	105	1.0.0.18	1	-910215952	Standard	2.0.10.353	2.0.10.353	05-29-2015	5/29/2015 9:36:13 PM	17:36:13	2.0.10.248	98	Bar50-50.bmp	55	2	?	0r_4g.bmp	0r_4g.bmp	0r_2g.bmp	0r_2g.bmp		0r_4g.bmp			TrialProc	TrialList	0	cvbn	-999999	16	431151	0	v	2607	433758	292	-235	57	-28	58	31	-4	8	10	98	0	0	0	0	4	4	2	2	0	4
Hungry_Donkey_bar_English_2	105	3	<?xml version="1.0"?>\n<Clock xmlns:dt="urn:schemas-microsoft-com:datatypes"><Description dt:dt="string">E-Prime Primary Realtime Clock</Description><StartTime><Timestamp dt:dt="int">0</Timestamp><DateUtc dt:dt="string">2015-05-29T21:36:12Z</DateUtc></StartTime><FrequencyChanges><FrequencyChange><Frequency dt:dt="r8">3507705</Frequency><Timestamp dt:dt="r8">3384070818</Timestamp><Current dt:dt="r8">0</Current><DateUtc dt:dt="string">2015-05-29T21:36:12Z</DateUtc></FrequencyChange></FrequencyChanges></Clock>\n	Hungry_Donkey_bar_English_2-105-3	60.007	105	1.0.0.18	1	-910215952	Standard	2.0.10.353	2.0.10.353	05-29-2015	5/29/2015 9:36:13 PM	17:36:13	2.0.10.248	99	Bar50-50.bmp	55	1	?	10r_4g.bmp	0r_4g.bmp	2r_2g.bmp	0r_2g.bmp	10r_4g.bmp				TrialProc	TrialList	0	cvbn	-999999	16	435784	0	c	1430	437214	296	-245	51	-34	58	31	-4	3	10	99	-10	0	-2	0	4	4	2	2	-10	4
Hungry_Donkey_bar_English_2	105	3	<?xml version="1.0"?>\n<Clock xmlns:dt="urn:schemas-microsoft-com:datatypes"><Description dt:dt="string">E-Prime Primary Realtime Clock</Description><StartTime><Timestamp dt:dt="int">0</Timestamp><DateUtc dt:dt="string">2015-05-29T21:36:12Z</DateUtc></StartTime><FrequencyChanges><FrequencyChange><Frequency dt:dt="r8">3507705</Frequency><Timestamp dt:dt="r8">3384070818</Timestamp><Current dt:dt="r8">0</Current><DateUtc dt:dt="string">2015-05-29T21:36:12Z</DateUtc></FrequencyChange></FrequencyChanges></Clock>\n	Hungry_Donkey_bar_English_2-105-3	60.007	105	1.0.0.18	1	-910215952	Standard	2.0.10.353	2.0.10.353	05-29-2015	5/29/2015 9:36:13 PM	17:36:13	2.0.10.248	100	Bar50-50.bmp	55	4	?	10r_4g.bmp	0r_4g.bmp	2r_2g.bmp	0r_2g.bmp				0r_2g.bmp	TrialProc	TrialList	0	cvbn	-999999	16	439250	0	n	2780	442030	298	-245	53	-34	58	31	-2	2	10	100	-10	0	-2	0	4	4	2	2	0	2
Hungry_Donkey_bar_English_2	105	3	<?xml version="1.0"?>\n<Clock xmlns:dt="urn:schemas-microsoft-com:datatypes"><Description dt:dt="string">E-Prime Primary Realtime Clock</Description><StartTime><Timestamp dt:dt="int">0</Timestamp><DateUtc dt:dt="string">2015-05-29T21:36:12Z</DateUtc></StartTime><FrequencyChanges><FrequencyChange><Frequency dt:dt="r8">3507705</Frequency><Timestamp dt:dt="r8">3384070818</Timestamp><Current dt:dt="r8">0</Current><DateUtc dt:dt="string">2015-05-29T21:36:12Z</DateUtc></FrequencyChange></FrequencyChanges></Clock>\n	Hungry_Donkey_bar_English_2-105-3	60.007	105	1.0.0.18	1	-910215952	Standard	2.0.10.353	2.0.10.353	05-29-2015	5/29/2015 9:36:13 PM	17:36:13	2.0.10.248	101	Bar50-50.bmp	55	3	?	10r_4g.bmp	0r_4g.bmp	2r_2g.bmp	0r_2g.bmp			2r_2g.bmp		TrialProc	TrialList	0	cvbn	-999999	17	444067	0	b	1194	445261	300	-247	53	-34	58	31	-2	2	11	101	-10	0	-2	0	4	4	2	2	-2	2
Hungry_Donkey_bar_English_2	105	3	<?xml version="1.0"?>\n<Clock xmlns:dt="urn:schemas-microsoft-com:datatypes"><Description dt:dt="string">E-Prime Primary Realtime Clock</Description><StartTime><Timestamp dt:dt="int">0</Timestamp><DateUtc dt:dt="string">2015-05-29T21:36:12Z</DateUtc></StartTime><FrequencyChanges><FrequencyChange><Frequency dt:dt="r8">3507705</Frequency><Timestamp dt:dt="r8">3384070818</Timestamp><Current dt:dt="r8">0</Current><DateUtc dt:dt="string">2015-05-29T21:36:12Z</DateUtc></FrequencyChange></FrequencyChanges></Clock>\n	Hungry_Donkey_bar_English_2-105-3	60.007	105	1.0.0.18	1	-910215952	Standard	2.0.10.353	2.0.10.353	05-29-2015	5/29/2015 9:36:13 PM	17:36:13	2.0.10.248	102	Bar50-50.bmp	55	2	?	10r_4g.bmp	0r_4g.bmp	2r_2g.bmp	0r_2g.bmp		0r_4g.bmp			TrialProc	TrialList	0	cvbn	-999999	17	447300	0	v	1785	449085	304	-247	57	-34	62	31	-2	3	11	102	-10	0	-2	0	4	4	2	2	0	4
Hungry_Donkey_bar_English_2	105	3	<?xml version="1.0"?>\n<Clock xmlns:dt="urn:schemas-microsoft-com:datatypes"><Description dt:dt="string">E-Prime Primary Realtime Clock</Description><StartTime><Timestamp dt:dt="int">0</Timestamp><DateUtc dt:dt="string">2015-05-29T21:36:12Z</DateUtc></StartTime><FrequencyChanges><FrequencyChange><Frequency dt:dt="r8">3507705</Frequency><Timestamp dt:dt="r8">3384070818</Timestamp><Current dt:dt="r8">0</Current><DateUtc dt:dt="string">2015-05-29T21:36:12Z</DateUtc></FrequencyChange></FrequencyChanges></Clock>\n	Hungry_Donkey_bar_English_2-105-3	60.007	105	1.0.0.18	1	-910215952	Standard	2.0.10.353	2.0.10.353	05-29-2015	5/29/2015 9:36:13 PM	17:36:13	2.0.10.248	103	Bar50-50.bmp	55	1	?	0r_4g.bmp	0r_4g.bmp	0r_2g.bmp	0r_2g.bmp	0r_4g.bmp				TrialProc	TrialList	0	cvbn	-999999	17	451116	0	c	1025	452141	308	-247	61	-30	62	31	-2	9	11	103	0	0	0	0	4	4	2	2	0	4
Hungry_Donkey_bar_English_2	105	3	<?xml version="1.0"?>\n<Clock xmlns:dt="urn:schemas-microsoft-com:datatypes"><Description dt:dt="string">E-Prime Primary Realtime Clock</Description><StartTime><Timestamp dt:dt="int">0</Timestamp><DateUtc dt:dt="string">2015-05-29T21:36:12Z</DateUtc></StartTime><FrequencyChanges><FrequencyChange><Frequency dt:dt="r8">3507705</Frequency><Timestamp dt:dt="r8">3384070818</Timestamp><Current dt:dt="r8">0</Current><DateUtc dt:dt="string">2015-05-29T21:36:12Z</DateUtc></FrequencyChange></FrequencyChanges></Clock>\n	Hungry_Donkey_bar_English_2-105-3	60.007	105	1.0.0.18	1	-910215952	Standard	2.0.10.353	2.0.10.353	05-29-2015	5/29/2015 9:36:13 PM	17:36:13	2.0.10.248	104	Bar50-50.bmp	56	4	?	12r_4g.bmp	0r_4g.bmp	3r_2g.bmp	0r_2g.bmp				0r_2g.bmp	TrialProc	TrialList	0	cvbn	-999999	16	454182	0	n	1623	455805	310	-247	63	-30	62	31	0	5	11	104	-12	0	-3	0	4	4	2	2	0	2
Hungry_Donkey_bar_English_2	105	3	<?xml version="1.0"?>\n<Clock xmlns:dt="urn:schemas-microsoft-com:datatypes"><Description dt:dt="string">E-Prime Primary Realtime Clock</Description><StartTime><Timestamp dt:dt="int">0</Timestamp><DateUtc dt:dt="string">2015-05-29T21:36:12Z</DateUtc></StartTime><FrequencyChanges><FrequencyChange><Frequency dt:dt="r8">3507705</Frequency><Timestamp dt:dt="r8">3384070818</Timestamp><Current dt:dt="r8">0</Current><DateUtc dt:dt="string">2015-05-29T21:36:12Z</DateUtc></FrequencyChange></FrequencyChanges></Clock>\n	Hungry_Donkey_bar_English_2-105-3	60.007	105	1.0.0.18	1	-910215952	Standard	2.0.10.353	2.0.10.353	05-29-2015	5/29/2015 9:36:13 PM	17:36:13	2.0.10.248	105	Bar50-50.bmp	56	3	?	0r_4g.bmp	0r_4g.bmp	0r_2g.bmp	0r_2g.bmp			0r_2g.bmp		TrialProc	TrialList	0	cvbn	-999999	16	457832	0	b	1301	459133	312	-247	65	-30	62	33	0	6	11	105	0	0	0	0	4	4	2	2	0	2
Hungry_Donkey_bar_English_2	105	3	<?xml version="1.0"?>\n<Clock xmlns:dt="urn:schemas-microsoft-com:datatypes"><Description dt:dt="string">E-Prime Primary Realtime Clock</Description><StartTime><Timestamp dt:dt="int">0</Timestamp><DateUtc dt:dt="string">2015-05-29T21:36:12Z</DateUtc></StartTime><FrequencyChanges><FrequencyChange><Frequency dt:dt="r8">3507705</Frequency><Timestamp dt:dt="r8">3384070818</Timestamp><Current dt:dt="r8">0</Current><DateUtc dt:dt="string">2015-05-29T21:36:12Z</DateUtc></FrequencyChange></FrequencyChanges></Clock>\n	Hungry_Donkey_bar_English_2-105-3	60.007	105	1.0.0.18	1	-910215952	Standard	2.0.10.353	2.0.10.353	05-29-2015	5/29/2015 9:36:13 PM	17:36:13	2.0.10.248	106	Bar50-50.bmp	52	2	?	8r_4g.bmp	50r_4g.bmp	1r_2g.bmp	10r_2g.bmp		50r_4g.bmp			TrialProc	TrialList	0	cvbn	-999999	17	461165	0	v	1647	462812	316	-297	19	-30	16	33	0	1	11	106	-8	-50	-1	-10	4	4	2	2	-50	4
Hungry_Donkey_bar_English_2	105	3	<?xml version="1.0"?>\n<Clock xmlns:dt="urn:schemas-microsoft-com:datatypes"><Description dt:dt="string">E-Prime Primary Realtime Clock</Description><StartTime><Timestamp dt:dt="int">0</Timestamp><DateUtc dt:dt="string">2015-05-29T21:36:12Z</DateUtc></StartTime><FrequencyChanges><FrequencyChange><Frequency dt:dt="r8">3507705</Frequency><Timestamp dt:dt="r8">3384070818</Timestamp><Current dt:dt="r8">0</Current><DateUtc dt:dt="string">2015-05-29T21:36:12Z</DateUtc></FrequencyChange></FrequencyChanges></Clock>\n	Hungry_Donkey_bar_English_2-105-3	60.007	105	1.0.0.18	1	-910215952	Standard	2.0.10.353	2.0.10.353	05-29-2015	5/29/2015 9:36:13 PM	17:36:13	2.0.10.248	107	Bar50-50.bmp	52	1	?	0r_4g.bmp	0r_4g.bmp	0r_2g.bmp	0r_2g.bmp	0r_4g.bmp				TrialProc	TrialList	0	cvbn	-999999	16	464847	0	c	2413	467260	320	-297	23	-26	16	33	0	7	11	107	0	0	0	0	4	4	2	2	0	4
Hungry_Donkey_bar_English_2	105	3	<?xml version="1.0"?>\n<Clock xmlns:dt="urn:schemas-microsoft-com:datatypes"><Description dt:dt="string">E-Prime Primary Realtime Clock</Description><StartTime><Timestamp dt:dt="int">0</Timestamp><DateUtc dt:dt="string">2015-05-29T21:36:12Z</DateUtc></StartTime><FrequencyChanges><FrequencyChange><Frequency dt:dt="r8">3507705</Frequency><Timestamp dt:dt="r8">3384070818</Timestamp><Current dt:dt="r8">0</Current><DateUtc dt:dt="string">2015-05-29T21:36:12Z</DateUtc></FrequencyChange></FrequencyChanges></Clock>\n	Hungry_Donkey_bar_English_2-105-3	60.007	105	1.0.0.18	1	-910215952	Standard	2.0.10.353	2.0.10.353	05-29-2015	5/29/2015 9:36:13 PM	17:36:13	2.0.10.248	108	Bar50-50.bmp	52	2	?	0r_4g.bmp	0r_4g.bmp	0r_2g.bmp	0r_2g.bmp		0r_4g.bmp			TrialProc	TrialList	0	cvbn	-999999	16	469297	0	v	2139	471436	324	-297	27	-26	20	33	0	8	11	108	0	0	0	0	4	4	2	2	0	4
Hungry_Donkey_bar_English_2	105	3	<?xml version="1.0"?>\n<Clock xmlns:dt="urn:schemas-microsoft-com:datatypes"><Description dt:dt="string">E-Prime Primary Realtime Clock</Description><StartTime><Timestamp dt:dt="int">0</Timestamp><DateUtc dt:dt="string">2015-05-29T21:36:12Z</DateUtc></StartTime><FrequencyChanges><FrequencyChange><Frequency dt:dt="r8">3507705</Frequency><Timestamp dt:dt="r8">3384070818</Timestamp><Current dt:dt="r8">0</Current><DateUtc dt:dt="string">2015-05-29T21:36:12Z</DateUtc></FrequencyChange></FrequencyChanges></Clock>\n	Hungry_Donkey_bar_English_2-105-3	60.007	105	1.0.0.18	1	-910215952	Standard	2.0.10.353	2.0.10.353	05-29-2015	5/29/2015 9:36:13 PM	17:36:13	2.0.10.248	109	Bar50-50.bmp	52	3	?	10r_4g.bmp	0r_4g.bmp	2r_2g.bmp	0r_2g.bmp			2r_2g.bmp		TrialProc	TrialList	0	cvbn	-999999	16	473463	0	b	2805	476268	326	-299	27	-26	20	33	0	4	11	109	-10	0	-2	0	4	4	2	2	-2	2
Hungry_Donkey_bar_English_2	105	3	<?xml version="1.0"?>\n<Clock xmlns:dt="urn:schemas-microsoft-com:datatypes"><Description dt:dt="string">E-Prime Primary Realtime Clock</Description><StartTime><Timestamp dt:dt="int">0</Timestamp><DateUtc dt:dt="string">2015-05-29T21:36:12Z</DateUtc></StartTime><FrequencyChanges><FrequencyChange><Frequency dt:dt="r8">3507705</Frequency><Timestamp dt:dt="r8">3384070818</Timestamp><Current dt:dt="r8">0</Current><DateUtc dt:dt="string">2015-05-29T21:36:12Z</DateUtc></FrequencyChange></FrequencyChanges></Clock>\n	Hungry_Donkey_bar_English_2-105-3	60.007	105	1.0.0.18	1	-910215952	Standard	2.0.10.353	2.0.10.353	05-29-2015	5/29/2015 9:36:13 PM	17:36:13	2.0.10.248	110	Bar50-50.bmp	52	4	?	0r_4g.bmp	0r_4g.bmp	0r_2g.bmp	0r_2g.bmp				0r_2g.bmp	TrialProc	TrialList	0	cvbn	-999999	17	478296	0	n	1971	480267	328	-299	29	-26	20	33	2	10	11	110	0	0	0	0	4	4	2	2	0	2
Hungry_Donkey_bar_English_2	105	3	<?xml version="1.0"?>\n<Clock xmlns:dt="urn:schemas-microsoft-com:datatypes"><Description dt:dt="string">E-Prime Primary Realtime Clock</Description><StartTime><Timestamp dt:dt="int">0</Timestamp><DateUtc dt:dt="string">2015-05-29T21:36:12Z</DateUtc></StartTime><FrequencyChanges><FrequencyChange><Frequency dt:dt="r8">3507705</Frequency><Timestamp dt:dt="r8">3384070818</Timestamp><Current dt:dt="r8">0</Current><DateUtc dt:dt="string">2015-05-29T21:36:12Z</DateUtc></FrequencyChange></FrequencyChanges></Clock>\n	Hungry_Donkey_bar_English_2-105-3	60.007	105	1.0.0.18	1	-910215952	Standard	2.0.10.353	2.0.10.353	05-29-2015	5/29/2015 9:36:13 PM	17:36:13	2.0.10.248	111	Bar50-50.bmp	52	4	?	10r_4g.bmp	0r_4g.bmp	2r_2g.bmp	0r_2g.bmp				0r_2g.bmp	TrialProc	TrialList	0	cvbn	-999999	16	482295	0	n	2356	484651	330	-299	31	-26	20	33	4	4	12	111	-10	0	-2	0	4	4	2	2	0	2
