ExperimentName	Subject	Session	Clock.Information	DataFile.Basename	Display.RefreshRate	Eindtotaal[Session]	ExperimentVersion	Group	RandomSeed	RuntimeCapabilities	RuntimeVersion	RuntimeVersionExpected	SessionDate	SessionStartDateTimeUtc	SessionTime	StudioVersion	Block	BarImage	BarTotalWinst	DoorChoice	Eindtotaal[Block]	FBDoor1	FBDoor2	FBDoor3	FBDoor4	Image1	Image2	Image3	Image4	Procedure	Running	spel.ACC	spel.CRESP	spel.DurationError	spel.OnsetDelay	spel.OnsetTime	spel.OnsetToOnsetTime	spel.RESP	spel.RT	spel.RTTime	TotalGain	TotalLose	Totalsum	TotalsumD1	TotalsumD2	TotalsumD3	TotalsumD4	TrialList	TrialList.Cycle	TrialList.Sample	varV1	varV2	varV3	varV4	varW1	varW2	varW3	varW4	Verliesbedrag	Winstbedrag
Hungry_Donkey_bar_English_2	153	1	<?xml version="1.0"?>\n<Clock xmlns:dt="urn:schemas-microsoft-com:datatypes"><Description dt:dt="string">E-Prime Primary Realtime Clock</Description><StartTime><Timestamp dt:dt="int">0</Timestamp><DateUtc dt:dt="string">2016-06-16T16:34:40Z</DateUtc></StartTime><FrequencyChanges><FrequencyChange><Frequency dt:dt="r8">3507675</Frequency><Timestamp dt:dt="r8">2034451077507</Timestamp><Current dt:dt="r8">0</Current><DateUtc dt:dt="string">2016-06-16T16:34:40Z</DateUtc></FrequencyChange></FrequencyChanges></Clock>\n	Hungry_Donkey_bar_English_2-153-1	60.017	-25	1.0.0.18	1	-1362729271	Standard	2.0.10.353	2.0.10.353	06-16-2016	6/16/2016 4:34:40 PM	12:34:40	2.0.10.248	1	Bar100-0.bmp	100	2	?	0r_4g.bmp	0r_4g.bmp	0r_2g.bmp	0r_2g.bmp		0r_4g.bmp			TrialProc	TrialList	0	cvbn	-999999	28	48846	0	v	1604	50450	4	0	4	0	4	0	0	10	1	1	0	0	0	0	4	4	2	2	0	4
Hungry_Donkey_bar_English_2	153	1	<?xml version="1.0"?>\n<Clock xmlns:dt="urn:schemas-microsoft-com:datatypes"><Description dt:dt="string">E-Prime Primary Realtime Clock</Description><StartTime><Timestamp dt:dt="int">0</Timestamp><DateUtc dt:dt="string">2016-06-16T16:34:40Z</DateUtc></StartTime><FrequencyChanges><FrequencyChange><Frequency dt:dt="r8">3507675</Frequency><Timestamp dt:dt="r8">2034451077507</Timestamp><Current dt:dt="r8">0</Current><DateUtc dt:dt="string">2016-06-16T16:34:40Z</DateUtc></FrequencyChange></FrequencyChanges></Clock>\n	Hungry_Donkey_bar_English_2-153-1	60.017	-25	1.0.0.18	1	-1362729271	Standard	2.0.10.353	2.0.10.353	06-16-2016	6/16/2016 4:34:40 PM	12:34:40	2.0.10.248	2	Bar63-37.bmp	67	3	?	12r_4g.bmp	0r_4g.bmp	3r_2g.bmp	0r_2g.bmp			3r_2g.bmp		TrialProc	TrialList	0	cvbn	-999999	16	52478	0	b	2196	54674	6	-3	3	0	4	-1	0	5	1	2	-12	0	-3	0	4	4	2	2	-3	2
Hungry_Donkey_bar_English_2	153	1	<?xml version="1.0"?>\n<Clock xmlns:dt="urn:schemas-microsoft-com:datatypes"><Description dt:dt="string">E-Prime Primary Realtime Clock</Description><StartTime><Timestamp dt:dt="int">0</Timestamp><DateUtc dt:dt="string">2016-06-16T16:34:40Z</DateUtc></StartTime><FrequencyChanges><FrequencyChange><Frequency dt:dt="r8">3507675</Frequency><Timestamp dt:dt="r8">2034451077507</Timestamp><Current dt:dt="r8">0</Current><DateUtc dt:dt="string">2016-06-16T16:34:40Z</DateUtc></FrequencyChange></FrequencyChanges></Clock>\n	Hungry_Donkey_bar_English_2-153-1	60.017	-25	1.0.0.18	1	-1362729271	Standard	2.0.10.353	2.0.10.353	06-16-2016	6/16/2016 4:34:40 PM	12:34:40	2.0.10.248	3	Bar75-25.bmp	77	1	?	0r_4g.bmp	0r_4g.bmp	0r_2g.bmp	0r_2g.bmp	0r_4g.bmp				TrialProc	TrialList	0	cvbn	-999999	16	56710	0	c	3676	60386	10	-3	7	4	4	-1	0	9	1	3	0	0	0	0	4	4	2	2	0	4
Hungry_Donkey_bar_English_2	153	1	<?xml version="1.0"?>\n<Clock xmlns:dt="urn:schemas-microsoft-com:datatypes"><Description dt:dt="string">E-Prime Primary Realtime Clock</Description><StartTime><Timestamp dt:dt="int">0</Timestamp><DateUtc dt:dt="string">2016-06-16T16:34:40Z</DateUtc></StartTime><FrequencyChanges><FrequencyChange><Frequency dt:dt="r8">3507675</Frequency><Timestamp dt:dt="r8">2034451077507</Timestamp><Current dt:dt="r8">0</Current><DateUtc dt:dt="string">2016-06-16T16:34:40Z</DateUtc></FrequencyChange></FrequencyChanges></Clock>\n	Hungry_Donkey_bar_English_2-153-1	60.017	-25	1.0.0.18	1	-1362729271	Standard	2.0.10.353	2.0.10.353	06-16-2016	6/16/2016 4:34:40 PM	12:34:40	2.0.10.248	4	Bar25-75.bmp	21	2	?	8r_4g.bmp	50r_4g.bmp	1r_2g.bmp	10r_2g.bmp		50r_4g.bmp			TrialProc	TrialList	0	cvbn	-999999	16	62425	0	v	2649	65074	14	-53	-39	4	-42	-1	0	1	1	4	-8	-50	-1	-10	4	4	2	2	-50	4
Hungry_Donkey_bar_English_2	153	1	<?xml version="1.0"?>\n<Clock xmlns:dt="urn:schemas-microsoft-com:datatypes"><Description dt:dt="string">E-Prime Primary Realtime Clock</Description><StartTime><Timestamp dt:dt="int">0</Timestamp><DateUtc dt:dt="string">2016-06-16T16:34:40Z</DateUtc></StartTime><FrequencyChanges><FrequencyChange><Frequency dt:dt="r8">3507675</Frequency><Timestamp dt:dt="r8">2034451077507</Timestamp><Current dt:dt="r8">0</Current><DateUtc dt:dt="string">2016-06-16T16:34:40Z</DateUtc></FrequencyChange></FrequencyChanges></Clock>\n	Hungry_Donkey_bar_English_2-153-1	60.017	-25	1.0.0.18	1	-1362729271	Standard	2.0.10.353	2.0.10.353	06-16-2016	6/16/2016 4:34:40 PM	12:34:40	2.0.10.248	5	Bar25-75.bmp	23	4	?	0r_4g.bmp	0r_4g.bmp	0r_2g.bmp	0r_2g.bmp				0r_2g.bmp	TrialProc	TrialList	0	cvbn	-999999	16	67107	0	n	3422	70529	16	-53	-37	4	-42	-1	2	6	1	5	0	0	0	0	4	4	2	2	0	2
Hungry_Donkey_bar_English_2	153	1	<?xml version="1.0"?>\n<Clock xmlns:dt="urn:schemas-microsoft-com:datatypes"><Description dt:dt="string">E-Prime Primary Realtime Clock</Description><StartTime><Timestamp dt:dt="int">0</Timestamp><DateUtc dt:dt="string">2016-06-16T16:34:40Z</DateUtc></StartTime><FrequencyChanges><FrequencyChange><Frequency dt:dt="r8">3507675</Frequency><Timestamp dt:dt="r8">2034451077507</Timestamp><Current dt:dt="r8">0</Current><DateUtc dt:dt="string">2016-06-16T16:34:40Z</DateUtc></FrequencyChange></FrequencyChanges></Clock>\n	Hungry_Donkey_bar_English_2-153-1	60.017	-25	1.0.0.18	1	-1362729271	Standard	2.0.10.353	2.0.10.353	06-16-2016	6/16/2016 4:34:40 PM	12:34:40	2.0.10.248	6	Bar25-75.bmp	25	3	?	10r_4g.bmp	0r_4g.bmp	2r_2g.bmp	0r_2g.bmp			2r_2g.bmp		TrialProc	TrialList	0	cvbn	-999999	16	72556	0	b	1845	74401	18	-55	-37	4	-42	-1	2	2	1	6	-10	0	-2	0	4	4	2	2	-2	2
Hungry_Donkey_bar_English_2	153	1	<?xml version="1.0"?>\n<Clock xmlns:dt="urn:schemas-microsoft-com:datatypes"><Description dt:dt="string">E-Prime Primary Realtime Clock</Description><StartTime><Timestamp dt:dt="int">0</Timestamp><DateUtc dt:dt="string">2016-06-16T16:34:40Z</DateUtc></StartTime><FrequencyChanges><FrequencyChange><Frequency dt:dt="r8">3507675</Frequency><Timestamp dt:dt="r8">2034451077507</Timestamp><Current dt:dt="r8">0</Current><DateUtc dt:dt="string">2016-06-16T16:34:40Z</DateUtc></FrequencyChange></FrequencyChanges></Clock>\n	Hungry_Donkey_bar_English_2-153-1	60.017	-25	1.0.0.18	1	-1362729271	Standard	2.0.10.353	2.0.10.353	06-16-2016	6/16/2016 4:34:40 PM	12:34:40	2.0.10.248	7	Bar25-75.bmp	29	2	?	10r_4g.bmp	0r_4g.bmp	2r_2g.bmp	0r_2g.bmp		0r_4g.bmp			TrialProc	TrialList	0	cvbn	-999999	16	76438	0	v	3131	79569	22	-55	-33	4	-38	-1	2	4	1	7	-10	0	-2	0	4	4	2	2	0	4
Hungry_Donkey_bar_English_2	153	1	<?xml version="1.0"?>\n<Clock xmlns:dt="urn:schemas-microsoft-com:datatypes"><Description dt:dt="string">E-Prime Primary Realtime Clock</Description><StartTime><Timestamp dt:dt="int">0</Timestamp><DateUtc dt:dt="string">2016-06-16T16:34:40Z</DateUtc></StartTime><FrequencyChanges><FrequencyChange><Frequency dt:dt="r8">3507675</Frequency><Timestamp dt:dt="r8">2034451077507</Timestamp><Current dt:dt="r8">0</Current><DateUtc dt:dt="string">2016-06-16T16:34:40Z</DateUtc></FrequencyChange></FrequencyChanges></Clock>\n	Hungry_Donkey_bar_English_2-153-1	60.017	-25	1.0.0.18	1	-1362729271	Standard	2.0.10.353	2.0.10.353	06-16-2016	6/16/2016 4:34:40 PM	12:34:40	2.0.10.248	8	Bar37-63.bmp	32	2	?	0r_4g.bmp	0r_4g.bmp	0r_2g.bmp	0r_2g.bmp		0r_4g.bmp			TrialProc	TrialList	0	cvbn	-999999	16	81603	0	v	1726	83329	26	-55	-29	4	-34	-1	2	8	1	8	0	0	0	0	4	4	2	2	0	4
Hungry_Donkey_bar_English_2	153	1	<?xml version="1.0"?>\n<Clock xmlns:dt="urn:schemas-microsoft-com:datatypes"><Description dt:dt="string">E-Prime Primary Realtime Clock</Description><StartTime><Timestamp dt:dt="int">0</Timestamp><DateUtc dt:dt="string">2016-06-16T16:34:40Z</DateUtc></StartTime><FrequencyChanges><FrequencyChange><Frequency dt:dt="r8">3507675</Frequency><Timestamp dt:dt="r8">2034451077507</Timestamp><Current dt:dt="r8">0</Current><DateUtc dt:dt="string">2016-06-16T16:34:40Z</DateUtc></FrequencyChange></FrequencyChanges></Clock>\n	Hungry_Donkey_bar_English_2-153-1	60.017	-25	1.0.0.18	1	-1362729271	Standard	2.0.10.353	2.0.10.353	06-16-2016	6/16/2016 4:34:40 PM	12:34:40	2.0.10.248	9	Bar37-63.bmp	35	2	?	10r_4g.bmp	0r_4g.bmp	2r_2g.bmp	0r_2g.bmp		0r_4g.bmp			TrialProc	TrialList	0	cvbn	-999999	16	85369	0	v	568	85937	30	-55	-25	4	-30	-1	2	3	1	9	-10	0	-2	0	4	4	2	2	0	4
Hungry_Donkey_bar_English_2	153	1	<?xml version="1.0"?>\n<Clock xmlns:dt="urn:schemas-microsoft-com:datatypes"><Description dt:dt="string">E-Prime Primary Realtime Clock</Description><StartTime><Timestamp dt:dt="int">0</Timestamp><DateUtc dt:dt="string">2016-06-16T16:34:40Z</DateUtc></StartTime><FrequencyChanges><FrequencyChange><Frequency dt:dt="r8">3507675</Frequency><Timestamp dt:dt="r8">2034451077507</Timestamp><Current dt:dt="r8">0</Current><DateUtc dt:dt="string">2016-06-16T16:34:40Z</DateUtc></FrequencyChange></FrequencyChanges></Clock>\n	Hungry_Donkey_bar_English_2-153-1	60.017	-25	1.0.0.18	1	-1362729271	Standard	2.0.10.353	2.0.10.353	06-16-2016	6/16/2016 4:34:40 PM	12:34:40	2.0.10.248	10	Bar37-63.bmp	38	2	?	0r_4g.bmp	0r_4g.bmp	0r_2g.bmp	0r_2g.bmp		0r_4g.bmp			TrialProc	TrialList	0	cvbn	-999999	16	87968	0	v	224	88192	34	-55	-21	4	-26	-1	2	7	1	10	0	0	0	0	4	4	2	2	0	4
Hungry_Donkey_bar_English_2	153	1	<?xml version="1.0"?>\n<Clock xmlns:dt="urn:schemas-microsoft-com:datatypes"><Description dt:dt="string">E-Prime Primary Realtime Clock</Description><StartTime><Timestamp dt:dt="int">0</Timestamp><DateUtc dt:dt="string">2016-06-16T16:34:40Z</DateUtc></StartTime><FrequencyChanges><FrequencyChange><Frequency dt:dt="r8">3507675</Frequency><Timestamp dt:dt="r8">2034451077507</Timestamp><Current dt:dt="r8">0</Current><DateUtc dt:dt="string">2016-06-16T16:34:40Z</DateUtc></FrequencyChange></FrequencyChanges></Clock>\n	Hungry_Donkey_bar_English_2-153-1	60.017	-25	1.0.0.18	1	-1362729271	Standard	2.0.10.353	2.0.10.353	06-16-2016	6/16/2016 4:34:40 PM	12:34:40	2.0.10.248	11	Bar37-63.bmp	41	2	?	0r_4g.bmp	0r_4g.bmp	0r_2g.bmp	0r_2g.bmp		0r_4g.bmp			TrialProc	TrialList	0	cvbn	-999999	16	90217	0	v	279	90496	38	-55	-17	4	-22	-1	2	8	2	11	0	0	0	0	4	4	2	2	0	4
Hungry_Donkey_bar_English_2	153	1	<?xml version="1.0"?>\n<Clock xmlns:dt="urn:schemas-microsoft-com:datatypes"><Description dt:dt="string">E-Prime Primary Realtime Clock</Description><StartTime><Timestamp dt:dt="int">0</Timestamp><DateUtc dt:dt="string">2016-06-16T16:34:40Z</DateUtc></StartTime><FrequencyChanges><FrequencyChange><Frequency dt:dt="r8">3507675</Frequency><Timestamp dt:dt="r8">2034451077507</Timestamp><Current dt:dt="r8">0</Current><DateUtc dt:dt="string">2016-06-16T16:34:40Z</DateUtc></FrequencyChange></FrequencyChanges></Clock>\n	Hungry_Donkey_bar_English_2-153-1	60.017	-25	1.0.0.18	1	-1362729271	Standard	2.0.10.353	2.0.10.353	06-16-2016	6/16/2016 4:34:40 PM	12:34:40	2.0.10.248	12	Bar37-63.bmp	43	2	?	0r_4g.bmp	0r_4g.bmp	0r_2g.bmp	0r_2g.bmp		0r_4g.bmp			TrialProc	TrialList	0	cvbn	-999999	16	92533	0	v	635	93168	42	-55	-13	4	-18	-1	2	6	2	12	0	0	0	0	4	4	2	2	0	4
Hungry_Donkey_bar_English_2	153	1	<?xml version="1.0"?>\n<Clock xmlns:dt="urn:schemas-microsoft-com:datatypes"><Description dt:dt="string">E-Prime Primary Realtime Clock</Description><StartTime><Timestamp dt:dt="int">0</Timestamp><DateUtc dt:dt="string">2016-06-16T16:34:40Z</DateUtc></StartTime><FrequencyChanges><FrequencyChange><Frequency dt:dt="r8">3507675</Frequency><Timestamp dt:dt="r8">2034451077507</Timestamp><Current dt:dt="r8">0</Current><DateUtc dt:dt="string">2016-06-16T16:34:40Z</DateUtc></FrequencyChange></FrequencyChanges></Clock>\n	Hungry_Donkey_bar_English_2-153-1	60.017	-25	1.0.0.18	1	-1362729271	Standard	2.0.10.353	2.0.10.353	06-16-2016	6/16/2016 4:34:40 PM	12:34:40	2.0.10.248	13	Bar50-50.bmp	46	2	?	10r_4g.bmp	0r_4g.bmp	2r_2g.bmp	0r_2g.bmp		0r_4g.bmp			TrialProc	TrialList	0	cvbn	-999999	16	95199	0	v	657	95856	46	-55	-9	4	-14	-1	2	3	2	13	-10	0	-2	0	4	4	2	2	0	4
Hungry_Donkey_bar_English_2	153	1	<?xml version="1.0"?>\n<Clock xmlns:dt="urn:schemas-microsoft-com:datatypes"><Description dt:dt="string">E-Prime Primary Realtime Clock</Description><StartTime><Timestamp dt:dt="int">0</Timestamp><DateUtc dt:dt="string">2016-06-16T16:34:40Z</DateUtc></StartTime><FrequencyChanges><FrequencyChange><Frequency dt:dt="r8">3507675</Frequency><Timestamp dt:dt="r8">2034451077507</Timestamp><Current dt:dt="r8">0</Current><DateUtc dt:dt="string">2016-06-16T16:34:40Z</DateUtc></FrequencyChange></FrequencyChanges></Clock>\n	Hungry_Donkey_bar_English_2-153-1	60.017	-25	1.0.0.18	1	-1362729271	Standard	2.0.10.353	2.0.10.353	06-16-2016	6/16/2016 4:34:40 PM	12:34:40	2.0.10.248	14	Bar50-50.bmp	48	2	?	10r_4g.bmp	0r_4g.bmp	2r_2g.bmp	0r_2g.bmp		0r_4g.bmp			TrialProc	TrialList	0	cvbn	-999999	16	97882	0	v	470	98352	50	-55	-5	4	-10	-1	2	4	2	14	-10	0	-2	0	4	4	2	2	0	4
Hungry_Donkey_bar_English_2	153	1	<?xml version="1.0"?>\n<Clock xmlns:dt="urn:schemas-microsoft-com:datatypes"><Description dt:dt="string">E-Prime Primary Realtime Clock</Description><StartTime><Timestamp dt:dt="int">0</Timestamp><DateUtc dt:dt="string">2016-06-16T16:34:40Z</DateUtc></StartTime><FrequencyChanges><FrequencyChange><Frequency dt:dt="r8">3507675</Frequency><Timestamp dt:dt="r8">2034451077507</Timestamp><Current dt:dt="r8">0</Current><DateUtc dt:dt="string">2016-06-16T16:34:40Z</DateUtc></FrequencyChange></FrequencyChanges></Clock>\n	Hungry_Donkey_bar_English_2-153-1	60.017	-25	1.0.0.18	1	-1362729271	Standard	2.0.10.353	2.0.10.353	06-16-2016	6/16/2016 4:34:40 PM	12:34:40	2.0.10.248	15	Bar50-50.bmp	50	2	?	0r_4g.bmp	0r_4g.bmp	0r_2g.bmp	0r_2g.bmp		0r_4g.bmp			TrialProc	TrialList	0	cvbn	-999999	16	100381	0	v	355	100736	54	-55	-1	4	-6	-1	2	9	2	15	0	0	0	0	4	4	2	2	0	4
Hungry_Donkey_bar_English_2	153	1	<?xml version="1.0"?>\n<Clock xmlns:dt="urn:schemas-microsoft-com:datatypes"><Description dt:dt="string">E-Prime Primary Realtime Clock</Description><StartTime><Timestamp dt:dt="int">0</Timestamp><DateUtc dt:dt="string">2016-06-16T16:34:40Z</DateUtc></StartTime><FrequencyChanges><FrequencyChange><Frequency dt:dt="r8">3507675</Frequency><Timestamp dt:dt="r8">2034451077507</Timestamp><Current dt:dt="r8">0</Current><DateUtc dt:dt="string">2016-06-16T16:34:40Z</DateUtc></FrequencyChange></FrequencyChanges></Clock>\n	Hungry_Donkey_bar_English_2-153-1	60.017	-25	1.0.0.18	1	-1362729271	Standard	2.0.10.353	2.0.10.353	06-16-2016	6/16/2016 4:34:40 PM	12:34:40	2.0.10.248	16	Bar37-63.bmp	36	2	?	8r_4g.bmp	50r_4g.bmp	1r_2g.bmp	10r_2g.bmp		50r_4g.bmp			TrialProc	TrialList	0	cvbn	-999999	16	102764	0	v	404	103168	58	-105	-47	4	-52	-1	2	1	2	16	-8	-50	-1	-10	4	4	2	2	-50	4
Hungry_Donkey_bar_English_2	153	1	<?xml version="1.0"?>\n<Clock xmlns:dt="urn:schemas-microsoft-com:datatypes"><Description dt:dt="string">E-Prime Primary Realtime Clock</Description><StartTime><Timestamp dt:dt="int">0</Timestamp><DateUtc dt:dt="string">2016-06-16T16:34:40Z</DateUtc></StartTime><FrequencyChanges><FrequencyChange><Frequency dt:dt="r8">3507675</Frequency><Timestamp dt:dt="r8">2034451077507</Timestamp><Current dt:dt="r8">0</Current><DateUtc dt:dt="string">2016-06-16T16:34:40Z</DateUtc></FrequencyChange></FrequencyChanges></Clock>\n	Hungry_Donkey_bar_English_2-153-1	60.017	-25	1.0.0.18	1	-1362729271	Standard	2.0.10.353	2.0.10.353	06-16-2016	6/16/2016 4:34:40 PM	12:34:40	2.0.10.248	17	Bar37-63.bmp	36	3	?	0r_4g.bmp	0r_4g.bmp	0r_2g.bmp	0r_2g.bmp			0r_2g.bmp		TrialProc	TrialList	0	cvbn	-999999	16	105196	0	b	1204	106400	60	-105	-45	4	-52	1	2	7	2	17	0	0	0	0	4	4	2	2	0	2
Hungry_Donkey_bar_English_2	153	1	<?xml version="1.0"?>\n<Clock xmlns:dt="urn:schemas-microsoft-com:datatypes"><Description dt:dt="string">E-Prime Primary Realtime Clock</Description><StartTime><Timestamp dt:dt="int">0</Timestamp><DateUtc dt:dt="string">2016-06-16T16:34:40Z</DateUtc></StartTime><FrequencyChanges><FrequencyChange><Frequency dt:dt="r8">3507675</Frequency><Timestamp dt:dt="r8">2034451077507</Timestamp><Current dt:dt="r8">0</Current><DateUtc dt:dt="string">2016-06-16T16:34:40Z</DateUtc></FrequencyChange></FrequencyChanges></Clock>\n	Hungry_Donkey_bar_English_2-153-1	60.017	-25	1.0.0.18	1	-1362729271	Standard	2.0.10.353	2.0.10.353	06-16-2016	6/16/2016 4:34:40 PM	12:34:40	2.0.10.248	18	Bar37-63.bmp	36	1	?	10r_4g.bmp	0r_4g.bmp	2r_2g.bmp	0r_2g.bmp	10r_4g.bmp				TrialProc	TrialList	0	cvbn	-999999	16	108429	0	c	1682	110111	64	-115	-51	-2	-52	1	2	2	2	18	-10	0	-2	0	4	4	2	2	-10	4
Hungry_Donkey_bar_English_2	153	1	<?xml version="1.0"?>\n<Clock xmlns:dt="urn:schemas-microsoft-com:datatypes"><Description dt:dt="string">E-Prime Primary Realtime Clock</Description><StartTime><Timestamp dt:dt="int">0</Timestamp><DateUtc dt:dt="string">2016-06-16T16:34:40Z</DateUtc></StartTime><FrequencyChanges><FrequencyChange><Frequency dt:dt="r8">3507675</Frequency><Timestamp dt:dt="r8">2034451077507</Timestamp><Current dt:dt="r8">0</Current><DateUtc dt:dt="string">2016-06-16T16:34:40Z</DateUtc></FrequencyChange></FrequencyChanges></Clock>\n	Hungry_Donkey_bar_English_2-153-1	60.017	-25	1.0.0.18	1	-1362729271	Standard	2.0.10.353	2.0.10.353	06-16-2016	6/16/2016 4:34:40 PM	12:34:40	2.0.10.248	19	Bar37-63.bmp	36	4	?	12r_4g.bmp	0r_4g.bmp	3r_2g.bmp	0r_2g.bmp				0r_2g.bmp	TrialProc	TrialList	0	cvbn	-999999	16	112144	0	n	1215	113359	66	-115	-49	-2	-52	1	4	5	2	19	-12	0	-3	0	4	4	2	2	0	2
Hungry_Donkey_bar_English_2	153	1	<?xml version="1.0"?>\n<Clock xmlns:dt="urn:schemas-microsoft-com:datatypes"><Description dt:dt="string">E-Prime Primary Realtime Clock</Description><StartTime><Timestamp dt:dt="int">0</Timestamp><DateUtc dt:dt="string">2016-06-16T16:34:40Z</DateUtc></StartTime><FrequencyChanges><FrequencyChange><Frequency dt:dt="r8">3507675</Frequency><Timestamp dt:dt="r8">2034451077507</Timestamp><Current dt:dt="r8">0</Current><DateUtc dt:dt="string">2016-06-16T16:34:40Z</DateUtc></FrequencyChange></FrequencyChanges></Clock>\n	Hungry_Donkey_bar_English_2-153-1	60.017	-25	1.0.0.18	1	-1362729271	Standard	2.0.10.353	2.0.10.353	06-16-2016	6/16/2016 4:34:40 PM	12:34:40	2.0.10.248	20	Bar37-63.bmp	37	3	?	0r_4g.bmp	0r_4g.bmp	0r_2g.bmp	0r_2g.bmp			0r_2g.bmp		TrialProc	TrialList	0	cvbn	-999999	16	115393	0	b	958	116351	68	-115	-47	-2	-52	3	4	10	2	20	0	0	0	0	4	4	2	2	0	2
Hungry_Donkey_bar_English_2	153	1	<?xml version="1.0"?>\n<Clock xmlns:dt="urn:schemas-microsoft-com:datatypes"><Description dt:dt="string">E-Prime Primary Realtime Clock</Description><StartTime><Timestamp dt:dt="int">0</Timestamp><DateUtc dt:dt="string">2016-06-16T16:34:40Z</DateUtc></StartTime><FrequencyChanges><FrequencyChange><Frequency dt:dt="r8">3507675</Frequency><Timestamp dt:dt="r8">2034451077507</Timestamp><Current dt:dt="r8">0</Current><DateUtc dt:dt="string">2016-06-16T16:34:40Z</DateUtc></FrequencyChange></FrequencyChanges></Clock>\n	Hungry_Donkey_bar_English_2-153-1	60.017	-25	1.0.0.18	1	-1362729271	Standard	2.0.10.353	2.0.10.353	06-16-2016	6/16/2016 4:34:40 PM	12:34:40	2.0.10.248	21	Bar37-63.bmp	37	3	?	10r_4g.bmp	0r_4g.bmp	2r_2g.bmp	0r_2g.bmp			2r_2g.bmp		TrialProc	TrialList	0	cvbn	-999999	16	118376	0	b	455	118831	70	-117	-47	-2	-52	3	4	4	3	21	-10	0	-2	0	4	4	2	2	-2	2
Hungry_Donkey_bar_English_2	153	1	<?xml version="1.0"?>\n<Clock xmlns:dt="urn:schemas-microsoft-com:datatypes"><Description dt:dt="string">E-Prime Primary Realtime Clock</Description><StartTime><Timestamp dt:dt="int">0</Timestamp><DateUtc dt:dt="string">2016-06-16T16:34:40Z</DateUtc></StartTime><FrequencyChanges><FrequencyChange><Frequency dt:dt="r8">3507675</Frequency><Timestamp dt:dt="r8">2034451077507</Timestamp><Current dt:dt="r8">0</Current><DateUtc dt:dt="string">2016-06-16T16:34:40Z</DateUtc></FrequencyChange></FrequencyChanges></Clock>\n	Hungry_Donkey_bar_English_2-153-1	60.017	-25	1.0.0.18	1	-1362729271	Standard	2.0.10.353	2.0.10.353	06-16-2016	6/16/2016 4:34:40 PM	12:34:40	2.0.10.248	22	Bar37-63.bmp	39	2	?	10r_4g.bmp	0r_4g.bmp	2r_2g.bmp	0r_2g.bmp		0r_4g.bmp			TrialProc	TrialList	0	cvbn	-999999	16	120859	0	v	1540	122399	74	-117	-43	-2	-48	3	4	2	3	22	-10	0	-2	0	4	4	2	2	0	4
Hungry_Donkey_bar_English_2	153	1	<?xml version="1.0"?>\n<Clock xmlns:dt="urn:schemas-microsoft-com:datatypes"><Description dt:dt="string">E-Prime Primary Realtime Clock</Description><StartTime><Timestamp dt:dt="int">0</Timestamp><DateUtc dt:dt="string">2016-06-16T16:34:40Z</DateUtc></StartTime><FrequencyChanges><FrequencyChange><Frequency dt:dt="r8">3507675</Frequency><Timestamp dt:dt="r8">2034451077507</Timestamp><Current dt:dt="r8">0</Current><DateUtc dt:dt="string">2016-06-16T16:34:40Z</DateUtc></FrequencyChange></FrequencyChanges></Clock>\n	Hungry_Donkey_bar_English_2-153-1	60.017	-25	1.0.0.18	1	-1362729271	Standard	2.0.10.353	2.0.10.353	06-16-2016	6/16/2016 4:34:40 PM	12:34:40	2.0.10.248	23	Bar37-63.bmp	32	2	?	8r_4g.bmp	50r_4g.bmp	1r_2g.bmp	10r_2g.bmp		50r_4g.bmp			TrialProc	TrialList	0	cvbn	-999999	16	124424	0	v	423	124847	78	-167	-89	-2	-94	3	4	1	3	23	-8	-50	-1	-10	4	4	2	2	-50	4
Hungry_Donkey_bar_English_2	153	1	<?xml version="1.0"?>\n<Clock xmlns:dt="urn:schemas-microsoft-com:datatypes"><Description dt:dt="string">E-Prime Primary Realtime Clock</Description><StartTime><Timestamp dt:dt="int">0</Timestamp><DateUtc dt:dt="string">2016-06-16T16:34:40Z</DateUtc></StartTime><FrequencyChanges><FrequencyChange><Frequency dt:dt="r8">3507675</Frequency><Timestamp dt:dt="r8">2034451077507</Timestamp><Current dt:dt="r8">0</Current><DateUtc dt:dt="string">2016-06-16T16:34:40Z</DateUtc></FrequencyChange></FrequencyChanges></Clock>\n	Hungry_Donkey_bar_English_2-153-1	60.017	-25	1.0.0.18	1	-1362729271	Standard	2.0.10.353	2.0.10.353	06-16-2016	6/16/2016 4:34:40 PM	12:34:40	2.0.10.248	24	Bar37-63.bmp	32	4	?	0r_4g.bmp	0r_4g.bmp	0r_2g.bmp	0r_2g.bmp				0r_2g.bmp	TrialProc	TrialList	0	cvbn	-999999	17	126874	0	n	1364	128238	80	-167	-87	-2	-94	3	6	10	3	24	0	0	0	0	4	4	2	2	0	2
Hungry_Donkey_bar_English_2	153	1	<?xml version="1.0"?>\n<Clock xmlns:dt="urn:schemas-microsoft-com:datatypes"><Description dt:dt="string">E-Prime Primary Realtime Clock</Description><StartTime><Timestamp dt:dt="int">0</Timestamp><DateUtc dt:dt="string">2016-06-16T16:34:40Z</DateUtc></StartTime><FrequencyChanges><FrequencyChange><Frequency dt:dt="r8">3507675</Frequency><Timestamp dt:dt="r8">2034451077507</Timestamp><Current dt:dt="r8">0</Current><DateUtc dt:dt="string">2016-06-16T16:34:40Z</DateUtc></FrequencyChange></FrequencyChanges></Clock>\n	Hungry_Donkey_bar_English_2-153-1	60.017	-25	1.0.0.18	1	-1362729271	Standard	2.0.10.353	2.0.10.353	06-16-2016	6/16/2016 4:34:40 PM	12:34:40	2.0.10.248	25	Bar37-63.bmp	33	3	?	12r_4g.bmp	0r_4g.bmp	3r_2g.bmp	0r_2g.bmp			3r_2g.bmp		TrialProc	TrialList	0	cvbn	-999999	17	130273	0	b	573	130846	82	-170	-88	-2	-94	2	6	5	3	25	-12	0	-3	0	4	4	2	2	-3	2
Hungry_Donkey_bar_English_2	153	1	<?xml version="1.0"?>\n<Clock xmlns:dt="urn:schemas-microsoft-com:datatypes"><Description dt:dt="string">E-Prime Primary Realtime Clock</Description><StartTime><Timestamp dt:dt="int">0</Timestamp><DateUtc dt:dt="string">2016-06-16T16:34:40Z</DateUtc></StartTime><FrequencyChanges><FrequencyChange><Frequency dt:dt="r8">3507675</Frequency><Timestamp dt:dt="r8">2034451077507</Timestamp><Current dt:dt="r8">0</Current><DateUtc dt:dt="string">2016-06-16T16:34:40Z</DateUtc></FrequencyChange></FrequencyChanges></Clock>\n	Hungry_Donkey_bar_English_2-153-1	60.017	-25	1.0.0.18	1	-1362729271	Standard	2.0.10.353	2.0.10.353	06-16-2016	6/16/2016 4:34:40 PM	12:34:40	2.0.10.248	26	Bar37-63.bmp	34	1	?	0r_4g.bmp	0r_4g.bmp	0r_2g.bmp	0r_2g.bmp	0r_4g.bmp				TrialProc	TrialList	0	cvbn	-999999	16	132872	0	c	1142	134014	86	-170	-84	2	-94	2	6	6	3	26	0	0	0	0	4	4	2	2	0	4
Hungry_Donkey_bar_English_2	153	1	<?xml version="1.0"?>\n<Clock xmlns:dt="urn:schemas-microsoft-com:datatypes"><Description dt:dt="string">E-Prime Primary Realtime Clock</Description><StartTime><Timestamp dt:dt="int">0</Timestamp><DateUtc dt:dt="string">2016-06-16T16:34:40Z</DateUtc></StartTime><FrequencyChanges><FrequencyChange><Frequency dt:dt="r8">3507675</Frequency><Timestamp dt:dt="r8">2034451077507</Timestamp><Current dt:dt="r8">0</Current><DateUtc dt:dt="string">2016-06-16T16:34:40Z</DateUtc></FrequencyChange></FrequencyChanges></Clock>\n	Hungry_Donkey_bar_English_2-153-1	60.017	-25	1.0.0.18	1	-1362729271	Standard	2.0.10.353	2.0.10.353	06-16-2016	6/16/2016 4:34:40 PM	12:34:40	2.0.10.248	27	Bar37-63.bmp	35	2	?	0r_4g.bmp	0r_4g.bmp	0r_2g.bmp	0r_2g.bmp		0r_4g.bmp			TrialProc	TrialList	0	cvbn	-999999	16	136038	0	v	712	136750	90	-170	-80	2	-90	2	6	8	3	27	0	0	0	0	4	4	2	2	0	4
Hungry_Donkey_bar_English_2	153	1	<?xml version="1.0"?>\n<Clock xmlns:dt="urn:schemas-microsoft-com:datatypes"><Description dt:dt="string">E-Prime Primary Realtime Clock</Description><StartTime><Timestamp dt:dt="int">0</Timestamp><DateUtc dt:dt="string">2016-06-16T16:34:40Z</DateUtc></StartTime><FrequencyChanges><FrequencyChange><Frequency dt:dt="r8">3507675</Frequency><Timestamp dt:dt="r8">2034451077507</Timestamp><Current dt:dt="r8">0</Current><DateUtc dt:dt="string">2016-06-16T16:34:40Z</DateUtc></FrequencyChange></FrequencyChanges></Clock>\n	Hungry_Donkey_bar_English_2-153-1	60.017	-25	1.0.0.18	1	-1362729271	Standard	2.0.10.353	2.0.10.353	06-16-2016	6/16/2016 4:34:40 PM	12:34:40	2.0.10.248	28	Bar37-63.bmp	35	3	?	0r_4g.bmp	0r_4g.bmp	0r_2g.bmp	0r_2g.bmp			0r_2g.bmp		TrialProc	TrialList	0	cvbn	-999999	16	138787	0	b	635	139422	92	-170	-78	2	-90	4	6	9	3	28	0	0	0	0	4	4	2	2	0	2
Hungry_Donkey_bar_English_2	153	1	<?xml version="1.0"?>\n<Clock xmlns:dt="urn:schemas-microsoft-com:datatypes"><Description dt:dt="string">E-Prime Primary Realtime Clock</Description><StartTime><Timestamp dt:dt="int">0</Timestamp><DateUtc dt:dt="string">2016-06-16T16:34:40Z</DateUtc></StartTime><FrequencyChanges><FrequencyChange><Frequency dt:dt="r8">3507675</Frequency><Timestamp dt:dt="r8">2034451077507</Timestamp><Current dt:dt="r8">0</Current><DateUtc dt:dt="string">2016-06-16T16:34:40Z</DateUtc></FrequencyChange></FrequencyChanges></Clock>\n	Hungry_Donkey_bar_English_2-153-1	60.017	-25	1.0.0.18	1	-1362729271	Standard	2.0.10.353	2.0.10.353	06-16-2016	6/16/2016 4:34:40 PM	12:34:40	2.0.10.248	29	Bar37-63.bmp	36	4	?	10r_4g.bmp	0r_4g.bmp	2r_2g.bmp	0r_2g.bmp				0r_2g.bmp	TrialProc	TrialList	0	cvbn	-999999	16	141453	0	n	385	141838	94	-170	-76	2	-90	4	8	3	3	29	-10	0	-2	0	4	4	2	2	0	2
Hungry_Donkey_bar_English_2	153	1	<?xml version="1.0"?>\n<Clock xmlns:dt="urn:schemas-microsoft-com:datatypes"><Description dt:dt="string">E-Prime Primary Realtime Clock</Description><StartTime><Timestamp dt:dt="int">0</Timestamp><DateUtc dt:dt="string">2016-06-16T16:34:40Z</DateUtc></StartTime><FrequencyChanges><FrequencyChange><Frequency dt:dt="r8">3507675</Frequency><Timestamp dt:dt="r8">2034451077507</Timestamp><Current dt:dt="r8">0</Current><DateUtc dt:dt="string">2016-06-16T16:34:40Z</DateUtc></FrequencyChange></FrequencyChanges></Clock>\n	Hungry_Donkey_bar_English_2-153-1	60.017	-25	1.0.0.18	1	-1362729271	Standard	2.0.10.353	2.0.10.353	06-16-2016	6/16/2016 4:34:40 PM	12:34:40	2.0.10.248	30	Bar37-63.bmp	36	4	?	0r_4g.bmp	0r_4g.bmp	0r_2g.bmp	0r_2g.bmp				0r_2g.bmp	TrialProc	TrialList	0	cvbn	-999999	16	143869	0	n	1505	145374	96	-170	-74	2	-90	4	10	7	3	30	0	0	0	0	4	4	2	2	0	2
Hungry_Donkey_bar_English_2	153	1	<?xml version="1.0"?>\n<Clock xmlns:dt="urn:schemas-microsoft-com:datatypes"><Description dt:dt="string">E-Prime Primary Realtime Clock</Description><StartTime><Timestamp dt:dt="int">0</Timestamp><DateUtc dt:dt="string">2016-06-16T16:34:40Z</DateUtc></StartTime><FrequencyChanges><FrequencyChange><Frequency dt:dt="r8">3507675</Frequency><Timestamp dt:dt="r8">2034451077507</Timestamp><Current dt:dt="r8">0</Current><DateUtc dt:dt="string">2016-06-16T16:34:40Z</DateUtc></FrequencyChange></FrequencyChanges></Clock>\n	Hungry_Donkey_bar_English_2-153-1	60.017	-25	1.0.0.18	1	-1362729271	Standard	2.0.10.353	2.0.10.353	06-16-2016	6/16/2016 4:34:40 PM	12:34:40	2.0.10.248	31	Bar37-63.bmp	37	3	?	0r_4g.bmp	0r_4g.bmp	0r_2g.bmp	0r_2g.bmp			0r_2g.bmp		TrialProc	TrialList	0	cvbn	-999999	16	147401	0	b	405	147806	98	-170	-72	2	-90	6	10	8	4	31	0	0	0	0	4	4	2	2	0	2
Hungry_Donkey_bar_English_2	153	1	<?xml version="1.0"?>\n<Clock xmlns:dt="urn:schemas-microsoft-com:datatypes"><Description dt:dt="string">E-Prime Primary Realtime Clock</Description><StartTime><Timestamp dt:dt="int">0</Timestamp><DateUtc dt:dt="string">2016-06-16T16:34:40Z</DateUtc></StartTime><FrequencyChanges><FrequencyChange><Frequency dt:dt="r8">3507675</Frequency><Timestamp dt:dt="r8">2034451077507</Timestamp><Current dt:dt="r8">0</Current><DateUtc dt:dt="string">2016-06-16T16:34:40Z</DateUtc></FrequencyChange></FrequencyChanges></Clock>\n	Hungry_Donkey_bar_English_2-153-1	60.017	-25	1.0.0.18	1	-1362729271	Standard	2.0.10.353	2.0.10.353	06-16-2016	6/16/2016 4:34:40 PM	12:34:40	2.0.10.248	32	Bar37-63.bmp	32	2	?	8r_4g.bmp	50r_4g.bmp	1r_2g.bmp	10r_2g.bmp		50r_4g.bmp			TrialProc	TrialList	0	cvbn	-999999	16	149834	0	v	451	150285	102	-220	-118	2	-136	6	10	1	4	32	-8	-50	-1	-10	4	4	2	2	-50	4
Hungry_Donkey_bar_English_2	153	1	<?xml version="1.0"?>\n<Clock xmlns:dt="urn:schemas-microsoft-com:datatypes"><Description dt:dt="string">E-Prime Primary Realtime Clock</Description><StartTime><Timestamp dt:dt="int">0</Timestamp><DateUtc dt:dt="string">2016-06-16T16:34:40Z</DateUtc></StartTime><FrequencyChanges><FrequencyChange><Frequency dt:dt="r8">3507675</Frequency><Timestamp dt:dt="r8">2034451077507</Timestamp><Current dt:dt="r8">0</Current><DateUtc dt:dt="string">2016-06-16T16:34:40Z</DateUtc></FrequencyChange></FrequencyChanges></Clock>\n	Hungry_Donkey_bar_English_2-153-1	60.017	-25	1.0.0.18	1	-1362729271	Standard	2.0.10.353	2.0.10.353	06-16-2016	6/16/2016 4:34:40 PM	12:34:40	2.0.10.248	33	Bar37-63.bmp	33	1	?	0r_4g.bmp	0r_4g.bmp	0r_2g.bmp	0r_2g.bmp	0r_4g.bmp				TrialProc	TrialList	0	cvbn	-999999	16	152316	0	c	641	152957	106	-220	-114	6	-136	6	10	9	4	33	0	0	0	0	4	4	2	2	0	4
Hungry_Donkey_bar_English_2	153	1	<?xml version="1.0"?>\n<Clock xmlns:dt="urn:schemas-microsoft-com:datatypes"><Description dt:dt="string">E-Prime Primary Realtime Clock</Description><StartTime><Timestamp dt:dt="int">0</Timestamp><DateUtc dt:dt="string">2016-06-16T16:34:40Z</DateUtc></StartTime><FrequencyChanges><FrequencyChange><Frequency dt:dt="r8">3507675</Frequency><Timestamp dt:dt="r8">2034451077507</Timestamp><Current dt:dt="r8">0</Current><DateUtc dt:dt="string">2016-06-16T16:34:40Z</DateUtc></FrequencyChange></FrequencyChanges></Clock>\n	Hungry_Donkey_bar_English_2-153-1	60.017	-25	1.0.0.18	1	-1362729271	Standard	2.0.10.353	2.0.10.353	06-16-2016	6/16/2016 4:34:40 PM	12:34:40	2.0.10.248	34	Bar37-63.bmp	33	1	?	0r_4g.bmp	0r_4g.bmp	0r_2g.bmp	0r_2g.bmp	0r_4g.bmp				TrialProc	TrialList	0	cvbn	-999999	16	154982	0	c	887	155869	110	-220	-110	10	-136	6	10	7	4	34	0	0	0	0	4	4	2	2	0	4
Hungry_Donkey_bar_English_2	153	1	<?xml version="1.0"?>\n<Clock xmlns:dt="urn:schemas-microsoft-com:datatypes"><Description dt:dt="string">E-Prime Primary Realtime Clock</Description><StartTime><Timestamp dt:dt="int">0</Timestamp><DateUtc dt:dt="string">2016-06-16T16:34:40Z</DateUtc></StartTime><FrequencyChanges><FrequencyChange><Frequency dt:dt="r8">3507675</Frequency><Timestamp dt:dt="r8">2034451077507</Timestamp><Current dt:dt="r8">0</Current><DateUtc dt:dt="string">2016-06-16T16:34:40Z</DateUtc></FrequencyChange></FrequencyChanges></Clock>\n	Hungry_Donkey_bar_English_2-153-1	60.017	-25	1.0.0.18	1	-1362729271	Standard	2.0.10.353	2.0.10.353	06-16-2016	6/16/2016 4:34:40 PM	12:34:40	2.0.10.248	35	Bar37-63.bmp	34	3	?	10r_4g.bmp	0r_4g.bmp	2r_2g.bmp	0r_2g.bmp			2r_2g.bmp		TrialProc	TrialList	0	cvbn	-999999	16	157898	0	b	467	158365	112	-222	-110	10	-136	6	10	2	4	35	-10	0	-2	0	4	4	2	2	-2	2
Hungry_Donkey_bar_English_2	153	1	<?xml version="1.0"?>\n<Clock xmlns:dt="urn:schemas-microsoft-com:datatypes"><Description dt:dt="string">E-Prime Primary Realtime Clock</Description><StartTime><Timestamp dt:dt="int">0</Timestamp><DateUtc dt:dt="string">2016-06-16T16:34:40Z</DateUtc></StartTime><FrequencyChanges><FrequencyChange><Frequency dt:dt="r8">3507675</Frequency><Timestamp dt:dt="r8">2034451077507</Timestamp><Current dt:dt="r8">0</Current><DateUtc dt:dt="string">2016-06-16T16:34:40Z</DateUtc></FrequencyChange></FrequencyChanges></Clock>\n	Hungry_Donkey_bar_English_2-153-1	60.017	-25	1.0.0.18	1	-1362729271	Standard	2.0.10.353	2.0.10.353	06-16-2016	6/16/2016 4:34:40 PM	12:34:40	2.0.10.248	36	Bar37-63.bmp	34	2	?	10r_4g.bmp	0r_4g.bmp	2r_2g.bmp	0r_2g.bmp		0r_4g.bmp			TrialProc	TrialList	0	cvbn	-999999	16	160397	0	v	880	161277	116	-222	-106	10	-132	6	10	3	4	36	-10	0	-2	0	4	4	2	2	0	4
Hungry_Donkey_bar_English_2	153	1	<?xml version="1.0"?>\n<Clock xmlns:dt="urn:schemas-microsoft-com:datatypes"><Description dt:dt="string">E-Prime Primary Realtime Clock</Description><StartTime><Timestamp dt:dt="int">0</Timestamp><DateUtc dt:dt="string">2016-06-16T16:34:40Z</DateUtc></StartTime><FrequencyChanges><FrequencyChange><Frequency dt:dt="r8">3507675</Frequency><Timestamp dt:dt="r8">2034451077507</Timestamp><Current dt:dt="r8">0</Current><DateUtc dt:dt="string">2016-06-16T16:34:40Z</DateUtc></FrequencyChange></FrequencyChanges></Clock>\n	Hungry_Donkey_bar_English_2-153-1	60.017	-25	1.0.0.18	1	-1362729271	Standard	2.0.10.353	2.0.10.353	06-16-2016	6/16/2016 4:34:40 PM	12:34:40	2.0.10.248	37	Bar37-63.bmp	35	4	?	10r_4g.bmp	0r_4g.bmp	2r_2g.bmp	0r_2g.bmp				0r_2g.bmp	TrialProc	TrialList	0	cvbn	-999999	16	163313	0	n	764	164077	118	-222	-104	10	-132	6	12	4	4	37	-10	0	-2	0	4	4	2	2	0	2
Hungry_Donkey_bar_English_2	153	1	<?xml version="1.0"?>\n<Clock xmlns:dt="urn:schemas-microsoft-com:datatypes"><Description dt:dt="string">E-Prime Primary Realtime Clock</Description><StartTime><Timestamp dt:dt="int">0</Timestamp><DateUtc dt:dt="string">2016-06-16T16:34:40Z</DateUtc></StartTime><FrequencyChanges><FrequencyChange><Frequency dt:dt="r8">3507675</Frequency><Timestamp dt:dt="r8">2034451077507</Timestamp><Current dt:dt="r8">0</Current><DateUtc dt:dt="string">2016-06-16T16:34:40Z</DateUtc></FrequencyChange></FrequencyChanges></Clock>\n	Hungry_Donkey_bar_English_2-153-1	60.017	-25	1.0.0.18	1	-1362729271	Standard	2.0.10.353	2.0.10.353	06-16-2016	6/16/2016 4:34:40 PM	12:34:40	2.0.10.248	38	Bar37-63.bmp	34	1	?	12r_4g.bmp	0r_4g.bmp	3r_2g.bmp	0r_2g.bmp	12r_4g.bmp				TrialProc	TrialList	0	cvbn	-999999	16	166112	0	c	605	166717	122	-234	-112	2	-132	6	12	5	4	38	-12	0	-3	0	4	4	2	2	-12	4
Hungry_Donkey_bar_English_2	153	1	<?xml version="1.0"?>\n<Clock xmlns:dt="urn:schemas-microsoft-com:datatypes"><Description dt:dt="string">E-Prime Primary Realtime Clock</Description><StartTime><Timestamp dt:dt="int">0</Timestamp><DateUtc dt:dt="string">2016-06-16T16:34:40Z</DateUtc></StartTime><FrequencyChanges><FrequencyChange><Frequency dt:dt="r8">3507675</Frequency><Timestamp dt:dt="r8">2034451077507</Timestamp><Current dt:dt="r8">0</Current><DateUtc dt:dt="string">2016-06-16T16:34:40Z</DateUtc></FrequencyChange></FrequencyChanges></Clock>\n	Hungry_Donkey_bar_English_2-153-1	60.017	-25	1.0.0.18	1	-1362729271	Standard	2.0.10.353	2.0.10.353	06-16-2016	6/16/2016 4:34:40 PM	12:34:40	2.0.10.248	39	Bar37-63.bmp	35	4	?	0r_4g.bmp	0r_4g.bmp	0r_2g.bmp	0r_2g.bmp				0r_2g.bmp	TrialProc	TrialList	0	cvbn	-999999	16	168745	0	n	1731	170476	124	-234	-110	2	-132	6	14	6	4	39	0	0	0	0	4	4	2	2	0	2
Hungry_Donkey_bar_English_2	153	1	<?xml version="1.0"?>\n<Clock xmlns:dt="urn:schemas-microsoft-com:datatypes"><Description dt:dt="string">E-Prime Primary Realtime Clock</Description><StartTime><Timestamp dt:dt="int">0</Timestamp><DateUtc dt:dt="string">2016-06-16T16:34:40Z</DateUtc></StartTime><FrequencyChanges><FrequencyChange><Frequency dt:dt="r8">3507675</Frequency><Timestamp dt:dt="r8">2034451077507</Timestamp><Current dt:dt="r8">0</Current><DateUtc dt:dt="string">2016-06-16T16:34:40Z</DateUtc></FrequencyChange></FrequencyChanges></Clock>\n	Hungry_Donkey_bar_English_2-153-1	60.017	-25	1.0.0.18	1	-1362729271	Standard	2.0.10.353	2.0.10.353	06-16-2016	6/16/2016 4:34:40 PM	12:34:40	2.0.10.248	40	Bar37-63.bmp	35	2	?	0r_4g.bmp	0r_4g.bmp	0r_2g.bmp	0r_2g.bmp		0r_4g.bmp			TrialProc	TrialList	0	cvbn	-999999	16	172510	0	v	1134	173644	128	-234	-106	2	-128	6	14	10	4	40	0	0	0	0	4	4	2	2	0	4
Hungry_Donkey_bar_English_2	153	1	<?xml version="1.0"?>\n<Clock xmlns:dt="urn:schemas-microsoft-com:datatypes"><Description dt:dt="string">E-Prime Primary Realtime Clock</Description><StartTime><Timestamp dt:dt="int">0</Timestamp><DateUtc dt:dt="string">2016-06-16T16:34:40Z</DateUtc></StartTime><FrequencyChanges><FrequencyChange><Frequency dt:dt="r8">3507675</Frequency><Timestamp dt:dt="r8">2034451077507</Timestamp><Current dt:dt="r8">0</Current><DateUtc dt:dt="string">2016-06-16T16:34:40Z</DateUtc></FrequencyChange></FrequencyChanges></Clock>\n	Hungry_Donkey_bar_English_2-153-1	60.017	-25	1.0.0.18	1	-1362729271	Standard	2.0.10.353	2.0.10.353	06-16-2016	6/16/2016 4:34:40 PM	12:34:40	2.0.10.248	41	Bar37-63.bmp	36	3	?	0r_4g.bmp	0r_4g.bmp	0r_2g.bmp	0r_2g.bmp			0r_2g.bmp		TrialProc	TrialList	0	cvbn	-999999	16	175676	0	b	528	176204	130	-234	-104	2	-128	8	14	9	5	41	0	0	0	0	4	4	2	2	0	2
Hungry_Donkey_bar_English_2	153	1	<?xml version="1.0"?>\n<Clock xmlns:dt="urn:schemas-microsoft-com:datatypes"><Description dt:dt="string">E-Prime Primary Realtime Clock</Description><StartTime><Timestamp dt:dt="int">0</Timestamp><DateUtc dt:dt="string">2016-06-16T16:34:40Z</DateUtc></StartTime><FrequencyChanges><FrequencyChange><Frequency dt:dt="r8">3507675</Frequency><Timestamp dt:dt="r8">2034451077507</Timestamp><Current dt:dt="r8">0</Current><DateUtc dt:dt="string">2016-06-16T16:34:40Z</DateUtc></FrequencyChange></FrequencyChanges></Clock>\n	Hungry_Donkey_bar_English_2-153-1	60.017	-25	1.0.0.18	1	-1362729271	Standard	2.0.10.353	2.0.10.353	06-16-2016	6/16/2016 4:34:40 PM	12:34:40	2.0.10.248	42	Bar37-63.bmp	35	1	?	10r_4g.bmp	0r_4g.bmp	2r_2g.bmp	0r_2g.bmp	10r_4g.bmp				TrialProc	TrialList	0	cvbn	-999999	16	178242	0	c	426	178668	134	-244	-110	-4	-128	8	14	3	5	42	-10	0	-2	0	4	4	2	2	-10	4
Hungry_Donkey_bar_English_2	153	1	<?xml version="1.0"?>\n<Clock xmlns:dt="urn:schemas-microsoft-com:datatypes"><Description dt:dt="string">E-Prime Primary Realtime Clock</Description><StartTime><Timestamp dt:dt="int">0</Timestamp><DateUtc dt:dt="string">2016-06-16T16:34:40Z</DateUtc></StartTime><FrequencyChanges><FrequencyChange><Frequency dt:dt="r8">3507675</Frequency><Timestamp dt:dt="r8">2034451077507</Timestamp><Current dt:dt="r8">0</Current><DateUtc dt:dt="string">2016-06-16T16:34:40Z</DateUtc></FrequencyChange></FrequencyChanges></Clock>\n	Hungry_Donkey_bar_English_2-153-1	60.017	-25	1.0.0.18	1	-1362729271	Standard	2.0.10.353	2.0.10.353	06-16-2016	6/16/2016 4:34:40 PM	12:34:40	2.0.10.248	43	Bar37-63.bmp	36	3	?	8r_4g.bmp	50r_4g.bmp	1r_2g.bmp	10r_2g.bmp			1r_2g.bmp		TrialProc	TrialList	0	cvbn	-999999	15	180691	0	b	489	181180	136	-245	-109	-4	-128	9	14	1	5	43	-8	-50	-1	-10	4	4	2	2	-1	2
Hungry_Donkey_bar_English_2	153	1	<?xml version="1.0"?>\n<Clock xmlns:dt="urn:schemas-microsoft-com:datatypes"><Description dt:dt="string">E-Prime Primary Realtime Clock</Description><StartTime><Timestamp dt:dt="int">0</Timestamp><DateUtc dt:dt="string">2016-06-16T16:34:40Z</DateUtc></StartTime><FrequencyChanges><FrequencyChange><Frequency dt:dt="r8">3507675</Frequency><Timestamp dt:dt="r8">2034451077507</Timestamp><Current dt:dt="r8">0</Current><DateUtc dt:dt="string">2016-06-16T16:34:40Z</DateUtc></FrequencyChange></FrequencyChanges></Clock>\n	Hungry_Donkey_bar_English_2-153-1	60.017	-25	1.0.0.18	1	-1362729271	Standard	2.0.10.353	2.0.10.353	06-16-2016	6/16/2016 4:34:40 PM	12:34:40	2.0.10.248	44	Bar37-63.bmp	36	4	?	10r_4g.bmp	0r_4g.bmp	2r_2g.bmp	0r_2g.bmp				0r_2g.bmp	TrialProc	TrialList	0	cvbn	-999999	16	183207	0	n	293	183500	138	-245	-107	-4	-128	9	16	2	5	44	-10	0	-2	0	4	4	2	2	0	2
Hungry_Donkey_bar_English_2	153	1	<?xml version="1.0"?>\n<Clock xmlns:dt="urn:schemas-microsoft-com:datatypes"><Description dt:dt="string">E-Prime Primary Realtime Clock</Description><StartTime><Timestamp dt:dt="int">0</Timestamp><DateUtc dt:dt="string">2016-06-16T16:34:40Z</DateUtc></StartTime><FrequencyChanges><FrequencyChange><Frequency dt:dt="r8">3507675</Frequency><Timestamp dt:dt="r8">2034451077507</Timestamp><Current dt:dt="r8">0</Current><DateUtc dt:dt="string">2016-06-16T16:34:40Z</DateUtc></FrequencyChange></FrequencyChanges></Clock>\n	Hungry_Donkey_bar_English_2-153-1	60.017	-25	1.0.0.18	1	-1362729271	Standard	2.0.10.353	2.0.10.353	06-16-2016	6/16/2016 4:34:40 PM	12:34:40	2.0.10.248	45	Bar37-63.bmp	36	1	?	12r_4g.bmp	0r_4g.bmp	3r_2g.bmp	0r_2g.bmp	12r_4g.bmp				TrialProc	TrialList	0	cvbn	-999999	16	185523	0	c	681	186204	142	-257	-115	-12	-128	9	16	5	5	45	-12	0	-3	0	4	4	2	2	-12	4
Hungry_Donkey_bar_English_2	153	1	<?xml version="1.0"?>\n<Clock xmlns:dt="urn:schemas-microsoft-com:datatypes"><Description dt:dt="string">E-Prime Primary Realtime Clock</Description><StartTime><Timestamp dt:dt="int">0</Timestamp><DateUtc dt:dt="string">2016-06-16T16:34:40Z</DateUtc></StartTime><FrequencyChanges><FrequencyChange><Frequency dt:dt="r8">3507675</Frequency><Timestamp dt:dt="r8">2034451077507</Timestamp><Current dt:dt="r8">0</Current><DateUtc dt:dt="string">2016-06-16T16:34:40Z</DateUtc></FrequencyChange></FrequencyChanges></Clock>\n	Hungry_Donkey_bar_English_2-153-1	60.017	-25	1.0.0.18	1	-1362729271	Standard	2.0.10.353	2.0.10.353	06-16-2016	6/16/2016 4:34:40 PM	12:34:40	2.0.10.248	46	Bar37-63.bmp	36	2	?	0r_4g.bmp	0r_4g.bmp	0r_2g.bmp	0r_2g.bmp		0r_4g.bmp			TrialProc	TrialList	0	cvbn	-999999	16	188239	0	v	589	188828	146	-257	-111	-12	-124	9	16	6	5	46	0	0	0	0	4	4	2	2	0	4
Hungry_Donkey_bar_English_2	153	1	<?xml version="1.0"?>\n<Clock xmlns:dt="urn:schemas-microsoft-com:datatypes"><Description dt:dt="string">E-Prime Primary Realtime Clock</Description><StartTime><Timestamp dt:dt="int">0</Timestamp><DateUtc dt:dt="string">2016-06-16T16:34:40Z</DateUtc></StartTime><FrequencyChanges><FrequencyChange><Frequency dt:dt="r8">3507675</Frequency><Timestamp dt:dt="r8">2034451077507</Timestamp><Current dt:dt="r8">0</Current><DateUtc dt:dt="string">2016-06-16T16:34:40Z</DateUtc></FrequencyChange></FrequencyChanges></Clock>\n	Hungry_Donkey_bar_English_2-153-1	60.017	-25	1.0.0.18	1	-1362729271	Standard	2.0.10.353	2.0.10.353	06-16-2016	6/16/2016 4:34:40 PM	12:34:40	2.0.10.248	47	Bar37-63.bmp	37	3	?	0r_4g.bmp	0r_4g.bmp	0r_2g.bmp	0r_2g.bmp			0r_2g.bmp		TrialProc	TrialList	0	cvbn	-999999	16	190855	0	b	1220	192075	148	-257	-109	-12	-124	11	16	8	5	47	0	0	0	0	4	4	2	2	0	2
Hungry_Donkey_bar_English_2	153	1	<?xml version="1.0"?>\n<Clock xmlns:dt="urn:schemas-microsoft-com:datatypes"><Description dt:dt="string">E-Prime Primary Realtime Clock</Description><StartTime><Timestamp dt:dt="int">0</Timestamp><DateUtc dt:dt="string">2016-06-16T16:34:40Z</DateUtc></StartTime><FrequencyChanges><FrequencyChange><Frequency dt:dt="r8">3507675</Frequency><Timestamp dt:dt="r8">2034451077507</Timestamp><Current dt:dt="r8">0</Current><DateUtc dt:dt="string">2016-06-16T16:34:40Z</DateUtc></FrequencyChange></FrequencyChanges></Clock>\n	Hungry_Donkey_bar_English_2-153-1	60.017	-25	1.0.0.18	1	-1362729271	Standard	2.0.10.353	2.0.10.353	06-16-2016	6/16/2016 4:34:40 PM	12:34:40	2.0.10.248	48	Bar37-63.bmp	37	4	?	0r_4g.bmp	0r_4g.bmp	0r_2g.bmp	0r_2g.bmp				0r_2g.bmp	TrialProc	TrialList	0	cvbn	-999999	16	194104	0	n	2067	196171	150	-257	-107	-12	-124	11	18	10	5	48	0	0	0	0	4	4	2	2	0	2
Hungry_Donkey_bar_English_2	153	1	<?xml version="1.0"?>\n<Clock xmlns:dt="urn:schemas-microsoft-com:datatypes"><Description dt:dt="string">E-Prime Primary Realtime Clock</Description><StartTime><Timestamp dt:dt="int">0</Timestamp><DateUtc dt:dt="string">2016-06-16T16:34:40Z</DateUtc></StartTime><FrequencyChanges><FrequencyChange><Frequency dt:dt="r8">3507675</Frequency><Timestamp dt:dt="r8">2034451077507</Timestamp><Current dt:dt="r8">0</Current><DateUtc dt:dt="string">2016-06-16T16:34:40Z</DateUtc></FrequencyChange></FrequencyChanges></Clock>\n	Hungry_Donkey_bar_English_2-153-1	60.017	-25	1.0.0.18	1	-1362729271	Standard	2.0.10.353	2.0.10.353	06-16-2016	6/16/2016 4:34:40 PM	12:34:40	2.0.10.248	49	Bar37-63.bmp	37	1	?	0r_4g.bmp	0r_4g.bmp	0r_2g.bmp	0r_2g.bmp	0r_4g.bmp				TrialProc	TrialList	0	cvbn	-999999	16	198203	0	c	1712	199915	154	-257	-103	-8	-124	11	18	7	5	49	0	0	0	0	4	4	2	2	0	4
Hungry_Donkey_bar_English_2	153	1	<?xml version="1.0"?>\n<Clock xmlns:dt="urn:schemas-microsoft-com:datatypes"><Description dt:dt="string">E-Prime Primary Realtime Clock</Description><StartTime><Timestamp dt:dt="int">0</Timestamp><DateUtc dt:dt="string">2016-06-16T16:34:40Z</DateUtc></StartTime><FrequencyChanges><FrequencyChange><Frequency dt:dt="r8">3507675</Frequency><Timestamp dt:dt="r8">2034451077507</Timestamp><Current dt:dt="r8">0</Current><DateUtc dt:dt="string">2016-06-16T16:34:40Z</DateUtc></FrequencyChange></FrequencyChanges></Clock>\n	Hungry_Donkey_bar_English_2-153-1	60.017	-25	1.0.0.18	1	-1362729271	Standard	2.0.10.353	2.0.10.353	06-16-2016	6/16/2016 4:34:40 PM	12:34:40	2.0.10.248	50	Bar37-63.bmp	38	3	?	10r_4g.bmp	0r_4g.bmp	2r_2g.bmp	0r_2g.bmp			2r_2g.bmp		TrialProc	TrialList	0	cvbn	-999999	16	201952	0	b	1515	203467	156	-259	-103	-8	-124	11	18	4	5	50	-10	0	-2	0	4	4	2	2	-2	2
Hungry_Donkey_bar_English_2	153	1	<?xml version="1.0"?>\n<Clock xmlns:dt="urn:schemas-microsoft-com:datatypes"><Description dt:dt="string">E-Prime Primary Realtime Clock</Description><StartTime><Timestamp dt:dt="int">0</Timestamp><DateUtc dt:dt="string">2016-06-16T16:34:40Z</DateUtc></StartTime><FrequencyChanges><FrequencyChange><Frequency dt:dt="r8">3507675</Frequency><Timestamp dt:dt="r8">2034451077507</Timestamp><Current dt:dt="r8">0</Current><DateUtc dt:dt="string">2016-06-16T16:34:40Z</DateUtc></FrequencyChange></FrequencyChanges></Clock>\n	Hungry_Donkey_bar_English_2-153-1	60.017	-25	1.0.0.18	1	-1362729271	Standard	2.0.10.353	2.0.10.353	06-16-2016	6/16/2016 4:34:40 PM	12:34:40	2.0.10.248	51	Bar37-63.bmp	38	4	?	10r_4g.bmp	0r_4g.bmp	2r_2g.bmp	0r_2g.bmp				0r_2g.bmp	TrialProc	TrialList	0	cvbn	-999999	16	205501	0	n	990	206491	158	-259	-101	-8	-124	11	20	4	6	51	-10	0	-2	0	4	4	2	2	0	2
Hungry_Donkey_bar_English_2	153	1	<?xml version="1.0"?>\n<Clock xmlns:dt="urn:schemas-microsoft-com:datatypes"><Description dt:dt="string">E-Prime Primary Realtime Clock</Description><StartTime><Timestamp dt:dt="int">0</Timestamp><DateUtc dt:dt="string">2016-06-16T16:34:40Z</DateUtc></StartTime><FrequencyChanges><FrequencyChange><Frequency dt:dt="r8">3507675</Frequency><Timestamp dt:dt="r8">2034451077507</Timestamp><Current dt:dt="r8">0</Current><DateUtc dt:dt="string">2016-06-16T16:34:40Z</DateUtc></FrequencyChange></FrequencyChanges></Clock>\n	Hungry_Donkey_bar_English_2-153-1	60.017	-25	1.0.0.18	1	-1362729271	Standard	2.0.10.353	2.0.10.353	06-16-2016	6/16/2016 4:34:40 PM	12:34:40	2.0.10.248	52	Bar37-63.bmp	38	1	?	0r_4g.bmp	0r_4g.bmp	0r_2g.bmp	0r_2g.bmp	0r_4g.bmp				TrialProc	TrialList	0	cvbn	-999999	16	208517	0	c	694	209211	162	-259	-97	-4	-124	11	20	10	6	52	0	0	0	0	4	4	2	2	0	4
Hungry_Donkey_bar_English_2	153	1	<?xml version="1.0"?>\n<Clock xmlns:dt="urn:schemas-microsoft-com:datatypes"><Description dt:dt="string">E-Prime Primary Realtime Clock</Description><StartTime><Timestamp dt:dt="int">0</Timestamp><DateUtc dt:dt="string">2016-06-16T16:34:40Z</DateUtc></StartTime><FrequencyChanges><FrequencyChange><Frequency dt:dt="r8">3507675</Frequency><Timestamp dt:dt="r8">2034451077507</Timestamp><Current dt:dt="r8">0</Current><DateUtc dt:dt="string">2016-06-16T16:34:40Z</DateUtc></FrequencyChange></FrequencyChanges></Clock>\n	Hungry_Donkey_bar_English_2-153-1	60.017	-25	1.0.0.18	1	-1362729271	Standard	2.0.10.353	2.0.10.353	06-16-2016	6/16/2016 4:34:40 PM	12:34:40	2.0.10.248	53	Bar37-63.bmp	38	1	?	8r_4g.bmp	50r_4g.bmp	1r_2g.bmp	10r_2g.bmp	8r_4g.bmp				TrialProc	TrialList	0	cvbn	-999999	16	211249	0	c	553	211802	166	-267	-101	-8	-124	11	20	1	6	53	-8	-50	-1	-10	4	4	2	2	-8	4
Hungry_Donkey_bar_English_2	153	1	<?xml version="1.0"?>\n<Clock xmlns:dt="urn:schemas-microsoft-com:datatypes"><Description dt:dt="string">E-Prime Primary Realtime Clock</Description><StartTime><Timestamp dt:dt="int">0</Timestamp><DateUtc dt:dt="string">2016-06-16T16:34:40Z</DateUtc></StartTime><FrequencyChanges><FrequencyChange><Frequency dt:dt="r8">3507675</Frequency><Timestamp dt:dt="r8">2034451077507</Timestamp><Current dt:dt="r8">0</Current><DateUtc dt:dt="string">2016-06-16T16:34:40Z</DateUtc></FrequencyChange></FrequencyChanges></Clock>\n	Hungry_Donkey_bar_English_2-153-1	60.017	-25	1.0.0.18	1	-1362729271	Standard	2.0.10.353	2.0.10.353	06-16-2016	6/16/2016 4:34:40 PM	12:34:40	2.0.10.248	54	Bar37-63.bmp	39	4	?	0r_4g.bmp	0r_4g.bmp	0r_2g.bmp	0r_2g.bmp				0r_2g.bmp	TrialProc	TrialList	0	cvbn	-999999	16	213832	0	n	738	214570	168	-267	-99	-8	-124	11	22	9	6	54	0	0	0	0	4	4	2	2	0	2
Hungry_Donkey_bar_English_2	153	1	<?xml version="1.0"?>\n<Clock xmlns:dt="urn:schemas-microsoft-com:datatypes"><Description dt:dt="string">E-Prime Primary Realtime Clock</Description><StartTime><Timestamp dt:dt="int">0</Timestamp><DateUtc dt:dt="string">2016-06-16T16:34:40Z</DateUtc></StartTime><FrequencyChanges><FrequencyChange><Frequency dt:dt="r8">3507675</Frequency><Timestamp dt:dt="r8">2034451077507</Timestamp><Current dt:dt="r8">0</Current><DateUtc dt:dt="string">2016-06-16T16:34:40Z</DateUtc></FrequencyChange></FrequencyChanges></Clock>\n	Hungry_Donkey_bar_English_2-153-1	60.017	-25	1.0.0.18	1	-1362729271	Standard	2.0.10.353	2.0.10.353	06-16-2016	6/16/2016 4:34:40 PM	12:34:40	2.0.10.248	55	Bar37-63.bmp	39	3	?	0r_4g.bmp	0r_4g.bmp	0r_2g.bmp	0r_2g.bmp			0r_2g.bmp		TrialProc	TrialList	0	cvbn	-999999	16	216598	0	b	1076	217674	170	-267	-97	-8	-124	13	22	6	6	55	0	0	0	0	4	4	2	2	0	2
Hungry_Donkey_bar_English_2	153	1	<?xml version="1.0"?>\n<Clock xmlns:dt="urn:schemas-microsoft-com:datatypes"><Description dt:dt="string">E-Prime Primary Realtime Clock</Description><StartTime><Timestamp dt:dt="int">0</Timestamp><DateUtc dt:dt="string">2016-06-16T16:34:40Z</DateUtc></StartTime><FrequencyChanges><FrequencyChange><Frequency dt:dt="r8">3507675</Frequency><Timestamp dt:dt="r8">2034451077507</Timestamp><Current dt:dt="r8">0</Current><DateUtc dt:dt="string">2016-06-16T16:34:40Z</DateUtc></FrequencyChange></FrequencyChanges></Clock>\n	Hungry_Donkey_bar_English_2-153-1	60.017	-25	1.0.0.18	1	-1362729271	Standard	2.0.10.353	2.0.10.353	06-16-2016	6/16/2016 4:34:40 PM	12:34:40	2.0.10.248	56	Bar37-63.bmp	39	3	?	12r_4g.bmp	0r_4g.bmp	3r_2g.bmp	0r_2g.bmp			3r_2g.bmp		TrialProc	TrialList	0	cvbn	-999999	16	219714	0	b	856	220570	172	-270	-98	-8	-124	12	22	5	6	56	-12	0	-3	0	4	4	2	2	-3	2
Hungry_Donkey_bar_English_2	153	1	<?xml version="1.0"?>\n<Clock xmlns:dt="urn:schemas-microsoft-com:datatypes"><Description dt:dt="string">E-Prime Primary Realtime Clock</Description><StartTime><Timestamp dt:dt="int">0</Timestamp><DateUtc dt:dt="string">2016-06-16T16:34:40Z</DateUtc></StartTime><FrequencyChanges><FrequencyChange><Frequency dt:dt="r8">3507675</Frequency><Timestamp dt:dt="r8">2034451077507</Timestamp><Current dt:dt="r8">0</Current><DateUtc dt:dt="string">2016-06-16T16:34:40Z</DateUtc></FrequencyChange></FrequencyChanges></Clock>\n	Hungry_Donkey_bar_English_2-153-1	60.017	-25	1.0.0.18	1	-1362729271	Standard	2.0.10.353	2.0.10.353	06-16-2016	6/16/2016 4:34:40 PM	12:34:40	2.0.10.248	57	Bar37-63.bmp	39	2	?	0r_4g.bmp	0r_4g.bmp	0r_2g.bmp	0r_2g.bmp		0r_4g.bmp			TrialProc	TrialList	0	cvbn	-999999	16	222596	0	v	534	223130	176	-270	-94	-8	-120	12	22	7	6	57	0	0	0	0	4	4	2	2	0	4
Hungry_Donkey_bar_English_2	153	1	<?xml version="1.0"?>\n<Clock xmlns:dt="urn:schemas-microsoft-com:datatypes"><Description dt:dt="string">E-Prime Primary Realtime Clock</Description><StartTime><Timestamp dt:dt="int">0</Timestamp><DateUtc dt:dt="string">2016-06-16T16:34:40Z</DateUtc></StartTime><FrequencyChanges><FrequencyChange><Frequency dt:dt="r8">3507675</Frequency><Timestamp dt:dt="r8">2034451077507</Timestamp><Current dt:dt="r8">0</Current><DateUtc dt:dt="string">2016-06-16T16:34:40Z</DateUtc></FrequencyChange></FrequencyChanges></Clock>\n	Hungry_Donkey_bar_English_2-153-1	60.017	-25	1.0.0.18	1	-1362729271	Standard	2.0.10.353	2.0.10.353	06-16-2016	6/16/2016 4:34:40 PM	12:34:40	2.0.10.248	58	Bar37-63.bmp	40	4	?	0r_4g.bmp	0r_4g.bmp	0r_2g.bmp	0r_2g.bmp				0r_2g.bmp	TrialProc	TrialList	0	cvbn	-999999	16	225162	0	n	768	225930	178	-270	-92	-8	-120	12	24	8	6	58	0	0	0	0	4	4	2	2	0	2
Hungry_Donkey_bar_English_2	153	1	<?xml version="1.0"?>\n<Clock xmlns:dt="urn:schemas-microsoft-com:datatypes"><Description dt:dt="string">E-Prime Primary Realtime Clock</Description><StartTime><Timestamp dt:dt="int">0</Timestamp><DateUtc dt:dt="string">2016-06-16T16:34:40Z</DateUtc></StartTime><FrequencyChanges><FrequencyChange><Frequency dt:dt="r8">3507675</Frequency><Timestamp dt:dt="r8">2034451077507</Timestamp><Current dt:dt="r8">0</Current><DateUtc dt:dt="string">2016-06-16T16:34:40Z</DateUtc></FrequencyChange></FrequencyChanges></Clock>\n	Hungry_Donkey_bar_English_2-153-1	60.017	-25	1.0.0.18	1	-1362729271	Standard	2.0.10.353	2.0.10.353	06-16-2016	6/16/2016 4:34:40 PM	12:34:40	2.0.10.248	59	Bar37-63.bmp	40	2	?	10r_4g.bmp	0r_4g.bmp	2r_2g.bmp	0r_2g.bmp		0r_4g.bmp			TrialProc	TrialList	0	cvbn	-999999	16	227961	0	v	561	228522	182	-270	-88	-8	-116	12	24	3	6	59	-10	0	-2	0	4	4	2	2	0	4
Hungry_Donkey_bar_English_2	153	1	<?xml version="1.0"?>\n<Clock xmlns:dt="urn:schemas-microsoft-com:datatypes"><Description dt:dt="string">E-Prime Primary Realtime Clock</Description><StartTime><Timestamp dt:dt="int">0</Timestamp><DateUtc dt:dt="string">2016-06-16T16:34:40Z</DateUtc></StartTime><FrequencyChanges><FrequencyChange><Frequency dt:dt="r8">3507675</Frequency><Timestamp dt:dt="r8">2034451077507</Timestamp><Current dt:dt="r8">0</Current><DateUtc dt:dt="string">2016-06-16T16:34:40Z</DateUtc></FrequencyChange></FrequencyChanges></Clock>\n	Hungry_Donkey_bar_English_2-153-1	60.017	-25	1.0.0.18	1	-1362729271	Standard	2.0.10.353	2.0.10.353	06-16-2016	6/16/2016 4:34:40 PM	12:34:40	2.0.10.248	60	Bar37-63.bmp	41	4	?	10r_4g.bmp	0r_4g.bmp	2r_2g.bmp	0r_2g.bmp				0r_2g.bmp	TrialProc	TrialList	0	cvbn	-999999	17	230561	0	n	601	231162	184	-270	-86	-8	-116	12	26	2	6	60	-10	0	-2	0	4	4	2	2	0	2
Hungry_Donkey_bar_English_2	153	1	<?xml version="1.0"?>\n<Clock xmlns:dt="urn:schemas-microsoft-com:datatypes"><Description dt:dt="string">E-Prime Primary Realtime Clock</Description><StartTime><Timestamp dt:dt="int">0</Timestamp><DateUtc dt:dt="string">2016-06-16T16:34:40Z</DateUtc></StartTime><FrequencyChanges><FrequencyChange><Frequency dt:dt="r8">3507675</Frequency><Timestamp dt:dt="r8">2034451077507</Timestamp><Current dt:dt="r8">0</Current><DateUtc dt:dt="string">2016-06-16T16:34:40Z</DateUtc></FrequencyChange></FrequencyChanges></Clock>\n	Hungry_Donkey_bar_English_2-153-1	60.017	-25	1.0.0.18	1	-1362729271	Standard	2.0.10.353	2.0.10.353	06-16-2016	6/16/2016 4:34:40 PM	12:34:40	2.0.10.248	61	Bar37-63.bmp	41	2	?	0r_4g.bmp	0r_4g.bmp	0r_2g.bmp	0r_2g.bmp		0r_4g.bmp			TrialProc	TrialList	0	cvbn	-999999	16	233193	0	v	240	233433	188	-270	-82	-8	-112	12	26	10	7	61	0	0	0	0	4	4	2	2	0	4
Hungry_Donkey_bar_English_2	153	1	<?xml version="1.0"?>\n<Clock xmlns:dt="urn:schemas-microsoft-com:datatypes"><Description dt:dt="string">E-Prime Primary Realtime Clock</Description><StartTime><Timestamp dt:dt="int">0</Timestamp><DateUtc dt:dt="string">2016-06-16T16:34:40Z</DateUtc></StartTime><FrequencyChanges><FrequencyChange><Frequency dt:dt="r8">3507675</Frequency><Timestamp dt:dt="r8">2034451077507</Timestamp><Current dt:dt="r8">0</Current><DateUtc dt:dt="string">2016-06-16T16:34:40Z</DateUtc></FrequencyChange></FrequencyChanges></Clock>\n	Hungry_Donkey_bar_English_2-153-1	60.017	-25	1.0.0.18	1	-1362729271	Standard	2.0.10.353	2.0.10.353	06-16-2016	6/16/2016 4:34:40 PM	12:34:40	2.0.10.248	62	Bar37-63.bmp	41	4	?	10r_4g.bmp	0r_4g.bmp	2r_2g.bmp	0r_2g.bmp				0r_2g.bmp	TrialProc	TrialList	0	cvbn	-999999	16	235459	0	n	294	235753	190	-270	-80	-8	-112	12	28	4	7	62	-10	0	-2	0	4	4	2	2	0	2
Hungry_Donkey_bar_English_2	153	1	<?xml version="1.0"?>\n<Clock xmlns:dt="urn:schemas-microsoft-com:datatypes"><Description dt:dt="string">E-Prime Primary Realtime Clock</Description><StartTime><Timestamp dt:dt="int">0</Timestamp><DateUtc dt:dt="string">2016-06-16T16:34:40Z</DateUtc></StartTime><FrequencyChanges><FrequencyChange><Frequency dt:dt="r8">3507675</Frequency><Timestamp dt:dt="r8">2034451077507</Timestamp><Current dt:dt="r8">0</Current><DateUtc dt:dt="string">2016-06-16T16:34:40Z</DateUtc></FrequencyChange></FrequencyChanges></Clock>\n	Hungry_Donkey_bar_English_2-153-1	60.017	-25	1.0.0.18	1	-1362729271	Standard	2.0.10.353	2.0.10.353	06-16-2016	6/16/2016 4:34:40 PM	12:34:40	2.0.10.248	63	Bar37-63.bmp	42	2	?	0r_4g.bmp	0r_4g.bmp	0r_2g.bmp	0r_2g.bmp		0r_4g.bmp			TrialProc	TrialList	0	cvbn	-999999	16	237792	0	v	361	238153	194	-270	-76	-8	-108	12	28	7	7	63	0	0	0	0	4	4	2	2	0	4
Hungry_Donkey_bar_English_2	153	1	<?xml version="1.0"?>\n<Clock xmlns:dt="urn:schemas-microsoft-com:datatypes"><Description dt:dt="string">E-Prime Primary Realtime Clock</Description><StartTime><Timestamp dt:dt="int">0</Timestamp><DateUtc dt:dt="string">2016-06-16T16:34:40Z</DateUtc></StartTime><FrequencyChanges><FrequencyChange><Frequency dt:dt="r8">3507675</Frequency><Timestamp dt:dt="r8">2034451077507</Timestamp><Current dt:dt="r8">0</Current><DateUtc dt:dt="string">2016-06-16T16:34:40Z</DateUtc></FrequencyChange></FrequencyChanges></Clock>\n	Hungry_Donkey_bar_English_2-153-1	60.017	-25	1.0.0.18	1	-1362729271	Standard	2.0.10.353	2.0.10.353	06-16-2016	6/16/2016 4:34:40 PM	12:34:40	2.0.10.248	64	Bar37-63.bmp	42	4	?	0r_4g.bmp	0r_4g.bmp	0r_2g.bmp	0r_2g.bmp				0r_2g.bmp	TrialProc	TrialList	0	cvbn	-999999	16	240191	0	n	538	240729	196	-270	-74	-8	-108	12	30	8	7	64	0	0	0	0	4	4	2	2	0	2
Hungry_Donkey_bar_English_2	153	1	<?xml version="1.0"?>\n<Clock xmlns:dt="urn:schemas-microsoft-com:datatypes"><Description dt:dt="string">E-Prime Primary Realtime Clock</Description><StartTime><Timestamp dt:dt="int">0</Timestamp><DateUtc dt:dt="string">2016-06-16T16:34:40Z</DateUtc></StartTime><FrequencyChanges><FrequencyChange><Frequency dt:dt="r8">3507675</Frequency><Timestamp dt:dt="r8">2034451077507</Timestamp><Current dt:dt="r8">0</Current><DateUtc dt:dt="string">2016-06-16T16:34:40Z</DateUtc></FrequencyChange></FrequencyChanges></Clock>\n	Hungry_Donkey_bar_English_2-153-1	60.017	-25	1.0.0.18	1	-1362729271	Standard	2.0.10.353	2.0.10.353	06-16-2016	6/16/2016 4:34:40 PM	12:34:40	2.0.10.248	65	Bar37-63.bmp	43	2	?	10r_4g.bmp	0r_4g.bmp	2r_2g.bmp	0r_2g.bmp		0r_4g.bmp			TrialProc	TrialList	0	cvbn	-999999	16	242757	0	v	740	243497	200	-270	-70	-8	-104	12	30	3	7	65	-10	0	-2	0	4	4	2	2	0	4
Hungry_Donkey_bar_English_2	153	1	<?xml version="1.0"?>\n<Clock xmlns:dt="urn:schemas-microsoft-com:datatypes"><Description dt:dt="string">E-Prime Primary Realtime Clock</Description><StartTime><Timestamp dt:dt="int">0</Timestamp><DateUtc dt:dt="string">2016-06-16T16:34:40Z</DateUtc></StartTime><FrequencyChanges><FrequencyChange><Frequency dt:dt="r8">3507675</Frequency><Timestamp dt:dt="r8">2034451077507</Timestamp><Current dt:dt="r8">0</Current><DateUtc dt:dt="string">2016-06-16T16:34:40Z</DateUtc></FrequencyChange></FrequencyChanges></Clock>\n	Hungry_Donkey_bar_English_2-153-1	60.017	-25	1.0.0.18	1	-1362729271	Standard	2.0.10.353	2.0.10.353	06-16-2016	6/16/2016 4:34:40 PM	12:34:40	2.0.10.248	66	Bar37-63.bmp	43	4	?	12r_4g.bmp	0r_4g.bmp	3r_2g.bmp	0r_2g.bmp				0r_2g.bmp	TrialProc	TrialList	0	cvbn	-999999	16	245523	0	n	598	246121	202	-270	-68	-8	-104	12	32	5	7	66	-12	0	-3	0	4	4	2	2	0	2
Hungry_Donkey_bar_English_2	153	1	<?xml version="1.0"?>\n<Clock xmlns:dt="urn:schemas-microsoft-com:datatypes"><Description dt:dt="string">E-Prime Primary Realtime Clock</Description><StartTime><Timestamp dt:dt="int">0</Timestamp><DateUtc dt:dt="string">2016-06-16T16:34:40Z</DateUtc></StartTime><FrequencyChanges><FrequencyChange><Frequency dt:dt="r8">3507675</Frequency><Timestamp dt:dt="r8">2034451077507</Timestamp><Current dt:dt="r8">0</Current><DateUtc dt:dt="string">2016-06-16T16:34:40Z</DateUtc></FrequencyChange></FrequencyChanges></Clock>\n	Hungry_Donkey_bar_English_2-153-1	60.017	-25	1.0.0.18	1	-1362729271	Standard	2.0.10.353	2.0.10.353	06-16-2016	6/16/2016 4:34:40 PM	12:34:40	2.0.10.248	67	Bar37-63.bmp	39	2	?	8r_4g.bmp	50r_4g.bmp	1r_2g.bmp	10r_2g.bmp		50r_4g.bmp			TrialProc	TrialList	0	cvbn	-999999	17	248156	0	v	477	248633	206	-320	-114	-8	-150	12	32	1	7	67	-8	-50	-1	-10	4	4	2	2	-50	4
Hungry_Donkey_bar_English_2	153	1	<?xml version="1.0"?>\n<Clock xmlns:dt="urn:schemas-microsoft-com:datatypes"><Description dt:dt="string">E-Prime Primary Realtime Clock</Description><StartTime><Timestamp dt:dt="int">0</Timestamp><DateUtc dt:dt="string">2016-06-16T16:34:40Z</DateUtc></StartTime><FrequencyChanges><FrequencyChange><Frequency dt:dt="r8">3507675</Frequency><Timestamp dt:dt="r8">2034451077507</Timestamp><Current dt:dt="r8">0</Current><DateUtc dt:dt="string">2016-06-16T16:34:40Z</DateUtc></FrequencyChange></FrequencyChanges></Clock>\n	Hungry_Donkey_bar_English_2-153-1	60.017	-25	1.0.0.18	1	-1362729271	Standard	2.0.10.353	2.0.10.353	06-16-2016	6/16/2016 4:34:40 PM	12:34:40	2.0.10.248	68	Bar37-63.bmp	39	3	?	0r_4g.bmp	0r_4g.bmp	0r_2g.bmp	0r_2g.bmp			0r_2g.bmp		TrialProc	TrialList	0	cvbn	-999999	16	250671	0	b	1002	251673	208	-320	-112	-8	-150	14	32	9	7	68	0	0	0	0	4	4	2	2	0	2
Hungry_Donkey_bar_English_2	153	1	<?xml version="1.0"?>\n<Clock xmlns:dt="urn:schemas-microsoft-com:datatypes"><Description dt:dt="string">E-Prime Primary Realtime Clock</Description><StartTime><Timestamp dt:dt="int">0</Timestamp><DateUtc dt:dt="string">2016-06-16T16:34:40Z</DateUtc></StartTime><FrequencyChanges><FrequencyChange><Frequency dt:dt="r8">3507675</Frequency><Timestamp dt:dt="r8">2034451077507</Timestamp><Current dt:dt="r8">0</Current><DateUtc dt:dt="string">2016-06-16T16:34:40Z</DateUtc></FrequencyChange></FrequencyChanges></Clock>\n	Hungry_Donkey_bar_English_2-153-1	60.017	-25	1.0.0.18	1	-1362729271	Standard	2.0.10.353	2.0.10.353	06-16-2016	6/16/2016 4:34:40 PM	12:34:40	2.0.10.248	69	Bar37-63.bmp	40	4	?	0r_4g.bmp	0r_4g.bmp	0r_2g.bmp	0r_2g.bmp				0r_2g.bmp	TrialProc	TrialList	0	cvbn	-999999	16	253704	0	n	848	254552	210	-320	-110	-8	-150	14	34	6	7	69	0	0	0	0	4	4	2	2	0	2
Hungry_Donkey_bar_English_2	153	1	<?xml version="1.0"?>\n<Clock xmlns:dt="urn:schemas-microsoft-com:datatypes"><Description dt:dt="string">E-Prime Primary Realtime Clock</Description><StartTime><Timestamp dt:dt="int">0</Timestamp><DateUtc dt:dt="string">2016-06-16T16:34:40Z</DateUtc></StartTime><FrequencyChanges><FrequencyChange><Frequency dt:dt="r8">3507675</Frequency><Timestamp dt:dt="r8">2034451077507</Timestamp><Current dt:dt="r8">0</Current><DateUtc dt:dt="string">2016-06-16T16:34:40Z</DateUtc></FrequencyChange></FrequencyChanges></Clock>\n	Hungry_Donkey_bar_English_2-153-1	60.017	-25	1.0.0.18	1	-1362729271	Standard	2.0.10.353	2.0.10.353	06-16-2016	6/16/2016 4:34:40 PM	12:34:40	2.0.10.248	70	Bar37-63.bmp	40	2	?	10r_4g.bmp	0r_4g.bmp	2r_2g.bmp	0r_2g.bmp		0r_4g.bmp			TrialProc	TrialList	0	cvbn	-999999	16	256586	0	v	1246	257832	214	-320	-106	-8	-146	14	34	2	7	70	-10	0	-2	0	4	4	2	2	0	4
Hungry_Donkey_bar_English_2	153	1	<?xml version="1.0"?>\n<Clock xmlns:dt="urn:schemas-microsoft-com:datatypes"><Description dt:dt="string">E-Prime Primary Realtime Clock</Description><StartTime><Timestamp dt:dt="int">0</Timestamp><DateUtc dt:dt="string">2016-06-16T16:34:40Z</DateUtc></StartTime><FrequencyChanges><FrequencyChange><Frequency dt:dt="r8">3507675</Frequency><Timestamp dt:dt="r8">2034451077507</Timestamp><Current dt:dt="r8">0</Current><DateUtc dt:dt="string">2016-06-16T16:34:40Z</DateUtc></FrequencyChange></FrequencyChanges></Clock>\n	Hungry_Donkey_bar_English_2-153-1	60.017	-25	1.0.0.18	1	-1362729271	Standard	2.0.10.353	2.0.10.353	06-16-2016	6/16/2016 4:34:40 PM	12:34:40	2.0.10.248	71	Bar37-63.bmp	40	4	?	0r_4g.bmp	0r_4g.bmp	0r_2g.bmp	0r_2g.bmp				0r_2g.bmp	TrialProc	TrialList	0	cvbn	-999999	16	259869	0	n	683	260552	216	-320	-104	-8	-146	14	36	9	8	71	0	0	0	0	4	4	2	2	0	2
Hungry_Donkey_bar_English_2	153	1	<?xml version="1.0"?>\n<Clock xmlns:dt="urn:schemas-microsoft-com:datatypes"><Description dt:dt="string">E-Prime Primary Realtime Clock</Description><StartTime><Timestamp dt:dt="int">0</Timestamp><DateUtc dt:dt="string">2016-06-16T16:34:40Z</DateUtc></StartTime><FrequencyChanges><FrequencyChange><Frequency dt:dt="r8">3507675</Frequency><Timestamp dt:dt="r8">2034451077507</Timestamp><Current dt:dt="r8">0</Current><DateUtc dt:dt="string">2016-06-16T16:34:40Z</DateUtc></FrequencyChange></FrequencyChanges></Clock>\n	Hungry_Donkey_bar_English_2-153-1	60.017	-25	1.0.0.18	1	-1362729271	Standard	2.0.10.353	2.0.10.353	06-16-2016	6/16/2016 4:34:40 PM	12:34:40	2.0.10.248	72	Bar37-63.bmp	41	3	?	0r_4g.bmp	0r_4g.bmp	0r_2g.bmp	0r_2g.bmp			0r_2g.bmp		TrialProc	TrialList	0	cvbn	-999999	16	262585	0	b	463	263048	218	-320	-102	-8	-146	16	36	7	8	72	0	0	0	0	4	4	2	2	0	2
Hungry_Donkey_bar_English_2	153	1	<?xml version="1.0"?>\n<Clock xmlns:dt="urn:schemas-microsoft-com:datatypes"><Description dt:dt="string">E-Prime Primary Realtime Clock</Description><StartTime><Timestamp dt:dt="int">0</Timestamp><DateUtc dt:dt="string">2016-06-16T16:34:40Z</DateUtc></StartTime><FrequencyChanges><FrequencyChange><Frequency dt:dt="r8">3507675</Frequency><Timestamp dt:dt="r8">2034451077507</Timestamp><Current dt:dt="r8">0</Current><DateUtc dt:dt="string">2016-06-16T16:34:40Z</DateUtc></FrequencyChange></FrequencyChanges></Clock>\n	Hungry_Donkey_bar_English_2-153-1	60.017	-25	1.0.0.18	1	-1362729271	Standard	2.0.10.353	2.0.10.353	06-16-2016	6/16/2016 4:34:40 PM	12:34:40	2.0.10.248	73	Bar37-63.bmp	40	1	?	10r_4g.bmp	0r_4g.bmp	2r_2g.bmp	0r_2g.bmp	10r_4g.bmp				TrialProc	TrialList	0	cvbn	-999999	16	265084	0	c	476	265560	222	-330	-108	-14	-146	16	36	3	8	73	-10	0	-2	0	4	4	2	2	-10	4
Hungry_Donkey_bar_English_2	153	1	<?xml version="1.0"?>\n<Clock xmlns:dt="urn:schemas-microsoft-com:datatypes"><Description dt:dt="string">E-Prime Primary Realtime Clock</Description><StartTime><Timestamp dt:dt="int">0</Timestamp><DateUtc dt:dt="string">2016-06-16T16:34:40Z</DateUtc></StartTime><FrequencyChanges><FrequencyChange><Frequency dt:dt="r8">3507675</Frequency><Timestamp dt:dt="r8">2034451077507</Timestamp><Current dt:dt="r8">0</Current><DateUtc dt:dt="string">2016-06-16T16:34:40Z</DateUtc></FrequencyChange></FrequencyChanges></Clock>\n	Hungry_Donkey_bar_English_2-153-1	60.017	-25	1.0.0.18	1	-1362729271	Standard	2.0.10.353	2.0.10.353	06-16-2016	6/16/2016 4:34:40 PM	12:34:40	2.0.10.248	74	Bar37-63.bmp	40	4	?	8r_4g.bmp	50r_4g.bmp	1r_2g.bmp	10r_2g.bmp				10r_2g.bmp	TrialProc	TrialList	0	cvbn	-999999	16	267600	0	n	216	267816	224	-340	-116	-14	-146	16	28	1	8	74	-8	-50	-1	-10	4	4	2	2	-10	2
Hungry_Donkey_bar_English_2	153	1	<?xml version="1.0"?>\n<Clock xmlns:dt="urn:schemas-microsoft-com:datatypes"><Description dt:dt="string">E-Prime Primary Realtime Clock</Description><StartTime><Timestamp dt:dt="int">0</Timestamp><DateUtc dt:dt="string">2016-06-16T16:34:40Z</DateUtc></StartTime><FrequencyChanges><FrequencyChange><Frequency dt:dt="r8">3507675</Frequency><Timestamp dt:dt="r8">2034451077507</Timestamp><Current dt:dt="r8">0</Current><DateUtc dt:dt="string">2016-06-16T16:34:40Z</DateUtc></FrequencyChange></FrequencyChanges></Clock>\n	Hungry_Donkey_bar_English_2-153-1	60.017	-25	1.0.0.18	1	-1362729271	Standard	2.0.10.353	2.0.10.353	06-16-2016	6/16/2016 4:34:40 PM	12:34:40	2.0.10.248	75	Bar37-63.bmp	40	2	?	0r_4g.bmp	0r_4g.bmp	0r_2g.bmp	0r_2g.bmp		0r_4g.bmp			TrialProc	TrialList	0	cvbn	-999999	16	269849	0	v	1327	271176	228	-340	-112	-14	-142	16	28	10	8	75	0	0	0	0	4	4	2	2	0	4
Hungry_Donkey_bar_English_2	153	1	<?xml version="1.0"?>\n<Clock xmlns:dt="urn:schemas-microsoft-com:datatypes"><Description dt:dt="string">E-Prime Primary Realtime Clock</Description><StartTime><Timestamp dt:dt="int">0</Timestamp><DateUtc dt:dt="string">2016-06-16T16:34:40Z</DateUtc></StartTime><FrequencyChanges><FrequencyChange><Frequency dt:dt="r8">3507675</Frequency><Timestamp dt:dt="r8">2034451077507</Timestamp><Current dt:dt="r8">0</Current><DateUtc dt:dt="string">2016-06-16T16:34:40Z</DateUtc></FrequencyChange></FrequencyChanges></Clock>\n	Hungry_Donkey_bar_English_2-153-1	60.017	-25	1.0.0.18	1	-1362729271	Standard	2.0.10.353	2.0.10.353	06-16-2016	6/16/2016 4:34:40 PM	12:34:40	2.0.10.248	76	Bar37-63.bmp	40	3	?	10r_4g.bmp	0r_4g.bmp	2r_2g.bmp	0r_2g.bmp			2r_2g.bmp		TrialProc	TrialList	0	cvbn	-999999	16	273215	0	b	440	273655	230	-342	-112	-14	-142	16	28	2	8	76	-10	0	-2	0	4	4	2	2	-2	2
Hungry_Donkey_bar_English_2	153	1	<?xml version="1.0"?>\n<Clock xmlns:dt="urn:schemas-microsoft-com:datatypes"><Description dt:dt="string">E-Prime Primary Realtime Clock</Description><StartTime><Timestamp dt:dt="int">0</Timestamp><DateUtc dt:dt="string">2016-06-16T16:34:40Z</DateUtc></StartTime><FrequencyChanges><FrequencyChange><Frequency dt:dt="r8">3507675</Frequency><Timestamp dt:dt="r8">2034451077507</Timestamp><Current dt:dt="r8">0</Current><DateUtc dt:dt="string">2016-06-16T16:34:40Z</DateUtc></FrequencyChange></FrequencyChanges></Clock>\n	Hungry_Donkey_bar_English_2-153-1	60.017	-25	1.0.0.18	1	-1362729271	Standard	2.0.10.353	2.0.10.353	06-16-2016	6/16/2016 4:34:40 PM	12:34:40	2.0.10.248	77	Bar37-63.bmp	41	2	?	0r_4g.bmp	0r_4g.bmp	0r_2g.bmp	0r_2g.bmp		0r_4g.bmp			TrialProc	TrialList	0	cvbn	-999999	16	275681	0	v	726	276407	234	-342	-108	-14	-138	16	28	6	8	77	0	0	0	0	4	4	2	2	0	4
Hungry_Donkey_bar_English_2	153	1	<?xml version="1.0"?>\n<Clock xmlns:dt="urn:schemas-microsoft-com:datatypes"><Description dt:dt="string">E-Prime Primary Realtime Clock</Description><StartTime><Timestamp dt:dt="int">0</Timestamp><DateUtc dt:dt="string">2016-06-16T16:34:40Z</DateUtc></StartTime><FrequencyChanges><FrequencyChange><Frequency dt:dt="r8">3507675</Frequency><Timestamp dt:dt="r8">2034451077507</Timestamp><Current dt:dt="r8">0</Current><DateUtc dt:dt="string">2016-06-16T16:34:40Z</DateUtc></FrequencyChange></FrequencyChanges></Clock>\n	Hungry_Donkey_bar_English_2-153-1	60.017	-25	1.0.0.18	1	-1362729271	Standard	2.0.10.353	2.0.10.353	06-16-2016	6/16/2016 4:34:40 PM	12:34:40	2.0.10.248	78	Bar37-63.bmp	41	3	?	10r_4g.bmp	0r_4g.bmp	2r_2g.bmp	0r_2g.bmp			2r_2g.bmp		TrialProc	TrialList	0	cvbn	-999999	16	278430	0	b	457	278887	236	-344	-108	-14	-138	16	28	4	8	78	-10	0	-2	0	4	4	2	2	-2	2
Hungry_Donkey_bar_English_2	153	1	<?xml version="1.0"?>\n<Clock xmlns:dt="urn:schemas-microsoft-com:datatypes"><Description dt:dt="string">E-Prime Primary Realtime Clock</Description><StartTime><Timestamp dt:dt="int">0</Timestamp><DateUtc dt:dt="string">2016-06-16T16:34:40Z</DateUtc></StartTime><FrequencyChanges><FrequencyChange><Frequency dt:dt="r8">3507675</Frequency><Timestamp dt:dt="r8">2034451077507</Timestamp><Current dt:dt="r8">0</Current><DateUtc dt:dt="string">2016-06-16T16:34:40Z</DateUtc></FrequencyChange></FrequencyChanges></Clock>\n	Hungry_Donkey_bar_English_2-153-1	60.017	-25	1.0.0.18	1	-1362729271	Standard	2.0.10.353	2.0.10.353	06-16-2016	6/16/2016 4:34:40 PM	12:34:40	2.0.10.248	79	Bar37-63.bmp	41	2	?	0r_4g.bmp	0r_4g.bmp	0r_2g.bmp	0r_2g.bmp		0r_4g.bmp			TrialProc	TrialList	0	cvbn	-999999	16	280913	0	v	582	281495	240	-344	-104	-14	-134	16	28	8	8	79	0	0	0	0	4	4	2	2	0	4
Hungry_Donkey_bar_English_2	153	1	<?xml version="1.0"?>\n<Clock xmlns:dt="urn:schemas-microsoft-com:datatypes"><Description dt:dt="string">E-Prime Primary Realtime Clock</Description><StartTime><Timestamp dt:dt="int">0</Timestamp><DateUtc dt:dt="string">2016-06-16T16:34:40Z</DateUtc></StartTime><FrequencyChanges><FrequencyChange><Frequency dt:dt="r8">3507675</Frequency><Timestamp dt:dt="r8">2034451077507</Timestamp><Current dt:dt="r8">0</Current><DateUtc dt:dt="string">2016-06-16T16:34:40Z</DateUtc></FrequencyChange></FrequencyChanges></Clock>\n	Hungry_Donkey_bar_English_2-153-1	60.017	-25	1.0.0.18	1	-1362729271	Standard	2.0.10.353	2.0.10.353	06-16-2016	6/16/2016 4:34:40 PM	12:34:40	2.0.10.248	80	Bar37-63.bmp	41	2	?	12r_4g.bmp	0r_4g.bmp	3r_2g.bmp	0r_2g.bmp		0r_4g.bmp			TrialProc	TrialList	0	cvbn	-999999	16	283529	0	v	382	283911	244	-344	-100	-14	-130	16	28	5	8	80	-12	0	-3	0	4	4	2	2	0	4
Hungry_Donkey_bar_English_2	153	1	<?xml version="1.0"?>\n<Clock xmlns:dt="urn:schemas-microsoft-com:datatypes"><Description dt:dt="string">E-Prime Primary Realtime Clock</Description><StartTime><Timestamp dt:dt="int">0</Timestamp><DateUtc dt:dt="string">2016-06-16T16:34:40Z</DateUtc></StartTime><FrequencyChanges><FrequencyChange><Frequency dt:dt="r8">3507675</Frequency><Timestamp dt:dt="r8">2034451077507</Timestamp><Current dt:dt="r8">0</Current><DateUtc dt:dt="string">2016-06-16T16:34:40Z</DateUtc></FrequencyChange></FrequencyChanges></Clock>\n	Hungry_Donkey_bar_English_2-153-1	60.017	-25	1.0.0.18	1	-1362729271	Standard	2.0.10.353	2.0.10.353	06-16-2016	6/16/2016 4:34:40 PM	12:34:40	2.0.10.248	81	Bar37-63.bmp	42	2	?	10r_4g.bmp	0r_4g.bmp	2r_2g.bmp	0r_2g.bmp		0r_4g.bmp			TrialProc	TrialList	0	cvbn	-999999	16	285945	0	v	366	286311	248	-344	-96	-14	-126	16	28	2	9	81	-10	0	-2	0	4	4	2	2	0	4
Hungry_Donkey_bar_English_2	153	1	<?xml version="1.0"?>\n<Clock xmlns:dt="urn:schemas-microsoft-com:datatypes"><Description dt:dt="string">E-Prime Primary Realtime Clock</Description><StartTime><Timestamp dt:dt="int">0</Timestamp><DateUtc dt:dt="string">2016-06-16T16:34:40Z</DateUtc></StartTime><FrequencyChanges><FrequencyChange><Frequency dt:dt="r8">3507675</Frequency><Timestamp dt:dt="r8">2034451077507</Timestamp><Current dt:dt="r8">0</Current><DateUtc dt:dt="string">2016-06-16T16:34:40Z</DateUtc></FrequencyChange></FrequencyChanges></Clock>\n	Hungry_Donkey_bar_English_2-153-1	60.017	-25	1.0.0.18	1	-1362729271	Standard	2.0.10.353	2.0.10.353	06-16-2016	6/16/2016 4:34:40 PM	12:34:40	2.0.10.248	82	Bar37-63.bmp	42	3	?	0r_4g.bmp	0r_4g.bmp	0r_2g.bmp	0r_2g.bmp			0r_2g.bmp		TrialProc	TrialList	0	cvbn	-999999	16	288344	0	b	655	288999	250	-344	-94	-14	-126	18	28	8	9	82	0	0	0	0	4	4	2	2	0	2
Hungry_Donkey_bar_English_2	153	1	<?xml version="1.0"?>\n<Clock xmlns:dt="urn:schemas-microsoft-com:datatypes"><Description dt:dt="string">E-Prime Primary Realtime Clock</Description><StartTime><Timestamp dt:dt="int">0</Timestamp><DateUtc dt:dt="string">2016-06-16T16:34:40Z</DateUtc></StartTime><FrequencyChanges><FrequencyChange><Frequency dt:dt="r8">3507675</Frequency><Timestamp dt:dt="r8">2034451077507</Timestamp><Current dt:dt="r8">0</Current><DateUtc dt:dt="string">2016-06-16T16:34:40Z</DateUtc></FrequencyChange></FrequencyChanges></Clock>\n	Hungry_Donkey_bar_English_2-153-1	60.017	-25	1.0.0.18	1	-1362729271	Standard	2.0.10.353	2.0.10.353	06-16-2016	6/16/2016 4:34:40 PM	12:34:40	2.0.10.248	83	Bar37-63.bmp	42	2	?	0r_4g.bmp	0r_4g.bmp	0r_2g.bmp	0r_2g.bmp		0r_4g.bmp			TrialProc	TrialList	0	cvbn	-999999	16	291027	0	v	452	291479	254	-344	-90	-14	-122	18	28	10	9	83	0	0	0	0	4	4	2	2	0	4
Hungry_Donkey_bar_English_2	153	1	<?xml version="1.0"?>\n<Clock xmlns:dt="urn:schemas-microsoft-com:datatypes"><Description dt:dt="string">E-Prime Primary Realtime Clock</Description><StartTime><Timestamp dt:dt="int">0</Timestamp><DateUtc dt:dt="string">2016-06-16T16:34:40Z</DateUtc></StartTime><FrequencyChanges><FrequencyChange><Frequency dt:dt="r8">3507675</Frequency><Timestamp dt:dt="r8">2034451077507</Timestamp><Current dt:dt="r8">0</Current><DateUtc dt:dt="string">2016-06-16T16:34:40Z</DateUtc></FrequencyChange></FrequencyChanges></Clock>\n	Hungry_Donkey_bar_English_2-153-1	60.017	-25	1.0.0.18	1	-1362729271	Standard	2.0.10.353	2.0.10.353	06-16-2016	6/16/2016 4:34:40 PM	12:34:40	2.0.10.248	84	Bar37-63.bmp	43	2	?	0r_4g.bmp	0r_4g.bmp	0r_2g.bmp	0r_2g.bmp		0r_4g.bmp			TrialProc	TrialList	0	cvbn	-999999	16	293509	0	v	322	293831	258	-344	-86	-14	-118	18	28	6	9	84	0	0	0	0	4	4	2	2	0	4
Hungry_Donkey_bar_English_2	153	1	<?xml version="1.0"?>\n<Clock xmlns:dt="urn:schemas-microsoft-com:datatypes"><Description dt:dt="string">E-Prime Primary Realtime Clock</Description><StartTime><Timestamp dt:dt="int">0</Timestamp><DateUtc dt:dt="string">2016-06-16T16:34:40Z</DateUtc></StartTime><FrequencyChanges><FrequencyChange><Frequency dt:dt="r8">3507675</Frequency><Timestamp dt:dt="r8">2034451077507</Timestamp><Current dt:dt="r8">0</Current><DateUtc dt:dt="string">2016-06-16T16:34:40Z</DateUtc></FrequencyChange></FrequencyChanges></Clock>\n	Hungry_Donkey_bar_English_2-153-1	60.017	-25	1.0.0.18	1	-1362729271	Standard	2.0.10.353	2.0.10.353	06-16-2016	6/16/2016 4:34:40 PM	12:34:40	2.0.10.248	85	Bar37-63.bmp	43	3	?	8r_4g.bmp	50r_4g.bmp	1r_2g.bmp	10r_2g.bmp			1r_2g.bmp		TrialProc	TrialList	0	cvbn	-999999	17	295859	0	b	323	296182	260	-345	-85	-14	-118	19	28	1	9	85	-8	-50	-1	-10	4	4	2	2	-1	2
Hungry_Donkey_bar_English_2	153	1	<?xml version="1.0"?>\n<Clock xmlns:dt="urn:schemas-microsoft-com:datatypes"><Description dt:dt="string">E-Prime Primary Realtime Clock</Description><StartTime><Timestamp dt:dt="int">0</Timestamp><DateUtc dt:dt="string">2016-06-16T16:34:40Z</DateUtc></StartTime><FrequencyChanges><FrequencyChange><Frequency dt:dt="r8">3507675</Frequency><Timestamp dt:dt="r8">2034451077507</Timestamp><Current dt:dt="r8">0</Current><DateUtc dt:dt="string">2016-06-16T16:34:40Z</DateUtc></FrequencyChange></FrequencyChanges></Clock>\n	Hungry_Donkey_bar_English_2-153-1	60.017	-25	1.0.0.18	1	-1362729271	Standard	2.0.10.353	2.0.10.353	06-16-2016	6/16/2016 4:34:40 PM	12:34:40	2.0.10.248	86	Bar37-63.bmp	43	2	?	10r_4g.bmp	0r_4g.bmp	2r_2g.bmp	0r_2g.bmp		0r_4g.bmp			TrialProc	TrialList	0	cvbn	-999999	16	298208	0	v	118	298326	264	-345	-81	-14	-114	19	28	3	9	86	-10	0	-2	0	4	4	2	2	0	4
Hungry_Donkey_bar_English_2	153	1	<?xml version="1.0"?>\n<Clock xmlns:dt="urn:schemas-microsoft-com:datatypes"><Description dt:dt="string">E-Prime Primary Realtime Clock</Description><StartTime><Timestamp dt:dt="int">0</Timestamp><DateUtc dt:dt="string">2016-06-16T16:34:40Z</DateUtc></StartTime><FrequencyChanges><FrequencyChange><Frequency dt:dt="r8">3507675</Frequency><Timestamp dt:dt="r8">2034451077507</Timestamp><Current dt:dt="r8">0</Current><DateUtc dt:dt="string">2016-06-16T16:34:40Z</DateUtc></FrequencyChange></FrequencyChanges></Clock>\n	Hungry_Donkey_bar_English_2-153-1	60.017	-25	1.0.0.18	1	-1362729271	Standard	2.0.10.353	2.0.10.353	06-16-2016	6/16/2016 4:34:40 PM	12:34:40	2.0.10.248	87	Bar37-63.bmp	43	3	?	10r_4g.bmp	0r_4g.bmp	2r_2g.bmp	0r_2g.bmp			2r_2g.bmp		TrialProc	TrialList	0	cvbn	-999999	16	300357	0	b	497	300854	266	-347	-81	-14	-114	19	28	4	9	87	-10	0	-2	0	4	4	2	2	-2	2
Hungry_Donkey_bar_English_2	153	1	<?xml version="1.0"?>\n<Clock xmlns:dt="urn:schemas-microsoft-com:datatypes"><Description dt:dt="string">E-Prime Primary Realtime Clock</Description><StartTime><Timestamp dt:dt="int">0</Timestamp><DateUtc dt:dt="string">2016-06-16T16:34:40Z</DateUtc></StartTime><FrequencyChanges><FrequencyChange><Frequency dt:dt="r8">3507675</Frequency><Timestamp dt:dt="r8">2034451077507</Timestamp><Current dt:dt="r8">0</Current><DateUtc dt:dt="string">2016-06-16T16:34:40Z</DateUtc></FrequencyChange></FrequencyChanges></Clock>\n	Hungry_Donkey_bar_English_2-153-1	60.017	-25	1.0.0.18	1	-1362729271	Standard	2.0.10.353	2.0.10.353	06-16-2016	6/16/2016 4:34:40 PM	12:34:40	2.0.10.248	88	Bar50-50.bmp	44	3	?	0r_4g.bmp	0r_4g.bmp	0r_2g.bmp	0r_2g.bmp			0r_2g.bmp		TrialProc	TrialList	0	cvbn	-999999	16	302890	0	b	572	303462	268	-347	-79	-14	-114	21	28	9	9	88	0	0	0	0	4	4	2	2	0	2
Hungry_Donkey_bar_English_2	153	1	<?xml version="1.0"?>\n<Clock xmlns:dt="urn:schemas-microsoft-com:datatypes"><Description dt:dt="string">E-Prime Primary Realtime Clock</Description><StartTime><Timestamp dt:dt="int">0</Timestamp><DateUtc dt:dt="string">2016-06-16T16:34:40Z</DateUtc></StartTime><FrequencyChanges><FrequencyChange><Frequency dt:dt="r8">3507675</Frequency><Timestamp dt:dt="r8">2034451077507</Timestamp><Current dt:dt="r8">0</Current><DateUtc dt:dt="string">2016-06-16T16:34:40Z</DateUtc></FrequencyChange></FrequencyChanges></Clock>\n	Hungry_Donkey_bar_English_2-153-1	60.017	-25	1.0.0.18	1	-1362729271	Standard	2.0.10.353	2.0.10.353	06-16-2016	6/16/2016 4:34:40 PM	12:34:40	2.0.10.248	89	Bar50-50.bmp	44	2	?	12r_4g.bmp	0r_4g.bmp	3r_2g.bmp	0r_2g.bmp		0r_4g.bmp			TrialProc	TrialList	0	cvbn	-999999	16	305489	0	v	549	306038	272	-347	-75	-14	-110	21	28	5	9	89	-12	0	-3	0	4	4	2	2	0	4
Hungry_Donkey_bar_English_2	153	1	<?xml version="1.0"?>\n<Clock xmlns:dt="urn:schemas-microsoft-com:datatypes"><Description dt:dt="string">E-Prime Primary Realtime Clock</Description><StartTime><Timestamp dt:dt="int">0</Timestamp><DateUtc dt:dt="string">2016-06-16T16:34:40Z</DateUtc></StartTime><FrequencyChanges><FrequencyChange><Frequency dt:dt="r8">3507675</Frequency><Timestamp dt:dt="r8">2034451077507</Timestamp><Current dt:dt="r8">0</Current><DateUtc dt:dt="string">2016-06-16T16:34:40Z</DateUtc></FrequencyChange></FrequencyChanges></Clock>\n	Hungry_Donkey_bar_English_2-153-1	60.017	-25	1.0.0.18	1	-1362729271	Standard	2.0.10.353	2.0.10.353	06-16-2016	6/16/2016 4:34:40 PM	12:34:40	2.0.10.248	90	Bar50-50.bmp	44	4	?	0r_4g.bmp	0r_4g.bmp	0r_2g.bmp	0r_2g.bmp				0r_2g.bmp	TrialProc	TrialList	0	cvbn	-999999	16	308072	0	n	366	308438	274	-347	-73	-14	-110	21	30	7	9	90	0	0	0	0	4	4	2	2	0	2
Hungry_Donkey_bar_English_2	153	1	<?xml version="1.0"?>\n<Clock xmlns:dt="urn:schemas-microsoft-com:datatypes"><Description dt:dt="string">E-Prime Primary Realtime Clock</Description><StartTime><Timestamp dt:dt="int">0</Timestamp><DateUtc dt:dt="string">2016-06-16T16:34:40Z</DateUtc></StartTime><FrequencyChanges><FrequencyChange><Frequency dt:dt="r8">3507675</Frequency><Timestamp dt:dt="r8">2034451077507</Timestamp><Current dt:dt="r8">0</Current><DateUtc dt:dt="string">2016-06-16T16:34:40Z</DateUtc></FrequencyChange></FrequencyChanges></Clock>\n	Hungry_Donkey_bar_English_2-153-1	60.017	-25	1.0.0.18	1	-1362729271	Standard	2.0.10.353	2.0.10.353	06-16-2016	6/16/2016 4:34:40 PM	12:34:40	2.0.10.248	91	Bar50-50.bmp	44	2	?	0r_4g.bmp	0r_4g.bmp	0r_2g.bmp	0r_2g.bmp		0r_4g.bmp			TrialProc	TrialList	0	cvbn	-999999	16	310471	0	v	431	310902	278	-347	-69	-14	-106	21	30	10	10	91	0	0	0	0	4	4	2	2	0	4
Hungry_Donkey_bar_English_2	153	1	<?xml version="1.0"?>\n<Clock xmlns:dt="urn:schemas-microsoft-com:datatypes"><Description dt:dt="string">E-Prime Primary Realtime Clock</Description><StartTime><Timestamp dt:dt="int">0</Timestamp><DateUtc dt:dt="string">2016-06-16T16:34:40Z</DateUtc></StartTime><FrequencyChanges><FrequencyChange><Frequency dt:dt="r8">3507675</Frequency><Timestamp dt:dt="r8">2034451077507</Timestamp><Current dt:dt="r8">0</Current><DateUtc dt:dt="string">2016-06-16T16:34:40Z</DateUtc></FrequencyChange></FrequencyChanges></Clock>\n	Hungry_Donkey_bar_English_2-153-1	60.017	-25	1.0.0.18	1	-1362729271	Standard	2.0.10.353	2.0.10.353	06-16-2016	6/16/2016 4:34:40 PM	12:34:40	2.0.10.248	92	Bar50-50.bmp	45	3	?	0r_4g.bmp	0r_4g.bmp	0r_2g.bmp	0r_2g.bmp			0r_2g.bmp		TrialProc	TrialList	0	cvbn	-999999	16	312937	0	b	685	313622	280	-347	-67	-14	-106	23	30	6	10	92	0	0	0	0	4	4	2	2	0	2
Hungry_Donkey_bar_English_2	153	1	<?xml version="1.0"?>\n<Clock xmlns:dt="urn:schemas-microsoft-com:datatypes"><Description dt:dt="string">E-Prime Primary Realtime Clock</Description><StartTime><Timestamp dt:dt="int">0</Timestamp><DateUtc dt:dt="string">2016-06-16T16:34:40Z</DateUtc></StartTime><FrequencyChanges><FrequencyChange><Frequency dt:dt="r8">3507675</Frequency><Timestamp dt:dt="r8">2034451077507</Timestamp><Current dt:dt="r8">0</Current><DateUtc dt:dt="string">2016-06-16T16:34:40Z</DateUtc></FrequencyChange></FrequencyChanges></Clock>\n	Hungry_Donkey_bar_English_2-153-1	60.017	-25	1.0.0.18	1	-1362729271	Standard	2.0.10.353	2.0.10.353	06-16-2016	6/16/2016 4:34:40 PM	12:34:40	2.0.10.248	93	Bar50-50.bmp	45	2	?	10r_4g.bmp	0r_4g.bmp	2r_2g.bmp	0r_2g.bmp		0r_4g.bmp			TrialProc	TrialList	0	cvbn	-999999	16	315653	0	v	1184	316837	284	-347	-63	-14	-102	23	30	4	10	93	-10	0	-2	0	4	4	2	2	0	4
Hungry_Donkey_bar_English_2	153	1	<?xml version="1.0"?>\n<Clock xmlns:dt="urn:schemas-microsoft-com:datatypes"><Description dt:dt="string">E-Prime Primary Realtime Clock</Description><StartTime><Timestamp dt:dt="int">0</Timestamp><DateUtc dt:dt="string">2016-06-16T16:34:40Z</DateUtc></StartTime><FrequencyChanges><FrequencyChange><Frequency dt:dt="r8">3507675</Frequency><Timestamp dt:dt="r8">2034451077507</Timestamp><Current dt:dt="r8">0</Current><DateUtc dt:dt="string">2016-06-16T16:34:40Z</DateUtc></FrequencyChange></FrequencyChanges></Clock>\n	Hungry_Donkey_bar_English_2-153-1	60.017	-25	1.0.0.18	1	-1362729271	Standard	2.0.10.353	2.0.10.353	06-16-2016	6/16/2016 4:34:40 PM	12:34:40	2.0.10.248	94	Bar37-63.bmp	42	2	?	8r_4g.bmp	50r_4g.bmp	1r_2g.bmp	10r_2g.bmp		50r_4g.bmp			TrialProc	TrialList	0	cvbn	-999999	16	318869	0	v	336	319205	288	-397	-109	-14	-148	23	30	1	10	94	-8	-50	-1	-10	4	4	2	2	-50	4
Hungry_Donkey_bar_English_2	153	1	<?xml version="1.0"?>\n<Clock xmlns:dt="urn:schemas-microsoft-com:datatypes"><Description dt:dt="string">E-Prime Primary Realtime Clock</Description><StartTime><Timestamp dt:dt="int">0</Timestamp><DateUtc dt:dt="string">2016-06-16T16:34:40Z</DateUtc></StartTime><FrequencyChanges><FrequencyChange><Frequency dt:dt="r8">3507675</Frequency><Timestamp dt:dt="r8">2034451077507</Timestamp><Current dt:dt="r8">0</Current><DateUtc dt:dt="string">2016-06-16T16:34:40Z</DateUtc></FrequencyChange></FrequencyChanges></Clock>\n	Hungry_Donkey_bar_English_2-153-1	60.017	-25	1.0.0.18	1	-1362729271	Standard	2.0.10.353	2.0.10.353	06-16-2016	6/16/2016 4:34:40 PM	12:34:40	2.0.10.248	95	Bar37-63.bmp	42	3	?	12r_4g.bmp	0r_4g.bmp	3r_2g.bmp	0r_2g.bmp			3r_2g.bmp		TrialProc	TrialList	0	cvbn	-999999	16	321235	0	b	210	321445	290	-400	-110	-14	-148	22	30	5	10	95	-12	0	-3	0	4	4	2	2	-3	2
Hungry_Donkey_bar_English_2	153	1	<?xml version="1.0"?>\n<Clock xmlns:dt="urn:schemas-microsoft-com:datatypes"><Description dt:dt="string">E-Prime Primary Realtime Clock</Description><StartTime><Timestamp dt:dt="int">0</Timestamp><DateUtc dt:dt="string">2016-06-16T16:34:40Z</DateUtc></StartTime><FrequencyChanges><FrequencyChange><Frequency dt:dt="r8">3507675</Frequency><Timestamp dt:dt="r8">2034451077507</Timestamp><Current dt:dt="r8">0</Current><DateUtc dt:dt="string">2016-06-16T16:34:40Z</DateUtc></FrequencyChange></FrequencyChanges></Clock>\n	Hungry_Donkey_bar_English_2-153-1	60.017	-25	1.0.0.18	1	-1362729271	Standard	2.0.10.353	2.0.10.353	06-16-2016	6/16/2016 4:34:40 PM	12:34:40	2.0.10.248	96	Bar37-63.bmp	42	4	?	0r_4g.bmp	0r_4g.bmp	0r_2g.bmp	0r_2g.bmp				0r_2g.bmp	TrialProc	TrialList	0	cvbn	-999999	16	323484	0	n	457	323941	292	-400	-108	-14	-148	22	32	7	10	96	0	0	0	0	4	4	2	2	0	2
Hungry_Donkey_bar_English_2	153	1	<?xml version="1.0"?>\n<Clock xmlns:dt="urn:schemas-microsoft-com:datatypes"><Description dt:dt="string">E-Prime Primary Realtime Clock</Description><StartTime><Timestamp dt:dt="int">0</Timestamp><DateUtc dt:dt="string">2016-06-16T16:34:40Z</DateUtc></StartTime><FrequencyChanges><FrequencyChange><Frequency dt:dt="r8">3507675</Frequency><Timestamp dt:dt="r8">2034451077507</Timestamp><Current dt:dt="r8">0</Current><DateUtc dt:dt="string">2016-06-16T16:34:40Z</DateUtc></FrequencyChange></FrequencyChanges></Clock>\n	Hungry_Donkey_bar_English_2-153-1	60.017	-25	1.0.0.18	1	-1362729271	Standard	2.0.10.353	2.0.10.353	06-16-2016	6/16/2016 4:34:40 PM	12:34:40	2.0.10.248	97	Bar37-63.bmp	43	1	?	0r_4g.bmp	0r_4g.bmp	0r_2g.bmp	0r_2g.bmp	0r_4g.bmp				TrialProc	TrialList	0	cvbn	-999999	16	325967	0	c	22	325989	296	-400	-104	-10	-148	22	32	9	10	97	0	0	0	0	4	4	2	2	0	4
Hungry_Donkey_bar_English_2	153	1	<?xml version="1.0"?>\n<Clock xmlns:dt="urn:schemas-microsoft-com:datatypes"><Description dt:dt="string">E-Prime Primary Realtime Clock</Description><StartTime><Timestamp dt:dt="int">0</Timestamp><DateUtc dt:dt="string">2016-06-16T16:34:40Z</DateUtc></StartTime><FrequencyChanges><FrequencyChange><Frequency dt:dt="r8">3507675</Frequency><Timestamp dt:dt="r8">2034451077507</Timestamp><Current dt:dt="r8">0</Current><DateUtc dt:dt="string">2016-06-16T16:34:40Z</DateUtc></FrequencyChange></FrequencyChanges></Clock>\n	Hungry_Donkey_bar_English_2-153-1	60.017	-25	1.0.0.18	1	-1362729271	Standard	2.0.10.353	2.0.10.353	06-16-2016	6/16/2016 4:34:40 PM	12:34:40	2.0.10.248	98	Bar37-63.bmp	43	4	?	0r_4g.bmp	0r_4g.bmp	0r_2g.bmp	0r_2g.bmp				0r_2g.bmp	TrialProc	TrialList	0	cvbn	-999999	16	328016	0	n	1461	329477	298	-400	-102	-10	-148	22	34	8	10	98	0	0	0	0	4	4	2	2	0	2
Hungry_Donkey_bar_English_2	153	1	<?xml version="1.0"?>\n<Clock xmlns:dt="urn:schemas-microsoft-com:datatypes"><Description dt:dt="string">E-Prime Primary Realtime Clock</Description><StartTime><Timestamp dt:dt="int">0</Timestamp><DateUtc dt:dt="string">2016-06-16T16:34:40Z</DateUtc></StartTime><FrequencyChanges><FrequencyChange><Frequency dt:dt="r8">3507675</Frequency><Timestamp dt:dt="r8">2034451077507</Timestamp><Current dt:dt="r8">0</Current><DateUtc dt:dt="string">2016-06-16T16:34:40Z</DateUtc></FrequencyChange></FrequencyChanges></Clock>\n	Hungry_Donkey_bar_English_2-153-1	60.017	-25	1.0.0.18	1	-1362729271	Standard	2.0.10.353	2.0.10.353	06-16-2016	6/16/2016 4:34:40 PM	12:34:40	2.0.10.248	99	Bar37-63.bmp	42	1	?	10r_4g.bmp	0r_4g.bmp	2r_2g.bmp	0r_2g.bmp	10r_4g.bmp				TrialProc	TrialList	0	cvbn	-999999	16	331515	0	c	506	332021	302	-410	-108	-16	-148	22	34	3	10	99	-10	0	-2	0	4	4	2	2	-10	4
Hungry_Donkey_bar_English_2	153	1	<?xml version="1.0"?>\n<Clock xmlns:dt="urn:schemas-microsoft-com:datatypes"><Description dt:dt="string">E-Prime Primary Realtime Clock</Description><StartTime><Timestamp dt:dt="int">0</Timestamp><DateUtc dt:dt="string">2016-06-16T16:34:40Z</DateUtc></StartTime><FrequencyChanges><FrequencyChange><Frequency dt:dt="r8">3507675</Frequency><Timestamp dt:dt="r8">2034451077507</Timestamp><Current dt:dt="r8">0</Current><DateUtc dt:dt="string">2016-06-16T16:34:40Z</DateUtc></FrequencyChange></FrequencyChanges></Clock>\n	Hungry_Donkey_bar_English_2-153-1	60.017	-25	1.0.0.18	1	-1362729271	Standard	2.0.10.353	2.0.10.353	06-16-2016	6/16/2016 4:34:40 PM	12:34:40	2.0.10.248	100	Bar37-63.bmp	42	3	?	10r_4g.bmp	0r_4g.bmp	2r_2g.bmp	0r_2g.bmp			2r_2g.bmp		TrialProc	TrialList	0	cvbn	-999999	16	334048	0	b	533	334581	304	-412	-108	-16	-148	22	34	2	10	100	-10	0	-2	0	4	4	2	2	-2	2
Hungry_Donkey_bar_English_2	153	1	<?xml version="1.0"?>\n<Clock xmlns:dt="urn:schemas-microsoft-com:datatypes"><Description dt:dt="string">E-Prime Primary Realtime Clock</Description><StartTime><Timestamp dt:dt="int">0</Timestamp><DateUtc dt:dt="string">2016-06-16T16:34:40Z</DateUtc></StartTime><FrequencyChanges><FrequencyChange><Frequency dt:dt="r8">3507675</Frequency><Timestamp dt:dt="r8">2034451077507</Timestamp><Current dt:dt="r8">0</Current><DateUtc dt:dt="string">2016-06-16T16:34:40Z</DateUtc></FrequencyChange></FrequencyChanges></Clock>\n	Hungry_Donkey_bar_English_2-153-1	60.017	-25	1.0.0.18	1	-1362729271	Standard	2.0.10.353	2.0.10.353	06-16-2016	6/16/2016 4:34:40 PM	12:34:40	2.0.10.248	101	Bar37-63.bmp	43	1	?	0r_4g.bmp	0r_4g.bmp	0r_2g.bmp	0r_2g.bmp	0r_4g.bmp				TrialProc	TrialList	0	cvbn	-999999	17	336614	0	c	654	337268	308	-412	-104	-12	-148	22	34	6	11	101	0	0	0	0	4	4	2	2	0	4
Hungry_Donkey_bar_English_2	153	1	<?xml version="1.0"?>\n<Clock xmlns:dt="urn:schemas-microsoft-com:datatypes"><Description dt:dt="string">E-Prime Primary Realtime Clock</Description><StartTime><Timestamp dt:dt="int">0</Timestamp><DateUtc dt:dt="string">2016-06-16T16:34:40Z</DateUtc></StartTime><FrequencyChanges><FrequencyChange><Frequency dt:dt="r8">3507675</Frequency><Timestamp dt:dt="r8">2034451077507</Timestamp><Current dt:dt="r8">0</Current><DateUtc dt:dt="string">2016-06-16T16:34:40Z</DateUtc></FrequencyChange></FrequencyChanges></Clock>\n	Hungry_Donkey_bar_English_2-153-1	60.017	-25	1.0.0.18	1	-1362729271	Standard	2.0.10.353	2.0.10.353	06-16-2016	6/16/2016 4:34:40 PM	12:34:40	2.0.10.248	102	Bar37-63.bmp	43	2	?	0r_4g.bmp	0r_4g.bmp	0r_2g.bmp	0r_2g.bmp		0r_4g.bmp			TrialProc	TrialList	0	cvbn	-999999	16	339296	0	v	804	340100	312	-412	-100	-12	-144	22	34	10	11	102	0	0	0	0	4	4	2	2	0	4
Hungry_Donkey_bar_English_2	153	1	<?xml version="1.0"?>\n<Clock xmlns:dt="urn:schemas-microsoft-com:datatypes"><Description dt:dt="string">E-Prime Primary Realtime Clock</Description><StartTime><Timestamp dt:dt="int">0</Timestamp><DateUtc dt:dt="string">2016-06-16T16:34:40Z</DateUtc></StartTime><FrequencyChanges><FrequencyChange><Frequency dt:dt="r8">3507675</Frequency><Timestamp dt:dt="r8">2034451077507</Timestamp><Current dt:dt="r8">0</Current><DateUtc dt:dt="string">2016-06-16T16:34:40Z</DateUtc></FrequencyChange></FrequencyChanges></Clock>\n	Hungry_Donkey_bar_English_2-153-1	60.017	-25	1.0.0.18	1	-1362729271	Standard	2.0.10.353	2.0.10.353	06-16-2016	6/16/2016 4:34:40 PM	12:34:40	2.0.10.248	103	Bar37-63.bmp	43	3	?	10r_4g.bmp	0r_4g.bmp	2r_2g.bmp	0r_2g.bmp			2r_2g.bmp		TrialProc	TrialList	0	cvbn	-999999	16	342129	0	b	339	342468	314	-414	-100	-12	-144	22	34	2	11	103	-10	0	-2	0	4	4	2	2	-2	2
Hungry_Donkey_bar_English_2	153	1	<?xml version="1.0"?>\n<Clock xmlns:dt="urn:schemas-microsoft-com:datatypes"><Description dt:dt="string">E-Prime Primary Realtime Clock</Description><StartTime><Timestamp dt:dt="int">0</Timestamp><DateUtc dt:dt="string">2016-06-16T16:34:40Z</DateUtc></StartTime><FrequencyChanges><FrequencyChange><Frequency dt:dt="r8">3507675</Frequency><Timestamp dt:dt="r8">2034451077507</Timestamp><Current dt:dt="r8">0</Current><DateUtc dt:dt="string">2016-06-16T16:34:40Z</DateUtc></FrequencyChange></FrequencyChanges></Clock>\n	Hungry_Donkey_bar_English_2-153-1	60.017	-25	1.0.0.18	1	-1362729271	Standard	2.0.10.353	2.0.10.353	06-16-2016	6/16/2016 4:34:40 PM	12:34:40	2.0.10.248	104	Bar37-63.bmp	43	2	?	10r_4g.bmp	0r_4g.bmp	2r_2g.bmp	0r_2g.bmp		0r_4g.bmp			TrialProc	TrialList	0	cvbn	-999999	16	344495	0	v	341	344836	318	-414	-96	-12	-140	22	34	4	11	104	-10	0	-2	0	4	4	2	2	0	4
Hungry_Donkey_bar_English_2	153	1	<?xml version="1.0"?>\n<Clock xmlns:dt="urn:schemas-microsoft-com:datatypes"><Description dt:dt="string">E-Prime Primary Realtime Clock</Description><StartTime><Timestamp dt:dt="int">0</Timestamp><DateUtc dt:dt="string">2016-06-16T16:34:40Z</DateUtc></StartTime><FrequencyChanges><FrequencyChange><Frequency dt:dt="r8">3507675</Frequency><Timestamp dt:dt="r8">2034451077507</Timestamp><Current dt:dt="r8">0</Current><DateUtc dt:dt="string">2016-06-16T16:34:40Z</DateUtc></FrequencyChange></FrequencyChanges></Clock>\n	Hungry_Donkey_bar_English_2-153-1	60.017	-25	1.0.0.18	1	-1362729271	Standard	2.0.10.353	2.0.10.353	06-16-2016	6/16/2016 4:34:40 PM	12:34:40	2.0.10.248	105	Bar50-50.bmp	44	4	?	10r_4g.bmp	0r_4g.bmp	2r_2g.bmp	0r_2g.bmp				0r_2g.bmp	TrialProc	TrialList	0	cvbn	-999999	16	346877	0	n	519	347396	320	-414	-94	-12	-140	22	36	3	11	105	-10	0	-2	0	4	4	2	2	0	2
Hungry_Donkey_bar_English_2	153	1	<?xml version="1.0"?>\n<Clock xmlns:dt="urn:schemas-microsoft-com:datatypes"><Description dt:dt="string">E-Prime Primary Realtime Clock</Description><StartTime><Timestamp dt:dt="int">0</Timestamp><DateUtc dt:dt="string">2016-06-16T16:34:40Z</DateUtc></StartTime><FrequencyChanges><FrequencyChange><Frequency dt:dt="r8">3507675</Frequency><Timestamp dt:dt="r8">2034451077507</Timestamp><Current dt:dt="r8">0</Current><DateUtc dt:dt="string">2016-06-16T16:34:40Z</DateUtc></FrequencyChange></FrequencyChanges></Clock>\n	Hungry_Donkey_bar_English_2-153-1	60.017	-25	1.0.0.18	1	-1362729271	Standard	2.0.10.353	2.0.10.353	06-16-2016	6/16/2016 4:34:40 PM	12:34:40	2.0.10.248	106	Bar50-50.bmp	44	2	?	0r_4g.bmp	0r_4g.bmp	0r_2g.bmp	0r_2g.bmp		0r_4g.bmp			TrialProc	TrialList	0	cvbn	-999999	17	349427	0	v	465	349892	324	-414	-90	-12	-136	22	36	9	11	106	0	0	0	0	4	4	2	2	0	4
Hungry_Donkey_bar_English_2	153	1	<?xml version="1.0"?>\n<Clock xmlns:dt="urn:schemas-microsoft-com:datatypes"><Description dt:dt="string">E-Prime Primary Realtime Clock</Description><StartTime><Timestamp dt:dt="int">0</Timestamp><DateUtc dt:dt="string">2016-06-16T16:34:40Z</DateUtc></StartTime><FrequencyChanges><FrequencyChange><Frequency dt:dt="r8">3507675</Frequency><Timestamp dt:dt="r8">2034451077507</Timestamp><Current dt:dt="r8">0</Current><DateUtc dt:dt="string">2016-06-16T16:34:40Z</DateUtc></FrequencyChange></FrequencyChanges></Clock>\n	Hungry_Donkey_bar_English_2-153-1	60.017	-25	1.0.0.18	1	-1362729271	Standard	2.0.10.353	2.0.10.353	06-16-2016	6/16/2016 4:34:40 PM	12:34:40	2.0.10.248	107	Bar50-50.bmp	44	1	?	0r_4g.bmp	0r_4g.bmp	0r_2g.bmp	0r_2g.bmp	0r_4g.bmp				TrialProc	TrialList	0	cvbn	-999999	16	351926	0	c	334	352260	328	-414	-86	-8	-136	22	36	7	11	107	0	0	0	0	4	4	2	2	0	4
Hungry_Donkey_bar_English_2	153	1	<?xml version="1.0"?>\n<Clock xmlns:dt="urn:schemas-microsoft-com:datatypes"><Description dt:dt="string">E-Prime Primary Realtime Clock</Description><StartTime><Timestamp dt:dt="int">0</Timestamp><DateUtc dt:dt="string">2016-06-16T16:34:40Z</DateUtc></StartTime><FrequencyChanges><FrequencyChange><Frequency dt:dt="r8">3507675</Frequency><Timestamp dt:dt="r8">2034451077507</Timestamp><Current dt:dt="r8">0</Current><DateUtc dt:dt="string">2016-06-16T16:34:40Z</DateUtc></FrequencyChange></FrequencyChanges></Clock>\n	Hungry_Donkey_bar_English_2-153-1	60.017	-25	1.0.0.18	1	-1362729271	Standard	2.0.10.353	2.0.10.353	06-16-2016	6/16/2016 4:34:40 PM	12:34:40	2.0.10.248	108	Bar50-50.bmp	44	3	?	8r_4g.bmp	50r_4g.bmp	1r_2g.bmp	10r_2g.bmp			1r_2g.bmp		TrialProc	TrialList	0	cvbn	-999999	16	354292	0	b	1280	355572	330	-415	-85	-8	-136	23	36	1	11	108	-8	-50	-1	-10	4	4	2	2	-1	2
Hungry_Donkey_bar_English_2	153	1	<?xml version="1.0"?>\n<Clock xmlns:dt="urn:schemas-microsoft-com:datatypes"><Description dt:dt="string">E-Prime Primary Realtime Clock</Description><StartTime><Timestamp dt:dt="int">0</Timestamp><DateUtc dt:dt="string">2016-06-16T16:34:40Z</DateUtc></StartTime><FrequencyChanges><FrequencyChange><Frequency dt:dt="r8">3507675</Frequency><Timestamp dt:dt="r8">2034451077507</Timestamp><Current dt:dt="r8">0</Current><DateUtc dt:dt="string">2016-06-16T16:34:40Z</DateUtc></FrequencyChange></FrequencyChanges></Clock>\n	Hungry_Donkey_bar_English_2-153-1	60.017	-25	1.0.0.18	1	-1362729271	Standard	2.0.10.353	2.0.10.353	06-16-2016	6/16/2016 4:34:40 PM	12:34:40	2.0.10.248	109	Bar50-50.bmp	45	1	?	0r_4g.bmp	0r_4g.bmp	0r_2g.bmp	0r_2g.bmp	0r_4g.bmp				TrialProc	TrialList	0	cvbn	-999999	17	357608	0	c	347	357955	334	-415	-81	-4	-136	23	36	8	11	109	0	0	0	0	4	4	2	2	0	4
Hungry_Donkey_bar_English_2	153	1	<?xml version="1.0"?>\n<Clock xmlns:dt="urn:schemas-microsoft-com:datatypes"><Description dt:dt="string">E-Prime Primary Realtime Clock</Description><StartTime><Timestamp dt:dt="int">0</Timestamp><DateUtc dt:dt="string">2016-06-16T16:34:40Z</DateUtc></StartTime><FrequencyChanges><FrequencyChange><Frequency dt:dt="r8">3507675</Frequency><Timestamp dt:dt="r8">2034451077507</Timestamp><Current dt:dt="r8">0</Current><DateUtc dt:dt="string">2016-06-16T16:34:40Z</DateUtc></FrequencyChange></FrequencyChanges></Clock>\n	Hungry_Donkey_bar_English_2-153-1	60.017	-25	1.0.0.18	1	-1362729271	Standard	2.0.10.353	2.0.10.353	06-16-2016	6/16/2016 4:34:40 PM	12:34:40	2.0.10.248	110	Bar50-50.bmp	45	2	?	12r_4g.bmp	0r_4g.bmp	3r_2g.bmp	0r_2g.bmp		0r_4g.bmp			TrialProc	TrialList	0	cvbn	-999999	16	359990	0	v	989	360979	338	-415	-77	-4	-132	23	36	5	11	110	-12	0	-3	0	4	4	2	2	0	4
