ExperimentName	Subject	Session	Clock.Information	DataFile.Basename	Display.RefreshRate	Eindtotaal[Session]	ExperimentVersion	Group	RandomSeed	RuntimeCapabilities	RuntimeVersion	RuntimeVersionExpected	SessionDate	SessionStartDateTimeUtc	SessionTime	StudioVersion	Block	BarImage	BarTotalWinst	DoorChoice	Eindtotaal[Block]	FBDoor1	FBDoor2	FBDoor3	FBDoor4	Image1	Image2	Image3	Image4	Procedure	Running	spel.ACC	spel.CRESP	spel.DurationError	spel.OnsetDelay	spel.OnsetTime	spel.OnsetToOnsetTime	spel.RESP	spel.RT	spel.RTTime	TotalGain	TotalLose	Totalsum	TotalsumD1	TotalsumD2	TotalsumD3	TotalsumD4	TrialList	TrialList.Cycle	TrialList.Sample	varV1	varV2	varV3	varV4	varW1	varW2	varW3	varW4	Verliesbedrag	Winstbedrag
Hungry_Donkey_bar_English_2	162	1	<?xml version="1.0"?>\n<Clock xmlns:dt="urn:schemas-microsoft-com:datatypes"><Description dt:dt="string">E-Prime Primary Realtime Clock</Description><StartTime><Timestamp dt:dt="int">0</Timestamp><DateUtc dt:dt="string">2016-08-22T16:04:40Z</DateUtc></StartTime><FrequencyChanges><FrequencyChange><Frequency dt:dt="r8">3507685</Frequency><Timestamp dt:dt="r8">1139260167554</Timestamp><Current dt:dt="r8">0</Current><DateUtc dt:dt="string">2016-08-22T16:04:40Z</DateUtc></FrequencyChange></FrequencyChanges></Clock>\n	Hungry_Donkey_bar_English_2-162-1	60.017	-186	1.0.0.18	1	1094497282	Standard	2.0.10.353	2.0.10.353	08-22-2016	8/22/2016 4:04:40 PM	12:04:40	2.0.10.248	1	Bar100-0.bmp	100	2	?	0r_4g.bmp	0r_4g.bmp	0r_2g.bmp	0r_2g.bmp		0r_4g.bmp			TrialProc	TrialList	0	cvbn	-999999	24	48227	0	v	1752	49979	4	0	4	0	4	0	0	10	1	1	0	0	0	0	4	4	2	2	0	4
Hungry_Donkey_bar_English_2	162	1	<?xml version="1.0"?>\n<Clock xmlns:dt="urn:schemas-microsoft-com:datatypes"><Description dt:dt="string">E-Prime Primary Realtime Clock</Description><StartTime><Timestamp dt:dt="int">0</Timestamp><DateUtc dt:dt="string">2016-08-22T16:04:40Z</DateUtc></StartTime><FrequencyChanges><FrequencyChange><Frequency dt:dt="r8">3507685</Frequency><Timestamp dt:dt="r8">1139260167554</Timestamp><Current dt:dt="r8">0</Current><DateUtc dt:dt="string">2016-08-22T16:04:40Z</DateUtc></FrequencyChange></FrequencyChanges></Clock>\n	Hungry_Donkey_bar_English_2-162-1	60.017	-186	1.0.0.18	1	1094497282	Standard	2.0.10.353	2.0.10.353	08-22-2016	8/22/2016 4:04:40 PM	12:04:40	2.0.10.248	2	Bar63-37.bmp	67	3	?	12r_4g.bmp	0r_4g.bmp	3r_2g.bmp	0r_2g.bmp			3r_2g.bmp		TrialProc	TrialList	0	cvbn	-999999	17	52026	0	b	1361	53387	6	-3	3	0	4	-1	0	5	1	2	-12	0	-3	0	4	4	2	2	-3	2
Hungry_Donkey_bar_English_2	162	1	<?xml version="1.0"?>\n<Clock xmlns:dt="urn:schemas-microsoft-com:datatypes"><Description dt:dt="string">E-Prime Primary Realtime Clock</Description><StartTime><Timestamp dt:dt="int">0</Timestamp><DateUtc dt:dt="string">2016-08-22T16:04:40Z</DateUtc></StartTime><FrequencyChanges><FrequencyChange><Frequency dt:dt="r8">3507685</Frequency><Timestamp dt:dt="r8">1139260167554</Timestamp><Current dt:dt="r8">0</Current><DateUtc dt:dt="string">2016-08-22T16:04:40Z</DateUtc></FrequencyChange></FrequencyChanges></Clock>\n	Hungry_Donkey_bar_English_2-162-1	60.017	-186	1.0.0.18	1	1094497282	Standard	2.0.10.353	2.0.10.353	08-22-2016	8/22/2016 4:04:40 PM	12:04:40	2.0.10.248	3	Bar75-25.bmp	73	4	?	10r_4g.bmp	0r_4g.bmp	2r_2g.bmp	0r_2g.bmp				0r_2g.bmp	TrialProc	TrialList	0	cvbn	-999999	17	55425	0	n	1002	56427	8	-3	5	0	4	-1	2	3	1	3	-10	0	-2	0	4	4	2	2	0	2
Hungry_Donkey_bar_English_2	162	1	<?xml version="1.0"?>\n<Clock xmlns:dt="urn:schemas-microsoft-com:datatypes"><Description dt:dt="string">E-Prime Primary Realtime Clock</Description><StartTime><Timestamp dt:dt="int">0</Timestamp><DateUtc dt:dt="string">2016-08-22T16:04:40Z</DateUtc></StartTime><FrequencyChanges><FrequencyChange><Frequency dt:dt="r8">3507685</Frequency><Timestamp dt:dt="r8">1139260167554</Timestamp><Current dt:dt="r8">0</Current><DateUtc dt:dt="string">2016-08-22T16:04:40Z</DateUtc></FrequencyChange></FrequencyChanges></Clock>\n	Hungry_Donkey_bar_English_2-162-1	60.017	-186	1.0.0.18	1	1094497282	Standard	2.0.10.353	2.0.10.353	08-22-2016	8/22/2016 4:04:40 PM	12:04:40	2.0.10.248	4	Bar75-25.bmp	80	1	?	0r_4g.bmp	0r_4g.bmp	0r_2g.bmp	0r_2g.bmp	0r_4g.bmp				TrialProc	TrialList	0	cvbn	-999999	15	58457	0	c	1490	59947	12	-3	9	4	4	-1	2	7	1	4	0	0	0	0	4	4	2	2	0	4
Hungry_Donkey_bar_English_2	162	1	<?xml version="1.0"?>\n<Clock xmlns:dt="urn:schemas-microsoft-com:datatypes"><Description dt:dt="string">E-Prime Primary Realtime Clock</Description><StartTime><Timestamp dt:dt="int">0</Timestamp><DateUtc dt:dt="string">2016-08-22T16:04:40Z</DateUtc></StartTime><FrequencyChanges><FrequencyChange><Frequency dt:dt="r8">3507685</Frequency><Timestamp dt:dt="r8">1139260167554</Timestamp><Current dt:dt="r8">0</Current><DateUtc dt:dt="string">2016-08-22T16:04:40Z</DateUtc></FrequencyChange></FrequencyChanges></Clock>\n	Hungry_Donkey_bar_English_2-162-1	60.017	-186	1.0.0.18	1	1094497282	Standard	2.0.10.353	2.0.10.353	08-22-2016	8/22/2016 4:04:40 PM	12:04:40	2.0.10.248	5	Bar87-13.bmp	84	2	?	10r_4g.bmp	0r_4g.bmp	2r_2g.bmp	0r_2g.bmp		0r_4g.bmp			TrialProc	TrialList	0	cvbn	-999999	16	61973	0	v	726	62699	16	-3	13	4	8	-1	2	4	1	5	-10	0	-2	0	4	4	2	2	0	4
Hungry_Donkey_bar_English_2	162	1	<?xml version="1.0"?>\n<Clock xmlns:dt="urn:schemas-microsoft-com:datatypes"><Description dt:dt="string">E-Prime Primary Realtime Clock</Description><StartTime><Timestamp dt:dt="int">0</Timestamp><DateUtc dt:dt="string">2016-08-22T16:04:40Z</DateUtc></StartTime><FrequencyChanges><FrequencyChange><Frequency dt:dt="r8">3507685</Frequency><Timestamp dt:dt="r8">1139260167554</Timestamp><Current dt:dt="r8">0</Current><DateUtc dt:dt="string">2016-08-22T16:04:40Z</DateUtc></FrequencyChange></FrequencyChanges></Clock>\n	Hungry_Donkey_bar_English_2-162-1	60.017	-186	1.0.0.18	1	1094497282	Standard	2.0.10.353	2.0.10.353	08-22-2016	8/22/2016 4:04:40 PM	12:04:40	2.0.10.248	6	Bar87-13.bmp	82	3	?	8r_4g.bmp	50r_4g.bmp	1r_2g.bmp	10r_2g.bmp			1r_2g.bmp		TrialProc	TrialList	0	cvbn	-999999	17	64739	0	b	1303	66042	18	-4	14	4	8	0	2	1	1	6	-8	-50	-1	-10	4	4	2	2	-1	2
Hungry_Donkey_bar_English_2	162	1	<?xml version="1.0"?>\n<Clock xmlns:dt="urn:schemas-microsoft-com:datatypes"><Description dt:dt="string">E-Prime Primary Realtime Clock</Description><StartTime><Timestamp dt:dt="int">0</Timestamp><DateUtc dt:dt="string">2016-08-22T16:04:40Z</DateUtc></StartTime><FrequencyChanges><FrequencyChange><Frequency dt:dt="r8">3507685</Frequency><Timestamp dt:dt="r8">1139260167554</Timestamp><Current dt:dt="r8">0</Current><DateUtc dt:dt="string">2016-08-22T16:04:40Z</DateUtc></FrequencyChange></FrequencyChanges></Clock>\n	Hungry_Donkey_bar_English_2-162-1	60.017	-186	1.0.0.18	1	1094497282	Standard	2.0.10.353	2.0.10.353	08-22-2016	8/22/2016 4:04:40 PM	12:04:40	2.0.10.248	7	Bar87-13.bmp	83	3	?	0r_4g.bmp	0r_4g.bmp	0r_2g.bmp	0r_2g.bmp			0r_2g.bmp		TrialProc	TrialList	0	cvbn	-999999	16	68071	0	b	819	68890	20	-4	16	4	8	2	2	8	1	7	0	0	0	0	4	4	2	2	0	2
Hungry_Donkey_bar_English_2	162	1	<?xml version="1.0"?>\n<Clock xmlns:dt="urn:schemas-microsoft-com:datatypes"><Description dt:dt="string">E-Prime Primary Realtime Clock</Description><StartTime><Timestamp dt:dt="int">0</Timestamp><DateUtc dt:dt="string">2016-08-22T16:04:40Z</DateUtc></StartTime><FrequencyChanges><FrequencyChange><Frequency dt:dt="r8">3507685</Frequency><Timestamp dt:dt="r8">1139260167554</Timestamp><Current dt:dt="r8">0</Current><DateUtc dt:dt="string">2016-08-22T16:04:40Z</DateUtc></FrequencyChange></FrequencyChanges></Clock>\n	Hungry_Donkey_bar_English_2-162-1	60.017	-186	1.0.0.18	1	1094497282	Standard	2.0.10.353	2.0.10.353	08-22-2016	8/22/2016 4:04:40 PM	12:04:40	2.0.10.248	8	Bar87-13.bmp	85	4	?	10r_4g.bmp	0r_4g.bmp	2r_2g.bmp	0r_2g.bmp				0r_2g.bmp	TrialProc	TrialList	0	cvbn	-999999	16	70920	0	n	1266	72186	22	-4	18	4	8	2	4	2	1	8	-10	0	-2	0	4	4	2	2	0	2
Hungry_Donkey_bar_English_2	162	1	<?xml version="1.0"?>\n<Clock xmlns:dt="urn:schemas-microsoft-com:datatypes"><Description dt:dt="string">E-Prime Primary Realtime Clock</Description><StartTime><Timestamp dt:dt="int">0</Timestamp><DateUtc dt:dt="string">2016-08-22T16:04:40Z</DateUtc></StartTime><FrequencyChanges><FrequencyChange><Frequency dt:dt="r8">3507685</Frequency><Timestamp dt:dt="r8">1139260167554</Timestamp><Current dt:dt="r8">0</Current><DateUtc dt:dt="string">2016-08-22T16:04:40Z</DateUtc></FrequencyChange></FrequencyChanges></Clock>\n	Hungry_Donkey_bar_English_2-162-1	60.017	-186	1.0.0.18	1	1094497282	Standard	2.0.10.353	2.0.10.353	08-22-2016	8/22/2016 4:04:40 PM	12:04:40	2.0.10.248	9	Bar87-13.bmp	87	1	?	0r_4g.bmp	0r_4g.bmp	0r_2g.bmp	0r_2g.bmp	0r_4g.bmp				TrialProc	TrialList	0	cvbn	-999999	16	74219	0	c	1391	75610	26	-4	22	8	8	2	4	6	1	9	0	0	0	0	4	4	2	2	0	4
Hungry_Donkey_bar_English_2	162	1	<?xml version="1.0"?>\n<Clock xmlns:dt="urn:schemas-microsoft-com:datatypes"><Description dt:dt="string">E-Prime Primary Realtime Clock</Description><StartTime><Timestamp dt:dt="int">0</Timestamp><DateUtc dt:dt="string">2016-08-22T16:04:40Z</DateUtc></StartTime><FrequencyChanges><FrequencyChange><Frequency dt:dt="r8">3507685</Frequency><Timestamp dt:dt="r8">1139260167554</Timestamp><Current dt:dt="r8">0</Current><DateUtc dt:dt="string">2016-08-22T16:04:40Z</DateUtc></FrequencyChange></FrequencyChanges></Clock>\n	Hungry_Donkey_bar_English_2-162-1	60.017	-186	1.0.0.18	1	1094497282	Standard	2.0.10.353	2.0.10.353	08-22-2016	8/22/2016 4:04:40 PM	12:04:40	2.0.10.248	10	Bar87-13.bmp	88	2	?	0r_4g.bmp	0r_4g.bmp	0r_2g.bmp	0r_2g.bmp		0r_4g.bmp			TrialProc	TrialList	0	cvbn	-999999	16	77635	0	v	647	78282	30	-4	26	8	12	2	4	9	1	10	0	0	0	0	4	4	2	2	0	4
Hungry_Donkey_bar_English_2	162	1	<?xml version="1.0"?>\n<Clock xmlns:dt="urn:schemas-microsoft-com:datatypes"><Description dt:dt="string">E-Prime Primary Realtime Clock</Description><StartTime><Timestamp dt:dt="int">0</Timestamp><DateUtc dt:dt="string">2016-08-22T16:04:40Z</DateUtc></StartTime><FrequencyChanges><FrequencyChange><Frequency dt:dt="r8">3507685</Frequency><Timestamp dt:dt="r8">1139260167554</Timestamp><Current dt:dt="r8">0</Current><DateUtc dt:dt="string">2016-08-22T16:04:40Z</DateUtc></FrequencyChange></FrequencyChanges></Clock>\n	Hungry_Donkey_bar_English_2-162-1	60.017	-186	1.0.0.18	1	1094497282	Standard	2.0.10.353	2.0.10.353	08-22-2016	8/22/2016 4:04:40 PM	12:04:40	2.0.10.248	11	Bar87-13.bmp	89	2	?	10r_4g.bmp	0r_4g.bmp	2r_2g.bmp	0r_2g.bmp		0r_4g.bmp			TrialProc	TrialList	0	cvbn	-999999	16	80317	0	v	797	81114	34	-4	30	8	16	2	4	2	2	11	-10	0	-2	0	4	4	2	2	0	4
Hungry_Donkey_bar_English_2	162	1	<?xml version="1.0"?>\n<Clock xmlns:dt="urn:schemas-microsoft-com:datatypes"><Description dt:dt="string">E-Prime Primary Realtime Clock</Description><StartTime><Timestamp dt:dt="int">0</Timestamp><DateUtc dt:dt="string">2016-08-22T16:04:40Z</DateUtc></StartTime><FrequencyChanges><FrequencyChange><Frequency dt:dt="r8">3507685</Frequency><Timestamp dt:dt="r8">1139260167554</Timestamp><Current dt:dt="r8">0</Current><DateUtc dt:dt="string">2016-08-22T16:04:40Z</DateUtc></FrequencyChange></FrequencyChanges></Clock>\n	Hungry_Donkey_bar_English_2-162-1	60.017	-186	1.0.0.18	1	1094497282	Standard	2.0.10.353	2.0.10.353	08-22-2016	8/22/2016 4:04:40 PM	12:04:40	2.0.10.248	12	Bar75-25.bmp	73	1	?	10r_4g.bmp	0r_4g.bmp	2r_2g.bmp	0r_2g.bmp	10r_4g.bmp				TrialProc	TrialList	0	cvbn	-999999	16	83150	0	c	1003	84153	38	-14	24	2	16	2	4	4	2	12	-10	0	-2	0	4	4	2	2	-10	4
Hungry_Donkey_bar_English_2	162	1	<?xml version="1.0"?>\n<Clock xmlns:dt="urn:schemas-microsoft-com:datatypes"><Description dt:dt="string">E-Prime Primary Realtime Clock</Description><StartTime><Timestamp dt:dt="int">0</Timestamp><DateUtc dt:dt="string">2016-08-22T16:04:40Z</DateUtc></StartTime><FrequencyChanges><FrequencyChange><Frequency dt:dt="r8">3507685</Frequency><Timestamp dt:dt="r8">1139260167554</Timestamp><Current dt:dt="r8">0</Current><DateUtc dt:dt="string">2016-08-22T16:04:40Z</DateUtc></FrequencyChange></FrequencyChanges></Clock>\n	Hungry_Donkey_bar_English_2-162-1	60.017	-186	1.0.0.18	1	1094497282	Standard	2.0.10.353	2.0.10.353	08-22-2016	8/22/2016 4:04:40 PM	12:04:40	2.0.10.248	13	Bar37-63.bmp	40	2	?	8r_4g.bmp	50r_4g.bmp	1r_2g.bmp	10r_2g.bmp		50r_4g.bmp			TrialProc	TrialList	0	cvbn	-999999	16	86182	0	v	1139	87321	42	-64	-22	2	-30	2	4	1	2	13	-8	-50	-1	-10	4	4	2	2	-50	4
Hungry_Donkey_bar_English_2	162	1	<?xml version="1.0"?>\n<Clock xmlns:dt="urn:schemas-microsoft-com:datatypes"><Description dt:dt="string">E-Prime Primary Realtime Clock</Description><StartTime><Timestamp dt:dt="int">0</Timestamp><DateUtc dt:dt="string">2016-08-22T16:04:40Z</DateUtc></StartTime><FrequencyChanges><FrequencyChange><Frequency dt:dt="r8">3507685</Frequency><Timestamp dt:dt="r8">1139260167554</Timestamp><Current dt:dt="r8">0</Current><DateUtc dt:dt="string">2016-08-22T16:04:40Z</DateUtc></FrequencyChange></FrequencyChanges></Clock>\n	Hungry_Donkey_bar_English_2-162-1	60.017	-186	1.0.0.18	1	1094497282	Standard	2.0.10.353	2.0.10.353	08-22-2016	8/22/2016 4:04:40 PM	12:04:40	2.0.10.248	14	Bar37-63.bmp	42	1	?	0r_4g.bmp	0r_4g.bmp	0r_2g.bmp	0r_2g.bmp	0r_4g.bmp				TrialProc	TrialList	0	cvbn	-999999	16	89365	0	c	692	90057	46	-64	-18	6	-30	2	4	6	2	14	0	0	0	0	4	4	2	2	0	4
Hungry_Donkey_bar_English_2	162	1	<?xml version="1.0"?>\n<Clock xmlns:dt="urn:schemas-microsoft-com:datatypes"><Description dt:dt="string">E-Prime Primary Realtime Clock</Description><StartTime><Timestamp dt:dt="int">0</Timestamp><DateUtc dt:dt="string">2016-08-22T16:04:40Z</DateUtc></StartTime><FrequencyChanges><FrequencyChange><Frequency dt:dt="r8">3507685</Frequency><Timestamp dt:dt="r8">1139260167554</Timestamp><Current dt:dt="r8">0</Current><DateUtc dt:dt="string">2016-08-22T16:04:40Z</DateUtc></FrequencyChange></FrequencyChanges></Clock>\n	Hungry_Donkey_bar_English_2-162-1	60.017	-186	1.0.0.18	1	1094497282	Standard	2.0.10.353	2.0.10.353	08-22-2016	8/22/2016 4:04:40 PM	12:04:40	2.0.10.248	15	Bar50-50.bmp	44	1	?	0r_4g.bmp	0r_4g.bmp	0r_2g.bmp	0r_2g.bmp	0r_4g.bmp				TrialProc	TrialList	0	cvbn	-999999	16	92081	0	c	1272	93353	50	-64	-14	10	-30	2	4	8	2	15	0	0	0	0	4	4	2	2	0	4
Hungry_Donkey_bar_English_2	162	1	<?xml version="1.0"?>\n<Clock xmlns:dt="urn:schemas-microsoft-com:datatypes"><Description dt:dt="string">E-Prime Primary Realtime Clock</Description><StartTime><Timestamp dt:dt="int">0</Timestamp><DateUtc dt:dt="string">2016-08-22T16:04:40Z</DateUtc></StartTime><FrequencyChanges><FrequencyChange><Frequency dt:dt="r8">3507685</Frequency><Timestamp dt:dt="r8">1139260167554</Timestamp><Current dt:dt="r8">0</Current><DateUtc dt:dt="string">2016-08-22T16:04:40Z</DateUtc></FrequencyChange></FrequencyChanges></Clock>\n	Hungry_Donkey_bar_English_2-162-1	60.017	-186	1.0.0.18	1	1094497282	Standard	2.0.10.353	2.0.10.353	08-22-2016	8/22/2016 4:04:40 PM	12:04:40	2.0.10.248	16	Bar50-50.bmp	45	4	?	10r_4g.bmp	0r_4g.bmp	2r_2g.bmp	0r_2g.bmp				0r_2g.bmp	TrialProc	TrialList	0	cvbn	-999999	16	95380	0	n	261	95641	52	-64	-12	10	-30	2	6	3	2	16	-10	0	-2	0	4	4	2	2	0	2
Hungry_Donkey_bar_English_2	162	1	<?xml version="1.0"?>\n<Clock xmlns:dt="urn:schemas-microsoft-com:datatypes"><Description dt:dt="string">E-Prime Primary Realtime Clock</Description><StartTime><Timestamp dt:dt="int">0</Timestamp><DateUtc dt:dt="string">2016-08-22T16:04:40Z</DateUtc></StartTime><FrequencyChanges><FrequencyChange><Frequency dt:dt="r8">3507685</Frequency><Timestamp dt:dt="r8">1139260167554</Timestamp><Current dt:dt="r8">0</Current><DateUtc dt:dt="string">2016-08-22T16:04:40Z</DateUtc></FrequencyChange></FrequencyChanges></Clock>\n	Hungry_Donkey_bar_English_2-162-1	60.017	-186	1.0.0.18	1	1094497282	Standard	2.0.10.353	2.0.10.353	08-22-2016	8/22/2016 4:04:40 PM	12:04:40	2.0.10.248	17	Bar50-50.bmp	47	2	?	0r_4g.bmp	0r_4g.bmp	0r_2g.bmp	0r_2g.bmp		0r_4g.bmp			TrialProc	TrialList	0	cvbn	-999999	16	97679	0	v	874	98553	56	-64	-8	10	-26	2	6	9	2	17	0	0	0	0	4	4	2	2	0	4
Hungry_Donkey_bar_English_2	162	1	<?xml version="1.0"?>\n<Clock xmlns:dt="urn:schemas-microsoft-com:datatypes"><Description dt:dt="string">E-Prime Primary Realtime Clock</Description><StartTime><Timestamp dt:dt="int">0</Timestamp><DateUtc dt:dt="string">2016-08-22T16:04:40Z</DateUtc></StartTime><FrequencyChanges><FrequencyChange><Frequency dt:dt="r8">3507685</Frequency><Timestamp dt:dt="r8">1139260167554</Timestamp><Current dt:dt="r8">0</Current><DateUtc dt:dt="string">2016-08-22T16:04:40Z</DateUtc></FrequencyChange></FrequencyChanges></Clock>\n	Hungry_Donkey_bar_English_2-162-1	60.017	-186	1.0.0.18	1	1094497282	Standard	2.0.10.353	2.0.10.353	08-22-2016	8/22/2016 4:04:40 PM	12:04:40	2.0.10.248	18	Bar50-50.bmp	46	3	?	12r_4g.bmp	0r_4g.bmp	3r_2g.bmp	0r_2g.bmp			3r_2g.bmp		TrialProc	TrialList	0	cvbn	-999999	16	100578	0	b	791	101369	58	-67	-9	10	-26	1	6	5	2	18	-12	0	-3	0	4	4	2	2	-3	2
Hungry_Donkey_bar_English_2	162	1	<?xml version="1.0"?>\n<Clock xmlns:dt="urn:schemas-microsoft-com:datatypes"><Description dt:dt="string">E-Prime Primary Realtime Clock</Description><StartTime><Timestamp dt:dt="int">0</Timestamp><DateUtc dt:dt="string">2016-08-22T16:04:40Z</DateUtc></StartTime><FrequencyChanges><FrequencyChange><Frequency dt:dt="r8">3507685</Frequency><Timestamp dt:dt="r8">1139260167554</Timestamp><Current dt:dt="r8">0</Current><DateUtc dt:dt="string">2016-08-22T16:04:40Z</DateUtc></FrequencyChange></FrequencyChanges></Clock>\n	Hungry_Donkey_bar_English_2-162-1	60.017	-186	1.0.0.18	1	1094497282	Standard	2.0.10.353	2.0.10.353	08-22-2016	8/22/2016 4:04:40 PM	12:04:40	2.0.10.248	19	Bar50-50.bmp	48	1	?	0r_4g.bmp	0r_4g.bmp	0r_2g.bmp	0r_2g.bmp	0r_4g.bmp				TrialProc	TrialList	0	cvbn	-999999	16	103394	0	c	662	104056	62	-67	-5	14	-26	1	6	10	2	19	0	0	0	0	4	4	2	2	0	4
Hungry_Donkey_bar_English_2	162	1	<?xml version="1.0"?>\n<Clock xmlns:dt="urn:schemas-microsoft-com:datatypes"><Description dt:dt="string">E-Prime Primary Realtime Clock</Description><StartTime><Timestamp dt:dt="int">0</Timestamp><DateUtc dt:dt="string">2016-08-22T16:04:40Z</DateUtc></StartTime><FrequencyChanges><FrequencyChange><Frequency dt:dt="r8">3507685</Frequency><Timestamp dt:dt="r8">1139260167554</Timestamp><Current dt:dt="r8">0</Current><DateUtc dt:dt="string">2016-08-22T16:04:40Z</DateUtc></FrequencyChange></FrequencyChanges></Clock>\n	Hungry_Donkey_bar_English_2-162-1	60.017	-186	1.0.0.18	1	1094497282	Standard	2.0.10.353	2.0.10.353	08-22-2016	8/22/2016 4:04:40 PM	12:04:40	2.0.10.248	20	Bar50-50.bmp	50	1	?	0r_4g.bmp	0r_4g.bmp	0r_2g.bmp	0r_2g.bmp	0r_4g.bmp				TrialProc	TrialList	0	cvbn	-999999	16	106093	0	c	1003	107096	66	-67	-1	18	-26	1	6	7	2	20	0	0	0	0	4	4	2	2	0	4
Hungry_Donkey_bar_English_2	162	1	<?xml version="1.0"?>\n<Clock xmlns:dt="urn:schemas-microsoft-com:datatypes"><Description dt:dt="string">E-Prime Primary Realtime Clock</Description><StartTime><Timestamp dt:dt="int">0</Timestamp><DateUtc dt:dt="string">2016-08-22T16:04:40Z</DateUtc></StartTime><FrequencyChanges><FrequencyChange><Frequency dt:dt="r8">3507685</Frequency><Timestamp dt:dt="r8">1139260167554</Timestamp><Current dt:dt="r8">0</Current><DateUtc dt:dt="string">2016-08-22T16:04:40Z</DateUtc></FrequencyChange></FrequencyChanges></Clock>\n	Hungry_Donkey_bar_English_2-162-1	60.017	-186	1.0.0.18	1	1094497282	Standard	2.0.10.353	2.0.10.353	08-22-2016	8/22/2016 4:04:40 PM	12:04:40	2.0.10.248	21	Bar50-50.bmp	48	1	?	10r_4g.bmp	0r_4g.bmp	2r_2g.bmp	0r_2g.bmp	10r_4g.bmp				TrialProc	TrialList	0	cvbn	-999999	16	109126	0	c	770	109896	70	-77	-7	12	-26	1	6	4	3	21	-10	0	-2	0	4	4	2	2	-10	4
Hungry_Donkey_bar_English_2	162	1	<?xml version="1.0"?>\n<Clock xmlns:dt="urn:schemas-microsoft-com:datatypes"><Description dt:dt="string">E-Prime Primary Realtime Clock</Description><StartTime><Timestamp dt:dt="int">0</Timestamp><DateUtc dt:dt="string">2016-08-22T16:04:40Z</DateUtc></StartTime><FrequencyChanges><FrequencyChange><Frequency dt:dt="r8">3507685</Frequency><Timestamp dt:dt="r8">1139260167554</Timestamp><Current dt:dt="r8">0</Current><DateUtc dt:dt="string">2016-08-22T16:04:40Z</DateUtc></FrequencyChange></FrequencyChanges></Clock>\n	Hungry_Donkey_bar_English_2-162-1	60.017	-186	1.0.0.18	1	1094497282	Standard	2.0.10.353	2.0.10.353	08-22-2016	8/22/2016 4:04:40 PM	12:04:40	2.0.10.248	22	Bar50-50.bmp	49	2	?	10r_4g.bmp	0r_4g.bmp	2r_2g.bmp	0r_2g.bmp		0r_4g.bmp			TrialProc	TrialList	0	cvbn	-999999	16	111925	0	v	723	112648	74	-77	-3	12	-22	1	6	2	3	22	-10	0	-2	0	4	4	2	2	0	4
Hungry_Donkey_bar_English_2	162	1	<?xml version="1.0"?>\n<Clock xmlns:dt="urn:schemas-microsoft-com:datatypes"><Description dt:dt="string">E-Prime Primary Realtime Clock</Description><StartTime><Timestamp dt:dt="int">0</Timestamp><DateUtc dt:dt="string">2016-08-22T16:04:40Z</DateUtc></StartTime><FrequencyChanges><FrequencyChange><Frequency dt:dt="r8">3507685</Frequency><Timestamp dt:dt="r8">1139260167554</Timestamp><Current dt:dt="r8">0</Current><DateUtc dt:dt="string">2016-08-22T16:04:40Z</DateUtc></FrequencyChange></FrequencyChanges></Clock>\n	Hungry_Donkey_bar_English_2-162-1	60.017	-186	1.0.0.18	1	1094497282	Standard	2.0.10.353	2.0.10.353	08-22-2016	8/22/2016 4:04:40 PM	12:04:40	2.0.10.248	23	Bar50-50.bmp	50	2	?	0r_4g.bmp	0r_4g.bmp	0r_2g.bmp	0r_2g.bmp		0r_4g.bmp			TrialProc	TrialList	0	cvbn	-999999	16	114674	0	v	614	115288	78	-77	1	12	-18	1	6	6	3	23	0	0	0	0	4	4	2	2	0	4
Hungry_Donkey_bar_English_2	162	1	<?xml version="1.0"?>\n<Clock xmlns:dt="urn:schemas-microsoft-com:datatypes"><Description dt:dt="string">E-Prime Primary Realtime Clock</Description><StartTime><Timestamp dt:dt="int">0</Timestamp><DateUtc dt:dt="string">2016-08-22T16:04:40Z</DateUtc></StartTime><FrequencyChanges><FrequencyChange><Frequency dt:dt="r8">3507685</Frequency><Timestamp dt:dt="r8">1139260167554</Timestamp><Current dt:dt="r8">0</Current><DateUtc dt:dt="string">2016-08-22T16:04:40Z</DateUtc></FrequencyChange></FrequencyChanges></Clock>\n	Hungry_Donkey_bar_English_2-162-1	60.017	-186	1.0.0.18	1	1094497282	Standard	2.0.10.353	2.0.10.353	08-22-2016	8/22/2016 4:04:40 PM	12:04:40	2.0.10.248	24	Bar50-50.bmp	52	2	?	10r_4g.bmp	0r_4g.bmp	2r_2g.bmp	0r_2g.bmp		0r_4g.bmp			TrialProc	TrialList	0	cvbn	-999999	16	117323	0	v	669	117992	82	-77	5	12	-14	1	6	3	3	24	-10	0	-2	0	4	4	2	2	0	4
Hungry_Donkey_bar_English_2	162	1	<?xml version="1.0"?>\n<Clock xmlns:dt="urn:schemas-microsoft-com:datatypes"><Description dt:dt="string">E-Prime Primary Realtime Clock</Description><StartTime><Timestamp dt:dt="int">0</Timestamp><DateUtc dt:dt="string">2016-08-22T16:04:40Z</DateUtc></StartTime><FrequencyChanges><FrequencyChange><Frequency dt:dt="r8">3507685</Frequency><Timestamp dt:dt="r8">1139260167554</Timestamp><Current dt:dt="r8">0</Current><DateUtc dt:dt="string">2016-08-22T16:04:40Z</DateUtc></FrequencyChange></FrequencyChanges></Clock>\n	Hungry_Donkey_bar_English_2-162-1	60.017	-186	1.0.0.18	1	1094497282	Standard	2.0.10.353	2.0.10.353	08-22-2016	8/22/2016 4:04:40 PM	12:04:40	2.0.10.248	25	Bar50-50.bmp	52	4	?	12r_4g.bmp	0r_4g.bmp	3r_2g.bmp	0r_2g.bmp				0r_2g.bmp	TrialProc	TrialList	0	cvbn	-999999	17	120023	0	n	609	120632	84	-77	7	12	-14	1	8	5	3	25	-12	0	-3	0	4	4	2	2	0	2
Hungry_Donkey_bar_English_2	162	1	<?xml version="1.0"?>\n<Clock xmlns:dt="urn:schemas-microsoft-com:datatypes"><Description dt:dt="string">E-Prime Primary Realtime Clock</Description><StartTime><Timestamp dt:dt="int">0</Timestamp><DateUtc dt:dt="string">2016-08-22T16:04:40Z</DateUtc></StartTime><FrequencyChanges><FrequencyChange><Frequency dt:dt="r8">3507685</Frequency><Timestamp dt:dt="r8">1139260167554</Timestamp><Current dt:dt="r8">0</Current><DateUtc dt:dt="string">2016-08-22T16:04:40Z</DateUtc></FrequencyChange></FrequencyChanges></Clock>\n	Hungry_Donkey_bar_English_2-162-1	60.017	-186	1.0.0.18	1	1094497282	Standard	2.0.10.353	2.0.10.353	08-22-2016	8/22/2016 4:04:40 PM	12:04:40	2.0.10.248	26	Bar50-50.bmp	53	3	?	0r_4g.bmp	0r_4g.bmp	0r_2g.bmp	0r_2g.bmp			0r_2g.bmp		TrialProc	TrialList	0	cvbn	-999999	16	122655	0	b	696	123351	86	-77	9	12	-14	3	8	9	3	26	0	0	0	0	4	4	2	2	0	2
Hungry_Donkey_bar_English_2	162	1	<?xml version="1.0"?>\n<Clock xmlns:dt="urn:schemas-microsoft-com:datatypes"><Description dt:dt="string">E-Prime Primary Realtime Clock</Description><StartTime><Timestamp dt:dt="int">0</Timestamp><DateUtc dt:dt="string">2016-08-22T16:04:40Z</DateUtc></StartTime><FrequencyChanges><FrequencyChange><Frequency dt:dt="r8">3507685</Frequency><Timestamp dt:dt="r8">1139260167554</Timestamp><Current dt:dt="r8">0</Current><DateUtc dt:dt="string">2016-08-22T16:04:40Z</DateUtc></FrequencyChange></FrequencyChanges></Clock>\n	Hungry_Donkey_bar_English_2-162-1	60.017	-186	1.0.0.18	1	1094497282	Standard	2.0.10.353	2.0.10.353	08-22-2016	8/22/2016 4:04:40 PM	12:04:40	2.0.10.248	27	Bar50-50.bmp	54	2	?	0r_4g.bmp	0r_4g.bmp	0r_2g.bmp	0r_2g.bmp		0r_4g.bmp			TrialProc	TrialList	0	cvbn	-999999	16	125388	0	v	555	125943	90	-77	13	12	-10	3	8	10	3	27	0	0	0	0	4	4	2	2	0	4
Hungry_Donkey_bar_English_2	162	1	<?xml version="1.0"?>\n<Clock xmlns:dt="urn:schemas-microsoft-com:datatypes"><Description dt:dt="string">E-Prime Primary Realtime Clock</Description><StartTime><Timestamp dt:dt="int">0</Timestamp><DateUtc dt:dt="string">2016-08-22T16:04:40Z</DateUtc></StartTime><FrequencyChanges><FrequencyChange><Frequency dt:dt="r8">3507685</Frequency><Timestamp dt:dt="r8">1139260167554</Timestamp><Current dt:dt="r8">0</Current><DateUtc dt:dt="string">2016-08-22T16:04:40Z</DateUtc></FrequencyChange></FrequencyChanges></Clock>\n	Hungry_Donkey_bar_English_2-162-1	60.017	-186	1.0.0.18	1	1094497282	Standard	2.0.10.353	2.0.10.353	08-22-2016	8/22/2016 4:04:40 PM	12:04:40	2.0.10.248	28	Bar50-50.bmp	55	1	?	0r_4g.bmp	0r_4g.bmp	0r_2g.bmp	0r_2g.bmp	0r_4g.bmp				TrialProc	TrialList	0	cvbn	-999999	16	127970	0	c	501	128471	94	-77	17	16	-10	3	8	8	3	28	0	0	0	0	4	4	2	2	0	4
Hungry_Donkey_bar_English_2	162	1	<?xml version="1.0"?>\n<Clock xmlns:dt="urn:schemas-microsoft-com:datatypes"><Description dt:dt="string">E-Prime Primary Realtime Clock</Description><StartTime><Timestamp dt:dt="int">0</Timestamp><DateUtc dt:dt="string">2016-08-22T16:04:40Z</DateUtc></StartTime><FrequencyChanges><FrequencyChange><Frequency dt:dt="r8">3507685</Frequency><Timestamp dt:dt="r8">1139260167554</Timestamp><Current dt:dt="r8">0</Current><DateUtc dt:dt="string">2016-08-22T16:04:40Z</DateUtc></FrequencyChange></FrequencyChanges></Clock>\n	Hungry_Donkey_bar_English_2-162-1	60.017	-186	1.0.0.18	1	1094497282	Standard	2.0.10.353	2.0.10.353	08-22-2016	8/22/2016 4:04:40 PM	12:04:40	2.0.10.248	29	Bar50-50.bmp	56	2	?	0r_4g.bmp	0r_4g.bmp	0r_2g.bmp	0r_2g.bmp		0r_4g.bmp			TrialProc	TrialList	0	cvbn	-999999	16	130503	0	v	640	131143	98	-77	21	16	-6	3	8	7	3	29	0	0	0	0	4	4	2	2	0	4
Hungry_Donkey_bar_English_2	162	1	<?xml version="1.0"?>\n<Clock xmlns:dt="urn:schemas-microsoft-com:datatypes"><Description dt:dt="string">E-Prime Primary Realtime Clock</Description><StartTime><Timestamp dt:dt="int">0</Timestamp><DateUtc dt:dt="string">2016-08-22T16:04:40Z</DateUtc></StartTime><FrequencyChanges><FrequencyChange><Frequency dt:dt="r8">3507685</Frequency><Timestamp dt:dt="r8">1139260167554</Timestamp><Current dt:dt="r8">0</Current><DateUtc dt:dt="string">2016-08-22T16:04:40Z</DateUtc></FrequencyChange></FrequencyChanges></Clock>\n	Hungry_Donkey_bar_English_2-162-1	60.017	-186	1.0.0.18	1	1094497282	Standard	2.0.10.353	2.0.10.353	08-22-2016	8/22/2016 4:04:40 PM	12:04:40	2.0.10.248	30	Bar50-50.bmp	53	4	?	8r_4g.bmp	50r_4g.bmp	1r_2g.bmp	10r_2g.bmp				10r_2g.bmp	TrialProc	TrialList	0	cvbn	-999999	16	133169	0	n	486	133655	100	-87	13	16	-6	3	0	1	3	30	-8	-50	-1	-10	4	4	2	2	-10	2
Hungry_Donkey_bar_English_2	162	1	<?xml version="1.0"?>\n<Clock xmlns:dt="urn:schemas-microsoft-com:datatypes"><Description dt:dt="string">E-Prime Primary Realtime Clock</Description><StartTime><Timestamp dt:dt="int">0</Timestamp><DateUtc dt:dt="string">2016-08-22T16:04:40Z</DateUtc></StartTime><FrequencyChanges><FrequencyChange><Frequency dt:dt="r8">3507685</Frequency><Timestamp dt:dt="r8">1139260167554</Timestamp><Current dt:dt="r8">0</Current><DateUtc dt:dt="string">2016-08-22T16:04:40Z</DateUtc></FrequencyChange></FrequencyChanges></Clock>\n	Hungry_Donkey_bar_English_2-162-1	60.017	-186	1.0.0.18	1	1094497282	Standard	2.0.10.353	2.0.10.353	08-22-2016	8/22/2016 4:04:40 PM	12:04:40	2.0.10.248	31	Bar50-50.bmp	52	1	?	10r_4g.bmp	0r_4g.bmp	2r_2g.bmp	0r_2g.bmp	10r_4g.bmp				TrialProc	TrialList	0	cvbn	-999999	16	135685	0	c	770	136455	104	-97	7	10	-6	3	0	3	4	31	-10	0	-2	0	4	4	2	2	-10	4
Hungry_Donkey_bar_English_2	162	1	<?xml version="1.0"?>\n<Clock xmlns:dt="urn:schemas-microsoft-com:datatypes"><Description dt:dt="string">E-Prime Primary Realtime Clock</Description><StartTime><Timestamp dt:dt="int">0</Timestamp><DateUtc dt:dt="string">2016-08-22T16:04:40Z</DateUtc></StartTime><FrequencyChanges><FrequencyChange><Frequency dt:dt="r8">3507685</Frequency><Timestamp dt:dt="r8">1139260167554</Timestamp><Current dt:dt="r8">0</Current><DateUtc dt:dt="string">2016-08-22T16:04:40Z</DateUtc></FrequencyChange></FrequencyChanges></Clock>\n	Hungry_Donkey_bar_English_2-162-1	60.017	-186	1.0.0.18	1	1094497282	Standard	2.0.10.353	2.0.10.353	08-22-2016	8/22/2016 4:04:40 PM	12:04:40	2.0.10.248	32	Bar50-50.bmp	50	1	?	10r_4g.bmp	0r_4g.bmp	2r_2g.bmp	0r_2g.bmp	10r_4g.bmp				TrialProc	TrialList	0	cvbn	-999999	16	138484	0	c	1379	139863	108	-107	1	4	-6	3	0	4	4	32	-10	0	-2	0	4	4	2	2	-10	4
Hungry_Donkey_bar_English_2	162	1	<?xml version="1.0"?>\n<Clock xmlns:dt="urn:schemas-microsoft-com:datatypes"><Description dt:dt="string">E-Prime Primary Realtime Clock</Description><StartTime><Timestamp dt:dt="int">0</Timestamp><DateUtc dt:dt="string">2016-08-22T16:04:40Z</DateUtc></StartTime><FrequencyChanges><FrequencyChange><Frequency dt:dt="r8">3507685</Frequency><Timestamp dt:dt="r8">1139260167554</Timestamp><Current dt:dt="r8">0</Current><DateUtc dt:dt="string">2016-08-22T16:04:40Z</DateUtc></FrequencyChange></FrequencyChanges></Clock>\n	Hungry_Donkey_bar_English_2-162-1	60.017	-186	1.0.0.18	1	1094497282	Standard	2.0.10.353	2.0.10.353	08-22-2016	8/22/2016 4:04:40 PM	12:04:40	2.0.10.248	33	Bar50-50.bmp	51	4	?	0r_4g.bmp	0r_4g.bmp	0r_2g.bmp	0r_2g.bmp				0r_2g.bmp	TrialProc	TrialList	0	cvbn	-999999	17	141900	0	n	762	142662	110	-107	3	4	-6	3	2	8	4	33	0	0	0	0	4	4	2	2	0	2
Hungry_Donkey_bar_English_2	162	1	<?xml version="1.0"?>\n<Clock xmlns:dt="urn:schemas-microsoft-com:datatypes"><Description dt:dt="string">E-Prime Primary Realtime Clock</Description><StartTime><Timestamp dt:dt="int">0</Timestamp><DateUtc dt:dt="string">2016-08-22T16:04:40Z</DateUtc></StartTime><FrequencyChanges><FrequencyChange><Frequency dt:dt="r8">3507685</Frequency><Timestamp dt:dt="r8">1139260167554</Timestamp><Current dt:dt="r8">0</Current><DateUtc dt:dt="string">2016-08-22T16:04:40Z</DateUtc></FrequencyChange></FrequencyChanges></Clock>\n	Hungry_Donkey_bar_English_2-162-1	60.017	-186	1.0.0.18	1	1094497282	Standard	2.0.10.353	2.0.10.353	08-22-2016	8/22/2016 4:04:40 PM	12:04:40	2.0.10.248	34	Bar50-50.bmp	51	3	?	10r_4g.bmp	0r_4g.bmp	2r_2g.bmp	0r_2g.bmp			2r_2g.bmp		TrialProc	TrialList	0	cvbn	-999999	16	144699	0	b	923	145622	112	-109	3	4	-6	3	2	2	4	34	-10	0	-2	0	4	4	2	2	-2	2
Hungry_Donkey_bar_English_2	162	1	<?xml version="1.0"?>\n<Clock xmlns:dt="urn:schemas-microsoft-com:datatypes"><Description dt:dt="string">E-Prime Primary Realtime Clock</Description><StartTime><Timestamp dt:dt="int">0</Timestamp><DateUtc dt:dt="string">2016-08-22T16:04:40Z</DateUtc></StartTime><FrequencyChanges><FrequencyChange><Frequency dt:dt="r8">3507685</Frequency><Timestamp dt:dt="r8">1139260167554</Timestamp><Current dt:dt="r8">0</Current><DateUtc dt:dt="string">2016-08-22T16:04:40Z</DateUtc></FrequencyChange></FrequencyChanges></Clock>\n	Hungry_Donkey_bar_English_2-162-1	60.017	-186	1.0.0.18	1	1094497282	Standard	2.0.10.353	2.0.10.353	08-22-2016	8/22/2016 4:04:40 PM	12:04:40	2.0.10.248	35	Bar50-50.bmp	49	1	?	12r_4g.bmp	0r_4g.bmp	3r_2g.bmp	0r_2g.bmp	12r_4g.bmp				TrialProc	TrialList	0	cvbn	-999999	17	147665	0	c	661	148326	116	-121	-5	-4	-6	3	2	5	4	35	-12	0	-3	0	4	4	2	2	-12	4
Hungry_Donkey_bar_English_2	162	1	<?xml version="1.0"?>\n<Clock xmlns:dt="urn:schemas-microsoft-com:datatypes"><Description dt:dt="string">E-Prime Primary Realtime Clock</Description><StartTime><Timestamp dt:dt="int">0</Timestamp><DateUtc dt:dt="string">2016-08-22T16:04:40Z</DateUtc></StartTime><FrequencyChanges><FrequencyChange><Frequency dt:dt="r8">3507685</Frequency><Timestamp dt:dt="r8">1139260167554</Timestamp><Current dt:dt="r8">0</Current><DateUtc dt:dt="string">2016-08-22T16:04:40Z</DateUtc></FrequencyChange></FrequencyChanges></Clock>\n	Hungry_Donkey_bar_English_2-162-1	60.017	-186	1.0.0.18	1	1094497282	Standard	2.0.10.353	2.0.10.353	08-22-2016	8/22/2016 4:04:40 PM	12:04:40	2.0.10.248	36	Bar50-50.bmp	50	2	?	0r_4g.bmp	0r_4g.bmp	0r_2g.bmp	0r_2g.bmp		0r_4g.bmp			TrialProc	TrialList	0	cvbn	-999999	16	150364	0	v	794	151158	120	-121	-1	-4	-2	3	2	9	4	36	0	0	0	0	4	4	2	2	0	4
Hungry_Donkey_bar_English_2	162	1	<?xml version="1.0"?>\n<Clock xmlns:dt="urn:schemas-microsoft-com:datatypes"><Description dt:dt="string">E-Prime Primary Realtime Clock</Description><StartTime><Timestamp dt:dt="int">0</Timestamp><DateUtc dt:dt="string">2016-08-22T16:04:40Z</DateUtc></StartTime><FrequencyChanges><FrequencyChange><Frequency dt:dt="r8">3507685</Frequency><Timestamp dt:dt="r8">1139260167554</Timestamp><Current dt:dt="r8">0</Current><DateUtc dt:dt="string">2016-08-22T16:04:40Z</DateUtc></FrequencyChange></FrequencyChanges></Clock>\n	Hungry_Donkey_bar_English_2-162-1	60.017	-186	1.0.0.18	1	1094497282	Standard	2.0.10.353	2.0.10.353	08-22-2016	8/22/2016 4:04:40 PM	12:04:40	2.0.10.248	37	Bar50-50.bmp	51	2	?	0r_4g.bmp	0r_4g.bmp	0r_2g.bmp	0r_2g.bmp		0r_4g.bmp			TrialProc	TrialList	0	cvbn	-999999	16	153196	0	v	826	154022	124	-121	3	-4	2	3	2	10	4	37	0	0	0	0	4	4	2	2	0	4
Hungry_Donkey_bar_English_2	162	1	<?xml version="1.0"?>\n<Clock xmlns:dt="urn:schemas-microsoft-com:datatypes"><Description dt:dt="string">E-Prime Primary Realtime Clock</Description><StartTime><Timestamp dt:dt="int">0</Timestamp><DateUtc dt:dt="string">2016-08-22T16:04:40Z</DateUtc></StartTime><FrequencyChanges><FrequencyChange><Frequency dt:dt="r8">3507685</Frequency><Timestamp dt:dt="r8">1139260167554</Timestamp><Current dt:dt="r8">0</Current><DateUtc dt:dt="string">2016-08-22T16:04:40Z</DateUtc></FrequencyChange></FrequencyChanges></Clock>\n	Hungry_Donkey_bar_English_2-162-1	60.017	-186	1.0.0.18	1	1094497282	Standard	2.0.10.353	2.0.10.353	08-22-2016	8/22/2016 4:04:40 PM	12:04:40	2.0.10.248	38	Bar50-50.bmp	51	3	?	0r_4g.bmp	0r_4g.bmp	0r_2g.bmp	0r_2g.bmp			0r_2g.bmp		TrialProc	TrialList	0	cvbn	-999999	16	156045	0	b	569	156614	126	-121	5	-4	2	5	2	7	4	38	0	0	0	0	4	4	2	2	0	2
Hungry_Donkey_bar_English_2	162	1	<?xml version="1.0"?>\n<Clock xmlns:dt="urn:schemas-microsoft-com:datatypes"><Description dt:dt="string">E-Prime Primary Realtime Clock</Description><StartTime><Timestamp dt:dt="int">0</Timestamp><DateUtc dt:dt="string">2016-08-22T16:04:40Z</DateUtc></StartTime><FrequencyChanges><FrequencyChange><Frequency dt:dt="r8">3507685</Frequency><Timestamp dt:dt="r8">1139260167554</Timestamp><Current dt:dt="r8">0</Current><DateUtc dt:dt="string">2016-08-22T16:04:40Z</DateUtc></FrequencyChange></FrequencyChanges></Clock>\n	Hungry_Donkey_bar_English_2-162-1	60.017	-186	1.0.0.18	1	1094497282	Standard	2.0.10.353	2.0.10.353	08-22-2016	8/22/2016 4:04:40 PM	12:04:40	2.0.10.248	39	Bar50-50.bmp	51	4	?	0r_4g.bmp	0r_4g.bmp	0r_2g.bmp	0r_2g.bmp				0r_2g.bmp	TrialProc	TrialList	0	cvbn	-999999	16	158645	0	n	449	159094	128	-121	7	-4	2	5	4	6	4	39	0	0	0	0	4	4	2	2	0	2
Hungry_Donkey_bar_English_2	162	1	<?xml version="1.0"?>\n<Clock xmlns:dt="urn:schemas-microsoft-com:datatypes"><Description dt:dt="string">E-Prime Primary Realtime Clock</Description><StartTime><Timestamp dt:dt="int">0</Timestamp><DateUtc dt:dt="string">2016-08-22T16:04:40Z</DateUtc></StartTime><FrequencyChanges><FrequencyChange><Frequency dt:dt="r8">3507685</Frequency><Timestamp dt:dt="r8">1139260167554</Timestamp><Current dt:dt="r8">0</Current><DateUtc dt:dt="string">2016-08-22T16:04:40Z</DateUtc></FrequencyChange></FrequencyChanges></Clock>\n	Hungry_Donkey_bar_English_2-162-1	60.017	-186	1.0.0.18	1	1094497282	Standard	2.0.10.353	2.0.10.353	08-22-2016	8/22/2016 4:04:40 PM	12:04:40	2.0.10.248	40	Bar50-50.bmp	52	3	?	8r_4g.bmp	50r_4g.bmp	1r_2g.bmp	10r_2g.bmp			1r_2g.bmp		TrialProc	TrialList	0	cvbn	-999999	16	161127	0	b	478	161605	130	-122	8	-4	2	6	4	1	4	40	-8	-50	-1	-10	4	4	2	2	-1	2
Hungry_Donkey_bar_English_2	162	1	<?xml version="1.0"?>\n<Clock xmlns:dt="urn:schemas-microsoft-com:datatypes"><Description dt:dt="string">E-Prime Primary Realtime Clock</Description><StartTime><Timestamp dt:dt="int">0</Timestamp><DateUtc dt:dt="string">2016-08-22T16:04:40Z</DateUtc></StartTime><FrequencyChanges><FrequencyChange><Frequency dt:dt="r8">3507685</Frequency><Timestamp dt:dt="r8">1139260167554</Timestamp><Current dt:dt="r8">0</Current><DateUtc dt:dt="string">2016-08-22T16:04:40Z</DateUtc></FrequencyChange></FrequencyChanges></Clock>\n	Hungry_Donkey_bar_English_2-162-1	60.017	-186	1.0.0.18	1	1094497282	Standard	2.0.10.353	2.0.10.353	08-22-2016	8/22/2016 4:04:40 PM	12:04:40	2.0.10.248	41	Bar50-50.bmp	50	1	?	12r_4g.bmp	0r_4g.bmp	3r_2g.bmp	0r_2g.bmp	12r_4g.bmp				TrialProc	TrialList	0	cvbn	-999999	16	163643	0	c	938	164581	134	-134	0	-12	2	6	4	5	5	41	-12	0	-3	0	4	4	2	2	-12	4
Hungry_Donkey_bar_English_2	162	1	<?xml version="1.0"?>\n<Clock xmlns:dt="urn:schemas-microsoft-com:datatypes"><Description dt:dt="string">E-Prime Primary Realtime Clock</Description><StartTime><Timestamp dt:dt="int">0</Timestamp><DateUtc dt:dt="string">2016-08-22T16:04:40Z</DateUtc></StartTime><FrequencyChanges><FrequencyChange><Frequency dt:dt="r8">3507685</Frequency><Timestamp dt:dt="r8">1139260167554</Timestamp><Current dt:dt="r8">0</Current><DateUtc dt:dt="string">2016-08-22T16:04:40Z</DateUtc></FrequencyChange></FrequencyChanges></Clock>\n	Hungry_Donkey_bar_English_2-162-1	60.017	-186	1.0.0.18	1	1094497282	Standard	2.0.10.353	2.0.10.353	08-22-2016	8/22/2016 4:04:40 PM	12:04:40	2.0.10.248	42	Bar37-63.bmp	43	2	?	8r_4g.bmp	50r_4g.bmp	1r_2g.bmp	10r_2g.bmp		50r_4g.bmp			TrialProc	TrialList	0	cvbn	-999999	16	166609	0	v	708	167317	138	-184	-46	-12	-44	6	4	1	5	42	-8	-50	-1	-10	4	4	2	2	-50	4
Hungry_Donkey_bar_English_2	162	1	<?xml version="1.0"?>\n<Clock xmlns:dt="urn:schemas-microsoft-com:datatypes"><Description dt:dt="string">E-Prime Primary Realtime Clock</Description><StartTime><Timestamp dt:dt="int">0</Timestamp><DateUtc dt:dt="string">2016-08-22T16:04:40Z</DateUtc></StartTime><FrequencyChanges><FrequencyChange><Frequency dt:dt="r8">3507685</Frequency><Timestamp dt:dt="r8">1139260167554</Timestamp><Current dt:dt="r8">0</Current><DateUtc dt:dt="string">2016-08-22T16:04:40Z</DateUtc></FrequencyChange></FrequencyChanges></Clock>\n	Hungry_Donkey_bar_English_2-162-1	60.017	-186	1.0.0.18	1	1094497282	Standard	2.0.10.353	2.0.10.353	08-22-2016	8/22/2016 4:04:40 PM	12:04:40	2.0.10.248	43	Bar50-50.bmp	44	2	?	0r_4g.bmp	0r_4g.bmp	0r_2g.bmp	0r_2g.bmp		0r_4g.bmp			TrialProc	TrialList	0	cvbn	-999999	16	169358	0	v	791	170149	142	-184	-42	-12	-40	6	4	10	5	43	0	0	0	0	4	4	2	2	0	4
Hungry_Donkey_bar_English_2	162	1	<?xml version="1.0"?>\n<Clock xmlns:dt="urn:schemas-microsoft-com:datatypes"><Description dt:dt="string">E-Prime Primary Realtime Clock</Description><StartTime><Timestamp dt:dt="int">0</Timestamp><DateUtc dt:dt="string">2016-08-22T16:04:40Z</DateUtc></StartTime><FrequencyChanges><FrequencyChange><Frequency dt:dt="r8">3507685</Frequency><Timestamp dt:dt="r8">1139260167554</Timestamp><Current dt:dt="r8">0</Current><DateUtc dt:dt="string">2016-08-22T16:04:40Z</DateUtc></FrequencyChange></FrequencyChanges></Clock>\n	Hungry_Donkey_bar_English_2-162-1	60.017	-186	1.0.0.18	1	1094497282	Standard	2.0.10.353	2.0.10.353	08-22-2016	8/22/2016 4:04:40 PM	12:04:40	2.0.10.248	44	Bar50-50.bmp	44	2	?	10r_4g.bmp	0r_4g.bmp	2r_2g.bmp	0r_2g.bmp		0r_4g.bmp			TrialProc	TrialList	0	cvbn	-999999	16	172174	0	v	743	172917	146	-184	-38	-12	-36	6	4	4	5	44	-10	0	-2	0	4	4	2	2	0	4
Hungry_Donkey_bar_English_2	162	1	<?xml version="1.0"?>\n<Clock xmlns:dt="urn:schemas-microsoft-com:datatypes"><Description dt:dt="string">E-Prime Primary Realtime Clock</Description><StartTime><Timestamp dt:dt="int">0</Timestamp><DateUtc dt:dt="string">2016-08-22T16:04:40Z</DateUtc></StartTime><FrequencyChanges><FrequencyChange><Frequency dt:dt="r8">3507685</Frequency><Timestamp dt:dt="r8">1139260167554</Timestamp><Current dt:dt="r8">0</Current><DateUtc dt:dt="string">2016-08-22T16:04:40Z</DateUtc></FrequencyChange></FrequencyChanges></Clock>\n	Hungry_Donkey_bar_English_2-162-1	60.017	-186	1.0.0.18	1	1094497282	Standard	2.0.10.353	2.0.10.353	08-22-2016	8/22/2016 4:04:40 PM	12:04:40	2.0.10.248	45	Bar50-50.bmp	45	2	?	10r_4g.bmp	0r_4g.bmp	2r_2g.bmp	0r_2g.bmp		0r_4g.bmp			TrialProc	TrialList	0	cvbn	-999999	16	174940	0	v	457	175397	150	-184	-34	-12	-32	6	4	3	5	45	-10	0	-2	0	4	4	2	2	0	4
Hungry_Donkey_bar_English_2	162	1	<?xml version="1.0"?>\n<Clock xmlns:dt="urn:schemas-microsoft-com:datatypes"><Description dt:dt="string">E-Prime Primary Realtime Clock</Description><StartTime><Timestamp dt:dt="int">0</Timestamp><DateUtc dt:dt="string">2016-08-22T16:04:40Z</DateUtc></StartTime><FrequencyChanges><FrequencyChange><Frequency dt:dt="r8">3507685</Frequency><Timestamp dt:dt="r8">1139260167554</Timestamp><Current dt:dt="r8">0</Current><DateUtc dt:dt="string">2016-08-22T16:04:40Z</DateUtc></FrequencyChange></FrequencyChanges></Clock>\n	Hungry_Donkey_bar_English_2-162-1	60.017	-186	1.0.0.18	1	1094497282	Standard	2.0.10.353	2.0.10.353	08-22-2016	8/22/2016 4:04:40 PM	12:04:40	2.0.10.248	46	Bar50-50.bmp	46	2	?	0r_4g.bmp	0r_4g.bmp	0r_2g.bmp	0r_2g.bmp		0r_4g.bmp			TrialProc	TrialList	0	cvbn	-999999	16	177423	0	v	502	177925	154	-184	-30	-12	-28	6	4	7	5	46	0	0	0	0	4	4	2	2	0	4
Hungry_Donkey_bar_English_2	162	1	<?xml version="1.0"?>\n<Clock xmlns:dt="urn:schemas-microsoft-com:datatypes"><Description dt:dt="string">E-Prime Primary Realtime Clock</Description><StartTime><Timestamp dt:dt="int">0</Timestamp><DateUtc dt:dt="string">2016-08-22T16:04:40Z</DateUtc></StartTime><FrequencyChanges><FrequencyChange><Frequency dt:dt="r8">3507685</Frequency><Timestamp dt:dt="r8">1139260167554</Timestamp><Current dt:dt="r8">0</Current><DateUtc dt:dt="string">2016-08-22T16:04:40Z</DateUtc></FrequencyChange></FrequencyChanges></Clock>\n	Hungry_Donkey_bar_English_2-162-1	60.017	-186	1.0.0.18	1	1094497282	Standard	2.0.10.353	2.0.10.353	08-22-2016	8/22/2016 4:04:40 PM	12:04:40	2.0.10.248	47	Bar50-50.bmp	46	2	?	0r_4g.bmp	0r_4g.bmp	0r_2g.bmp	0r_2g.bmp		0r_4g.bmp			TrialProc	TrialList	0	cvbn	-999999	16	179955	0	v	433	180388	158	-184	-26	-12	-24	6	4	9	5	47	0	0	0	0	4	4	2	2	0	4
Hungry_Donkey_bar_English_2	162	1	<?xml version="1.0"?>\n<Clock xmlns:dt="urn:schemas-microsoft-com:datatypes"><Description dt:dt="string">E-Prime Primary Realtime Clock</Description><StartTime><Timestamp dt:dt="int">0</Timestamp><DateUtc dt:dt="string">2016-08-22T16:04:40Z</DateUtc></StartTime><FrequencyChanges><FrequencyChange><Frequency dt:dt="r8">3507685</Frequency><Timestamp dt:dt="r8">1139260167554</Timestamp><Current dt:dt="r8">0</Current><DateUtc dt:dt="string">2016-08-22T16:04:40Z</DateUtc></FrequencyChange></FrequencyChanges></Clock>\n	Hungry_Donkey_bar_English_2-162-1	60.017	-186	1.0.0.18	1	1094497282	Standard	2.0.10.353	2.0.10.353	08-22-2016	8/22/2016 4:04:40 PM	12:04:40	2.0.10.248	48	Bar50-50.bmp	47	2	?	10r_4g.bmp	0r_4g.bmp	2r_2g.bmp	0r_2g.bmp		0r_4g.bmp			TrialProc	TrialList	0	cvbn	-999999	16	182421	0	v	415	182836	162	-184	-22	-12	-20	6	4	2	5	48	-10	0	-2	0	4	4	2	2	0	4
Hungry_Donkey_bar_English_2	162	1	<?xml version="1.0"?>\n<Clock xmlns:dt="urn:schemas-microsoft-com:datatypes"><Description dt:dt="string">E-Prime Primary Realtime Clock</Description><StartTime><Timestamp dt:dt="int">0</Timestamp><DateUtc dt:dt="string">2016-08-22T16:04:40Z</DateUtc></StartTime><FrequencyChanges><FrequencyChange><Frequency dt:dt="r8">3507685</Frequency><Timestamp dt:dt="r8">1139260167554</Timestamp><Current dt:dt="r8">0</Current><DateUtc dt:dt="string">2016-08-22T16:04:40Z</DateUtc></FrequencyChange></FrequencyChanges></Clock>\n	Hungry_Donkey_bar_English_2-162-1	60.017	-186	1.0.0.18	1	1094497282	Standard	2.0.10.353	2.0.10.353	08-22-2016	8/22/2016 4:04:40 PM	12:04:40	2.0.10.248	49	Bar50-50.bmp	47	2	?	0r_4g.bmp	0r_4g.bmp	0r_2g.bmp	0r_2g.bmp		0r_4g.bmp			TrialProc	TrialList	0	cvbn	-999999	16	184870	0	v	590	185460	166	-184	-18	-12	-16	6	4	6	5	49	0	0	0	0	4	4	2	2	0	4
Hungry_Donkey_bar_English_2	162	1	<?xml version="1.0"?>\n<Clock xmlns:dt="urn:schemas-microsoft-com:datatypes"><Description dt:dt="string">E-Prime Primary Realtime Clock</Description><StartTime><Timestamp dt:dt="int">0</Timestamp><DateUtc dt:dt="string">2016-08-22T16:04:40Z</DateUtc></StartTime><FrequencyChanges><FrequencyChange><Frequency dt:dt="r8">3507685</Frequency><Timestamp dt:dt="r8">1139260167554</Timestamp><Current dt:dt="r8">0</Current><DateUtc dt:dt="string">2016-08-22T16:04:40Z</DateUtc></FrequencyChange></FrequencyChanges></Clock>\n	Hungry_Donkey_bar_English_2-162-1	60.017	-186	1.0.0.18	1	1094497282	Standard	2.0.10.353	2.0.10.353	08-22-2016	8/22/2016 4:04:40 PM	12:04:40	2.0.10.248	50	Bar50-50.bmp	48	2	?	0r_4g.bmp	0r_4g.bmp	0r_2g.bmp	0r_2g.bmp		0r_4g.bmp			TrialProc	TrialList	0	cvbn	-999999	16	187486	0	v	422	187908	170	-184	-14	-12	-12	6	4	8	5	50	0	0	0	0	4	4	2	2	0	4
Hungry_Donkey_bar_English_2	162	1	<?xml version="1.0"?>\n<Clock xmlns:dt="urn:schemas-microsoft-com:datatypes"><Description dt:dt="string">E-Prime Primary Realtime Clock</Description><StartTime><Timestamp dt:dt="int">0</Timestamp><DateUtc dt:dt="string">2016-08-22T16:04:40Z</DateUtc></StartTime><FrequencyChanges><FrequencyChange><Frequency dt:dt="r8">3507685</Frequency><Timestamp dt:dt="r8">1139260167554</Timestamp><Current dt:dt="r8">0</Current><DateUtc dt:dt="string">2016-08-22T16:04:40Z</DateUtc></FrequencyChange></FrequencyChanges></Clock>\n	Hungry_Donkey_bar_English_2-162-1	60.017	-186	1.0.0.18	1	1094497282	Standard	2.0.10.353	2.0.10.353	08-22-2016	8/22/2016 4:04:40 PM	12:04:40	2.0.10.248	51	Bar50-50.bmp	49	2	?	0r_4g.bmp	0r_4g.bmp	0r_2g.bmp	0r_2g.bmp		0r_4g.bmp			TrialProc	TrialList	0	cvbn	-999999	16	189936	0	v	452	190388	174	-184	-10	-12	-8	6	4	7	6	51	0	0	0	0	4	4	2	2	0	4
Hungry_Donkey_bar_English_2	162	1	<?xml version="1.0"?>\n<Clock xmlns:dt="urn:schemas-microsoft-com:datatypes"><Description dt:dt="string">E-Prime Primary Realtime Clock</Description><StartTime><Timestamp dt:dt="int">0</Timestamp><DateUtc dt:dt="string">2016-08-22T16:04:40Z</DateUtc></StartTime><FrequencyChanges><FrequencyChange><Frequency dt:dt="r8">3507685</Frequency><Timestamp dt:dt="r8">1139260167554</Timestamp><Current dt:dt="r8">0</Current><DateUtc dt:dt="string">2016-08-22T16:04:40Z</DateUtc></FrequencyChange></FrequencyChanges></Clock>\n	Hungry_Donkey_bar_English_2-162-1	60.017	-186	1.0.0.18	1	1094497282	Standard	2.0.10.353	2.0.10.353	08-22-2016	8/22/2016 4:04:40 PM	12:04:40	2.0.10.248	52	Bar50-50.bmp	49	2	?	12r_4g.bmp	0r_4g.bmp	3r_2g.bmp	0r_2g.bmp		0r_4g.bmp			TrialProc	TrialList	0	cvbn	-999999	16	192418	0	v	530	192948	178	-184	-6	-12	-4	6	4	5	6	52	-12	0	-3	0	4	4	2	2	0	4
Hungry_Donkey_bar_English_2	162	1	<?xml version="1.0"?>\n<Clock xmlns:dt="urn:schemas-microsoft-com:datatypes"><Description dt:dt="string">E-Prime Primary Realtime Clock</Description><StartTime><Timestamp dt:dt="int">0</Timestamp><DateUtc dt:dt="string">2016-08-22T16:04:40Z</DateUtc></StartTime><FrequencyChanges><FrequencyChange><Frequency dt:dt="r8">3507685</Frequency><Timestamp dt:dt="r8">1139260167554</Timestamp><Current dt:dt="r8">0</Current><DateUtc dt:dt="string">2016-08-22T16:04:40Z</DateUtc></FrequencyChange></FrequencyChanges></Clock>\n	Hungry_Donkey_bar_English_2-162-1	60.017	-186	1.0.0.18	1	1094497282	Standard	2.0.10.353	2.0.10.353	08-22-2016	8/22/2016 4:04:40 PM	12:04:40	2.0.10.248	53	Bar50-50.bmp	50	2	?	10r_4g.bmp	0r_4g.bmp	2r_2g.bmp	0r_2g.bmp		0r_4g.bmp			TrialProc	TrialList	0	cvbn	-999999	16	194984	0	v	796	195780	182	-184	-2	-12	0	6	4	3	6	53	-10	0	-2	0	4	4	2	2	0	4
Hungry_Donkey_bar_English_2	162	1	<?xml version="1.0"?>\n<Clock xmlns:dt="urn:schemas-microsoft-com:datatypes"><Description dt:dt="string">E-Prime Primary Realtime Clock</Description><StartTime><Timestamp dt:dt="int">0</Timestamp><DateUtc dt:dt="string">2016-08-22T16:04:40Z</DateUtc></StartTime><FrequencyChanges><FrequencyChange><Frequency dt:dt="r8">3507685</Frequency><Timestamp dt:dt="r8">1139260167554</Timestamp><Current dt:dt="r8">0</Current><DateUtc dt:dt="string">2016-08-22T16:04:40Z</DateUtc></FrequencyChange></FrequencyChanges></Clock>\n	Hungry_Donkey_bar_English_2-162-1	60.017	-186	1.0.0.18	1	1094497282	Standard	2.0.10.353	2.0.10.353	08-22-2016	8/22/2016 4:04:40 PM	12:04:40	2.0.10.248	54	Bar50-50.bmp	49	1	?	10r_4g.bmp	0r_4g.bmp	2r_2g.bmp	0r_2g.bmp	10r_4g.bmp				TrialProc	TrialList	0	cvbn	-999999	16	197817	0	c	587	198404	186	-194	-8	-18	0	6	4	4	6	54	-10	0	-2	0	4	4	2	2	-10	4
Hungry_Donkey_bar_English_2	162	1	<?xml version="1.0"?>\n<Clock xmlns:dt="urn:schemas-microsoft-com:datatypes"><Description dt:dt="string">E-Prime Primary Realtime Clock</Description><StartTime><Timestamp dt:dt="int">0</Timestamp><DateUtc dt:dt="string">2016-08-22T16:04:40Z</DateUtc></StartTime><FrequencyChanges><FrequencyChange><Frequency dt:dt="r8">3507685</Frequency><Timestamp dt:dt="r8">1139260167554</Timestamp><Current dt:dt="r8">0</Current><DateUtc dt:dt="string">2016-08-22T16:04:40Z</DateUtc></FrequencyChange></FrequencyChanges></Clock>\n	Hungry_Donkey_bar_English_2-162-1	60.017	-186	1.0.0.18	1	1094497282	Standard	2.0.10.353	2.0.10.353	08-22-2016	8/22/2016 4:04:40 PM	12:04:40	2.0.10.248	55	Bar50-50.bmp	49	2	?	0r_4g.bmp	0r_4g.bmp	0r_2g.bmp	0r_2g.bmp		0r_4g.bmp			TrialProc	TrialList	0	cvbn	-999999	16	200433	0	v	658	201091	190	-194	-4	-18	4	6	4	10	6	55	0	0	0	0	4	4	2	2	0	4
Hungry_Donkey_bar_English_2	162	1	<?xml version="1.0"?>\n<Clock xmlns:dt="urn:schemas-microsoft-com:datatypes"><Description dt:dt="string">E-Prime Primary Realtime Clock</Description><StartTime><Timestamp dt:dt="int">0</Timestamp><DateUtc dt:dt="string">2016-08-22T16:04:40Z</DateUtc></StartTime><FrequencyChanges><FrequencyChange><Frequency dt:dt="r8">3507685</Frequency><Timestamp dt:dt="r8">1139260167554</Timestamp><Current dt:dt="r8">0</Current><DateUtc dt:dt="string">2016-08-22T16:04:40Z</DateUtc></FrequencyChange></FrequencyChanges></Clock>\n	Hungry_Donkey_bar_English_2-162-1	60.017	-186	1.0.0.18	1	1094497282	Standard	2.0.10.353	2.0.10.353	08-22-2016	8/22/2016 4:04:40 PM	12:04:40	2.0.10.248	56	Bar50-50.bmp	50	3	?	8r_4g.bmp	50r_4g.bmp	1r_2g.bmp	10r_2g.bmp			1r_2g.bmp		TrialProc	TrialList	0	cvbn	-999999	16	203115	0	b	408	203523	192	-195	-3	-18	4	7	4	1	6	56	-8	-50	-1	-10	4	4	2	2	-1	2
Hungry_Donkey_bar_English_2	162	1	<?xml version="1.0"?>\n<Clock xmlns:dt="urn:schemas-microsoft-com:datatypes"><Description dt:dt="string">E-Prime Primary Realtime Clock</Description><StartTime><Timestamp dt:dt="int">0</Timestamp><DateUtc dt:dt="string">2016-08-22T16:04:40Z</DateUtc></StartTime><FrequencyChanges><FrequencyChange><Frequency dt:dt="r8">3507685</Frequency><Timestamp dt:dt="r8">1139260167554</Timestamp><Current dt:dt="r8">0</Current><DateUtc dt:dt="string">2016-08-22T16:04:40Z</DateUtc></FrequencyChange></FrequencyChanges></Clock>\n	Hungry_Donkey_bar_English_2-162-1	60.017	-186	1.0.0.18	1	1094497282	Standard	2.0.10.353	2.0.10.353	08-22-2016	8/22/2016 4:04:40 PM	12:04:40	2.0.10.248	57	Bar50-50.bmp	50	4	?	10r_4g.bmp	0r_4g.bmp	2r_2g.bmp	0r_2g.bmp				0r_2g.bmp	TrialProc	TrialList	0	cvbn	-999999	16	205548	0	n	455	206003	194	-195	-1	-18	4	7	6	2	6	57	-10	0	-2	0	4	4	2	2	0	2
Hungry_Donkey_bar_English_2	162	1	<?xml version="1.0"?>\n<Clock xmlns:dt="urn:schemas-microsoft-com:datatypes"><Description dt:dt="string">E-Prime Primary Realtime Clock</Description><StartTime><Timestamp dt:dt="int">0</Timestamp><DateUtc dt:dt="string">2016-08-22T16:04:40Z</DateUtc></StartTime><FrequencyChanges><FrequencyChange><Frequency dt:dt="r8">3507685</Frequency><Timestamp dt:dt="r8">1139260167554</Timestamp><Current dt:dt="r8">0</Current><DateUtc dt:dt="string">2016-08-22T16:04:40Z</DateUtc></FrequencyChange></FrequencyChanges></Clock>\n	Hungry_Donkey_bar_English_2-162-1	60.017	-186	1.0.0.18	1	1094497282	Standard	2.0.10.353	2.0.10.353	08-22-2016	8/22/2016 4:04:40 PM	12:04:40	2.0.10.248	58	Bar50-50.bmp	50	1	?	0r_4g.bmp	0r_4g.bmp	0r_2g.bmp	0r_2g.bmp	0r_4g.bmp				TrialProc	TrialList	0	cvbn	-999999	16	208030	0	c	757	208787	198	-195	3	-14	4	7	6	6	6	58	0	0	0	0	4	4	2	2	0	4
Hungry_Donkey_bar_English_2	162	1	<?xml version="1.0"?>\n<Clock xmlns:dt="urn:schemas-microsoft-com:datatypes"><Description dt:dt="string">E-Prime Primary Realtime Clock</Description><StartTime><Timestamp dt:dt="int">0</Timestamp><DateUtc dt:dt="string">2016-08-22T16:04:40Z</DateUtc></StartTime><FrequencyChanges><FrequencyChange><Frequency dt:dt="r8">3507685</Frequency><Timestamp dt:dt="r8">1139260167554</Timestamp><Current dt:dt="r8">0</Current><DateUtc dt:dt="string">2016-08-22T16:04:40Z</DateUtc></FrequencyChange></FrequencyChanges></Clock>\n	Hungry_Donkey_bar_English_2-162-1	60.017	-186	1.0.0.18	1	1094497282	Standard	2.0.10.353	2.0.10.353	08-22-2016	8/22/2016 4:04:40 PM	12:04:40	2.0.10.248	59	Bar50-50.bmp	51	2	?	0r_4g.bmp	0r_4g.bmp	0r_2g.bmp	0r_2g.bmp		0r_4g.bmp			TrialProc	TrialList	0	cvbn	-999999	16	210813	0	v	870	211683	202	-195	7	-14	8	7	6	9	6	59	0	0	0	0	4	4	2	2	0	4
Hungry_Donkey_bar_English_2	162	1	<?xml version="1.0"?>\n<Clock xmlns:dt="urn:schemas-microsoft-com:datatypes"><Description dt:dt="string">E-Prime Primary Realtime Clock</Description><StartTime><Timestamp dt:dt="int">0</Timestamp><DateUtc dt:dt="string">2016-08-22T16:04:40Z</DateUtc></StartTime><FrequencyChanges><FrequencyChange><Frequency dt:dt="r8">3507685</Frequency><Timestamp dt:dt="r8">1139260167554</Timestamp><Current dt:dt="r8">0</Current><DateUtc dt:dt="string">2016-08-22T16:04:40Z</DateUtc></FrequencyChange></FrequencyChanges></Clock>\n	Hungry_Donkey_bar_English_2-162-1	60.017	-186	1.0.0.18	1	1094497282	Standard	2.0.10.353	2.0.10.353	08-22-2016	8/22/2016 4:04:40 PM	12:04:40	2.0.10.248	60	Bar50-50.bmp	51	2	?	0r_4g.bmp	0r_4g.bmp	0r_2g.bmp	0r_2g.bmp		0r_4g.bmp			TrialProc	TrialList	0	cvbn	-999999	16	213712	0	v	371	214083	206	-195	11	-14	12	7	6	8	6	60	0	0	0	0	4	4	2	2	0	4
Hungry_Donkey_bar_English_2	162	1	<?xml version="1.0"?>\n<Clock xmlns:dt="urn:schemas-microsoft-com:datatypes"><Description dt:dt="string">E-Prime Primary Realtime Clock</Description><StartTime><Timestamp dt:dt="int">0</Timestamp><DateUtc dt:dt="string">2016-08-22T16:04:40Z</DateUtc></StartTime><FrequencyChanges><FrequencyChange><Frequency dt:dt="r8">3507685</Frequency><Timestamp dt:dt="r8">1139260167554</Timestamp><Current dt:dt="r8">0</Current><DateUtc dt:dt="string">2016-08-22T16:04:40Z</DateUtc></FrequencyChange></FrequencyChanges></Clock>\n	Hungry_Donkey_bar_English_2-162-1	60.017	-186	1.0.0.18	1	1094497282	Standard	2.0.10.353	2.0.10.353	08-22-2016	8/22/2016 4:04:40 PM	12:04:40	2.0.10.248	61	Bar50-50.bmp	52	2	?	0r_4g.bmp	0r_4g.bmp	0r_2g.bmp	0r_2g.bmp		0r_4g.bmp			TrialProc	TrialList	0	cvbn	-999999	16	216111	0	v	596	216707	210	-195	15	-14	16	7	6	10	7	61	0	0	0	0	4	4	2	2	0	4
Hungry_Donkey_bar_English_2	162	1	<?xml version="1.0"?>\n<Clock xmlns:dt="urn:schemas-microsoft-com:datatypes"><Description dt:dt="string">E-Prime Primary Realtime Clock</Description><StartTime><Timestamp dt:dt="int">0</Timestamp><DateUtc dt:dt="string">2016-08-22T16:04:40Z</DateUtc></StartTime><FrequencyChanges><FrequencyChange><Frequency dt:dt="r8">3507685</Frequency><Timestamp dt:dt="r8">1139260167554</Timestamp><Current dt:dt="r8">0</Current><DateUtc dt:dt="string">2016-08-22T16:04:40Z</DateUtc></FrequencyChange></FrequencyChanges></Clock>\n	Hungry_Donkey_bar_English_2-162-1	60.017	-186	1.0.0.18	1	1094497282	Standard	2.0.10.353	2.0.10.353	08-22-2016	8/22/2016 4:04:40 PM	12:04:40	2.0.10.248	62	Bar50-50.bmp	52	2	?	10r_4g.bmp	0r_4g.bmp	2r_2g.bmp	0r_2g.bmp		0r_4g.bmp			TrialProc	TrialList	0	cvbn	-999999	16	218744	0	v	395	219139	214	-195	19	-14	20	7	6	2	7	62	-10	0	-2	0	4	4	2	2	0	4
Hungry_Donkey_bar_English_2	162	1	<?xml version="1.0"?>\n<Clock xmlns:dt="urn:schemas-microsoft-com:datatypes"><Description dt:dt="string">E-Prime Primary Realtime Clock</Description><StartTime><Timestamp dt:dt="int">0</Timestamp><DateUtc dt:dt="string">2016-08-22T16:04:40Z</DateUtc></StartTime><FrequencyChanges><FrequencyChange><Frequency dt:dt="r8">3507685</Frequency><Timestamp dt:dt="r8">1139260167554</Timestamp><Current dt:dt="r8">0</Current><DateUtc dt:dt="string">2016-08-22T16:04:40Z</DateUtc></FrequencyChange></FrequencyChanges></Clock>\n	Hungry_Donkey_bar_English_2-162-1	60.017	-186	1.0.0.18	1	1094497282	Standard	2.0.10.353	2.0.10.353	08-22-2016	8/22/2016 4:04:40 PM	12:04:40	2.0.10.248	63	Bar50-50.bmp	53	2	?	0r_4g.bmp	0r_4g.bmp	0r_2g.bmp	0r_2g.bmp		0r_4g.bmp			TrialProc	TrialList	0	cvbn	-999999	16	221177	0	v	425	221602	218	-195	23	-14	24	7	6	7	7	63	0	0	0	0	4	4	2	2	0	4
Hungry_Donkey_bar_English_2	162	1	<?xml version="1.0"?>\n<Clock xmlns:dt="urn:schemas-microsoft-com:datatypes"><Description dt:dt="string">E-Prime Primary Realtime Clock</Description><StartTime><Timestamp dt:dt="int">0</Timestamp><DateUtc dt:dt="string">2016-08-22T16:04:40Z</DateUtc></StartTime><FrequencyChanges><FrequencyChange><Frequency dt:dt="r8">3507685</Frequency><Timestamp dt:dt="r8">1139260167554</Timestamp><Current dt:dt="r8">0</Current><DateUtc dt:dt="string">2016-08-22T16:04:40Z</DateUtc></FrequencyChange></FrequencyChanges></Clock>\n	Hungry_Donkey_bar_English_2-162-1	60.017	-186	1.0.0.18	1	1094497282	Standard	2.0.10.353	2.0.10.353	08-22-2016	8/22/2016 4:04:40 PM	12:04:40	2.0.10.248	64	Bar50-50.bmp	53	2	?	0r_4g.bmp	0r_4g.bmp	0r_2g.bmp	0r_2g.bmp		0r_4g.bmp			TrialProc	TrialList	0	cvbn	-999999	16	223643	0	v	1079	224722	222	-195	27	-14	28	7	6	6	7	64	0	0	0	0	4	4	2	2	0	4
Hungry_Donkey_bar_English_2	162	1	<?xml version="1.0"?>\n<Clock xmlns:dt="urn:schemas-microsoft-com:datatypes"><Description dt:dt="string">E-Prime Primary Realtime Clock</Description><StartTime><Timestamp dt:dt="int">0</Timestamp><DateUtc dt:dt="string">2016-08-22T16:04:40Z</DateUtc></StartTime><FrequencyChanges><FrequencyChange><Frequency dt:dt="r8">3507685</Frequency><Timestamp dt:dt="r8">1139260167554</Timestamp><Current dt:dt="r8">0</Current><DateUtc dt:dt="string">2016-08-22T16:04:40Z</DateUtc></FrequencyChange></FrequencyChanges></Clock>\n	Hungry_Donkey_bar_English_2-162-1	60.017	-186	1.0.0.18	1	1094497282	Standard	2.0.10.353	2.0.10.353	08-22-2016	8/22/2016 4:04:40 PM	12:04:40	2.0.10.248	65	Bar50-50.bmp	48	2	?	8r_4g.bmp	50r_4g.bmp	1r_2g.bmp	10r_2g.bmp		50r_4g.bmp			TrialProc	TrialList	0	cvbn	-999999	16	226758	0	v	412	227170	226	-245	-19	-14	-18	7	6	1	7	65	-8	-50	-1	-10	4	4	2	2	-50	4
Hungry_Donkey_bar_English_2	162	1	<?xml version="1.0"?>\n<Clock xmlns:dt="urn:schemas-microsoft-com:datatypes"><Description dt:dt="string">E-Prime Primary Realtime Clock</Description><StartTime><Timestamp dt:dt="int">0</Timestamp><DateUtc dt:dt="string">2016-08-22T16:04:40Z</DateUtc></StartTime><FrequencyChanges><FrequencyChange><Frequency dt:dt="r8">3507685</Frequency><Timestamp dt:dt="r8">1139260167554</Timestamp><Current dt:dt="r8">0</Current><DateUtc dt:dt="string">2016-08-22T16:04:40Z</DateUtc></FrequencyChange></FrequencyChanges></Clock>\n	Hungry_Donkey_bar_English_2-162-1	60.017	-186	1.0.0.18	1	1094497282	Standard	2.0.10.353	2.0.10.353	08-22-2016	8/22/2016 4:04:40 PM	12:04:40	2.0.10.248	66	Bar50-50.bmp	47	1	?	10r_4g.bmp	0r_4g.bmp	2r_2g.bmp	0r_2g.bmp	10r_4g.bmp				TrialProc	TrialList	0	cvbn	-999999	16	229208	0	c	1482	230690	230	-255	-25	-20	-18	7	6	3	7	66	-10	0	-2	0	4	4	2	2	-10	4
Hungry_Donkey_bar_English_2	162	1	<?xml version="1.0"?>\n<Clock xmlns:dt="urn:schemas-microsoft-com:datatypes"><Description dt:dt="string">E-Prime Primary Realtime Clock</Description><StartTime><Timestamp dt:dt="int">0</Timestamp><DateUtc dt:dt="string">2016-08-22T16:04:40Z</DateUtc></StartTime><FrequencyChanges><FrequencyChange><Frequency dt:dt="r8">3507685</Frequency><Timestamp dt:dt="r8">1139260167554</Timestamp><Current dt:dt="r8">0</Current><DateUtc dt:dt="string">2016-08-22T16:04:40Z</DateUtc></FrequencyChange></FrequencyChanges></Clock>\n	Hungry_Donkey_bar_English_2-162-1	60.017	-186	1.0.0.18	1	1094497282	Standard	2.0.10.353	2.0.10.353	08-22-2016	8/22/2016 4:04:40 PM	12:04:40	2.0.10.248	67	Bar50-50.bmp	48	2	?	0r_4g.bmp	0r_4g.bmp	0r_2g.bmp	0r_2g.bmp		0r_4g.bmp			TrialProc	TrialList	0	cvbn	-999999	16	232723	0	v	543	233266	234	-255	-21	-20	-14	7	6	9	7	67	0	0	0	0	4	4	2	2	0	4
Hungry_Donkey_bar_English_2	162	1	<?xml version="1.0"?>\n<Clock xmlns:dt="urn:schemas-microsoft-com:datatypes"><Description dt:dt="string">E-Prime Primary Realtime Clock</Description><StartTime><Timestamp dt:dt="int">0</Timestamp><DateUtc dt:dt="string">2016-08-22T16:04:40Z</DateUtc></StartTime><FrequencyChanges><FrequencyChange><Frequency dt:dt="r8">3507685</Frequency><Timestamp dt:dt="r8">1139260167554</Timestamp><Current dt:dt="r8">0</Current><DateUtc dt:dt="string">2016-08-22T16:04:40Z</DateUtc></FrequencyChange></FrequencyChanges></Clock>\n	Hungry_Donkey_bar_English_2-162-1	60.017	-186	1.0.0.18	1	1094497282	Standard	2.0.10.353	2.0.10.353	08-22-2016	8/22/2016 4:04:40 PM	12:04:40	2.0.10.248	68	Bar50-50.bmp	48	2	?	10r_4g.bmp	0r_4g.bmp	2r_2g.bmp	0r_2g.bmp		0r_4g.bmp			TrialProc	TrialList	0	cvbn	-999999	15	235289	0	v	393	235682	238	-255	-17	-20	-10	7	6	4	7	68	-10	0	-2	0	4	4	2	2	0	4
Hungry_Donkey_bar_English_2	162	1	<?xml version="1.0"?>\n<Clock xmlns:dt="urn:schemas-microsoft-com:datatypes"><Description dt:dt="string">E-Prime Primary Realtime Clock</Description><StartTime><Timestamp dt:dt="int">0</Timestamp><DateUtc dt:dt="string">2016-08-22T16:04:40Z</DateUtc></StartTime><FrequencyChanges><FrequencyChange><Frequency dt:dt="r8">3507685</Frequency><Timestamp dt:dt="r8">1139260167554</Timestamp><Current dt:dt="r8">0</Current><DateUtc dt:dt="string">2016-08-22T16:04:40Z</DateUtc></FrequencyChange></FrequencyChanges></Clock>\n	Hungry_Donkey_bar_English_2-162-1	60.017	-186	1.0.0.18	1	1094497282	Standard	2.0.10.353	2.0.10.353	08-22-2016	8/22/2016 4:04:40 PM	12:04:40	2.0.10.248	69	Bar50-50.bmp	49	2	?	12r_4g.bmp	0r_4g.bmp	3r_2g.bmp	0r_2g.bmp		0r_4g.bmp			TrialProc	TrialList	0	cvbn	-999999	16	237722	0	v	807	238529	242	-255	-13	-20	-6	7	6	5	7	69	-12	0	-3	0	4	4	2	2	0	4
Hungry_Donkey_bar_English_2	162	1	<?xml version="1.0"?>\n<Clock xmlns:dt="urn:schemas-microsoft-com:datatypes"><Description dt:dt="string">E-Prime Primary Realtime Clock</Description><StartTime><Timestamp dt:dt="int">0</Timestamp><DateUtc dt:dt="string">2016-08-22T16:04:40Z</DateUtc></StartTime><FrequencyChanges><FrequencyChange><Frequency dt:dt="r8">3507685</Frequency><Timestamp dt:dt="r8">1139260167554</Timestamp><Current dt:dt="r8">0</Current><DateUtc dt:dt="string">2016-08-22T16:04:40Z</DateUtc></FrequencyChange></FrequencyChanges></Clock>\n	Hungry_Donkey_bar_English_2-162-1	60.017	-186	1.0.0.18	1	1094497282	Standard	2.0.10.353	2.0.10.353	08-22-2016	8/22/2016 4:04:40 PM	12:04:40	2.0.10.248	70	Bar50-50.bmp	49	2	?	0r_4g.bmp	0r_4g.bmp	0r_2g.bmp	0r_2g.bmp		0r_4g.bmp			TrialProc	TrialList	0	cvbn	-999999	16	240554	0	v	391	240945	246	-255	-9	-20	-2	7	6	8	7	70	0	0	0	0	4	4	2	2	0	4
Hungry_Donkey_bar_English_2	162	1	<?xml version="1.0"?>\n<Clock xmlns:dt="urn:schemas-microsoft-com:datatypes"><Description dt:dt="string">E-Prime Primary Realtime Clock</Description><StartTime><Timestamp dt:dt="int">0</Timestamp><DateUtc dt:dt="string">2016-08-22T16:04:40Z</DateUtc></StartTime><FrequencyChanges><FrequencyChange><Frequency dt:dt="r8">3507685</Frequency><Timestamp dt:dt="r8">1139260167554</Timestamp><Current dt:dt="r8">0</Current><DateUtc dt:dt="string">2016-08-22T16:04:40Z</DateUtc></FrequencyChange></FrequencyChanges></Clock>\n	Hungry_Donkey_bar_English_2-162-1	60.017	-186	1.0.0.18	1	1094497282	Standard	2.0.10.353	2.0.10.353	08-22-2016	8/22/2016 4:04:40 PM	12:04:40	2.0.10.248	71	Bar50-50.bmp	50	2	?	10r_4g.bmp	0r_4g.bmp	2r_2g.bmp	0r_2g.bmp		0r_4g.bmp			TrialProc	TrialList	0	cvbn	-999999	16	242970	0	v	391	243361	250	-255	-5	-20	2	7	6	4	8	71	-10	0	-2	0	4	4	2	2	0	4
Hungry_Donkey_bar_English_2	162	1	<?xml version="1.0"?>\n<Clock xmlns:dt="urn:schemas-microsoft-com:datatypes"><Description dt:dt="string">E-Prime Primary Realtime Clock</Description><StartTime><Timestamp dt:dt="int">0</Timestamp><DateUtc dt:dt="string">2016-08-22T16:04:40Z</DateUtc></StartTime><FrequencyChanges><FrequencyChange><Frequency dt:dt="r8">3507685</Frequency><Timestamp dt:dt="r8">1139260167554</Timestamp><Current dt:dt="r8">0</Current><DateUtc dt:dt="string">2016-08-22T16:04:40Z</DateUtc></FrequencyChange></FrequencyChanges></Clock>\n	Hungry_Donkey_bar_English_2-162-1	60.017	-186	1.0.0.18	1	1094497282	Standard	2.0.10.353	2.0.10.353	08-22-2016	8/22/2016 4:04:40 PM	12:04:40	2.0.10.248	72	Bar50-50.bmp	50	2	?	0r_4g.bmp	0r_4g.bmp	0r_2g.bmp	0r_2g.bmp		0r_4g.bmp			TrialProc	TrialList	0	cvbn	-999999	16	245386	0	v	359	245745	254	-255	-1	-20	6	7	6	10	8	72	0	0	0	0	4	4	2	2	0	4
Hungry_Donkey_bar_English_2	162	1	<?xml version="1.0"?>\n<Clock xmlns:dt="urn:schemas-microsoft-com:datatypes"><Description dt:dt="string">E-Prime Primary Realtime Clock</Description><StartTime><Timestamp dt:dt="int">0</Timestamp><DateUtc dt:dt="string">2016-08-22T16:04:40Z</DateUtc></StartTime><FrequencyChanges><FrequencyChange><Frequency dt:dt="r8">3507685</Frequency><Timestamp dt:dt="r8">1139260167554</Timestamp><Current dt:dt="r8">0</Current><DateUtc dt:dt="string">2016-08-22T16:04:40Z</DateUtc></FrequencyChange></FrequencyChanges></Clock>\n	Hungry_Donkey_bar_English_2-162-1	60.017	-186	1.0.0.18	1	1094497282	Standard	2.0.10.353	2.0.10.353	08-22-2016	8/22/2016 4:04:40 PM	12:04:40	2.0.10.248	73	Bar50-50.bmp	46	2	?	8r_4g.bmp	50r_4g.bmp	1r_2g.bmp	10r_2g.bmp		50r_4g.bmp			TrialProc	TrialList	0	cvbn	-999999	16	247786	0	v	423	248209	258	-305	-47	-20	-40	7	6	1	8	73	-8	-50	-1	-10	4	4	2	2	-50	4
Hungry_Donkey_bar_English_2	162	1	<?xml version="1.0"?>\n<Clock xmlns:dt="urn:schemas-microsoft-com:datatypes"><Description dt:dt="string">E-Prime Primary Realtime Clock</Description><StartTime><Timestamp dt:dt="int">0</Timestamp><DateUtc dt:dt="string">2016-08-22T16:04:40Z</DateUtc></StartTime><FrequencyChanges><FrequencyChange><Frequency dt:dt="r8">3507685</Frequency><Timestamp dt:dt="r8">1139260167554</Timestamp><Current dt:dt="r8">0</Current><DateUtc dt:dt="string">2016-08-22T16:04:40Z</DateUtc></FrequencyChange></FrequencyChanges></Clock>\n	Hungry_Donkey_bar_English_2-162-1	60.017	-186	1.0.0.18	1	1094497282	Standard	2.0.10.353	2.0.10.353	08-22-2016	8/22/2016 4:04:40 PM	12:04:40	2.0.10.248	74	Bar50-50.bmp	46	3	?	10r_4g.bmp	0r_4g.bmp	2r_2g.bmp	0r_2g.bmp			2r_2g.bmp		TrialProc	TrialList	0	cvbn	-999999	16	250252	0	b	613	250865	260	-307	-47	-20	-40	7	6	2	8	74	-10	0	-2	0	4	4	2	2	-2	2
Hungry_Donkey_bar_English_2	162	1	<?xml version="1.0"?>\n<Clock xmlns:dt="urn:schemas-microsoft-com:datatypes"><Description dt:dt="string">E-Prime Primary Realtime Clock</Description><StartTime><Timestamp dt:dt="int">0</Timestamp><DateUtc dt:dt="string">2016-08-22T16:04:40Z</DateUtc></StartTime><FrequencyChanges><FrequencyChange><Frequency dt:dt="r8">3507685</Frequency><Timestamp dt:dt="r8">1139260167554</Timestamp><Current dt:dt="r8">0</Current><DateUtc dt:dt="string">2016-08-22T16:04:40Z</DateUtc></FrequencyChange></FrequencyChanges></Clock>\n	Hungry_Donkey_bar_English_2-162-1	60.017	-186	1.0.0.18	1	1094497282	Standard	2.0.10.353	2.0.10.353	08-22-2016	8/22/2016 4:04:40 PM	12:04:40	2.0.10.248	75	Bar50-50.bmp	46	4	?	12r_4g.bmp	0r_4g.bmp	3r_2g.bmp	0r_2g.bmp				0r_2g.bmp	TrialProc	TrialList	0	cvbn	-999999	16	252901	0	n	508	253409	262	-307	-45	-20	-40	7	8	5	8	75	-12	0	-3	0	4	4	2	2	0	2
Hungry_Donkey_bar_English_2	162	1	<?xml version="1.0"?>\n<Clock xmlns:dt="urn:schemas-microsoft-com:datatypes"><Description dt:dt="string">E-Prime Primary Realtime Clock</Description><StartTime><Timestamp dt:dt="int">0</Timestamp><DateUtc dt:dt="string">2016-08-22T16:04:40Z</DateUtc></StartTime><FrequencyChanges><FrequencyChange><Frequency dt:dt="r8">3507685</Frequency><Timestamp dt:dt="r8">1139260167554</Timestamp><Current dt:dt="r8">0</Current><DateUtc dt:dt="string">2016-08-22T16:04:40Z</DateUtc></FrequencyChange></FrequencyChanges></Clock>\n	Hungry_Donkey_bar_English_2-162-1	60.017	-186	1.0.0.18	1	1094497282	Standard	2.0.10.353	2.0.10.353	08-22-2016	8/22/2016 4:04:40 PM	12:04:40	2.0.10.248	76	Bar50-50.bmp	46	2	?	0r_4g.bmp	0r_4g.bmp	0r_2g.bmp	0r_2g.bmp		0r_4g.bmp			TrialProc	TrialList	0	cvbn	-999999	16	255433	0	v	664	256097	266	-307	-41	-20	-36	7	8	8	8	76	0	0	0	0	4	4	2	2	0	4
Hungry_Donkey_bar_English_2	162	1	<?xml version="1.0"?>\n<Clock xmlns:dt="urn:schemas-microsoft-com:datatypes"><Description dt:dt="string">E-Prime Primary Realtime Clock</Description><StartTime><Timestamp dt:dt="int">0</Timestamp><DateUtc dt:dt="string">2016-08-22T16:04:40Z</DateUtc></StartTime><FrequencyChanges><FrequencyChange><Frequency dt:dt="r8">3507685</Frequency><Timestamp dt:dt="r8">1139260167554</Timestamp><Current dt:dt="r8">0</Current><DateUtc dt:dt="string">2016-08-22T16:04:40Z</DateUtc></FrequencyChange></FrequencyChanges></Clock>\n	Hungry_Donkey_bar_English_2-162-1	60.017	-186	1.0.0.18	1	1094497282	Standard	2.0.10.353	2.0.10.353	08-22-2016	8/22/2016 4:04:40 PM	12:04:40	2.0.10.248	77	Bar50-50.bmp	47	1	?	0r_4g.bmp	0r_4g.bmp	0r_2g.bmp	0r_2g.bmp	0r_4g.bmp				TrialProc	TrialList	0	cvbn	-999999	16	258133	0	c	827	258960	270	-307	-37	-16	-36	7	8	7	8	77	0	0	0	0	4	4	2	2	0	4
Hungry_Donkey_bar_English_2	162	1	<?xml version="1.0"?>\n<Clock xmlns:dt="urn:schemas-microsoft-com:datatypes"><Description dt:dt="string">E-Prime Primary Realtime Clock</Description><StartTime><Timestamp dt:dt="int">0</Timestamp><DateUtc dt:dt="string">2016-08-22T16:04:40Z</DateUtc></StartTime><FrequencyChanges><FrequencyChange><Frequency dt:dt="r8">3507685</Frequency><Timestamp dt:dt="r8">1139260167554</Timestamp><Current dt:dt="r8">0</Current><DateUtc dt:dt="string">2016-08-22T16:04:40Z</DateUtc></FrequencyChange></FrequencyChanges></Clock>\n	Hungry_Donkey_bar_English_2-162-1	60.017	-186	1.0.0.18	1	1094497282	Standard	2.0.10.353	2.0.10.353	08-22-2016	8/22/2016 4:04:40 PM	12:04:40	2.0.10.248	78	Bar50-50.bmp	46	1	?	10r_4g.bmp	0r_4g.bmp	2r_2g.bmp	0r_2g.bmp	10r_4g.bmp				TrialProc	TrialList	0	cvbn	-999999	17	260999	0	c	953	261952	274	-317	-43	-22	-36	7	8	3	8	78	-10	0	-2	0	4	4	2	2	-10	4
Hungry_Donkey_bar_English_2	162	1	<?xml version="1.0"?>\n<Clock xmlns:dt="urn:schemas-microsoft-com:datatypes"><Description dt:dt="string">E-Prime Primary Realtime Clock</Description><StartTime><Timestamp dt:dt="int">0</Timestamp><DateUtc dt:dt="string">2016-08-22T16:04:40Z</DateUtc></StartTime><FrequencyChanges><FrequencyChange><Frequency dt:dt="r8">3507685</Frequency><Timestamp dt:dt="r8">1139260167554</Timestamp><Current dt:dt="r8">0</Current><DateUtc dt:dt="string">2016-08-22T16:04:40Z</DateUtc></FrequencyChange></FrequencyChanges></Clock>\n	Hungry_Donkey_bar_English_2-162-1	60.017	-186	1.0.0.18	1	1094497282	Standard	2.0.10.353	2.0.10.353	08-22-2016	8/22/2016 4:04:40 PM	12:04:40	2.0.10.248	79	Bar50-50.bmp	47	2	?	0r_4g.bmp	0r_4g.bmp	0r_2g.bmp	0r_2g.bmp		0r_4g.bmp			TrialProc	TrialList	0	cvbn	-999999	16	263981	0	v	435	264416	278	-317	-39	-22	-32	7	8	6	8	79	0	0	0	0	4	4	2	2	0	4
Hungry_Donkey_bar_English_2	162	1	<?xml version="1.0"?>\n<Clock xmlns:dt="urn:schemas-microsoft-com:datatypes"><Description dt:dt="string">E-Prime Primary Realtime Clock</Description><StartTime><Timestamp dt:dt="int">0</Timestamp><DateUtc dt:dt="string">2016-08-22T16:04:40Z</DateUtc></StartTime><FrequencyChanges><FrequencyChange><Frequency dt:dt="r8">3507685</Frequency><Timestamp dt:dt="r8">1139260167554</Timestamp><Current dt:dt="r8">0</Current><DateUtc dt:dt="string">2016-08-22T16:04:40Z</DateUtc></FrequencyChange></FrequencyChanges></Clock>\n	Hungry_Donkey_bar_English_2-162-1	60.017	-186	1.0.0.18	1	1094497282	Standard	2.0.10.353	2.0.10.353	08-22-2016	8/22/2016 4:04:40 PM	12:04:40	2.0.10.248	80	Bar50-50.bmp	47	1	?	0r_4g.bmp	0r_4g.bmp	0r_2g.bmp	0r_2g.bmp	0r_4g.bmp				TrialProc	TrialList	0	cvbn	-999999	16	266447	0	c	481	266928	282	-317	-35	-18	-32	7	8	9	8	80	0	0	0	0	4	4	2	2	0	4
Hungry_Donkey_bar_English_2	162	1	<?xml version="1.0"?>\n<Clock xmlns:dt="urn:schemas-microsoft-com:datatypes"><Description dt:dt="string">E-Prime Primary Realtime Clock</Description><StartTime><Timestamp dt:dt="int">0</Timestamp><DateUtc dt:dt="string">2016-08-22T16:04:40Z</DateUtc></StartTime><FrequencyChanges><FrequencyChange><Frequency dt:dt="r8">3507685</Frequency><Timestamp dt:dt="r8">1139260167554</Timestamp><Current dt:dt="r8">0</Current><DateUtc dt:dt="string">2016-08-22T16:04:40Z</DateUtc></FrequencyChange></FrequencyChanges></Clock>\n	Hungry_Donkey_bar_English_2-162-1	60.017	-186	1.0.0.18	1	1094497282	Standard	2.0.10.353	2.0.10.353	08-22-2016	8/22/2016 4:04:40 PM	12:04:40	2.0.10.248	81	Bar50-50.bmp	47	2	?	10r_4g.bmp	0r_4g.bmp	2r_2g.bmp	0r_2g.bmp		0r_4g.bmp			TrialProc	TrialList	0	cvbn	-999999	16	268963	0	v	381	269344	286	-317	-31	-18	-28	7	8	4	9	81	-10	0	-2	0	4	4	2	2	0	4
Hungry_Donkey_bar_English_2	162	1	<?xml version="1.0"?>\n<Clock xmlns:dt="urn:schemas-microsoft-com:datatypes"><Description dt:dt="string">E-Prime Primary Realtime Clock</Description><StartTime><Timestamp dt:dt="int">0</Timestamp><DateUtc dt:dt="string">2016-08-22T16:04:40Z</DateUtc></StartTime><FrequencyChanges><FrequencyChange><Frequency dt:dt="r8">3507685</Frequency><Timestamp dt:dt="r8">1139260167554</Timestamp><Current dt:dt="r8">0</Current><DateUtc dt:dt="string">2016-08-22T16:04:40Z</DateUtc></FrequencyChange></FrequencyChanges></Clock>\n	Hungry_Donkey_bar_English_2-162-1	60.017	-186	1.0.0.18	1	1094497282	Standard	2.0.10.353	2.0.10.353	08-22-2016	8/22/2016 4:04:40 PM	12:04:40	2.0.10.248	82	Bar50-50.bmp	48	1	?	0r_4g.bmp	0r_4g.bmp	0r_2g.bmp	0r_2g.bmp	0r_4g.bmp				TrialProc	TrialList	0	cvbn	-999999	16	271379	0	c	365	271744	290	-317	-27	-14	-28	7	8	9	9	82	0	0	0	0	4	4	2	2	0	4
Hungry_Donkey_bar_English_2	162	1	<?xml version="1.0"?>\n<Clock xmlns:dt="urn:schemas-microsoft-com:datatypes"><Description dt:dt="string">E-Prime Primary Realtime Clock</Description><StartTime><Timestamp dt:dt="int">0</Timestamp><DateUtc dt:dt="string">2016-08-22T16:04:40Z</DateUtc></StartTime><FrequencyChanges><FrequencyChange><Frequency dt:dt="r8">3507685</Frequency><Timestamp dt:dt="r8">1139260167554</Timestamp><Current dt:dt="r8">0</Current><DateUtc dt:dt="string">2016-08-22T16:04:40Z</DateUtc></FrequencyChange></FrequencyChanges></Clock>\n	Hungry_Donkey_bar_English_2-162-1	60.017	-186	1.0.0.18	1	1094497282	Standard	2.0.10.353	2.0.10.353	08-22-2016	8/22/2016 4:04:40 PM	12:04:40	2.0.10.248	83	Bar50-50.bmp	48	2	?	0r_4g.bmp	0r_4g.bmp	0r_2g.bmp	0r_2g.bmp		0r_4g.bmp			TrialProc	TrialList	0	cvbn	-999999	16	273778	0	v	430	274208	294	-317	-23	-14	-24	7	8	6	9	83	0	0	0	0	4	4	2	2	0	4
Hungry_Donkey_bar_English_2	162	1	<?xml version="1.0"?>\n<Clock xmlns:dt="urn:schemas-microsoft-com:datatypes"><Description dt:dt="string">E-Prime Primary Realtime Clock</Description><StartTime><Timestamp dt:dt="int">0</Timestamp><DateUtc dt:dt="string">2016-08-22T16:04:40Z</DateUtc></StartTime><FrequencyChanges><FrequencyChange><Frequency dt:dt="r8">3507685</Frequency><Timestamp dt:dt="r8">1139260167554</Timestamp><Current dt:dt="r8">0</Current><DateUtc dt:dt="string">2016-08-22T16:04:40Z</DateUtc></FrequencyChange></FrequencyChanges></Clock>\n	Hungry_Donkey_bar_English_2-162-1	60.017	-186	1.0.0.18	1	1094497282	Standard	2.0.10.353	2.0.10.353	08-22-2016	8/22/2016 4:04:40 PM	12:04:40	2.0.10.248	84	Bar50-50.bmp	48	1	?	12r_4g.bmp	0r_4g.bmp	3r_2g.bmp	0r_2g.bmp	12r_4g.bmp				TrialProc	TrialList	0	cvbn	-999999	16	276244	0	c	508	276752	298	-329	-31	-22	-24	7	8	5	9	84	-12	0	-3	0	4	4	2	2	-12	4
Hungry_Donkey_bar_English_2	162	1	<?xml version="1.0"?>\n<Clock xmlns:dt="urn:schemas-microsoft-com:datatypes"><Description dt:dt="string">E-Prime Primary Realtime Clock</Description><StartTime><Timestamp dt:dt="int">0</Timestamp><DateUtc dt:dt="string">2016-08-22T16:04:40Z</DateUtc></StartTime><FrequencyChanges><FrequencyChange><Frequency dt:dt="r8">3507685</Frequency><Timestamp dt:dt="r8">1139260167554</Timestamp><Current dt:dt="r8">0</Current><DateUtc dt:dt="string">2016-08-22T16:04:40Z</DateUtc></FrequencyChange></FrequencyChanges></Clock>\n	Hungry_Donkey_bar_English_2-162-1	60.017	-186	1.0.0.18	1	1094497282	Standard	2.0.10.353	2.0.10.353	08-22-2016	8/22/2016 4:04:40 PM	12:04:40	2.0.10.248	85	Bar50-50.bmp	44	2	?	8r_4g.bmp	50r_4g.bmp	1r_2g.bmp	10r_2g.bmp		50r_4g.bmp			TrialProc	TrialList	0	cvbn	-999999	16	278793	0	v	598	279391	302	-379	-77	-22	-70	7	8	1	9	85	-8	-50	-1	-10	4	4	2	2	-50	4
Hungry_Donkey_bar_English_2	162	1	<?xml version="1.0"?>\n<Clock xmlns:dt="urn:schemas-microsoft-com:datatypes"><Description dt:dt="string">E-Prime Primary Realtime Clock</Description><StartTime><Timestamp dt:dt="int">0</Timestamp><DateUtc dt:dt="string">2016-08-22T16:04:40Z</DateUtc></StartTime><FrequencyChanges><FrequencyChange><Frequency dt:dt="r8">3507685</Frequency><Timestamp dt:dt="r8">1139260167554</Timestamp><Current dt:dt="r8">0</Current><DateUtc dt:dt="string">2016-08-22T16:04:40Z</DateUtc></FrequencyChange></FrequencyChanges></Clock>\n	Hungry_Donkey_bar_English_2-162-1	60.017	-186	1.0.0.18	1	1094497282	Standard	2.0.10.353	2.0.10.353	08-22-2016	8/22/2016 4:04:40 PM	12:04:40	2.0.10.248	86	Bar50-50.bmp	45	2	?	0r_4g.bmp	0r_4g.bmp	0r_2g.bmp	0r_2g.bmp		0r_4g.bmp			TrialProc	TrialList	0	cvbn	-999999	16	281426	0	v	621	282047	306	-379	-73	-22	-66	7	8	8	9	86	0	0	0	0	4	4	2	2	0	4
Hungry_Donkey_bar_English_2	162	1	<?xml version="1.0"?>\n<Clock xmlns:dt="urn:schemas-microsoft-com:datatypes"><Description dt:dt="string">E-Prime Primary Realtime Clock</Description><StartTime><Timestamp dt:dt="int">0</Timestamp><DateUtc dt:dt="string">2016-08-22T16:04:40Z</DateUtc></StartTime><FrequencyChanges><FrequencyChange><Frequency dt:dt="r8">3507685</Frequency><Timestamp dt:dt="r8">1139260167554</Timestamp><Current dt:dt="r8">0</Current><DateUtc dt:dt="string">2016-08-22T16:04:40Z</DateUtc></FrequencyChange></FrequencyChanges></Clock>\n	Hungry_Donkey_bar_English_2-162-1	60.017	-186	1.0.0.18	1	1094497282	Standard	2.0.10.353	2.0.10.353	08-22-2016	8/22/2016 4:04:40 PM	12:04:40	2.0.10.248	87	Bar50-50.bmp	45	2	?	0r_4g.bmp	0r_4g.bmp	0r_2g.bmp	0r_2g.bmp		0r_4g.bmp			TrialProc	TrialList	0	cvbn	-999999	16	284075	0	v	420	284495	310	-379	-69	-22	-62	7	8	10	9	87	0	0	0	0	4	4	2	2	0	4
Hungry_Donkey_bar_English_2	162	1	<?xml version="1.0"?>\n<Clock xmlns:dt="urn:schemas-microsoft-com:datatypes"><Description dt:dt="string">E-Prime Primary Realtime Clock</Description><StartTime><Timestamp dt:dt="int">0</Timestamp><DateUtc dt:dt="string">2016-08-22T16:04:40Z</DateUtc></StartTime><FrequencyChanges><FrequencyChange><Frequency dt:dt="r8">3507685</Frequency><Timestamp dt:dt="r8">1139260167554</Timestamp><Current dt:dt="r8">0</Current><DateUtc dt:dt="string">2016-08-22T16:04:40Z</DateUtc></FrequencyChange></FrequencyChanges></Clock>\n	Hungry_Donkey_bar_English_2-162-1	60.017	-186	1.0.0.18	1	1094497282	Standard	2.0.10.353	2.0.10.353	08-22-2016	8/22/2016 4:04:40 PM	12:04:40	2.0.10.248	88	Bar50-50.bmp	45	2	?	10r_4g.bmp	0r_4g.bmp	2r_2g.bmp	0r_2g.bmp		0r_4g.bmp			TrialProc	TrialList	0	cvbn	-999999	16	286524	0	v	355	286879	314	-379	-65	-22	-58	7	8	3	9	88	-10	0	-2	0	4	4	2	2	0	4
Hungry_Donkey_bar_English_2	162	1	<?xml version="1.0"?>\n<Clock xmlns:dt="urn:schemas-microsoft-com:datatypes"><Description dt:dt="string">E-Prime Primary Realtime Clock</Description><StartTime><Timestamp dt:dt="int">0</Timestamp><DateUtc dt:dt="string">2016-08-22T16:04:40Z</DateUtc></StartTime><FrequencyChanges><FrequencyChange><Frequency dt:dt="r8">3507685</Frequency><Timestamp dt:dt="r8">1139260167554</Timestamp><Current dt:dt="r8">0</Current><DateUtc dt:dt="string">2016-08-22T16:04:40Z</DateUtc></FrequencyChange></FrequencyChanges></Clock>\n	Hungry_Donkey_bar_English_2-162-1	60.017	-186	1.0.0.18	1	1094497282	Standard	2.0.10.353	2.0.10.353	08-22-2016	8/22/2016 4:04:40 PM	12:04:40	2.0.10.248	89	Bar50-50.bmp	46	2	?	10r_4g.bmp	0r_4g.bmp	2r_2g.bmp	0r_2g.bmp		0r_4g.bmp			TrialProc	TrialList	0	cvbn	-999999	16	288907	0	v	484	289391	318	-379	-61	-22	-54	7	8	2	9	89	-10	0	-2	0	4	4	2	2	0	4
Hungry_Donkey_bar_English_2	162	1	<?xml version="1.0"?>\n<Clock xmlns:dt="urn:schemas-microsoft-com:datatypes"><Description dt:dt="string">E-Prime Primary Realtime Clock</Description><StartTime><Timestamp dt:dt="int">0</Timestamp><DateUtc dt:dt="string">2016-08-22T16:04:40Z</DateUtc></StartTime><FrequencyChanges><FrequencyChange><Frequency dt:dt="r8">3507685</Frequency><Timestamp dt:dt="r8">1139260167554</Timestamp><Current dt:dt="r8">0</Current><DateUtc dt:dt="string">2016-08-22T16:04:40Z</DateUtc></FrequencyChange></FrequencyChanges></Clock>\n	Hungry_Donkey_bar_English_2-162-1	60.017	-186	1.0.0.18	1	1094497282	Standard	2.0.10.353	2.0.10.353	08-22-2016	8/22/2016 4:04:40 PM	12:04:40	2.0.10.248	90	Bar50-50.bmp	46	2	?	0r_4g.bmp	0r_4g.bmp	0r_2g.bmp	0r_2g.bmp		0r_4g.bmp			TrialProc	TrialList	0	cvbn	-999999	16	291423	0	v	432	291855	322	-379	-57	-22	-50	7	8	7	9	90	0	0	0	0	4	4	2	2	0	4
Hungry_Donkey_bar_English_2	162	1	<?xml version="1.0"?>\n<Clock xmlns:dt="urn:schemas-microsoft-com:datatypes"><Description dt:dt="string">E-Prime Primary Realtime Clock</Description><StartTime><Timestamp dt:dt="int">0</Timestamp><DateUtc dt:dt="string">2016-08-22T16:04:40Z</DateUtc></StartTime><FrequencyChanges><FrequencyChange><Frequency dt:dt="r8">3507685</Frequency><Timestamp dt:dt="r8">1139260167554</Timestamp><Current dt:dt="r8">0</Current><DateUtc dt:dt="string">2016-08-22T16:04:40Z</DateUtc></FrequencyChange></FrequencyChanges></Clock>\n	Hungry_Donkey_bar_English_2-162-1	60.017	-186	1.0.0.18	1	1094497282	Standard	2.0.10.353	2.0.10.353	08-22-2016	8/22/2016 4:04:40 PM	12:04:40	2.0.10.248	91	Bar50-50.bmp	46	2	?	12r_4g.bmp	0r_4g.bmp	3r_2g.bmp	0r_2g.bmp		0r_4g.bmp			TrialProc	TrialList	0	cvbn	-999999	16	293889	0	v	558	294447	326	-379	-53	-22	-46	7	8	5	10	91	-12	0	-3	0	4	4	2	2	0	4
Hungry_Donkey_bar_English_2	162	1	<?xml version="1.0"?>\n<Clock xmlns:dt="urn:schemas-microsoft-com:datatypes"><Description dt:dt="string">E-Prime Primary Realtime Clock</Description><StartTime><Timestamp dt:dt="int">0</Timestamp><DateUtc dt:dt="string">2016-08-22T16:04:40Z</DateUtc></StartTime><FrequencyChanges><FrequencyChange><Frequency dt:dt="r8">3507685</Frequency><Timestamp dt:dt="r8">1139260167554</Timestamp><Current dt:dt="r8">0</Current><DateUtc dt:dt="string">2016-08-22T16:04:40Z</DateUtc></FrequencyChange></FrequencyChanges></Clock>\n	Hungry_Donkey_bar_English_2-162-1	60.017	-186	1.0.0.18	1	1094497282	Standard	2.0.10.353	2.0.10.353	08-22-2016	8/22/2016 4:04:40 PM	12:04:40	2.0.10.248	92	Bar50-50.bmp	47	2	?	0r_4g.bmp	0r_4g.bmp	0r_2g.bmp	0r_2g.bmp		0r_4g.bmp			TrialProc	TrialList	0	cvbn	-999999	16	296472	0	v	295	296767	330	-379	-49	-22	-42	7	8	9	10	92	0	0	0	0	4	4	2	2	0	4
Hungry_Donkey_bar_English_2	162	1	<?xml version="1.0"?>\n<Clock xmlns:dt="urn:schemas-microsoft-com:datatypes"><Description dt:dt="string">E-Prime Primary Realtime Clock</Description><StartTime><Timestamp dt:dt="int">0</Timestamp><DateUtc dt:dt="string">2016-08-22T16:04:40Z</DateUtc></StartTime><FrequencyChanges><FrequencyChange><Frequency dt:dt="r8">3507685</Frequency><Timestamp dt:dt="r8">1139260167554</Timestamp><Current dt:dt="r8">0</Current><DateUtc dt:dt="string">2016-08-22T16:04:40Z</DateUtc></FrequencyChange></FrequencyChanges></Clock>\n	Hungry_Donkey_bar_English_2-162-1	60.017	-186	1.0.0.18	1	1094497282	Standard	2.0.10.353	2.0.10.353	08-22-2016	8/22/2016 4:04:40 PM	12:04:40	2.0.10.248	93	Bar50-50.bmp	47	2	?	0r_4g.bmp	0r_4g.bmp	0r_2g.bmp	0r_2g.bmp		0r_4g.bmp			TrialProc	TrialList	0	cvbn	-999999	16	298804	0	v	570	299374	334	-379	-45	-22	-38	7	8	8	10	93	0	0	0	0	4	4	2	2	0	4
Hungry_Donkey_bar_English_2	162	1	<?xml version="1.0"?>\n<Clock xmlns:dt="urn:schemas-microsoft-com:datatypes"><Description dt:dt="string">E-Prime Primary Realtime Clock</Description><StartTime><Timestamp dt:dt="int">0</Timestamp><DateUtc dt:dt="string">2016-08-22T16:04:40Z</DateUtc></StartTime><FrequencyChanges><FrequencyChange><Frequency dt:dt="r8">3507685</Frequency><Timestamp dt:dt="r8">1139260167554</Timestamp><Current dt:dt="r8">0</Current><DateUtc dt:dt="string">2016-08-22T16:04:40Z</DateUtc></FrequencyChange></FrequencyChanges></Clock>\n	Hungry_Donkey_bar_English_2-162-1	60.017	-186	1.0.0.18	1	1094497282	Standard	2.0.10.353	2.0.10.353	08-22-2016	8/22/2016 4:04:40 PM	12:04:40	2.0.10.248	94	Bar50-50.bmp	47	2	?	0r_4g.bmp	0r_4g.bmp	0r_2g.bmp	0r_2g.bmp		0r_4g.bmp			TrialProc	TrialList	0	cvbn	-999999	17	301404	0	v	466	301870	338	-379	-41	-22	-34	7	8	10	10	94	0	0	0	0	4	4	2	2	0	4
Hungry_Donkey_bar_English_2	162	1	<?xml version="1.0"?>\n<Clock xmlns:dt="urn:schemas-microsoft-com:datatypes"><Description dt:dt="string">E-Prime Primary Realtime Clock</Description><StartTime><Timestamp dt:dt="int">0</Timestamp><DateUtc dt:dt="string">2016-08-22T16:04:40Z</DateUtc></StartTime><FrequencyChanges><FrequencyChange><Frequency dt:dt="r8">3507685</Frequency><Timestamp dt:dt="r8">1139260167554</Timestamp><Current dt:dt="r8">0</Current><DateUtc dt:dt="string">2016-08-22T16:04:40Z</DateUtc></FrequencyChange></FrequencyChanges></Clock>\n	Hungry_Donkey_bar_English_2-162-1	60.017	-186	1.0.0.18	1	1094497282	Standard	2.0.10.353	2.0.10.353	08-22-2016	8/22/2016 4:04:40 PM	12:04:40	2.0.10.248	95	Bar50-50.bmp	47	3	?	10r_4g.bmp	0r_4g.bmp	2r_2g.bmp	0r_2g.bmp			2r_2g.bmp		TrialProc	TrialList	0	cvbn	-999999	16	303903	0	b	799	304702	340	-381	-41	-22	-34	7	8	3	10	95	-10	0	-2	0	4	4	2	2	-2	2
Hungry_Donkey_bar_English_2	162	1	<?xml version="1.0"?>\n<Clock xmlns:dt="urn:schemas-microsoft-com:datatypes"><Description dt:dt="string">E-Prime Primary Realtime Clock</Description><StartTime><Timestamp dt:dt="int">0</Timestamp><DateUtc dt:dt="string">2016-08-22T16:04:40Z</DateUtc></StartTime><FrequencyChanges><FrequencyChange><Frequency dt:dt="r8">3507685</Frequency><Timestamp dt:dt="r8">1139260167554</Timestamp><Current dt:dt="r8">0</Current><DateUtc dt:dt="string">2016-08-22T16:04:40Z</DateUtc></FrequencyChange></FrequencyChanges></Clock>\n	Hungry_Donkey_bar_English_2-162-1	60.017	-186	1.0.0.18	1	1094497282	Standard	2.0.10.353	2.0.10.353	08-22-2016	8/22/2016 4:04:40 PM	12:04:40	2.0.10.248	96	Bar50-50.bmp	47	1	?	0r_4g.bmp	0r_4g.bmp	0r_2g.bmp	0r_2g.bmp	0r_4g.bmp				TrialProc	TrialList	0	cvbn	-999999	16	306735	0	c	463	307198	344	-381	-37	-18	-34	7	8	6	10	96	0	0	0	0	4	4	2	2	0	4
Hungry_Donkey_bar_English_2	162	1	<?xml version="1.0"?>\n<Clock xmlns:dt="urn:schemas-microsoft-com:datatypes"><Description dt:dt="string">E-Prime Primary Realtime Clock</Description><StartTime><Timestamp dt:dt="int">0</Timestamp><DateUtc dt:dt="string">2016-08-22T16:04:40Z</DateUtc></StartTime><FrequencyChanges><FrequencyChange><Frequency dt:dt="r8">3507685</Frequency><Timestamp dt:dt="r8">1139260167554</Timestamp><Current dt:dt="r8">0</Current><DateUtc dt:dt="string">2016-08-22T16:04:40Z</DateUtc></FrequencyChange></FrequencyChanges></Clock>\n	Hungry_Donkey_bar_English_2-162-1	60.017	-186	1.0.0.18	1	1094497282	Standard	2.0.10.353	2.0.10.353	08-22-2016	8/22/2016 4:04:40 PM	12:04:40	2.0.10.248	97	Bar50-50.bmp	48	2	?	10r_4g.bmp	0r_4g.bmp	2r_2g.bmp	0r_2g.bmp		0r_4g.bmp			TrialProc	TrialList	0	cvbn	-999999	16	309235	0	v	411	309646	348	-381	-33	-18	-30	7	8	2	10	97	-10	0	-2	0	4	4	2	2	0	4
Hungry_Donkey_bar_English_2	162	1	<?xml version="1.0"?>\n<Clock xmlns:dt="urn:schemas-microsoft-com:datatypes"><Description dt:dt="string">E-Prime Primary Realtime Clock</Description><StartTime><Timestamp dt:dt="int">0</Timestamp><DateUtc dt:dt="string">2016-08-22T16:04:40Z</DateUtc></StartTime><FrequencyChanges><FrequencyChange><Frequency dt:dt="r8">3507685</Frequency><Timestamp dt:dt="r8">1139260167554</Timestamp><Current dt:dt="r8">0</Current><DateUtc dt:dt="string">2016-08-22T16:04:40Z</DateUtc></FrequencyChange></FrequencyChanges></Clock>\n	Hungry_Donkey_bar_English_2-162-1	60.017	-186	1.0.0.18	1	1094497282	Standard	2.0.10.353	2.0.10.353	08-22-2016	8/22/2016 4:04:40 PM	12:04:40	2.0.10.248	98	Bar50-50.bmp	48	2	?	10r_4g.bmp	0r_4g.bmp	2r_2g.bmp	0r_2g.bmp		0r_4g.bmp			TrialProc	TrialList	0	cvbn	-999999	16	311684	0	v	410	312094	352	-381	-29	-18	-26	7	8	4	10	98	-10	0	-2	0	4	4	2	2	0	4
Hungry_Donkey_bar_English_2	162	1	<?xml version="1.0"?>\n<Clock xmlns:dt="urn:schemas-microsoft-com:datatypes"><Description dt:dt="string">E-Prime Primary Realtime Clock</Description><StartTime><Timestamp dt:dt="int">0</Timestamp><DateUtc dt:dt="string">2016-08-22T16:04:40Z</DateUtc></StartTime><FrequencyChanges><FrequencyChange><Frequency dt:dt="r8">3507685</Frequency><Timestamp dt:dt="r8">1139260167554</Timestamp><Current dt:dt="r8">0</Current><DateUtc dt:dt="string">2016-08-22T16:04:40Z</DateUtc></FrequencyChange></FrequencyChanges></Clock>\n	Hungry_Donkey_bar_English_2-162-1	60.017	-186	1.0.0.18	1	1094497282	Standard	2.0.10.353	2.0.10.353	08-22-2016	8/22/2016 4:04:40 PM	12:04:40	2.0.10.248	99	Bar50-50.bmp	45	2	?	8r_4g.bmp	50r_4g.bmp	1r_2g.bmp	10r_2g.bmp		50r_4g.bmp			TrialProc	TrialList	0	cvbn	-999999	16	314133	0	v	537	314670	356	-431	-75	-18	-72	7	8	1	10	99	-8	-50	-1	-10	4	4	2	2	-50	4
Hungry_Donkey_bar_English_2	162	1	<?xml version="1.0"?>\n<Clock xmlns:dt="urn:schemas-microsoft-com:datatypes"><Description dt:dt="string">E-Prime Primary Realtime Clock</Description><StartTime><Timestamp dt:dt="int">0</Timestamp><DateUtc dt:dt="string">2016-08-22T16:04:40Z</DateUtc></StartTime><FrequencyChanges><FrequencyChange><Frequency dt:dt="r8">3507685</Frequency><Timestamp dt:dt="r8">1139260167554</Timestamp><Current dt:dt="r8">0</Current><DateUtc dt:dt="string">2016-08-22T16:04:40Z</DateUtc></FrequencyChange></FrequencyChanges></Clock>\n	Hungry_Donkey_bar_English_2-162-1	60.017	-186	1.0.0.18	1	1094497282	Standard	2.0.10.353	2.0.10.353	08-22-2016	8/22/2016 4:04:40 PM	12:04:40	2.0.10.248	100	Bar50-50.bmp	46	1	?	0r_4g.bmp	0r_4g.bmp	0r_2g.bmp	0r_2g.bmp	0r_4g.bmp				TrialProc	TrialList	0	cvbn	-999999	16	316699	0	c	483	317182	360	-431	-71	-14	-72	7	8	7	10	100	0	0	0	0	4	4	2	2	0	4
Hungry_Donkey_bar_English_2	162	1	<?xml version="1.0"?>\n<Clock xmlns:dt="urn:schemas-microsoft-com:datatypes"><Description dt:dt="string">E-Prime Primary Realtime Clock</Description><StartTime><Timestamp dt:dt="int">0</Timestamp><DateUtc dt:dt="string">2016-08-22T16:04:40Z</DateUtc></StartTime><FrequencyChanges><FrequencyChange><Frequency dt:dt="r8">3507685</Frequency><Timestamp dt:dt="r8">1139260167554</Timestamp><Current dt:dt="r8">0</Current><DateUtc dt:dt="string">2016-08-22T16:04:40Z</DateUtc></FrequencyChange></FrequencyChanges></Clock>\n	Hungry_Donkey_bar_English_2-162-1	60.017	-186	1.0.0.18	1	1094497282	Standard	2.0.10.353	2.0.10.353	08-22-2016	8/22/2016 4:04:40 PM	12:04:40	2.0.10.248	101	Bar50-50.bmp	46	2	?	10r_4g.bmp	0r_4g.bmp	2r_2g.bmp	0r_2g.bmp		0r_4g.bmp			TrialProc	TrialList	0	cvbn	-999999	16	319215	0	v	414	319629	364	-431	-67	-14	-68	7	8	4	11	101	-10	0	-2	0	4	4	2	2	0	4
Hungry_Donkey_bar_English_2	162	1	<?xml version="1.0"?>\n<Clock xmlns:dt="urn:schemas-microsoft-com:datatypes"><Description dt:dt="string">E-Prime Primary Realtime Clock</Description><StartTime><Timestamp dt:dt="int">0</Timestamp><DateUtc dt:dt="string">2016-08-22T16:04:40Z</DateUtc></StartTime><FrequencyChanges><FrequencyChange><Frequency dt:dt="r8">3507685</Frequency><Timestamp dt:dt="r8">1139260167554</Timestamp><Current dt:dt="r8">0</Current><DateUtc dt:dt="string">2016-08-22T16:04:40Z</DateUtc></FrequencyChange></FrequencyChanges></Clock>\n	Hungry_Donkey_bar_English_2-162-1	60.017	-186	1.0.0.18	1	1094497282	Standard	2.0.10.353	2.0.10.353	08-22-2016	8/22/2016 4:04:40 PM	12:04:40	2.0.10.248	102	Bar50-50.bmp	45	1	?	12r_4g.bmp	0r_4g.bmp	3r_2g.bmp	0r_2g.bmp	12r_4g.bmp				TrialProc	TrialList	0	cvbn	-999999	16	321664	0	c	685	322349	368	-443	-75	-22	-68	7	8	5	11	102	-12	0	-3	0	4	4	2	2	-12	4
Hungry_Donkey_bar_English_2	162	1	<?xml version="1.0"?>\n<Clock xmlns:dt="urn:schemas-microsoft-com:datatypes"><Description dt:dt="string">E-Prime Primary Realtime Clock</Description><StartTime><Timestamp dt:dt="int">0</Timestamp><DateUtc dt:dt="string">2016-08-22T16:04:40Z</DateUtc></StartTime><FrequencyChanges><FrequencyChange><Frequency dt:dt="r8">3507685</Frequency><Timestamp dt:dt="r8">1139260167554</Timestamp><Current dt:dt="r8">0</Current><DateUtc dt:dt="string">2016-08-22T16:04:40Z</DateUtc></FrequencyChange></FrequencyChanges></Clock>\n	Hungry_Donkey_bar_English_2-162-1	60.017	-186	1.0.0.18	1	1094497282	Standard	2.0.10.353	2.0.10.353	08-22-2016	8/22/2016 4:04:40 PM	12:04:40	2.0.10.248	103	Bar50-50.bmp	46	2	?	0r_4g.bmp	0r_4g.bmp	0r_2g.bmp	0r_2g.bmp		0r_4g.bmp			TrialProc	TrialList	0	cvbn	-999999	16	324380	0	v	705	325085	372	-443	-71	-22	-64	7	8	6	11	103	0	0	0	0	4	4	2	2	0	4
Hungry_Donkey_bar_English_2	162	1	<?xml version="1.0"?>\n<Clock xmlns:dt="urn:schemas-microsoft-com:datatypes"><Description dt:dt="string">E-Prime Primary Realtime Clock</Description><StartTime><Timestamp dt:dt="int">0</Timestamp><DateUtc dt:dt="string">2016-08-22T16:04:40Z</DateUtc></StartTime><FrequencyChanges><FrequencyChange><Frequency dt:dt="r8">3507685</Frequency><Timestamp dt:dt="r8">1139260167554</Timestamp><Current dt:dt="r8">0</Current><DateUtc dt:dt="string">2016-08-22T16:04:40Z</DateUtc></FrequencyChange></FrequencyChanges></Clock>\n	Hungry_Donkey_bar_English_2-162-1	60.017	-186	1.0.0.18	1	1094497282	Standard	2.0.10.353	2.0.10.353	08-22-2016	8/22/2016 4:04:40 PM	12:04:40	2.0.10.248	104	Bar37-63.bmp	43	2	?	8r_4g.bmp	50r_4g.bmp	1r_2g.bmp	10r_2g.bmp		50r_4g.bmp			TrialProc	TrialList	0	cvbn	-999999	16	327113	0	v	452	327565	376	-493	-117	-22	-110	7	8	1	11	104	-8	-50	-1	-10	4	4	2	2	-50	4
Hungry_Donkey_bar_English_2	162	1	<?xml version="1.0"?>\n<Clock xmlns:dt="urn:schemas-microsoft-com:datatypes"><Description dt:dt="string">E-Prime Primary Realtime Clock</Description><StartTime><Timestamp dt:dt="int">0</Timestamp><DateUtc dt:dt="string">2016-08-22T16:04:40Z</DateUtc></StartTime><FrequencyChanges><FrequencyChange><Frequency dt:dt="r8">3507685</Frequency><Timestamp dt:dt="r8">1139260167554</Timestamp><Current dt:dt="r8">0</Current><DateUtc dt:dt="string">2016-08-22T16:04:40Z</DateUtc></FrequencyChange></FrequencyChanges></Clock>\n	Hungry_Donkey_bar_English_2-162-1	60.017	-186	1.0.0.18	1	1094497282	Standard	2.0.10.353	2.0.10.353	08-22-2016	8/22/2016 4:04:40 PM	12:04:40	2.0.10.248	105	Bar50-50.bmp	44	2	?	0r_4g.bmp	0r_4g.bmp	0r_2g.bmp	0r_2g.bmp		0r_4g.bmp			TrialProc	TrialList	0	cvbn	-999999	16	329595	0	v	770	330365	380	-493	-113	-22	-106	7	8	9	11	105	0	0	0	0	4	4	2	2	0	4
Hungry_Donkey_bar_English_2	162	1	<?xml version="1.0"?>\n<Clock xmlns:dt="urn:schemas-microsoft-com:datatypes"><Description dt:dt="string">E-Prime Primary Realtime Clock</Description><StartTime><Timestamp dt:dt="int">0</Timestamp><DateUtc dt:dt="string">2016-08-22T16:04:40Z</DateUtc></StartTime><FrequencyChanges><FrequencyChange><Frequency dt:dt="r8">3507685</Frequency><Timestamp dt:dt="r8">1139260167554</Timestamp><Current dt:dt="r8">0</Current><DateUtc dt:dt="string">2016-08-22T16:04:40Z</DateUtc></FrequencyChange></FrequencyChanges></Clock>\n	Hungry_Donkey_bar_English_2-162-1	60.017	-186	1.0.0.18	1	1094497282	Standard	2.0.10.353	2.0.10.353	08-22-2016	8/22/2016 4:04:40 PM	12:04:40	2.0.10.248	106	Bar50-50.bmp	44	2	?	0r_4g.bmp	0r_4g.bmp	0r_2g.bmp	0r_2g.bmp		0r_4g.bmp			TrialProc	TrialList	0	cvbn	-999999	17	332395	0	v	466	332861	384	-493	-109	-22	-102	7	8	10	11	106	0	0	0	0	4	4	2	2	0	4
Hungry_Donkey_bar_English_2	162	1	<?xml version="1.0"?>\n<Clock xmlns:dt="urn:schemas-microsoft-com:datatypes"><Description dt:dt="string">E-Prime Primary Realtime Clock</Description><StartTime><Timestamp dt:dt="int">0</Timestamp><DateUtc dt:dt="string">2016-08-22T16:04:40Z</DateUtc></StartTime><FrequencyChanges><FrequencyChange><Frequency dt:dt="r8">3507685</Frequency><Timestamp dt:dt="r8">1139260167554</Timestamp><Current dt:dt="r8">0</Current><DateUtc dt:dt="string">2016-08-22T16:04:40Z</DateUtc></FrequencyChange></FrequencyChanges></Clock>\n	Hungry_Donkey_bar_English_2-162-1	60.017	-186	1.0.0.18	1	1094497282	Standard	2.0.10.353	2.0.10.353	08-22-2016	8/22/2016 4:04:40 PM	12:04:40	2.0.10.248	107	Bar50-50.bmp	44	2	?	10r_4g.bmp	0r_4g.bmp	2r_2g.bmp	0r_2g.bmp		0r_4g.bmp			TrialProc	TrialList	0	cvbn	-999999	16	334894	0	v	1199	336093	388	-493	-105	-22	-98	7	8	3	11	107	-10	0	-2	0	4	4	2	2	0	4
Hungry_Donkey_bar_English_2	162	1	<?xml version="1.0"?>\n<Clock xmlns:dt="urn:schemas-microsoft-com:datatypes"><Description dt:dt="string">E-Prime Primary Realtime Clock</Description><StartTime><Timestamp dt:dt="int">0</Timestamp><DateUtc dt:dt="string">2016-08-22T16:04:40Z</DateUtc></StartTime><FrequencyChanges><FrequencyChange><Frequency dt:dt="r8">3507685</Frequency><Timestamp dt:dt="r8">1139260167554</Timestamp><Current dt:dt="r8">0</Current><DateUtc dt:dt="string">2016-08-22T16:04:40Z</DateUtc></FrequencyChange></FrequencyChanges></Clock>\n	Hungry_Donkey_bar_English_2-162-1	60.017	-186	1.0.0.18	1	1094497282	Standard	2.0.10.353	2.0.10.353	08-22-2016	8/22/2016 4:04:40 PM	12:04:40	2.0.10.248	108	Bar50-50.bmp	44	2	?	0r_4g.bmp	0r_4g.bmp	0r_2g.bmp	0r_2g.bmp		0r_4g.bmp			TrialProc	TrialList	0	cvbn	-999999	16	338126	0	v	414	338540	392	-493	-101	-22	-94	7	8	8	11	108	0	0	0	0	4	4	2	2	0	4
Hungry_Donkey_bar_English_2	162	1	<?xml version="1.0"?>\n<Clock xmlns:dt="urn:schemas-microsoft-com:datatypes"><Description dt:dt="string">E-Prime Primary Realtime Clock</Description><StartTime><Timestamp dt:dt="int">0</Timestamp><DateUtc dt:dt="string">2016-08-22T16:04:40Z</DateUtc></StartTime><FrequencyChanges><FrequencyChange><Frequency dt:dt="r8">3507685</Frequency><Timestamp dt:dt="r8">1139260167554</Timestamp><Current dt:dt="r8">0</Current><DateUtc dt:dt="string">2016-08-22T16:04:40Z</DateUtc></FrequencyChange></FrequencyChanges></Clock>\n	Hungry_Donkey_bar_English_2-162-1	60.017	-186	1.0.0.18	1	1094497282	Standard	2.0.10.353	2.0.10.353	08-22-2016	8/22/2016 4:04:40 PM	12:04:40	2.0.10.248	109	Bar50-50.bmp	45	2	?	0r_4g.bmp	0r_4g.bmp	0r_2g.bmp	0r_2g.bmp		0r_4g.bmp			TrialProc	TrialList	0	cvbn	-999999	17	340576	0	v	508	341084	396	-493	-97	-22	-90	7	8	7	11	109	0	0	0	0	4	4	2	2	0	4
Hungry_Donkey_bar_English_2	162	1	<?xml version="1.0"?>\n<Clock xmlns:dt="urn:schemas-microsoft-com:datatypes"><Description dt:dt="string">E-Prime Primary Realtime Clock</Description><StartTime><Timestamp dt:dt="int">0</Timestamp><DateUtc dt:dt="string">2016-08-22T16:04:40Z</DateUtc></StartTime><FrequencyChanges><FrequencyChange><Frequency dt:dt="r8">3507685</Frequency><Timestamp dt:dt="r8">1139260167554</Timestamp><Current dt:dt="r8">0</Current><DateUtc dt:dt="string">2016-08-22T16:04:40Z</DateUtc></FrequencyChange></FrequencyChanges></Clock>\n	Hungry_Donkey_bar_English_2-162-1	60.017	-186	1.0.0.18	1	1094497282	Standard	2.0.10.353	2.0.10.353	08-22-2016	8/22/2016 4:04:40 PM	12:04:40	2.0.10.248	110	Bar50-50.bmp	45	2	?	10r_4g.bmp	0r_4g.bmp	2r_2g.bmp	0r_2g.bmp		0r_4g.bmp			TrialProc	TrialList	0	cvbn	-999999	16	343108	0	v	744	343852	400	-493	-93	-22	-86	7	8	2	11	110	-10	0	-2	0	4	4	2	2	0	4
Hungry_Donkey_bar_English_2	162	1	<?xml version="1.0"?>\n<Clock xmlns:dt="urn:schemas-microsoft-com:datatypes"><Description dt:dt="string">E-Prime Primary Realtime Clock</Description><StartTime><Timestamp dt:dt="int">0</Timestamp><DateUtc dt:dt="string">2016-08-22T16:04:40Z</DateUtc></StartTime><FrequencyChanges><FrequencyChange><Frequency dt:dt="r8">3507685</Frequency><Timestamp dt:dt="r8">1139260167554</Timestamp><Current dt:dt="r8">0</Current><DateUtc dt:dt="string">2016-08-22T16:04:40Z</DateUtc></FrequencyChange></FrequencyChanges></Clock>\n	Hungry_Donkey_bar_English_2-162-1	60.017	-186	1.0.0.18	1	1094497282	Standard	2.0.10.353	2.0.10.353	08-22-2016	8/22/2016 4:04:40 PM	12:04:40	2.0.10.248	111	Bar37-63.bmp	43	2	?	8r_4g.bmp	50r_4g.bmp	1r_2g.bmp	10r_2g.bmp		50r_4g.bmp			TrialProc	TrialList	0	cvbn	-999999	16	345891	0	v	473	346364	404	-543	-139	-22	-132	7	8	1	12	111	-8	-50	-1	-10	4	4	2	2	-50	4
