ExperimentName	Subject	Session	Clock.Information	DataFile.Basename	Display.RefreshRate	Eindtotaal[Session]	ExperimentVersion	Group	RandomSeed	RuntimeCapabilities	RuntimeVersion	RuntimeVersionExpected	SessionDate	SessionStartDateTimeUtc	SessionTime	StudioVersion	Block	BarImage	BarTotalWinst	DoorChoice	Eindtotaal[Block]	FBDoor1	FBDoor2	FBDoor3	FBDoor4	Image1	Image2	Image3	Image4	Procedure	Running	spel.ACC	spel.CRESP	spel.DurationError	spel.OnsetDelay	spel.OnsetTime	spel.OnsetToOnsetTime	spel.RESP	spel.RT	spel.RTTime	TotalGain	TotalLose	Totalsum	TotalsumD1	TotalsumD2	TotalsumD3	TotalsumD4	TrialList	TrialList.Cycle	TrialList.Sample	varV1	varV2	varV3	varV4	varW1	varW2	varW3	varW4	Verliesbedrag	Winstbedrag
Hungry_Donkey_bar_English_2	151	1	<?xml version="1.0"?>\n<Clock xmlns:dt="urn:schemas-microsoft-com:datatypes"><Description dt:dt="string">E-Prime Primary Realtime Clock</Description><StartTime><Timestamp dt:dt="int">0</Timestamp><DateUtc dt:dt="string">2016-06-06T22:08:43Z</DateUtc></StartTime><FrequencyChanges><FrequencyChange><Frequency dt:dt="r8">3507724</Frequency><Timestamp dt:dt="r8">373827826</Timestamp><Current dt:dt="r8">0</Current><DateUtc dt:dt="string">2016-06-06T22:08:43Z</DateUtc></FrequencyChange></FrequencyChanges></Clock>\n	Hungry_Donkey_bar_English_2-151-1	60.018	9	1.0.0.18	1	374500573	Standard	2.0.10.353	2.0.10.353	06-06-2016		18:08:44	2.0.10.248	1	Bar37-63.bmp	33	1	?	8r_4g.bmp	50r_4g.bmp	1r_2g.bmp	10r_2g.bmp	8r_4g.bmp				TrialProc	TrialList	0	cvbn	-999999	23	56039	0	c	1129	57168	4	-8	-4	-4	0	0	0	1	1	1	-8	-50	-1	-10	4	4	2	2	-8	4
Hungry_Donkey_bar_English_2	151	1	<?xml version="1.0"?>\n<Clock xmlns:dt="urn:schemas-microsoft-com:datatypes"><Description dt:dt="string">E-Prime Primary Realtime Clock</Description><StartTime><Timestamp dt:dt="int">0</Timestamp><DateUtc dt:dt="string">2016-06-06T22:08:43Z</DateUtc></StartTime><FrequencyChanges><FrequencyChange><Frequency dt:dt="r8">3507724</Frequency><Timestamp dt:dt="r8">373827826</Timestamp><Current dt:dt="r8">0</Current><DateUtc dt:dt="string">2016-06-06T22:08:43Z</DateUtc></FrequencyChange></FrequencyChanges></Clock>\n	Hungry_Donkey_bar_English_2-151-1	60.018	9	1.0.0.18	1	374500573	Standard	2.0.10.353	2.0.10.353	06-06-2016		18:08:44	2.0.10.248	2	Bar50-50.bmp	50	2	?	0r_4g.bmp	0r_4g.bmp	0r_2g.bmp	0r_2g.bmp		0r_4g.bmp			TrialProc	TrialList	0	cvbn	-999999	16	59221	0	v	11370	70591	8	-8	0	-4	4	0	0	9	1	2	0	0	0	0	4	4	2	2	0	4
Hungry_Donkey_bar_English_2	151	1	<?xml version="1.0"?>\n<Clock xmlns:dt="urn:schemas-microsoft-com:datatypes"><Description dt:dt="string">E-Prime Primary Realtime Clock</Description><StartTime><Timestamp dt:dt="int">0</Timestamp><DateUtc dt:dt="string">2016-06-06T22:08:43Z</DateUtc></StartTime><FrequencyChanges><FrequencyChange><Frequency dt:dt="r8">3507724</Frequency><Timestamp dt:dt="r8">373827826</Timestamp><Current dt:dt="r8">0</Current><DateUtc dt:dt="string">2016-06-06T22:08:43Z</DateUtc></FrequencyChange></FrequencyChanges></Clock>\n	Hungry_Donkey_bar_English_2-151-1	60.018	9	1.0.0.18	1	374500573	Standard	2.0.10.353	2.0.10.353	06-06-2016		18:08:44	2.0.10.248	3	Bar50-50.bmp	56	4	?	0r_4g.bmp	0r_4g.bmp	0r_2g.bmp	0r_2g.bmp				0r_2g.bmp	TrialProc	TrialList	0	cvbn	-999999	16	72634	0	n	821	73455	10	-8	2	-4	4	0	2	7	1	3	0	0	0	0	4	4	2	2	0	2
Hungry_Donkey_bar_English_2	151	1	<?xml version="1.0"?>\n<Clock xmlns:dt="urn:schemas-microsoft-com:datatypes"><Description dt:dt="string">E-Prime Primary Realtime Clock</Description><StartTime><Timestamp dt:dt="int">0</Timestamp><DateUtc dt:dt="string">2016-06-06T22:08:43Z</DateUtc></StartTime><FrequencyChanges><FrequencyChange><Frequency dt:dt="r8">3507724</Frequency><Timestamp dt:dt="r8">373827826</Timestamp><Current dt:dt="r8">0</Current><DateUtc dt:dt="string">2016-06-06T22:08:43Z</DateUtc></FrequencyChange></FrequencyChanges></Clock>\n	Hungry_Donkey_bar_English_2-151-1	60.018	9	1.0.0.18	1	374500573	Standard	2.0.10.353	2.0.10.353	06-06-2016		18:08:44	2.0.10.248	4	Bar50-50.bmp	55	3	?	10r_4g.bmp	0r_4g.bmp	2r_2g.bmp	0r_2g.bmp			2r_2g.bmp		TrialProc	TrialList	0	cvbn	-999999	16	75500	0	b	2211	77711	12	-10	2	-4	4	0	2	3	1	4	-10	0	-2	0	4	4	2	2	-2	2
Hungry_Donkey_bar_English_2	151	1	<?xml version="1.0"?>\n<Clock xmlns:dt="urn:schemas-microsoft-com:datatypes"><Description dt:dt="string">E-Prime Primary Realtime Clock</Description><StartTime><Timestamp dt:dt="int">0</Timestamp><DateUtc dt:dt="string">2016-06-06T22:08:43Z</DateUtc></StartTime><FrequencyChanges><FrequencyChange><Frequency dt:dt="r8">3507724</Frequency><Timestamp dt:dt="r8">373827826</Timestamp><Current dt:dt="r8">0</Current><DateUtc dt:dt="string">2016-06-06T22:08:43Z</DateUtc></FrequencyChange></FrequencyChanges></Clock>\n	Hungry_Donkey_bar_English_2-151-1	60.018	9	1.0.0.18	1	374500573	Standard	2.0.10.353	2.0.10.353	06-06-2016		18:08:44	2.0.10.248	5	Bar50-50.bmp	44	1	?	10r_4g.bmp	0r_4g.bmp	2r_2g.bmp	0r_2g.bmp	10r_4g.bmp				TrialProc	TrialList	0	cvbn	-999999	16	79749	0	c	3689	83438	16	-20	-4	-10	4	0	2	4	1	5	-10	0	-2	0	4	4	2	2	-10	4
Hungry_Donkey_bar_English_2	151	1	<?xml version="1.0"?>\n<Clock xmlns:dt="urn:schemas-microsoft-com:datatypes"><Description dt:dt="string">E-Prime Primary Realtime Clock</Description><StartTime><Timestamp dt:dt="int">0</Timestamp><DateUtc dt:dt="string">2016-06-06T22:08:43Z</DateUtc></StartTime><FrequencyChanges><FrequencyChange><Frequency dt:dt="r8">3507724</Frequency><Timestamp dt:dt="r8">373827826</Timestamp><Current dt:dt="r8">0</Current><DateUtc dt:dt="string">2016-06-06T22:08:43Z</DateUtc></FrequencyChange></FrequencyChanges></Clock>\n	Hungry_Donkey_bar_English_2-151-1	60.018	9	1.0.0.18	1	374500573	Standard	2.0.10.353	2.0.10.353	06-06-2016		18:08:44	2.0.10.248	6	Bar50-50.bmp	50	2	?	0r_4g.bmp	0r_4g.bmp	0r_2g.bmp	0r_2g.bmp		0r_4g.bmp			TrialProc	TrialList	0	cvbn	-999999	16	85480	0	v	1174	86654	20	-20	0	-10	8	0	2	10	1	6	0	0	0	0	4	4	2	2	0	4
Hungry_Donkey_bar_English_2	151	1	<?xml version="1.0"?>\n<Clock xmlns:dt="urn:schemas-microsoft-com:datatypes"><Description dt:dt="string">E-Prime Primary Realtime Clock</Description><StartTime><Timestamp dt:dt="int">0</Timestamp><DateUtc dt:dt="string">2016-06-06T22:08:43Z</DateUtc></StartTime><FrequencyChanges><FrequencyChange><Frequency dt:dt="r8">3507724</Frequency><Timestamp dt:dt="r8">373827826</Timestamp><Current dt:dt="r8">0</Current><DateUtc dt:dt="string">2016-06-06T22:08:43Z</DateUtc></FrequencyChange></FrequencyChanges></Clock>\n	Hungry_Donkey_bar_English_2-151-1	60.018	9	1.0.0.18	1	374500573	Standard	2.0.10.353	2.0.10.353	06-06-2016		18:08:44	2.0.10.248	7	Bar50-50.bmp	52	4	?	10r_4g.bmp	0r_4g.bmp	2r_2g.bmp	0r_2g.bmp				0r_2g.bmp	TrialProc	TrialList	0	cvbn	-999999	16	88679	0	n	1591	90270	22	-20	2	-10	8	0	4	2	1	7	-10	0	-2	0	4	4	2	2	0	2
Hungry_Donkey_bar_English_2	151	1	<?xml version="1.0"?>\n<Clock xmlns:dt="urn:schemas-microsoft-com:datatypes"><Description dt:dt="string">E-Prime Primary Realtime Clock</Description><StartTime><Timestamp dt:dt="int">0</Timestamp><DateUtc dt:dt="string">2016-06-06T22:08:43Z</DateUtc></StartTime><FrequencyChanges><FrequencyChange><Frequency dt:dt="r8">3507724</Frequency><Timestamp dt:dt="r8">373827826</Timestamp><Current dt:dt="r8">0</Current><DateUtc dt:dt="string">2016-06-06T22:08:43Z</DateUtc></FrequencyChange></FrequencyChanges></Clock>\n	Hungry_Donkey_bar_English_2-151-1	60.018	9	1.0.0.18	1	374500573	Standard	2.0.10.353	2.0.10.353	06-06-2016		18:08:44	2.0.10.248	8	Bar63-37.bmp	57	2	?	0r_4g.bmp	0r_4g.bmp	0r_2g.bmp	0r_2g.bmp		0r_4g.bmp			TrialProc	TrialList	0	cvbn	-999999	17	92312	0	v	982	93294	26	-20	6	-10	12	0	4	8	1	8	0	0	0	0	4	4	2	2	0	4
Hungry_Donkey_bar_English_2	151	1	<?xml version="1.0"?>\n<Clock xmlns:dt="urn:schemas-microsoft-com:datatypes"><Description dt:dt="string">E-Prime Primary Realtime Clock</Description><StartTime><Timestamp dt:dt="int">0</Timestamp><DateUtc dt:dt="string">2016-06-06T22:08:43Z</DateUtc></StartTime><FrequencyChanges><FrequencyChange><Frequency dt:dt="r8">3507724</Frequency><Timestamp dt:dt="r8">373827826</Timestamp><Current dt:dt="r8">0</Current><DateUtc dt:dt="string">2016-06-06T22:08:43Z</DateUtc></FrequencyChange></FrequencyChanges></Clock>\n	Hungry_Donkey_bar_English_2-151-1	60.018	9	1.0.0.18	1	374500573	Standard	2.0.10.353	2.0.10.353	06-06-2016		18:08:44	2.0.10.248	9	Bar63-37.bmp	58	4	?	0r_4g.bmp	0r_4g.bmp	0r_2g.bmp	0r_2g.bmp				0r_2g.bmp	TrialProc	TrialList	0	cvbn	-999999	16	95327	0	n	575	95902	28	-20	8	-10	12	0	6	6	1	9	0	0	0	0	4	4	2	2	0	2
Hungry_Donkey_bar_English_2	151	1	<?xml version="1.0"?>\n<Clock xmlns:dt="urn:schemas-microsoft-com:datatypes"><Description dt:dt="string">E-Prime Primary Realtime Clock</Description><StartTime><Timestamp dt:dt="int">0</Timestamp><DateUtc dt:dt="string">2016-06-06T22:08:43Z</DateUtc></StartTime><FrequencyChanges><FrequencyChange><Frequency dt:dt="r8">3507724</Frequency><Timestamp dt:dt="r8">373827826</Timestamp><Current dt:dt="r8">0</Current><DateUtc dt:dt="string">2016-06-06T22:08:43Z</DateUtc></FrequencyChange></FrequencyChanges></Clock>\n	Hungry_Donkey_bar_English_2-151-1	60.018	9	1.0.0.18	1	374500573	Standard	2.0.10.353	2.0.10.353	06-06-2016		18:08:44	2.0.10.248	10	Bar63-37.bmp	62	2	?	12r_4g.bmp	0r_4g.bmp	3r_2g.bmp	0r_2g.bmp		0r_4g.bmp			TrialProc	TrialList	0	cvbn	-999999	16	97943	0	v	967	98910	32	-20	12	-10	16	0	6	5	1	10	-12	0	-3	0	4	4	2	2	0	4
Hungry_Donkey_bar_English_2	151	1	<?xml version="1.0"?>\n<Clock xmlns:dt="urn:schemas-microsoft-com:datatypes"><Description dt:dt="string">E-Prime Primary Realtime Clock</Description><StartTime><Timestamp dt:dt="int">0</Timestamp><DateUtc dt:dt="string">2016-06-06T22:08:43Z</DateUtc></StartTime><FrequencyChanges><FrequencyChange><Frequency dt:dt="r8">3507724</Frequency><Timestamp dt:dt="r8">373827826</Timestamp><Current dt:dt="r8">0</Current><DateUtc dt:dt="string">2016-06-06T22:08:43Z</DateUtc></FrequencyChange></FrequencyChanges></Clock>\n	Hungry_Donkey_bar_English_2-151-1	60.018	9	1.0.0.18	1	374500573	Standard	2.0.10.353	2.0.10.353	06-06-2016		18:08:44	2.0.10.248	11	Bar63-37.bmp	63	4	?	0r_4g.bmp	0r_4g.bmp	0r_2g.bmp	0r_2g.bmp				0r_2g.bmp	TrialProc	TrialList	0	cvbn	-999999	16	100942	0	n	511	101453	34	-20	14	-10	16	0	8	6	2	11	0	0	0	0	4	4	2	2	0	2
Hungry_Donkey_bar_English_2	151	1	<?xml version="1.0"?>\n<Clock xmlns:dt="urn:schemas-microsoft-com:datatypes"><Description dt:dt="string">E-Prime Primary Realtime Clock</Description><StartTime><Timestamp dt:dt="int">0</Timestamp><DateUtc dt:dt="string">2016-06-06T22:08:43Z</DateUtc></StartTime><FrequencyChanges><FrequencyChange><Frequency dt:dt="r8">3507724</Frequency><Timestamp dt:dt="r8">373827826</Timestamp><Current dt:dt="r8">0</Current><DateUtc dt:dt="string">2016-06-06T22:08:43Z</DateUtc></FrequencyChange></FrequencyChanges></Clock>\n	Hungry_Donkey_bar_English_2-151-1	60.018	9	1.0.0.18	1	374500573	Standard	2.0.10.353	2.0.10.353	06-06-2016		18:08:44	2.0.10.248	12	Bar63-37.bmp	66	2	?	10r_4g.bmp	0r_4g.bmp	2r_2g.bmp	0r_2g.bmp		0r_4g.bmp			TrialProc	TrialList	0	cvbn	-999999	17	103492	0	v	121	103613	38	-20	18	-10	20	0	8	3	2	12	-10	0	-2	0	4	4	2	2	0	4
Hungry_Donkey_bar_English_2	151	1	<?xml version="1.0"?>\n<Clock xmlns:dt="urn:schemas-microsoft-com:datatypes"><Description dt:dt="string">E-Prime Primary Realtime Clock</Description><StartTime><Timestamp dt:dt="int">0</Timestamp><DateUtc dt:dt="string">2016-06-06T22:08:43Z</DateUtc></StartTime><FrequencyChanges><FrequencyChange><Frequency dt:dt="r8">3507724</Frequency><Timestamp dt:dt="r8">373827826</Timestamp><Current dt:dt="r8">0</Current><DateUtc dt:dt="string">2016-06-06T22:08:43Z</DateUtc></FrequencyChange></FrequencyChanges></Clock>\n	Hungry_Donkey_bar_English_2-151-1	60.018	9	1.0.0.18	1	374500573	Standard	2.0.10.353	2.0.10.353	06-06-2016		18:08:44	2.0.10.248	13	Bar63-37.bmp	67	4	?	0r_4g.bmp	0r_4g.bmp	0r_2g.bmp	0r_2g.bmp				0r_2g.bmp	TrialProc	TrialList	0	cvbn	-999999	16	105641	0	n	84	105725	40	-20	20	-10	20	0	10	8	2	13	0	0	0	0	4	4	2	2	0	2
Hungry_Donkey_bar_English_2	151	1	<?xml version="1.0"?>\n<Clock xmlns:dt="urn:schemas-microsoft-com:datatypes"><Description dt:dt="string">E-Prime Primary Realtime Clock</Description><StartTime><Timestamp dt:dt="int">0</Timestamp><DateUtc dt:dt="string">2016-06-06T22:08:43Z</DateUtc></StartTime><FrequencyChanges><FrequencyChange><Frequency dt:dt="r8">3507724</Frequency><Timestamp dt:dt="r8">373827826</Timestamp><Current dt:dt="r8">0</Current><DateUtc dt:dt="string">2016-06-06T22:08:43Z</DateUtc></FrequencyChange></FrequencyChanges></Clock>\n	Hungry_Donkey_bar_English_2-151-1	60.018	9	1.0.0.18	1	374500573	Standard	2.0.10.353	2.0.10.353	06-06-2016		18:08:44	2.0.10.248	14	Bar63-37.bmp	69	2	?	10r_4g.bmp	0r_4g.bmp	2r_2g.bmp	0r_2g.bmp		0r_4g.bmp			TrialProc	TrialList	0	cvbn	-999999	16	107757	0	v	2224	109981	44	-20	24	-10	24	0	10	4	2	14	-10	0	-2	0	4	4	2	2	0	4
Hungry_Donkey_bar_English_2	151	1	<?xml version="1.0"?>\n<Clock xmlns:dt="urn:schemas-microsoft-com:datatypes"><Description dt:dt="string">E-Prime Primary Realtime Clock</Description><StartTime><Timestamp dt:dt="int">0</Timestamp><DateUtc dt:dt="string">2016-06-06T22:08:43Z</DateUtc></StartTime><FrequencyChanges><FrequencyChange><Frequency dt:dt="r8">3507724</Frequency><Timestamp dt:dt="r8">373827826</Timestamp><Current dt:dt="r8">0</Current><DateUtc dt:dt="string">2016-06-06T22:08:43Z</DateUtc></FrequencyChange></FrequencyChanges></Clock>\n	Hungry_Donkey_bar_English_2-151-1	60.018	9	1.0.0.18	1	374500573	Standard	2.0.10.353	2.0.10.353	06-06-2016		18:08:44	2.0.10.248	15	Bar75-25.bmp	70	4	?	0r_4g.bmp	0r_4g.bmp	0r_2g.bmp	0r_2g.bmp				0r_2g.bmp	TrialProc	TrialList	0	cvbn	-999999	16	112006	0	n	519	112525	46	-20	26	-10	24	0	12	10	2	15	0	0	0	0	4	4	2	2	0	2
Hungry_Donkey_bar_English_2	151	1	<?xml version="1.0"?>\n<Clock xmlns:dt="urn:schemas-microsoft-com:datatypes"><Description dt:dt="string">E-Prime Primary Realtime Clock</Description><StartTime><Timestamp dt:dt="int">0</Timestamp><DateUtc dt:dt="string">2016-06-06T22:08:43Z</DateUtc></StartTime><FrequencyChanges><FrequencyChange><Frequency dt:dt="r8">3507724</Frequency><Timestamp dt:dt="r8">373827826</Timestamp><Current dt:dt="r8">0</Current><DateUtc dt:dt="string">2016-06-06T22:08:43Z</DateUtc></FrequencyChange></FrequencyChanges></Clock>\n	Hungry_Donkey_bar_English_2-151-1	60.018	9	1.0.0.18	1	374500573	Standard	2.0.10.353	2.0.10.353	06-06-2016		18:08:44	2.0.10.248	16	Bar37-63.bmp	42	2	?	8r_4g.bmp	50r_4g.bmp	1r_2g.bmp	10r_2g.bmp		50r_4g.bmp			TrialProc	TrialList	0	cvbn	-999999	16	114555	0	v	1041	115596	50	-70	-20	-10	-22	0	12	1	2	16	-8	-50	-1	-10	4	4	2	2	-50	4
Hungry_Donkey_bar_English_2	151	1	<?xml version="1.0"?>\n<Clock xmlns:dt="urn:schemas-microsoft-com:datatypes"><Description dt:dt="string">E-Prime Primary Realtime Clock</Description><StartTime><Timestamp dt:dt="int">0</Timestamp><DateUtc dt:dt="string">2016-06-06T22:08:43Z</DateUtc></StartTime><FrequencyChanges><FrequencyChange><Frequency dt:dt="r8">3507724</Frequency><Timestamp dt:dt="r8">373827826</Timestamp><Current dt:dt="r8">0</Current><DateUtc dt:dt="string">2016-06-06T22:08:43Z</DateUtc></FrequencyChange></FrequencyChanges></Clock>\n	Hungry_Donkey_bar_English_2-151-1	60.018	9	1.0.0.18	1	374500573	Standard	2.0.10.353	2.0.10.353	06-06-2016		18:08:44	2.0.10.248	17	Bar37-63.bmp	43	4	?	0r_4g.bmp	0r_4g.bmp	0r_2g.bmp	0r_2g.bmp				0r_2g.bmp	TrialProc	TrialList	0	cvbn	-999999	16	117637	0	n	4327	121964	52	-70	-18	-10	-22	0	14	7	2	17	0	0	0	0	4	4	2	2	0	2
Hungry_Donkey_bar_English_2	151	1	<?xml version="1.0"?>\n<Clock xmlns:dt="urn:schemas-microsoft-com:datatypes"><Description dt:dt="string">E-Prime Primary Realtime Clock</Description><StartTime><Timestamp dt:dt="int">0</Timestamp><DateUtc dt:dt="string">2016-06-06T22:08:43Z</DateUtc></StartTime><FrequencyChanges><FrequencyChange><Frequency dt:dt="r8">3507724</Frequency><Timestamp dt:dt="r8">373827826</Timestamp><Current dt:dt="r8">0</Current><DateUtc dt:dt="string">2016-06-06T22:08:43Z</DateUtc></FrequencyChange></FrequencyChanges></Clock>\n	Hungry_Donkey_bar_English_2-151-1	60.018	9	1.0.0.18	1	374500573	Standard	2.0.10.353	2.0.10.353	06-06-2016		18:08:44	2.0.10.248	18	Bar37-63.bmp	43	3	?	12r_4g.bmp	0r_4g.bmp	3r_2g.bmp	0r_2g.bmp			3r_2g.bmp		TrialProc	TrialList	0	cvbn	-999999	16	124002	0	b	666	124668	54	-73	-19	-10	-22	-1	14	5	2	18	-12	0	-3	0	4	4	2	2	-3	2
Hungry_Donkey_bar_English_2	151	1	<?xml version="1.0"?>\n<Clock xmlns:dt="urn:schemas-microsoft-com:datatypes"><Description dt:dt="string">E-Prime Primary Realtime Clock</Description><StartTime><Timestamp dt:dt="int">0</Timestamp><DateUtc dt:dt="string">2016-06-06T22:08:43Z</DateUtc></StartTime><FrequencyChanges><FrequencyChange><Frequency dt:dt="r8">3507724</Frequency><Timestamp dt:dt="r8">373827826</Timestamp><Current dt:dt="r8">0</Current><DateUtc dt:dt="string">2016-06-06T22:08:43Z</DateUtc></FrequencyChange></FrequencyChanges></Clock>\n	Hungry_Donkey_bar_English_2-151-1	60.018	9	1.0.0.18	1	374500573	Standard	2.0.10.353	2.0.10.353	06-06-2016		18:08:44	2.0.10.248	19	Bar37-63.bmp	41	1	?	10r_4g.bmp	0r_4g.bmp	2r_2g.bmp	0r_2g.bmp	10r_4g.bmp				TrialProc	TrialList	0	cvbn	-999999	15	126701	0	c	383	127084	58	-83	-25	-16	-22	-1	14	2	2	19	-10	0	-2	0	4	4	2	2	-10	4
Hungry_Donkey_bar_English_2	151	1	<?xml version="1.0"?>\n<Clock xmlns:dt="urn:schemas-microsoft-com:datatypes"><Description dt:dt="string">E-Prime Primary Realtime Clock</Description><StartTime><Timestamp dt:dt="int">0</Timestamp><DateUtc dt:dt="string">2016-06-06T22:08:43Z</DateUtc></StartTime><FrequencyChanges><FrequencyChange><Frequency dt:dt="r8">3507724</Frequency><Timestamp dt:dt="r8">373827826</Timestamp><Current dt:dt="r8">0</Current><DateUtc dt:dt="string">2016-06-06T22:08:43Z</DateUtc></FrequencyChange></FrequencyChanges></Clock>\n	Hungry_Donkey_bar_English_2-151-1	60.018	9	1.0.0.18	1	374500573	Standard	2.0.10.353	2.0.10.353	06-06-2016		18:08:44	2.0.10.248	20	Bar37-63.bmp	43	2	?	0r_4g.bmp	0r_4g.bmp	0r_2g.bmp	0r_2g.bmp		0r_4g.bmp			TrialProc	TrialList	0	cvbn	-999999	16	129117	0	v	2367	131484	62	-83	-21	-16	-18	-1	14	9	2	20	0	0	0	0	4	4	2	2	0	4
Hungry_Donkey_bar_English_2	151	1	<?xml version="1.0"?>\n<Clock xmlns:dt="urn:schemas-microsoft-com:datatypes"><Description dt:dt="string">E-Prime Primary Realtime Clock</Description><StartTime><Timestamp dt:dt="int">0</Timestamp><DateUtc dt:dt="string">2016-06-06T22:08:43Z</DateUtc></StartTime><FrequencyChanges><FrequencyChange><Frequency dt:dt="r8">3507724</Frequency><Timestamp dt:dt="r8">373827826</Timestamp><Current dt:dt="r8">0</Current><DateUtc dt:dt="string">2016-06-06T22:08:43Z</DateUtc></FrequencyChange></FrequencyChanges></Clock>\n	Hungry_Donkey_bar_English_2-151-1	60.018	9	1.0.0.18	1	374500573	Standard	2.0.10.353	2.0.10.353	06-06-2016		18:08:44	2.0.10.248	21	Bar50-50.bmp	44	4	?	0r_4g.bmp	0r_4g.bmp	0r_2g.bmp	0r_2g.bmp				0r_2g.bmp	TrialProc	TrialList	0	cvbn	-999999	16	133516	0	n	399	133915	64	-83	-19	-16	-18	-1	16	9	3	21	0	0	0	0	4	4	2	2	0	2
Hungry_Donkey_bar_English_2	151	1	<?xml version="1.0"?>\n<Clock xmlns:dt="urn:schemas-microsoft-com:datatypes"><Description dt:dt="string">E-Prime Primary Realtime Clock</Description><StartTime><Timestamp dt:dt="int">0</Timestamp><DateUtc dt:dt="string">2016-06-06T22:08:43Z</DateUtc></StartTime><FrequencyChanges><FrequencyChange><Frequency dt:dt="r8">3507724</Frequency><Timestamp dt:dt="r8">373827826</Timestamp><Current dt:dt="r8">0</Current><DateUtc dt:dt="string">2016-06-06T22:08:43Z</DateUtc></FrequencyChange></FrequencyChanges></Clock>\n	Hungry_Donkey_bar_English_2-151-1	60.018	9	1.0.0.18	1	374500573	Standard	2.0.10.353	2.0.10.353	06-06-2016		18:08:44	2.0.10.248	22	Bar50-50.bmp	45	2	?	0r_4g.bmp	0r_4g.bmp	0r_2g.bmp	0r_2g.bmp		0r_4g.bmp			TrialProc	TrialList	0	cvbn	-999999	16	135948	0	v	319	136267	68	-83	-15	-16	-14	-1	16	8	3	22	0	0	0	0	4	4	2	2	0	4
Hungry_Donkey_bar_English_2	151	1	<?xml version="1.0"?>\n<Clock xmlns:dt="urn:schemas-microsoft-com:datatypes"><Description dt:dt="string">E-Prime Primary Realtime Clock</Description><StartTime><Timestamp dt:dt="int">0</Timestamp><DateUtc dt:dt="string">2016-06-06T22:08:43Z</DateUtc></StartTime><FrequencyChanges><FrequencyChange><Frequency dt:dt="r8">3507724</Frequency><Timestamp dt:dt="r8">373827826</Timestamp><Current dt:dt="r8">0</Current><DateUtc dt:dt="string">2016-06-06T22:08:43Z</DateUtc></FrequencyChange></FrequencyChanges></Clock>\n	Hungry_Donkey_bar_English_2-151-1	60.018	9	1.0.0.18	1	374500573	Standard	2.0.10.353	2.0.10.353	06-06-2016		18:08:44	2.0.10.248	23	Bar50-50.bmp	46	4	?	0r_4g.bmp	0r_4g.bmp	0r_2g.bmp	0r_2g.bmp				0r_2g.bmp	TrialProc	TrialList	0	cvbn	-999999	16	138298	0	n	305	138603	70	-83	-13	-16	-14	-1	18	7	3	23	0	0	0	0	4	4	2	2	0	2
Hungry_Donkey_bar_English_2	151	1	<?xml version="1.0"?>\n<Clock xmlns:dt="urn:schemas-microsoft-com:datatypes"><Description dt:dt="string">E-Prime Primary Realtime Clock</Description><StartTime><Timestamp dt:dt="int">0</Timestamp><DateUtc dt:dt="string">2016-06-06T22:08:43Z</DateUtc></StartTime><FrequencyChanges><FrequencyChange><Frequency dt:dt="r8">3507724</Frequency><Timestamp dt:dt="r8">373827826</Timestamp><Current dt:dt="r8">0</Current><DateUtc dt:dt="string">2016-06-06T22:08:43Z</DateUtc></FrequencyChange></FrequencyChanges></Clock>\n	Hungry_Donkey_bar_English_2-151-1	60.018	9	1.0.0.18	1	374500573	Standard	2.0.10.353	2.0.10.353	06-06-2016		18:08:44	2.0.10.248	24	Bar50-50.bmp	47	2	?	0r_4g.bmp	0r_4g.bmp	0r_2g.bmp	0r_2g.bmp		0r_4g.bmp			TrialProc	TrialList	0	cvbn	-999999	16	140630	0	v	69	140699	74	-83	-9	-16	-10	-1	18	10	3	24	0	0	0	0	4	4	2	2	0	4
Hungry_Donkey_bar_English_2	151	1	<?xml version="1.0"?>\n<Clock xmlns:dt="urn:schemas-microsoft-com:datatypes"><Description dt:dt="string">E-Prime Primary Realtime Clock</Description><StartTime><Timestamp dt:dt="int">0</Timestamp><DateUtc dt:dt="string">2016-06-06T22:08:43Z</DateUtc></StartTime><FrequencyChanges><FrequencyChange><Frequency dt:dt="r8">3507724</Frequency><Timestamp dt:dt="r8">373827826</Timestamp><Current dt:dt="r8">0</Current><DateUtc dt:dt="string">2016-06-06T22:08:43Z</DateUtc></FrequencyChange></FrequencyChanges></Clock>\n	Hungry_Donkey_bar_English_2-151-1	60.018	9	1.0.0.18	1	374500573	Standard	2.0.10.353	2.0.10.353	06-06-2016		18:08:44	2.0.10.248	25	Bar50-50.bmp	48	4	?	10r_4g.bmp	0r_4g.bmp	2r_2g.bmp	0r_2g.bmp				0r_2g.bmp	TrialProc	TrialList	0	cvbn	-999999	16	142730	0	n	1057	143787	76	-83	-7	-16	-10	-1	20	3	3	25	-10	0	-2	0	4	4	2	2	0	2
Hungry_Donkey_bar_English_2	151	1	<?xml version="1.0"?>\n<Clock xmlns:dt="urn:schemas-microsoft-com:datatypes"><Description dt:dt="string">E-Prime Primary Realtime Clock</Description><StartTime><Timestamp dt:dt="int">0</Timestamp><DateUtc dt:dt="string">2016-06-06T22:08:43Z</DateUtc></StartTime><FrequencyChanges><FrequencyChange><Frequency dt:dt="r8">3507724</Frequency><Timestamp dt:dt="r8">373827826</Timestamp><Current dt:dt="r8">0</Current><DateUtc dt:dt="string">2016-06-06T22:08:43Z</DateUtc></FrequencyChange></FrequencyChanges></Clock>\n	Hungry_Donkey_bar_English_2-151-1	60.018	9	1.0.0.18	1	374500573	Standard	2.0.10.353	2.0.10.353	06-06-2016		18:08:44	2.0.10.248	26	Bar50-50.bmp	49	2	?	10r_4g.bmp	0r_4g.bmp	2r_2g.bmp	0r_2g.bmp		0r_4g.bmp			TrialProc	TrialList	0	cvbn	-999999	16	145812	0	v	583	146395	80	-83	-3	-16	-6	-1	20	4	3	26	-10	0	-2	0	4	4	2	2	0	4
Hungry_Donkey_bar_English_2	151	1	<?xml version="1.0"?>\n<Clock xmlns:dt="urn:schemas-microsoft-com:datatypes"><Description dt:dt="string">E-Prime Primary Realtime Clock</Description><StartTime><Timestamp dt:dt="int">0</Timestamp><DateUtc dt:dt="string">2016-06-06T22:08:43Z</DateUtc></StartTime><FrequencyChanges><FrequencyChange><Frequency dt:dt="r8">3507724</Frequency><Timestamp dt:dt="r8">373827826</Timestamp><Current dt:dt="r8">0</Current><DateUtc dt:dt="string">2016-06-06T22:08:43Z</DateUtc></FrequencyChange></FrequencyChanges></Clock>\n	Hungry_Donkey_bar_English_2-151-1	60.018	9	1.0.0.18	1	374500573	Standard	2.0.10.353	2.0.10.353	06-06-2016		18:08:44	2.0.10.248	27	Bar50-50.bmp	50	4	?	10r_4g.bmp	0r_4g.bmp	2r_2g.bmp	0r_2g.bmp				0r_2g.bmp	TrialProc	TrialList	0	cvbn	-999999	16	148428	0	n	478	148906	82	-83	-1	-16	-6	-1	22	2	3	27	-10	0	-2	0	4	4	2	2	0	2
Hungry_Donkey_bar_English_2	151	1	<?xml version="1.0"?>\n<Clock xmlns:dt="urn:schemas-microsoft-com:datatypes"><Description dt:dt="string">E-Prime Primary Realtime Clock</Description><StartTime><Timestamp dt:dt="int">0</Timestamp><DateUtc dt:dt="string">2016-06-06T22:08:43Z</DateUtc></StartTime><FrequencyChanges><FrequencyChange><Frequency dt:dt="r8">3507724</Frequency><Timestamp dt:dt="r8">373827826</Timestamp><Current dt:dt="r8">0</Current><DateUtc dt:dt="string">2016-06-06T22:08:43Z</DateUtc></FrequencyChange></FrequencyChanges></Clock>\n	Hungry_Donkey_bar_English_2-151-1	60.018	9	1.0.0.18	1	374500573	Standard	2.0.10.353	2.0.10.353	06-06-2016		18:08:44	2.0.10.248	28	Bar37-63.bmp	39	2	?	8r_4g.bmp	50r_4g.bmp	1r_2g.bmp	10r_2g.bmp		50r_4g.bmp			TrialProc	TrialList	0	cvbn	-999999	16	150944	0	v	90	151034	86	-133	-47	-16	-52	-1	22	1	3	28	-8	-50	-1	-10	4	4	2	2	-50	4
Hungry_Donkey_bar_English_2	151	1	<?xml version="1.0"?>\n<Clock xmlns:dt="urn:schemas-microsoft-com:datatypes"><Description dt:dt="string">E-Prime Primary Realtime Clock</Description><StartTime><Timestamp dt:dt="int">0</Timestamp><DateUtc dt:dt="string">2016-06-06T22:08:43Z</DateUtc></StartTime><FrequencyChanges><FrequencyChange><Frequency dt:dt="r8">3507724</Frequency><Timestamp dt:dt="r8">373827826</Timestamp><Current dt:dt="r8">0</Current><DateUtc dt:dt="string">2016-06-06T22:08:43Z</DateUtc></FrequencyChange></FrequencyChanges></Clock>\n	Hungry_Donkey_bar_English_2-151-1	60.018	9	1.0.0.18	1	374500573	Standard	2.0.10.353	2.0.10.353	06-06-2016		18:08:44	2.0.10.248	29	Bar37-63.bmp	40	4	?	0r_4g.bmp	0r_4g.bmp	0r_2g.bmp	0r_2g.bmp				0r_2g.bmp	TrialProc	TrialList	0	cvbn	-999999	16	153060	0	n	1638	154698	88	-133	-45	-16	-52	-1	24	6	3	29	0	0	0	0	4	4	2	2	0	2
Hungry_Donkey_bar_English_2	151	1	<?xml version="1.0"?>\n<Clock xmlns:dt="urn:schemas-microsoft-com:datatypes"><Description dt:dt="string">E-Prime Primary Realtime Clock</Description><StartTime><Timestamp dt:dt="int">0</Timestamp><DateUtc dt:dt="string">2016-06-06T22:08:43Z</DateUtc></StartTime><FrequencyChanges><FrequencyChange><Frequency dt:dt="r8">3507724</Frequency><Timestamp dt:dt="r8">373827826</Timestamp><Current dt:dt="r8">0</Current><DateUtc dt:dt="string">2016-06-06T22:08:43Z</DateUtc></FrequencyChange></FrequencyChanges></Clock>\n	Hungry_Donkey_bar_English_2-151-1	60.018	9	1.0.0.18	1	374500573	Standard	2.0.10.353	2.0.10.353	06-06-2016		18:08:44	2.0.10.248	30	Bar37-63.bmp	41	2	?	12r_4g.bmp	0r_4g.bmp	3r_2g.bmp	0r_2g.bmp		0r_4g.bmp			TrialProc	TrialList	0	cvbn	-999999	17	156726	0	v	1988	158714	92	-133	-41	-16	-48	-1	24	5	3	30	-12	0	-3	0	4	4	2	2	0	4
Hungry_Donkey_bar_English_2	151	1	<?xml version="1.0"?>\n<Clock xmlns:dt="urn:schemas-microsoft-com:datatypes"><Description dt:dt="string">E-Prime Primary Realtime Clock</Description><StartTime><Timestamp dt:dt="int">0</Timestamp><DateUtc dt:dt="string">2016-06-06T22:08:43Z</DateUtc></StartTime><FrequencyChanges><FrequencyChange><Frequency dt:dt="r8">3507724</Frequency><Timestamp dt:dt="r8">373827826</Timestamp><Current dt:dt="r8">0</Current><DateUtc dt:dt="string">2016-06-06T22:08:43Z</DateUtc></FrequencyChange></FrequencyChanges></Clock>\n	Hungry_Donkey_bar_English_2-151-1	60.018	9	1.0.0.18	1	374500573	Standard	2.0.10.353	2.0.10.353	06-06-2016		18:08:44	2.0.10.248	31	Bar37-63.bmp	41	4	?	0r_4g.bmp	0r_4g.bmp	0r_2g.bmp	0r_2g.bmp				0r_2g.bmp	TrialProc	TrialList	0	cvbn	-999999	16	160741	0	n	1093	161834	94	-133	-39	-16	-48	-1	26	10	4	31	0	0	0	0	4	4	2	2	0	2
Hungry_Donkey_bar_English_2	151	1	<?xml version="1.0"?>\n<Clock xmlns:dt="urn:schemas-microsoft-com:datatypes"><Description dt:dt="string">E-Prime Primary Realtime Clock</Description><StartTime><Timestamp dt:dt="int">0</Timestamp><DateUtc dt:dt="string">2016-06-06T22:08:43Z</DateUtc></StartTime><FrequencyChanges><FrequencyChange><Frequency dt:dt="r8">3507724</Frequency><Timestamp dt:dt="r8">373827826</Timestamp><Current dt:dt="r8">0</Current><DateUtc dt:dt="string">2016-06-06T22:08:43Z</DateUtc></FrequencyChange></FrequencyChanges></Clock>\n	Hungry_Donkey_bar_English_2-151-1	60.018	9	1.0.0.18	1	374500573	Standard	2.0.10.353	2.0.10.353	06-06-2016		18:08:44	2.0.10.248	32	Bar37-63.bmp	42	2	?	0r_4g.bmp	0r_4g.bmp	0r_2g.bmp	0r_2g.bmp		0r_4g.bmp			TrialProc	TrialList	0	cvbn	-999999	16	163857	0	v	488	164345	98	-133	-35	-16	-44	-1	26	8	4	32	0	0	0	0	4	4	2	2	0	4
Hungry_Donkey_bar_English_2	151	1	<?xml version="1.0"?>\n<Clock xmlns:dt="urn:schemas-microsoft-com:datatypes"><Description dt:dt="string">E-Prime Primary Realtime Clock</Description><StartTime><Timestamp dt:dt="int">0</Timestamp><DateUtc dt:dt="string">2016-06-06T22:08:43Z</DateUtc></StartTime><FrequencyChanges><FrequencyChange><Frequency dt:dt="r8">3507724</Frequency><Timestamp dt:dt="r8">373827826</Timestamp><Current dt:dt="r8">0</Current><DateUtc dt:dt="string">2016-06-06T22:08:43Z</DateUtc></FrequencyChange></FrequencyChanges></Clock>\n	Hungry_Donkey_bar_English_2-151-1	60.018	9	1.0.0.18	1	374500573	Standard	2.0.10.353	2.0.10.353	06-06-2016		18:08:44	2.0.10.248	33	Bar37-63.bmp	43	4	?	12r_4g.bmp	0r_4g.bmp	3r_2g.bmp	0r_2g.bmp				0r_2g.bmp	TrialProc	TrialList	0	cvbn	-999999	16	166373	0	n	2180	168553	100	-133	-33	-16	-44	-1	28	5	4	33	-12	0	-3	0	4	4	2	2	0	2
Hungry_Donkey_bar_English_2	151	1	<?xml version="1.0"?>\n<Clock xmlns:dt="urn:schemas-microsoft-com:datatypes"><Description dt:dt="string">E-Prime Primary Realtime Clock</Description><StartTime><Timestamp dt:dt="int">0</Timestamp><DateUtc dt:dt="string">2016-06-06T22:08:43Z</DateUtc></StartTime><FrequencyChanges><FrequencyChange><Frequency dt:dt="r8">3507724</Frequency><Timestamp dt:dt="r8">373827826</Timestamp><Current dt:dt="r8">0</Current><DateUtc dt:dt="string">2016-06-06T22:08:43Z</DateUtc></FrequencyChange></FrequencyChanges></Clock>\n	Hungry_Donkey_bar_English_2-151-1	60.018	9	1.0.0.18	1	374500573	Standard	2.0.10.353	2.0.10.353	06-06-2016		18:08:44	2.0.10.248	34	Bar50-50.bmp	44	2	?	10r_4g.bmp	0r_4g.bmp	2r_2g.bmp	0r_2g.bmp		0r_4g.bmp			TrialProc	TrialList	0	cvbn	-999999	16	170588	0	v	2269	172857	104	-133	-29	-16	-40	-1	28	2	4	34	-10	0	-2	0	4	4	2	2	0	4
Hungry_Donkey_bar_English_2	151	1	<?xml version="1.0"?>\n<Clock xmlns:dt="urn:schemas-microsoft-com:datatypes"><Description dt:dt="string">E-Prime Primary Realtime Clock</Description><StartTime><Timestamp dt:dt="int">0</Timestamp><DateUtc dt:dt="string">2016-06-06T22:08:43Z</DateUtc></StartTime><FrequencyChanges><FrequencyChange><Frequency dt:dt="r8">3507724</Frequency><Timestamp dt:dt="r8">373827826</Timestamp><Current dt:dt="r8">0</Current><DateUtc dt:dt="string">2016-06-06T22:08:43Z</DateUtc></FrequencyChange></FrequencyChanges></Clock>\n	Hungry_Donkey_bar_English_2-151-1	60.018	9	1.0.0.18	1	374500573	Standard	2.0.10.353	2.0.10.353	06-06-2016		18:08:44	2.0.10.248	35	Bar50-50.bmp	44	4	?	10r_4g.bmp	0r_4g.bmp	2r_2g.bmp	0r_2g.bmp				0r_2g.bmp	TrialProc	TrialList	0	cvbn	-999999	16	174887	0	n	1138	176025	106	-133	-27	-16	-40	-1	30	4	4	35	-10	0	-2	0	4	4	2	2	0	2
Hungry_Donkey_bar_English_2	151	1	<?xml version="1.0"?>\n<Clock xmlns:dt="urn:schemas-microsoft-com:datatypes"><Description dt:dt="string">E-Prime Primary Realtime Clock</Description><StartTime><Timestamp dt:dt="int">0</Timestamp><DateUtc dt:dt="string">2016-06-06T22:08:43Z</DateUtc></StartTime><FrequencyChanges><FrequencyChange><Frequency dt:dt="r8">3507724</Frequency><Timestamp dt:dt="r8">373827826</Timestamp><Current dt:dt="r8">0</Current><DateUtc dt:dt="string">2016-06-06T22:08:43Z</DateUtc></FrequencyChange></FrequencyChanges></Clock>\n	Hungry_Donkey_bar_English_2-151-1	60.018	9	1.0.0.18	1	374500573	Standard	2.0.10.353	2.0.10.353	06-06-2016		18:08:44	2.0.10.248	36	Bar50-50.bmp	45	2	?	0r_4g.bmp	0r_4g.bmp	0r_2g.bmp	0r_2g.bmp		0r_4g.bmp			TrialProc	TrialList	0	cvbn	-999999	16	178069	0	v	1252	179321	110	-133	-23	-16	-36	-1	30	9	4	36	0	0	0	0	4	4	2	2	0	4
Hungry_Donkey_bar_English_2	151	1	<?xml version="1.0"?>\n<Clock xmlns:dt="urn:schemas-microsoft-com:datatypes"><Description dt:dt="string">E-Prime Primary Realtime Clock</Description><StartTime><Timestamp dt:dt="int">0</Timestamp><DateUtc dt:dt="string">2016-06-06T22:08:43Z</DateUtc></StartTime><FrequencyChanges><FrequencyChange><Frequency dt:dt="r8">3507724</Frequency><Timestamp dt:dt="r8">373827826</Timestamp><Current dt:dt="r8">0</Current><DateUtc dt:dt="string">2016-06-06T22:08:43Z</DateUtc></FrequencyChange></FrequencyChanges></Clock>\n	Hungry_Donkey_bar_English_2-151-1	60.018	9	1.0.0.18	1	374500573	Standard	2.0.10.353	2.0.10.353	06-06-2016		18:08:44	2.0.10.248	37	Bar50-50.bmp	46	4	?	0r_4g.bmp	0r_4g.bmp	0r_2g.bmp	0r_2g.bmp				0r_2g.bmp	TrialProc	TrialList	0	cvbn	-999999	16	181351	0	n	273	181624	112	-133	-21	-16	-36	-1	32	6	4	37	0	0	0	0	4	4	2	2	0	2
Hungry_Donkey_bar_English_2	151	1	<?xml version="1.0"?>\n<Clock xmlns:dt="urn:schemas-microsoft-com:datatypes"><Description dt:dt="string">E-Prime Primary Realtime Clock</Description><StartTime><Timestamp dt:dt="int">0</Timestamp><DateUtc dt:dt="string">2016-06-06T22:08:43Z</DateUtc></StartTime><FrequencyChanges><FrequencyChange><Frequency dt:dt="r8">3507724</Frequency><Timestamp dt:dt="r8">373827826</Timestamp><Current dt:dt="r8">0</Current><DateUtc dt:dt="string">2016-06-06T22:08:43Z</DateUtc></FrequencyChange></FrequencyChanges></Clock>\n	Hungry_Donkey_bar_English_2-151-1	60.018	9	1.0.0.18	1	374500573	Standard	2.0.10.353	2.0.10.353	06-06-2016		18:08:44	2.0.10.248	38	Bar50-50.bmp	47	2	?	0r_4g.bmp	0r_4g.bmp	0r_2g.bmp	0r_2g.bmp		0r_4g.bmp			TrialProc	TrialList	0	cvbn	-999999	16	183651	0	v	261	183912	116	-133	-17	-16	-32	-1	32	7	4	38	0	0	0	0	4	4	2	2	0	4
Hungry_Donkey_bar_English_2	151	1	<?xml version="1.0"?>\n<Clock xmlns:dt="urn:schemas-microsoft-com:datatypes"><Description dt:dt="string">E-Prime Primary Realtime Clock</Description><StartTime><Timestamp dt:dt="int">0</Timestamp><DateUtc dt:dt="string">2016-06-06T22:08:43Z</DateUtc></StartTime><FrequencyChanges><FrequencyChange><Frequency dt:dt="r8">3507724</Frequency><Timestamp dt:dt="r8">373827826</Timestamp><Current dt:dt="r8">0</Current><DateUtc dt:dt="string">2016-06-06T22:08:43Z</DateUtc></FrequencyChange></FrequencyChanges></Clock>\n	Hungry_Donkey_bar_English_2-151-1	60.018	9	1.0.0.18	1	374500573	Standard	2.0.10.353	2.0.10.353	06-06-2016		18:08:44	2.0.10.248	39	Bar50-50.bmp	47	4	?	10r_4g.bmp	0r_4g.bmp	2r_2g.bmp	0r_2g.bmp				0r_2g.bmp	TrialProc	TrialList	0	cvbn	-999999	16	185950	0	n	1626	187576	118	-133	-15	-16	-32	-1	34	3	4	39	-10	0	-2	0	4	4	2	2	0	2
Hungry_Donkey_bar_English_2	151	1	<?xml version="1.0"?>\n<Clock xmlns:dt="urn:schemas-microsoft-com:datatypes"><Description dt:dt="string">E-Prime Primary Realtime Clock</Description><StartTime><Timestamp dt:dt="int">0</Timestamp><DateUtc dt:dt="string">2016-06-06T22:08:43Z</DateUtc></StartTime><FrequencyChanges><FrequencyChange><Frequency dt:dt="r8">3507724</Frequency><Timestamp dt:dt="r8">373827826</Timestamp><Current dt:dt="r8">0</Current><DateUtc dt:dt="string">2016-06-06T22:08:43Z</DateUtc></FrequencyChange></FrequencyChanges></Clock>\n	Hungry_Donkey_bar_English_2-151-1	60.018	9	1.0.0.18	1	374500573	Standard	2.0.10.353	2.0.10.353	06-06-2016		18:08:44	2.0.10.248	40	Bar37-63.bmp	40	2	?	8r_4g.bmp	50r_4g.bmp	1r_2g.bmp	10r_2g.bmp		50r_4g.bmp			TrialProc	TrialList	0	cvbn	-999999	16	189616	0	v	1720	191336	122	-183	-61	-16	-78	-1	34	1	4	40	-8	-50	-1	-10	4	4	2	2	-50	4
Hungry_Donkey_bar_English_2	151	1	<?xml version="1.0"?>\n<Clock xmlns:dt="urn:schemas-microsoft-com:datatypes"><Description dt:dt="string">E-Prime Primary Realtime Clock</Description><StartTime><Timestamp dt:dt="int">0</Timestamp><DateUtc dt:dt="string">2016-06-06T22:08:43Z</DateUtc></StartTime><FrequencyChanges><FrequencyChange><Frequency dt:dt="r8">3507724</Frequency><Timestamp dt:dt="r8">373827826</Timestamp><Current dt:dt="r8">0</Current><DateUtc dt:dt="string">2016-06-06T22:08:43Z</DateUtc></FrequencyChange></FrequencyChanges></Clock>\n	Hungry_Donkey_bar_English_2-151-1	60.018	9	1.0.0.18	1	374500573	Standard	2.0.10.353	2.0.10.353	06-06-2016		18:08:44	2.0.10.248	41	Bar37-63.bmp	40	4	?	0r_4g.bmp	0r_4g.bmp	0r_2g.bmp	0r_2g.bmp				0r_2g.bmp	TrialProc	TrialList	0	cvbn	-999999	17	193365	0	n	1827	195192	124	-183	-59	-16	-78	-1	36	9	5	41	0	0	0	0	4	4	2	2	0	2
Hungry_Donkey_bar_English_2	151	1	<?xml version="1.0"?>\n<Clock xmlns:dt="urn:schemas-microsoft-com:datatypes"><Description dt:dt="string">E-Prime Primary Realtime Clock</Description><StartTime><Timestamp dt:dt="int">0</Timestamp><DateUtc dt:dt="string">2016-06-06T22:08:43Z</DateUtc></StartTime><FrequencyChanges><FrequencyChange><Frequency dt:dt="r8">3507724</Frequency><Timestamp dt:dt="r8">373827826</Timestamp><Current dt:dt="r8">0</Current><DateUtc dt:dt="string">2016-06-06T22:08:43Z</DateUtc></FrequencyChange></FrequencyChanges></Clock>\n	Hungry_Donkey_bar_English_2-151-1	60.018	9	1.0.0.18	1	374500573	Standard	2.0.10.353	2.0.10.353	06-06-2016		18:08:44	2.0.10.248	42	Bar37-63.bmp	41	4	?	10r_4g.bmp	0r_4g.bmp	2r_2g.bmp	0r_2g.bmp				0r_2g.bmp	TrialProc	TrialList	0	cvbn	-999999	16	197230	0	n	521	197751	126	-183	-57	-16	-78	-1	38	2	5	42	-10	0	-2	0	4	4	2	2	0	2
Hungry_Donkey_bar_English_2	151	1	<?xml version="1.0"?>\n<Clock xmlns:dt="urn:schemas-microsoft-com:datatypes"><Description dt:dt="string">E-Prime Primary Realtime Clock</Description><StartTime><Timestamp dt:dt="int">0</Timestamp><DateUtc dt:dt="string">2016-06-06T22:08:43Z</DateUtc></StartTime><FrequencyChanges><FrequencyChange><Frequency dt:dt="r8">3507724</Frequency><Timestamp dt:dt="r8">373827826</Timestamp><Current dt:dt="r8">0</Current><DateUtc dt:dt="string">2016-06-06T22:08:43Z</DateUtc></FrequencyChange></FrequencyChanges></Clock>\n	Hungry_Donkey_bar_English_2-151-1	60.018	9	1.0.0.18	1	374500573	Standard	2.0.10.353	2.0.10.353	06-06-2016		18:08:44	2.0.10.248	43	Bar37-63.bmp	41	4	?	0r_4g.bmp	0r_4g.bmp	0r_2g.bmp	0r_2g.bmp				0r_2g.bmp	TrialProc	TrialList	0	cvbn	-999999	16	199779	0	n	468	200247	128	-183	-55	-16	-78	-1	40	10	5	43	0	0	0	0	4	4	2	2	0	2
Hungry_Donkey_bar_English_2	151	1	<?xml version="1.0"?>\n<Clock xmlns:dt="urn:schemas-microsoft-com:datatypes"><Description dt:dt="string">E-Prime Primary Realtime Clock</Description><StartTime><Timestamp dt:dt="int">0</Timestamp><DateUtc dt:dt="string">2016-06-06T22:08:43Z</DateUtc></StartTime><FrequencyChanges><FrequencyChange><Frequency dt:dt="r8">3507724</Frequency><Timestamp dt:dt="r8">373827826</Timestamp><Current dt:dt="r8">0</Current><DateUtc dt:dt="string">2016-06-06T22:08:43Z</DateUtc></FrequencyChange></FrequencyChanges></Clock>\n	Hungry_Donkey_bar_English_2-151-1	60.018	9	1.0.0.18	1	374500573	Standard	2.0.10.353	2.0.10.353	06-06-2016		18:08:44	2.0.10.248	44	Bar37-63.bmp	42	4	?	10r_4g.bmp	0r_4g.bmp	2r_2g.bmp	0r_2g.bmp				0r_2g.bmp	TrialProc	TrialList	0	cvbn	-999999	17	202279	0	n	416	202695	130	-183	-53	-16	-78	-1	42	3	5	44	-10	0	-2	0	4	4	2	2	0	2
Hungry_Donkey_bar_English_2	151	1	<?xml version="1.0"?>\n<Clock xmlns:dt="urn:schemas-microsoft-com:datatypes"><Description dt:dt="string">E-Prime Primary Realtime Clock</Description><StartTime><Timestamp dt:dt="int">0</Timestamp><DateUtc dt:dt="string">2016-06-06T22:08:43Z</DateUtc></StartTime><FrequencyChanges><FrequencyChange><Frequency dt:dt="r8">3507724</Frequency><Timestamp dt:dt="r8">373827826</Timestamp><Current dt:dt="r8">0</Current><DateUtc dt:dt="string">2016-06-06T22:08:43Z</DateUtc></FrequencyChange></FrequencyChanges></Clock>\n	Hungry_Donkey_bar_English_2-151-1	60.018	9	1.0.0.18	1	374500573	Standard	2.0.10.353	2.0.10.353	06-06-2016		18:08:44	2.0.10.248	45	Bar37-63.bmp	42	4	?	0r_4g.bmp	0r_4g.bmp	0r_2g.bmp	0r_2g.bmp				0r_2g.bmp	TrialProc	TrialList	0	cvbn	-999999	16	204728	0	n	479	205207	132	-183	-51	-16	-78	-1	44	6	5	45	0	0	0	0	4	4	2	2	0	2
Hungry_Donkey_bar_English_2	151	1	<?xml version="1.0"?>\n<Clock xmlns:dt="urn:schemas-microsoft-com:datatypes"><Description dt:dt="string">E-Prime Primary Realtime Clock</Description><StartTime><Timestamp dt:dt="int">0</Timestamp><DateUtc dt:dt="string">2016-06-06T22:08:43Z</DateUtc></StartTime><FrequencyChanges><FrequencyChange><Frequency dt:dt="r8">3507724</Frequency><Timestamp dt:dt="r8">373827826</Timestamp><Current dt:dt="r8">0</Current><DateUtc dt:dt="string">2016-06-06T22:08:43Z</DateUtc></FrequencyChange></FrequencyChanges></Clock>\n	Hungry_Donkey_bar_English_2-151-1	60.018	9	1.0.0.18	1	374500573	Standard	2.0.10.353	2.0.10.353	06-06-2016		18:08:44	2.0.10.248	46	Bar37-63.bmp	41	4	?	8r_4g.bmp	50r_4g.bmp	1r_2g.bmp	10r_2g.bmp				10r_2g.bmp	TrialProc	TrialList	0	cvbn	-999999	16	207244	0	n	891	208135	134	-193	-59	-16	-78	-1	36	1	5	46	-8	-50	-1	-10	4	4	2	2	-10	2
Hungry_Donkey_bar_English_2	151	1	<?xml version="1.0"?>\n<Clock xmlns:dt="urn:schemas-microsoft-com:datatypes"><Description dt:dt="string">E-Prime Primary Realtime Clock</Description><StartTime><Timestamp dt:dt="int">0</Timestamp><DateUtc dt:dt="string">2016-06-06T22:08:43Z</DateUtc></StartTime><FrequencyChanges><FrequencyChange><Frequency dt:dt="r8">3507724</Frequency><Timestamp dt:dt="r8">373827826</Timestamp><Current dt:dt="r8">0</Current><DateUtc dt:dt="string">2016-06-06T22:08:43Z</DateUtc></FrequencyChange></FrequencyChanges></Clock>\n	Hungry_Donkey_bar_English_2-151-1	60.018	9	1.0.0.18	1	374500573	Standard	2.0.10.353	2.0.10.353	06-06-2016		18:08:44	2.0.10.248	47	Bar37-63.bmp	42	2	?	12r_4g.bmp	0r_4g.bmp	3r_2g.bmp	0r_2g.bmp		0r_4g.bmp			TrialProc	TrialList	0	cvbn	-999999	16	210176	0	v	1718	211894	138	-193	-55	-16	-74	-1	36	5	5	47	-12	0	-3	0	4	4	2	2	0	4
Hungry_Donkey_bar_English_2	151	1	<?xml version="1.0"?>\n<Clock xmlns:dt="urn:schemas-microsoft-com:datatypes"><Description dt:dt="string">E-Prime Primary Realtime Clock</Description><StartTime><Timestamp dt:dt="int">0</Timestamp><DateUtc dt:dt="string">2016-06-06T22:08:43Z</DateUtc></StartTime><FrequencyChanges><FrequencyChange><Frequency dt:dt="r8">3507724</Frequency><Timestamp dt:dt="r8">373827826</Timestamp><Current dt:dt="r8">0</Current><DateUtc dt:dt="string">2016-06-06T22:08:43Z</DateUtc></FrequencyChange></FrequencyChanges></Clock>\n	Hungry_Donkey_bar_English_2-151-1	60.018	9	1.0.0.18	1	374500573	Standard	2.0.10.353	2.0.10.353	06-06-2016		18:08:44	2.0.10.248	48	Bar37-63.bmp	42	2	?	0r_4g.bmp	0r_4g.bmp	0r_2g.bmp	0r_2g.bmp		0r_4g.bmp			TrialProc	TrialList	0	cvbn	-999999	16	213925	0	v	465	214390	142	-193	-51	-16	-70	-1	36	8	5	48	0	0	0	0	4	4	2	2	0	4
Hungry_Donkey_bar_English_2	151	1	<?xml version="1.0"?>\n<Clock xmlns:dt="urn:schemas-microsoft-com:datatypes"><Description dt:dt="string">E-Prime Primary Realtime Clock</Description><StartTime><Timestamp dt:dt="int">0</Timestamp><DateUtc dt:dt="string">2016-06-06T22:08:43Z</DateUtc></StartTime><FrequencyChanges><FrequencyChange><Frequency dt:dt="r8">3507724</Frequency><Timestamp dt:dt="r8">373827826</Timestamp><Current dt:dt="r8">0</Current><DateUtc dt:dt="string">2016-06-06T22:08:43Z</DateUtc></FrequencyChange></FrequencyChanges></Clock>\n	Hungry_Donkey_bar_English_2-151-1	60.018	9	1.0.0.18	1	374500573	Standard	2.0.10.353	2.0.10.353	06-06-2016		18:08:44	2.0.10.248	49	Bar37-63.bmp	43	2	?	10r_4g.bmp	0r_4g.bmp	2r_2g.bmp	0r_2g.bmp		0r_4g.bmp			TrialProc	TrialList	0	cvbn	-999999	16	216424	0	v	398	216822	146	-193	-47	-16	-66	-1	36	4	5	49	-10	0	-2	0	4	4	2	2	0	4
Hungry_Donkey_bar_English_2	151	1	<?xml version="1.0"?>\n<Clock xmlns:dt="urn:schemas-microsoft-com:datatypes"><Description dt:dt="string">E-Prime Primary Realtime Clock</Description><StartTime><Timestamp dt:dt="int">0</Timestamp><DateUtc dt:dt="string">2016-06-06T22:08:43Z</DateUtc></StartTime><FrequencyChanges><FrequencyChange><Frequency dt:dt="r8">3507724</Frequency><Timestamp dt:dt="r8">373827826</Timestamp><Current dt:dt="r8">0</Current><DateUtc dt:dt="string">2016-06-06T22:08:43Z</DateUtc></FrequencyChange></FrequencyChanges></Clock>\n	Hungry_Donkey_bar_English_2-151-1	60.018	9	1.0.0.18	1	374500573	Standard	2.0.10.353	2.0.10.353	06-06-2016		18:08:44	2.0.10.248	50	Bar50-50.bmp	44	2	?	0r_4g.bmp	0r_4g.bmp	0r_2g.bmp	0r_2g.bmp		0r_4g.bmp			TrialProc	TrialList	0	cvbn	-999999	16	218857	0	v	781	219638	150	-193	-43	-16	-62	-1	36	7	5	50	0	0	0	0	4	4	2	2	0	4
Hungry_Donkey_bar_English_2	151	1	<?xml version="1.0"?>\n<Clock xmlns:dt="urn:schemas-microsoft-com:datatypes"><Description dt:dt="string">E-Prime Primary Realtime Clock</Description><StartTime><Timestamp dt:dt="int">0</Timestamp><DateUtc dt:dt="string">2016-06-06T22:08:43Z</DateUtc></StartTime><FrequencyChanges><FrequencyChange><Frequency dt:dt="r8">3507724</Frequency><Timestamp dt:dt="r8">373827826</Timestamp><Current dt:dt="r8">0</Current><DateUtc dt:dt="string">2016-06-06T22:08:43Z</DateUtc></FrequencyChange></FrequencyChanges></Clock>\n	Hungry_Donkey_bar_English_2-151-1	60.018	9	1.0.0.18	1	374500573	Standard	2.0.10.353	2.0.10.353	06-06-2016		18:08:44	2.0.10.248	51	Bar50-50.bmp	44	2	?	10r_4g.bmp	0r_4g.bmp	2r_2g.bmp	0r_2g.bmp		0r_4g.bmp			TrialProc	TrialList	0	cvbn	-999999	16	221673	0	v	621	222294	154	-193	-39	-16	-58	-1	36	4	6	51	-10	0	-2	0	4	4	2	2	0	4
Hungry_Donkey_bar_English_2	151	1	<?xml version="1.0"?>\n<Clock xmlns:dt="urn:schemas-microsoft-com:datatypes"><Description dt:dt="string">E-Prime Primary Realtime Clock</Description><StartTime><Timestamp dt:dt="int">0</Timestamp><DateUtc dt:dt="string">2016-06-06T22:08:43Z</DateUtc></StartTime><FrequencyChanges><FrequencyChange><Frequency dt:dt="r8">3507724</Frequency><Timestamp dt:dt="r8">373827826</Timestamp><Current dt:dt="r8">0</Current><DateUtc dt:dt="string">2016-06-06T22:08:43Z</DateUtc></FrequencyChange></FrequencyChanges></Clock>\n	Hungry_Donkey_bar_English_2-151-1	60.018	9	1.0.0.18	1	374500573	Standard	2.0.10.353	2.0.10.353	06-06-2016		18:08:44	2.0.10.248	52	Bar50-50.bmp	45	2	?	10r_4g.bmp	0r_4g.bmp	2r_2g.bmp	0r_2g.bmp		0r_4g.bmp			TrialProc	TrialList	0	cvbn	-999999	16	224322	0	v	388	224710	158	-193	-35	-16	-54	-1	36	2	6	52	-10	0	-2	0	4	4	2	2	0	4
Hungry_Donkey_bar_English_2	151	1	<?xml version="1.0"?>\n<Clock xmlns:dt="urn:schemas-microsoft-com:datatypes"><Description dt:dt="string">E-Prime Primary Realtime Clock</Description><StartTime><Timestamp dt:dt="int">0</Timestamp><DateUtc dt:dt="string">2016-06-06T22:08:43Z</DateUtc></StartTime><FrequencyChanges><FrequencyChange><Frequency dt:dt="r8">3507724</Frequency><Timestamp dt:dt="r8">373827826</Timestamp><Current dt:dt="r8">0</Current><DateUtc dt:dt="string">2016-06-06T22:08:43Z</DateUtc></FrequencyChange></FrequencyChanges></Clock>\n	Hungry_Donkey_bar_English_2-151-1	60.018	9	1.0.0.18	1	374500573	Standard	2.0.10.353	2.0.10.353	06-06-2016		18:08:44	2.0.10.248	53	Bar50-50.bmp	46	2	?	0r_4g.bmp	0r_4g.bmp	0r_2g.bmp	0r_2g.bmp		0r_4g.bmp			TrialProc	TrialList	0	cvbn	-999999	16	226738	0	v	484	227222	162	-193	-31	-16	-50	-1	36	8	6	53	0	0	0	0	4	4	2	2	0	4
Hungry_Donkey_bar_English_2	151	1	<?xml version="1.0"?>\n<Clock xmlns:dt="urn:schemas-microsoft-com:datatypes"><Description dt:dt="string">E-Prime Primary Realtime Clock</Description><StartTime><Timestamp dt:dt="int">0</Timestamp><DateUtc dt:dt="string">2016-06-06T22:08:43Z</DateUtc></StartTime><FrequencyChanges><FrequencyChange><Frequency dt:dt="r8">3507724</Frequency><Timestamp dt:dt="r8">373827826</Timestamp><Current dt:dt="r8">0</Current><DateUtc dt:dt="string">2016-06-06T22:08:43Z</DateUtc></FrequencyChange></FrequencyChanges></Clock>\n	Hungry_Donkey_bar_English_2-151-1	60.018	9	1.0.0.18	1	374500573	Standard	2.0.10.353	2.0.10.353	06-06-2016		18:08:44	2.0.10.248	54	Bar50-50.bmp	46	2	?	0r_4g.bmp	0r_4g.bmp	0r_2g.bmp	0r_2g.bmp		0r_4g.bmp			TrialProc	TrialList	0	cvbn	-999999	16	229254	0	v	735	229989	166	-193	-27	-16	-46	-1	36	9	6	54	0	0	0	0	4	4	2	2	0	4
Hungry_Donkey_bar_English_2	151	1	<?xml version="1.0"?>\n<Clock xmlns:dt="urn:schemas-microsoft-com:datatypes"><Description dt:dt="string">E-Prime Primary Realtime Clock</Description><StartTime><Timestamp dt:dt="int">0</Timestamp><DateUtc dt:dt="string">2016-06-06T22:08:43Z</DateUtc></StartTime><FrequencyChanges><FrequencyChange><Frequency dt:dt="r8">3507724</Frequency><Timestamp dt:dt="r8">373827826</Timestamp><Current dt:dt="r8">0</Current><DateUtc dt:dt="string">2016-06-06T22:08:43Z</DateUtc></FrequencyChange></FrequencyChanges></Clock>\n	Hungry_Donkey_bar_English_2-151-1	60.018	9	1.0.0.18	1	374500573	Standard	2.0.10.353	2.0.10.353	06-06-2016		18:08:44	2.0.10.248	55	Bar37-63.bmp	41	2	?	8r_4g.bmp	50r_4g.bmp	1r_2g.bmp	10r_2g.bmp		50r_4g.bmp			TrialProc	TrialList	0	cvbn	-999999	16	232020	0	v	401	232421	170	-243	-73	-16	-92	-1	36	1	6	55	-8	-50	-1	-10	4	4	2	2	-50	4
Hungry_Donkey_bar_English_2	151	1	<?xml version="1.0"?>\n<Clock xmlns:dt="urn:schemas-microsoft-com:datatypes"><Description dt:dt="string">E-Prime Primary Realtime Clock</Description><StartTime><Timestamp dt:dt="int">0</Timestamp><DateUtc dt:dt="string">2016-06-06T22:08:43Z</DateUtc></StartTime><FrequencyChanges><FrequencyChange><Frequency dt:dt="r8">3507724</Frequency><Timestamp dt:dt="r8">373827826</Timestamp><Current dt:dt="r8">0</Current><DateUtc dt:dt="string">2016-06-06T22:08:43Z</DateUtc></FrequencyChange></FrequencyChanges></Clock>\n	Hungry_Donkey_bar_English_2-151-1	60.018	9	1.0.0.18	1	374500573	Standard	2.0.10.353	2.0.10.353	06-06-2016		18:08:44	2.0.10.248	56	Bar37-63.bmp	41	4	?	0r_4g.bmp	0r_4g.bmp	0r_2g.bmp	0r_2g.bmp				0r_2g.bmp	TrialProc	TrialList	0	cvbn	-999999	16	234452	0	n	1537	235989	172	-243	-71	-16	-92	-1	38	6	6	56	0	0	0	0	4	4	2	2	0	2
Hungry_Donkey_bar_English_2	151	1	<?xml version="1.0"?>\n<Clock xmlns:dt="urn:schemas-microsoft-com:datatypes"><Description dt:dt="string">E-Prime Primary Realtime Clock</Description><StartTime><Timestamp dt:dt="int">0</Timestamp><DateUtc dt:dt="string">2016-06-06T22:08:43Z</DateUtc></StartTime><FrequencyChanges><FrequencyChange><Frequency dt:dt="r8">3507724</Frequency><Timestamp dt:dt="r8">373827826</Timestamp><Current dt:dt="r8">0</Current><DateUtc dt:dt="string">2016-06-06T22:08:43Z</DateUtc></FrequencyChange></FrequencyChanges></Clock>\n	Hungry_Donkey_bar_English_2-151-1	60.018	9	1.0.0.18	1	374500573	Standard	2.0.10.353	2.0.10.353	06-06-2016		18:08:44	2.0.10.248	57	Bar37-63.bmp	42	2	?	10r_4g.bmp	0r_4g.bmp	2r_2g.bmp	0r_2g.bmp		0r_4g.bmp			TrialProc	TrialList	0	cvbn	-999999	16	238018	0	v	1715	239733	176	-243	-67	-16	-88	-1	38	3	6	57	-10	0	-2	0	4	4	2	2	0	4
Hungry_Donkey_bar_English_2	151	1	<?xml version="1.0"?>\n<Clock xmlns:dt="urn:schemas-microsoft-com:datatypes"><Description dt:dt="string">E-Prime Primary Realtime Clock</Description><StartTime><Timestamp dt:dt="int">0</Timestamp><DateUtc dt:dt="string">2016-06-06T22:08:43Z</DateUtc></StartTime><FrequencyChanges><FrequencyChange><Frequency dt:dt="r8">3507724</Frequency><Timestamp dt:dt="r8">373827826</Timestamp><Current dt:dt="r8">0</Current><DateUtc dt:dt="string">2016-06-06T22:08:43Z</DateUtc></FrequencyChange></FrequencyChanges></Clock>\n	Hungry_Donkey_bar_English_2-151-1	60.018	9	1.0.0.18	1	374500573	Standard	2.0.10.353	2.0.10.353	06-06-2016		18:08:44	2.0.10.248	58	Bar37-63.bmp	42	4	?	0r_4g.bmp	0r_4g.bmp	0r_2g.bmp	0r_2g.bmp				0r_2g.bmp	TrialProc	TrialList	0	cvbn	-999999	16	241767	0	n	830	242597	178	-243	-65	-16	-88	-1	40	10	6	58	0	0	0	0	4	4	2	2	0	2
Hungry_Donkey_bar_English_2	151	1	<?xml version="1.0"?>\n<Clock xmlns:dt="urn:schemas-microsoft-com:datatypes"><Description dt:dt="string">E-Prime Primary Realtime Clock</Description><StartTime><Timestamp dt:dt="int">0</Timestamp><DateUtc dt:dt="string">2016-06-06T22:08:43Z</DateUtc></StartTime><FrequencyChanges><FrequencyChange><Frequency dt:dt="r8">3507724</Frequency><Timestamp dt:dt="r8">373827826</Timestamp><Current dt:dt="r8">0</Current><DateUtc dt:dt="string">2016-06-06T22:08:43Z</DateUtc></FrequencyChange></FrequencyChanges></Clock>\n	Hungry_Donkey_bar_English_2-151-1	60.018	9	1.0.0.18	1	374500573	Standard	2.0.10.353	2.0.10.353	06-06-2016		18:08:44	2.0.10.248	59	Bar37-63.bmp	43	2	?	12r_4g.bmp	0r_4g.bmp	3r_2g.bmp	0r_2g.bmp		0r_4g.bmp			TrialProc	TrialList	0	cvbn	-999999	17	244633	0	v	635	245268	182	-243	-61	-16	-84	-1	40	5	6	59	-12	0	-3	0	4	4	2	2	0	4
Hungry_Donkey_bar_English_2	151	1	<?xml version="1.0"?>\n<Clock xmlns:dt="urn:schemas-microsoft-com:datatypes"><Description dt:dt="string">E-Prime Primary Realtime Clock</Description><StartTime><Timestamp dt:dt="int">0</Timestamp><DateUtc dt:dt="string">2016-06-06T22:08:43Z</DateUtc></StartTime><FrequencyChanges><FrequencyChange><Frequency dt:dt="r8">3507724</Frequency><Timestamp dt:dt="r8">373827826</Timestamp><Current dt:dt="r8">0</Current><DateUtc dt:dt="string">2016-06-06T22:08:43Z</DateUtc></FrequencyChange></FrequencyChanges></Clock>\n	Hungry_Donkey_bar_English_2-151-1	60.018	9	1.0.0.18	1	374500573	Standard	2.0.10.353	2.0.10.353	06-06-2016		18:08:44	2.0.10.248	60	Bar37-63.bmp	43	4	?	0r_4g.bmp	0r_4g.bmp	0r_2g.bmp	0r_2g.bmp				0r_2g.bmp	TrialProc	TrialList	0	cvbn	-999999	16	247298	0	n	530	247828	184	-243	-59	-16	-84	-1	42	7	6	60	0	0	0	0	4	4	2	2	0	2
Hungry_Donkey_bar_English_2	151	1	<?xml version="1.0"?>\n<Clock xmlns:dt="urn:schemas-microsoft-com:datatypes"><Description dt:dt="string">E-Prime Primary Realtime Clock</Description><StartTime><Timestamp dt:dt="int">0</Timestamp><DateUtc dt:dt="string">2016-06-06T22:08:43Z</DateUtc></StartTime><FrequencyChanges><FrequencyChange><Frequency dt:dt="r8">3507724</Frequency><Timestamp dt:dt="r8">373827826</Timestamp><Current dt:dt="r8">0</Current><DateUtc dt:dt="string">2016-06-06T22:08:43Z</DateUtc></FrequencyChange></FrequencyChanges></Clock>\n	Hungry_Donkey_bar_English_2-151-1	60.018	9	1.0.0.18	1	374500573	Standard	2.0.10.353	2.0.10.353	06-06-2016		18:08:44	2.0.10.248	61	Bar50-50.bmp	44	2	?	10r_4g.bmp	0r_4g.bmp	2r_2g.bmp	0r_2g.bmp		0r_4g.bmp			TrialProc	TrialList	0	cvbn	-999999	16	249864	0	v	524	250388	188	-243	-55	-16	-80	-1	42	3	7	61	-10	0	-2	0	4	4	2	2	0	4
Hungry_Donkey_bar_English_2	151	1	<?xml version="1.0"?>\n<Clock xmlns:dt="urn:schemas-microsoft-com:datatypes"><Description dt:dt="string">E-Prime Primary Realtime Clock</Description><StartTime><Timestamp dt:dt="int">0</Timestamp><DateUtc dt:dt="string">2016-06-06T22:08:43Z</DateUtc></StartTime><FrequencyChanges><FrequencyChange><Frequency dt:dt="r8">3507724</Frequency><Timestamp dt:dt="r8">373827826</Timestamp><Current dt:dt="r8">0</Current><DateUtc dt:dt="string">2016-06-06T22:08:43Z</DateUtc></FrequencyChange></FrequencyChanges></Clock>\n	Hungry_Donkey_bar_English_2-151-1	60.018	9	1.0.0.18	1	374500573	Standard	2.0.10.353	2.0.10.353	06-06-2016		18:08:44	2.0.10.248	62	Bar50-50.bmp	44	4	?	0r_4g.bmp	0r_4g.bmp	0r_2g.bmp	0r_2g.bmp				0r_2g.bmp	TrialProc	TrialList	0	cvbn	-999999	17	252414	0	n	1286	253700	190	-243	-53	-16	-80	-1	44	10	7	62	0	0	0	0	4	4	2	2	0	2
Hungry_Donkey_bar_English_2	151	1	<?xml version="1.0"?>\n<Clock xmlns:dt="urn:schemas-microsoft-com:datatypes"><Description dt:dt="string">E-Prime Primary Realtime Clock</Description><StartTime><Timestamp dt:dt="int">0</Timestamp><DateUtc dt:dt="string">2016-06-06T22:08:43Z</DateUtc></StartTime><FrequencyChanges><FrequencyChange><Frequency dt:dt="r8">3507724</Frequency><Timestamp dt:dt="r8">373827826</Timestamp><Current dt:dt="r8">0</Current><DateUtc dt:dt="string">2016-06-06T22:08:43Z</DateUtc></FrequencyChange></FrequencyChanges></Clock>\n	Hungry_Donkey_bar_English_2-151-1	60.018	9	1.0.0.18	1	374500573	Standard	2.0.10.353	2.0.10.353	06-06-2016		18:08:44	2.0.10.248	63	Bar50-50.bmp	44	2	?	12r_4g.bmp	0r_4g.bmp	3r_2g.bmp	0r_2g.bmp		0r_4g.bmp			TrialProc	TrialList	0	cvbn	-999999	16	255729	0	v	707	256436	194	-243	-49	-16	-76	-1	44	5	7	63	-12	0	-3	0	4	4	2	2	0	4
Hungry_Donkey_bar_English_2	151	1	<?xml version="1.0"?>\n<Clock xmlns:dt="urn:schemas-microsoft-com:datatypes"><Description dt:dt="string">E-Prime Primary Realtime Clock</Description><StartTime><Timestamp dt:dt="int">0</Timestamp><DateUtc dt:dt="string">2016-06-06T22:08:43Z</DateUtc></StartTime><FrequencyChanges><FrequencyChange><Frequency dt:dt="r8">3507724</Frequency><Timestamp dt:dt="r8">373827826</Timestamp><Current dt:dt="r8">0</Current><DateUtc dt:dt="string">2016-06-06T22:08:43Z</DateUtc></FrequencyChange></FrequencyChanges></Clock>\n	Hungry_Donkey_bar_English_2-151-1	60.018	9	1.0.0.18	1	374500573	Standard	2.0.10.353	2.0.10.353	06-06-2016		18:08:44	2.0.10.248	64	Bar50-50.bmp	45	4	?	0r_4g.bmp	0r_4g.bmp	0r_2g.bmp	0r_2g.bmp				0r_2g.bmp	TrialProc	TrialList	0	cvbn	-999999	16	258462	0	n	406	258868	196	-243	-47	-16	-76	-1	46	9	7	64	0	0	0	0	4	4	2	2	0	2
Hungry_Donkey_bar_English_2	151	1	<?xml version="1.0"?>\n<Clock xmlns:dt="urn:schemas-microsoft-com:datatypes"><Description dt:dt="string">E-Prime Primary Realtime Clock</Description><StartTime><Timestamp dt:dt="int">0</Timestamp><DateUtc dt:dt="string">2016-06-06T22:08:43Z</DateUtc></StartTime><FrequencyChanges><FrequencyChange><Frequency dt:dt="r8">3507724</Frequency><Timestamp dt:dt="r8">373827826</Timestamp><Current dt:dt="r8">0</Current><DateUtc dt:dt="string">2016-06-06T22:08:43Z</DateUtc></FrequencyChange></FrequencyChanges></Clock>\n	Hungry_Donkey_bar_English_2-151-1	60.018	9	1.0.0.18	1	374500573	Standard	2.0.10.353	2.0.10.353	06-06-2016		18:08:44	2.0.10.248	65	Bar50-50.bmp	45	4	?	0r_4g.bmp	0r_4g.bmp	0r_2g.bmp	0r_2g.bmp				0r_2g.bmp	TrialProc	TrialList	0	cvbn	-999999	16	260894	0	n	1749	262643	198	-243	-45	-16	-76	-1	48	6	7	65	0	0	0	0	4	4	2	2	0	2
Hungry_Donkey_bar_English_2	151	1	<?xml version="1.0"?>\n<Clock xmlns:dt="urn:schemas-microsoft-com:datatypes"><Description dt:dt="string">E-Prime Primary Realtime Clock</Description><StartTime><Timestamp dt:dt="int">0</Timestamp><DateUtc dt:dt="string">2016-06-06T22:08:43Z</DateUtc></StartTime><FrequencyChanges><FrequencyChange><Frequency dt:dt="r8">3507724</Frequency><Timestamp dt:dt="r8">373827826</Timestamp><Current dt:dt="r8">0</Current><DateUtc dt:dt="string">2016-06-06T22:08:43Z</DateUtc></FrequencyChange></FrequencyChanges></Clock>\n	Hungry_Donkey_bar_English_2-151-1	60.018	9	1.0.0.18	1	374500573	Standard	2.0.10.353	2.0.10.353	06-06-2016		18:08:44	2.0.10.248	66	Bar50-50.bmp	45	2	?	0r_4g.bmp	0r_4g.bmp	0r_2g.bmp	0r_2g.bmp		0r_4g.bmp			TrialProc	TrialList	0	cvbn	-999999	17	264677	0	v	414	265091	202	-243	-41	-16	-72	-1	48	7	7	66	0	0	0	0	4	4	2	2	0	4
Hungry_Donkey_bar_English_2	151	1	<?xml version="1.0"?>\n<Clock xmlns:dt="urn:schemas-microsoft-com:datatypes"><Description dt:dt="string">E-Prime Primary Realtime Clock</Description><StartTime><Timestamp dt:dt="int">0</Timestamp><DateUtc dt:dt="string">2016-06-06T22:08:43Z</DateUtc></StartTime><FrequencyChanges><FrequencyChange><Frequency dt:dt="r8">3507724</Frequency><Timestamp dt:dt="r8">373827826</Timestamp><Current dt:dt="r8">0</Current><DateUtc dt:dt="string">2016-06-06T22:08:43Z</DateUtc></FrequencyChange></FrequencyChanges></Clock>\n	Hungry_Donkey_bar_English_2-151-1	60.018	9	1.0.0.18	1	374500573	Standard	2.0.10.353	2.0.10.353	06-06-2016		18:08:44	2.0.10.248	67	Bar50-50.bmp	45	4	?	8r_4g.bmp	50r_4g.bmp	1r_2g.bmp	10r_2g.bmp				10r_2g.bmp	TrialProc	TrialList	0	cvbn	-999999	16	267126	0	n	349	267475	204	-253	-49	-16	-72	-1	40	1	7	67	-8	-50	-1	-10	4	4	2	2	-10	2
Hungry_Donkey_bar_English_2	151	1	<?xml version="1.0"?>\n<Clock xmlns:dt="urn:schemas-microsoft-com:datatypes"><Description dt:dt="string">E-Prime Primary Realtime Clock</Description><StartTime><Timestamp dt:dt="int">0</Timestamp><DateUtc dt:dt="string">2016-06-06T22:08:43Z</DateUtc></StartTime><FrequencyChanges><FrequencyChange><Frequency dt:dt="r8">3507724</Frequency><Timestamp dt:dt="r8">373827826</Timestamp><Current dt:dt="r8">0</Current><DateUtc dt:dt="string">2016-06-06T22:08:43Z</DateUtc></FrequencyChange></FrequencyChanges></Clock>\n	Hungry_Donkey_bar_English_2-151-1	60.018	9	1.0.0.18	1	374500573	Standard	2.0.10.353	2.0.10.353	06-06-2016		18:08:44	2.0.10.248	68	Bar50-50.bmp	45	2	?	0r_4g.bmp	0r_4g.bmp	0r_2g.bmp	0r_2g.bmp		0r_4g.bmp			TrialProc	TrialList	0	cvbn	-999999	16	269508	0	v	2783	272291	208	-253	-45	-16	-68	-1	40	8	7	68	0	0	0	0	4	4	2	2	0	4
Hungry_Donkey_bar_English_2	151	1	<?xml version="1.0"?>\n<Clock xmlns:dt="urn:schemas-microsoft-com:datatypes"><Description dt:dt="string">E-Prime Primary Realtime Clock</Description><StartTime><Timestamp dt:dt="int">0</Timestamp><DateUtc dt:dt="string">2016-06-06T22:08:43Z</DateUtc></StartTime><FrequencyChanges><FrequencyChange><Frequency dt:dt="r8">3507724</Frequency><Timestamp dt:dt="r8">373827826</Timestamp><Current dt:dt="r8">0</Current><DateUtc dt:dt="string">2016-06-06T22:08:43Z</DateUtc></FrequencyChange></FrequencyChanges></Clock>\n	Hungry_Donkey_bar_English_2-151-1	60.018	9	1.0.0.18	1	374500573	Standard	2.0.10.353	2.0.10.353	06-06-2016		18:08:44	2.0.10.248	69	Bar50-50.bmp	45	1	?	10r_4g.bmp	0r_4g.bmp	2r_2g.bmp	0r_2g.bmp	10r_4g.bmp				TrialProc	TrialList	0	cvbn	-999999	16	274324	0	c	591	274915	212	-263	-51	-22	-68	-1	40	4	7	69	-10	0	-2	0	4	4	2	2	-10	4
Hungry_Donkey_bar_English_2	151	1	<?xml version="1.0"?>\n<Clock xmlns:dt="urn:schemas-microsoft-com:datatypes"><Description dt:dt="string">E-Prime Primary Realtime Clock</Description><StartTime><Timestamp dt:dt="int">0</Timestamp><DateUtc dt:dt="string">2016-06-06T22:08:43Z</DateUtc></StartTime><FrequencyChanges><FrequencyChange><Frequency dt:dt="r8">3507724</Frequency><Timestamp dt:dt="r8">373827826</Timestamp><Current dt:dt="r8">0</Current><DateUtc dt:dt="string">2016-06-06T22:08:43Z</DateUtc></FrequencyChange></FrequencyChanges></Clock>\n	Hungry_Donkey_bar_English_2-151-1	60.018	9	1.0.0.18	1	374500573	Standard	2.0.10.353	2.0.10.353	06-06-2016		18:08:44	2.0.10.248	70	Bar50-50.bmp	45	2	?	10r_4g.bmp	0r_4g.bmp	2r_2g.bmp	0r_2g.bmp		0r_4g.bmp			TrialProc	TrialList	0	cvbn	-999999	16	276956	0	v	2278	279234	216	-263	-47	-22	-64	-1	40	2	7	70	-10	0	-2	0	4	4	2	2	0	4
Hungry_Donkey_bar_English_2	151	1	<?xml version="1.0"?>\n<Clock xmlns:dt="urn:schemas-microsoft-com:datatypes"><Description dt:dt="string">E-Prime Primary Realtime Clock</Description><StartTime><Timestamp dt:dt="int">0</Timestamp><DateUtc dt:dt="string">2016-06-06T22:08:43Z</DateUtc></StartTime><FrequencyChanges><FrequencyChange><Frequency dt:dt="r8">3507724</Frequency><Timestamp dt:dt="r8">373827826</Timestamp><Current dt:dt="r8">0</Current><DateUtc dt:dt="string">2016-06-06T22:08:43Z</DateUtc></FrequencyChange></FrequencyChanges></Clock>\n	Hungry_Donkey_bar_English_2-151-1	60.018	9	1.0.0.18	1	374500573	Standard	2.0.10.353	2.0.10.353	06-06-2016		18:08:44	2.0.10.248	71	Bar50-50.bmp	45	4	?	0r_4g.bmp	0r_4g.bmp	0r_2g.bmp	0r_2g.bmp				0r_2g.bmp	TrialProc	TrialList	0	cvbn	-999999	17	281272	0	n	490	281762	218	-263	-45	-22	-64	-1	42	8	8	71	0	0	0	0	4	4	2	2	0	2
Hungry_Donkey_bar_English_2	151	1	<?xml version="1.0"?>\n<Clock xmlns:dt="urn:schemas-microsoft-com:datatypes"><Description dt:dt="string">E-Prime Primary Realtime Clock</Description><StartTime><Timestamp dt:dt="int">0</Timestamp><DateUtc dt:dt="string">2016-06-06T22:08:43Z</DateUtc></StartTime><FrequencyChanges><FrequencyChange><Frequency dt:dt="r8">3507724</Frequency><Timestamp dt:dt="r8">373827826</Timestamp><Current dt:dt="r8">0</Current><DateUtc dt:dt="string">2016-06-06T22:08:43Z</DateUtc></FrequencyChange></FrequencyChanges></Clock>\n	Hungry_Donkey_bar_English_2-151-1	60.018	9	1.0.0.18	1	374500573	Standard	2.0.10.353	2.0.10.353	06-06-2016		18:08:44	2.0.10.248	72	Bar50-50.bmp	46	2	?	10r_4g.bmp	0r_4g.bmp	2r_2g.bmp	0r_2g.bmp		0r_4g.bmp			TrialProc	TrialList	0	cvbn	-999999	16	283787	0	v	1735	285522	222	-263	-41	-22	-60	-1	42	3	8	72	-10	0	-2	0	4	4	2	2	0	4
Hungry_Donkey_bar_English_2	151	1	<?xml version="1.0"?>\n<Clock xmlns:dt="urn:schemas-microsoft-com:datatypes"><Description dt:dt="string">E-Prime Primary Realtime Clock</Description><StartTime><Timestamp dt:dt="int">0</Timestamp><DateUtc dt:dt="string">2016-06-06T22:08:43Z</DateUtc></StartTime><FrequencyChanges><FrequencyChange><Frequency dt:dt="r8">3507724</Frequency><Timestamp dt:dt="r8">373827826</Timestamp><Current dt:dt="r8">0</Current><DateUtc dt:dt="string">2016-06-06T22:08:43Z</DateUtc></FrequencyChange></FrequencyChanges></Clock>\n	Hungry_Donkey_bar_English_2-151-1	60.018	9	1.0.0.18	1	374500573	Standard	2.0.10.353	2.0.10.353	06-06-2016		18:08:44	2.0.10.248	73	Bar50-50.bmp	46	4	?	12r_4g.bmp	0r_4g.bmp	3r_2g.bmp	0r_2g.bmp				0r_2g.bmp	TrialProc	TrialList	0	cvbn	-999999	16	287553	0	n	625	288178	224	-263	-39	-22	-60	-1	44	5	8	73	-12	0	-3	0	4	4	2	2	0	2
Hungry_Donkey_bar_English_2	151	1	<?xml version="1.0"?>\n<Clock xmlns:dt="urn:schemas-microsoft-com:datatypes"><Description dt:dt="string">E-Prime Primary Realtime Clock</Description><StartTime><Timestamp dt:dt="int">0</Timestamp><DateUtc dt:dt="string">2016-06-06T22:08:43Z</DateUtc></StartTime><FrequencyChanges><FrequencyChange><Frequency dt:dt="r8">3507724</Frequency><Timestamp dt:dt="r8">373827826</Timestamp><Current dt:dt="r8">0</Current><DateUtc dt:dt="string">2016-06-06T22:08:43Z</DateUtc></FrequencyChange></FrequencyChanges></Clock>\n	Hungry_Donkey_bar_English_2-151-1	60.018	9	1.0.0.18	1	374500573	Standard	2.0.10.353	2.0.10.353	06-06-2016		18:08:44	2.0.10.248	74	Bar50-50.bmp	46	2	?	0r_4g.bmp	0r_4g.bmp	0r_2g.bmp	0r_2g.bmp		0r_4g.bmp			TrialProc	TrialList	0	cvbn	-999999	16	290202	0	v	408	290610	228	-263	-35	-22	-56	-1	44	7	8	74	0	0	0	0	4	4	2	2	0	4
Hungry_Donkey_bar_English_2	151	1	<?xml version="1.0"?>\n<Clock xmlns:dt="urn:schemas-microsoft-com:datatypes"><Description dt:dt="string">E-Prime Primary Realtime Clock</Description><StartTime><Timestamp dt:dt="int">0</Timestamp><DateUtc dt:dt="string">2016-06-06T22:08:43Z</DateUtc></StartTime><FrequencyChanges><FrequencyChange><Frequency dt:dt="r8">3507724</Frequency><Timestamp dt:dt="r8">373827826</Timestamp><Current dt:dt="r8">0</Current><DateUtc dt:dt="string">2016-06-06T22:08:43Z</DateUtc></FrequencyChange></FrequencyChanges></Clock>\n	Hungry_Donkey_bar_English_2-151-1	60.018	9	1.0.0.18	1	374500573	Standard	2.0.10.353	2.0.10.353	06-06-2016		18:08:44	2.0.10.248	75	Bar50-50.bmp	46	4	?	8r_4g.bmp	50r_4g.bmp	1r_2g.bmp	10r_2g.bmp				10r_2g.bmp	TrialProc	TrialList	0	cvbn	-999999	16	292635	0	n	598	293233	230	-273	-43	-22	-56	-1	36	1	8	75	-8	-50	-1	-10	4	4	2	2	-10	2
Hungry_Donkey_bar_English_2	151	1	<?xml version="1.0"?>\n<Clock xmlns:dt="urn:schemas-microsoft-com:datatypes"><Description dt:dt="string">E-Prime Primary Realtime Clock</Description><StartTime><Timestamp dt:dt="int">0</Timestamp><DateUtc dt:dt="string">2016-06-06T22:08:43Z</DateUtc></StartTime><FrequencyChanges><FrequencyChange><Frequency dt:dt="r8">3507724</Frequency><Timestamp dt:dt="r8">373827826</Timestamp><Current dt:dt="r8">0</Current><DateUtc dt:dt="string">2016-06-06T22:08:43Z</DateUtc></FrequencyChange></FrequencyChanges></Clock>\n	Hungry_Donkey_bar_English_2-151-1	60.018	9	1.0.0.18	1	374500573	Standard	2.0.10.353	2.0.10.353	06-06-2016		18:08:44	2.0.10.248	76	Bar50-50.bmp	46	2	?	10r_4g.bmp	0r_4g.bmp	2r_2g.bmp	0r_2g.bmp		0r_4g.bmp			TrialProc	TrialList	0	cvbn	-999999	16	295267	0	v	2014	297281	234	-273	-39	-22	-52	-1	36	4	8	76	-10	0	-2	0	4	4	2	2	0	4
Hungry_Donkey_bar_English_2	151	1	<?xml version="1.0"?>\n<Clock xmlns:dt="urn:schemas-microsoft-com:datatypes"><Description dt:dt="string">E-Prime Primary Realtime Clock</Description><StartTime><Timestamp dt:dt="int">0</Timestamp><DateUtc dt:dt="string">2016-06-06T22:08:43Z</DateUtc></StartTime><FrequencyChanges><FrequencyChange><Frequency dt:dt="r8">3507724</Frequency><Timestamp dt:dt="r8">373827826</Timestamp><Current dt:dt="r8">0</Current><DateUtc dt:dt="string">2016-06-06T22:08:43Z</DateUtc></FrequencyChange></FrequencyChanges></Clock>\n	Hungry_Donkey_bar_English_2-151-1	60.018	9	1.0.0.18	1	374500573	Standard	2.0.10.353	2.0.10.353	06-06-2016		18:08:44	2.0.10.248	77	Bar50-50.bmp	46	4	?	10r_4g.bmp	0r_4g.bmp	2r_2g.bmp	0r_2g.bmp				0r_2g.bmp	TrialProc	TrialList	0	cvbn	-999999	16	299316	0	n	957	300273	236	-273	-37	-22	-52	-1	38	2	8	77	-10	0	-2	0	4	4	2	2	0	2
Hungry_Donkey_bar_English_2	151	1	<?xml version="1.0"?>\n<Clock xmlns:dt="urn:schemas-microsoft-com:datatypes"><Description dt:dt="string">E-Prime Primary Realtime Clock</Description><StartTime><Timestamp dt:dt="int">0</Timestamp><DateUtc dt:dt="string">2016-06-06T22:08:43Z</DateUtc></StartTime><FrequencyChanges><FrequencyChange><Frequency dt:dt="r8">3507724</Frequency><Timestamp dt:dt="r8">373827826</Timestamp><Current dt:dt="r8">0</Current><DateUtc dt:dt="string">2016-06-06T22:08:43Z</DateUtc></FrequencyChange></FrequencyChanges></Clock>\n	Hungry_Donkey_bar_English_2-151-1	60.018	9	1.0.0.18	1	374500573	Standard	2.0.10.353	2.0.10.353	06-06-2016		18:08:44	2.0.10.248	78	Bar50-50.bmp	47	2	?	0r_4g.bmp	0r_4g.bmp	0r_2g.bmp	0r_2g.bmp		0r_4g.bmp			TrialProc	TrialList	0	cvbn	-999999	16	302315	0	v	6677	308992	240	-273	-33	-22	-48	-1	38	6	8	78	0	0	0	0	4	4	2	2	0	4
Hungry_Donkey_bar_English_2	151	1	<?xml version="1.0"?>\n<Clock xmlns:dt="urn:schemas-microsoft-com:datatypes"><Description dt:dt="string">E-Prime Primary Realtime Clock</Description><StartTime><Timestamp dt:dt="int">0</Timestamp><DateUtc dt:dt="string">2016-06-06T22:08:43Z</DateUtc></StartTime><FrequencyChanges><FrequencyChange><Frequency dt:dt="r8">3507724</Frequency><Timestamp dt:dt="r8">373827826</Timestamp><Current dt:dt="r8">0</Current><DateUtc dt:dt="string">2016-06-06T22:08:43Z</DateUtc></FrequencyChange></FrequencyChanges></Clock>\n	Hungry_Donkey_bar_English_2-151-1	60.018	9	1.0.0.18	1	374500573	Standard	2.0.10.353	2.0.10.353	06-06-2016		18:08:44	2.0.10.248	79	Bar50-50.bmp	47	4	?	0r_4g.bmp	0r_4g.bmp	0r_2g.bmp	0r_2g.bmp				0r_2g.bmp	TrialProc	TrialList	0	cvbn	-999999	16	311029	0	n	699	311728	242	-273	-31	-22	-48	-1	40	9	8	79	0	0	0	0	4	4	2	2	0	2
Hungry_Donkey_bar_English_2	151	1	<?xml version="1.0"?>\n<Clock xmlns:dt="urn:schemas-microsoft-com:datatypes"><Description dt:dt="string">E-Prime Primary Realtime Clock</Description><StartTime><Timestamp dt:dt="int">0</Timestamp><DateUtc dt:dt="string">2016-06-06T22:08:43Z</DateUtc></StartTime><FrequencyChanges><FrequencyChange><Frequency dt:dt="r8">3507724</Frequency><Timestamp dt:dt="r8">373827826</Timestamp><Current dt:dt="r8">0</Current><DateUtc dt:dt="string">2016-06-06T22:08:43Z</DateUtc></FrequencyChange></FrequencyChanges></Clock>\n	Hungry_Donkey_bar_English_2-151-1	60.018	9	1.0.0.18	1	374500573	Standard	2.0.10.353	2.0.10.353	06-06-2016		18:08:44	2.0.10.248	80	Bar50-50.bmp	47	2	?	0r_4g.bmp	0r_4g.bmp	0r_2g.bmp	0r_2g.bmp		0r_4g.bmp			TrialProc	TrialList	0	cvbn	-999999	16	313762	0	v	590	314352	246	-273	-27	-22	-44	-1	40	10	8	80	0	0	0	0	4	4	2	2	0	4
Hungry_Donkey_bar_English_2	151	1	<?xml version="1.0"?>\n<Clock xmlns:dt="urn:schemas-microsoft-com:datatypes"><Description dt:dt="string">E-Prime Primary Realtime Clock</Description><StartTime><Timestamp dt:dt="int">0</Timestamp><DateUtc dt:dt="string">2016-06-06T22:08:43Z</DateUtc></StartTime><FrequencyChanges><FrequencyChange><Frequency dt:dt="r8">3507724</Frequency><Timestamp dt:dt="r8">373827826</Timestamp><Current dt:dt="r8">0</Current><DateUtc dt:dt="string">2016-06-06T22:08:43Z</DateUtc></FrequencyChange></FrequencyChanges></Clock>\n	Hungry_Donkey_bar_English_2-151-1	60.018	9	1.0.0.18	1	374500573	Standard	2.0.10.353	2.0.10.353	06-06-2016		18:08:44	2.0.10.248	81	Bar50-50.bmp	48	4	?	12r_4g.bmp	0r_4g.bmp	3r_2g.bmp	0r_2g.bmp				0r_2g.bmp	TrialProc	TrialList	0	cvbn	-999999	16	316378	0	n	646	317024	248	-273	-25	-22	-44	-1	42	5	9	81	-12	0	-3	0	4	4	2	2	0	2
Hungry_Donkey_bar_English_2	151	1	<?xml version="1.0"?>\n<Clock xmlns:dt="urn:schemas-microsoft-com:datatypes"><Description dt:dt="string">E-Prime Primary Realtime Clock</Description><StartTime><Timestamp dt:dt="int">0</Timestamp><DateUtc dt:dt="string">2016-06-06T22:08:43Z</DateUtc></StartTime><FrequencyChanges><FrequencyChange><Frequency dt:dt="r8">3507724</Frequency><Timestamp dt:dt="r8">373827826</Timestamp><Current dt:dt="r8">0</Current><DateUtc dt:dt="string">2016-06-06T22:08:43Z</DateUtc></FrequencyChange></FrequencyChanges></Clock>\n	Hungry_Donkey_bar_English_2-151-1	60.018	9	1.0.0.18	1	374500573	Standard	2.0.10.353	2.0.10.353	06-06-2016		18:08:44	2.0.10.248	82	Bar50-50.bmp	48	2	?	0r_4g.bmp	0r_4g.bmp	0r_2g.bmp	0r_2g.bmp		0r_4g.bmp			TrialProc	TrialList	0	cvbn	-999999	16	319060	0	v	124	319184	252	-273	-21	-22	-40	-1	42	6	9	82	0	0	0	0	4	4	2	2	0	4
Hungry_Donkey_bar_English_2	151	1	<?xml version="1.0"?>\n<Clock xmlns:dt="urn:schemas-microsoft-com:datatypes"><Description dt:dt="string">E-Prime Primary Realtime Clock</Description><StartTime><Timestamp dt:dt="int">0</Timestamp><DateUtc dt:dt="string">2016-06-06T22:08:43Z</DateUtc></StartTime><FrequencyChanges><FrequencyChange><Frequency dt:dt="r8">3507724</Frequency><Timestamp dt:dt="r8">373827826</Timestamp><Current dt:dt="r8">0</Current><DateUtc dt:dt="string">2016-06-06T22:08:43Z</DateUtc></FrequencyChange></FrequencyChanges></Clock>\n	Hungry_Donkey_bar_English_2-151-1	60.018	9	1.0.0.18	1	374500573	Standard	2.0.10.353	2.0.10.353	06-06-2016		18:08:44	2.0.10.248	83	Bar50-50.bmp	48	2	?	0r_4g.bmp	0r_4g.bmp	0r_2g.bmp	0r_2g.bmp		0r_4g.bmp			TrialProc	TrialList	0	cvbn	-999999	17	321210	0	v	2134	323344	256	-273	-17	-22	-36	-1	42	7	9	83	0	0	0	0	4	4	2	2	0	4
Hungry_Donkey_bar_English_2	151	1	<?xml version="1.0"?>\n<Clock xmlns:dt="urn:schemas-microsoft-com:datatypes"><Description dt:dt="string">E-Prime Primary Realtime Clock</Description><StartTime><Timestamp dt:dt="int">0</Timestamp><DateUtc dt:dt="string">2016-06-06T22:08:43Z</DateUtc></StartTime><FrequencyChanges><FrequencyChange><Frequency dt:dt="r8">3507724</Frequency><Timestamp dt:dt="r8">373827826</Timestamp><Current dt:dt="r8">0</Current><DateUtc dt:dt="string">2016-06-06T22:08:43Z</DateUtc></FrequencyChange></FrequencyChanges></Clock>\n	Hungry_Donkey_bar_English_2-151-1	60.018	9	1.0.0.18	1	374500573	Standard	2.0.10.353	2.0.10.353	06-06-2016		18:08:44	2.0.10.248	84	Bar50-50.bmp	45	2	?	8r_4g.bmp	50r_4g.bmp	1r_2g.bmp	10r_2g.bmp		50r_4g.bmp			TrialProc	TrialList	0	cvbn	-999999	16	325375	0	v	1952	327327	260	-323	-63	-22	-82	-1	42	1	9	84	-8	-50	-1	-10	4	4	2	2	-50	4
Hungry_Donkey_bar_English_2	151	1	<?xml version="1.0"?>\n<Clock xmlns:dt="urn:schemas-microsoft-com:datatypes"><Description dt:dt="string">E-Prime Primary Realtime Clock</Description><StartTime><Timestamp dt:dt="int">0</Timestamp><DateUtc dt:dt="string">2016-06-06T22:08:43Z</DateUtc></StartTime><FrequencyChanges><FrequencyChange><Frequency dt:dt="r8">3507724</Frequency><Timestamp dt:dt="r8">373827826</Timestamp><Current dt:dt="r8">0</Current><DateUtc dt:dt="string">2016-06-06T22:08:43Z</DateUtc></FrequencyChange></FrequencyChanges></Clock>\n	Hungry_Donkey_bar_English_2-151-1	60.018	9	1.0.0.18	1	374500573	Standard	2.0.10.353	2.0.10.353	06-06-2016		18:08:44	2.0.10.248	85	Bar50-50.bmp	45	4	?	0r_4g.bmp	0r_4g.bmp	0r_2g.bmp	0r_2g.bmp				0r_2g.bmp	TrialProc	TrialList	0	cvbn	-999999	16	329357	0	n	2082	331439	262	-323	-61	-22	-82	-1	44	10	9	85	0	0	0	0	4	4	2	2	0	2
Hungry_Donkey_bar_English_2	151	1	<?xml version="1.0"?>\n<Clock xmlns:dt="urn:schemas-microsoft-com:datatypes"><Description dt:dt="string">E-Prime Primary Realtime Clock</Description><StartTime><Timestamp dt:dt="int">0</Timestamp><DateUtc dt:dt="string">2016-06-06T22:08:43Z</DateUtc></StartTime><FrequencyChanges><FrequencyChange><Frequency dt:dt="r8">3507724</Frequency><Timestamp dt:dt="r8">373827826</Timestamp><Current dt:dt="r8">0</Current><DateUtc dt:dt="string">2016-06-06T22:08:43Z</DateUtc></FrequencyChange></FrequencyChanges></Clock>\n	Hungry_Donkey_bar_English_2-151-1	60.018	9	1.0.0.18	1	374500573	Standard	2.0.10.353	2.0.10.353	06-06-2016		18:08:44	2.0.10.248	86	Bar50-50.bmp	45	4	?	0r_4g.bmp	0r_4g.bmp	0r_2g.bmp	0r_2g.bmp				0r_2g.bmp	TrialProc	TrialList	0	cvbn	-999999	17	333473	0	n	750	334223	264	-323	-59	-22	-82	-1	46	8	9	86	0	0	0	0	4	4	2	2	0	2
Hungry_Donkey_bar_English_2	151	1	<?xml version="1.0"?>\n<Clock xmlns:dt="urn:schemas-microsoft-com:datatypes"><Description dt:dt="string">E-Prime Primary Realtime Clock</Description><StartTime><Timestamp dt:dt="int">0</Timestamp><DateUtc dt:dt="string">2016-06-06T22:08:43Z</DateUtc></StartTime><FrequencyChanges><FrequencyChange><Frequency dt:dt="r8">3507724</Frequency><Timestamp dt:dt="r8">373827826</Timestamp><Current dt:dt="r8">0</Current><DateUtc dt:dt="string">2016-06-06T22:08:43Z</DateUtc></FrequencyChange></FrequencyChanges></Clock>\n	Hungry_Donkey_bar_English_2-151-1	60.018	9	1.0.0.18	1	374500573	Standard	2.0.10.353	2.0.10.353	06-06-2016		18:08:44	2.0.10.248	87	Bar50-50.bmp	45	4	?	10r_4g.bmp	0r_4g.bmp	2r_2g.bmp	0r_2g.bmp				0r_2g.bmp	TrialProc	TrialList	0	cvbn	-999999	16	336255	0	n	832	337087	266	-323	-57	-22	-82	-1	48	2	9	87	-10	0	-2	0	4	4	2	2	0	2
Hungry_Donkey_bar_English_2	151	1	<?xml version="1.0"?>\n<Clock xmlns:dt="urn:schemas-microsoft-com:datatypes"><Description dt:dt="string">E-Prime Primary Realtime Clock</Description><StartTime><Timestamp dt:dt="int">0</Timestamp><DateUtc dt:dt="string">2016-06-06T22:08:43Z</DateUtc></StartTime><FrequencyChanges><FrequencyChange><Frequency dt:dt="r8">3507724</Frequency><Timestamp dt:dt="r8">373827826</Timestamp><Current dt:dt="r8">0</Current><DateUtc dt:dt="string">2016-06-06T22:08:43Z</DateUtc></FrequencyChange></FrequencyChanges></Clock>\n	Hungry_Donkey_bar_English_2-151-1	60.018	9	1.0.0.18	1	374500573	Standard	2.0.10.353	2.0.10.353	06-06-2016		18:08:44	2.0.10.248	88	Bar50-50.bmp	46	2	?	10r_4g.bmp	0r_4g.bmp	2r_2g.bmp	0r_2g.bmp		0r_4g.bmp			TrialProc	TrialList	0	cvbn	-999999	16	339121	0	v	510	339631	270	-323	-53	-22	-78	-1	48	4	9	88	-10	0	-2	0	4	4	2	2	0	4
Hungry_Donkey_bar_English_2	151	1	<?xml version="1.0"?>\n<Clock xmlns:dt="urn:schemas-microsoft-com:datatypes"><Description dt:dt="string">E-Prime Primary Realtime Clock</Description><StartTime><Timestamp dt:dt="int">0</Timestamp><DateUtc dt:dt="string">2016-06-06T22:08:43Z</DateUtc></StartTime><FrequencyChanges><FrequencyChange><Frequency dt:dt="r8">3507724</Frequency><Timestamp dt:dt="r8">373827826</Timestamp><Current dt:dt="r8">0</Current><DateUtc dt:dt="string">2016-06-06T22:08:43Z</DateUtc></FrequencyChange></FrequencyChanges></Clock>\n	Hungry_Donkey_bar_English_2-151-1	60.018	9	1.0.0.18	1	374500573	Standard	2.0.10.353	2.0.10.353	06-06-2016		18:08:44	2.0.10.248	89	Bar50-50.bmp	46	2	?	0r_4g.bmp	0r_4g.bmp	0r_2g.bmp	0r_2g.bmp		0r_4g.bmp			TrialProc	TrialList	0	cvbn	-999999	16	341670	0	v	536	342206	274	-323	-49	-22	-74	-1	48	9	9	89	0	0	0	0	4	4	2	2	0	4
Hungry_Donkey_bar_English_2	151	1	<?xml version="1.0"?>\n<Clock xmlns:dt="urn:schemas-microsoft-com:datatypes"><Description dt:dt="string">E-Prime Primary Realtime Clock</Description><StartTime><Timestamp dt:dt="int">0</Timestamp><DateUtc dt:dt="string">2016-06-06T22:08:43Z</DateUtc></StartTime><FrequencyChanges><FrequencyChange><Frequency dt:dt="r8">3507724</Frequency><Timestamp dt:dt="r8">373827826</Timestamp><Current dt:dt="r8">0</Current><DateUtc dt:dt="string">2016-06-06T22:08:43Z</DateUtc></FrequencyChange></FrequencyChanges></Clock>\n	Hungry_Donkey_bar_English_2-151-1	60.018	9	1.0.0.18	1	374500573	Standard	2.0.10.353	2.0.10.353	06-06-2016		18:08:44	2.0.10.248	90	Bar50-50.bmp	46	2	?	10r_4g.bmp	0r_4g.bmp	2r_2g.bmp	0r_2g.bmp		0r_4g.bmp			TrialProc	TrialList	0	cvbn	-999999	16	344236	0	v	370	344606	278	-323	-45	-22	-70	-1	48	3	9	90	-10	0	-2	0	4	4	2	2	0	4
Hungry_Donkey_bar_English_2	151	1	<?xml version="1.0"?>\n<Clock xmlns:dt="urn:schemas-microsoft-com:datatypes"><Description dt:dt="string">E-Prime Primary Realtime Clock</Description><StartTime><Timestamp dt:dt="int">0</Timestamp><DateUtc dt:dt="string">2016-06-06T22:08:43Z</DateUtc></StartTime><FrequencyChanges><FrequencyChange><Frequency dt:dt="r8">3507724</Frequency><Timestamp dt:dt="r8">373827826</Timestamp><Current dt:dt="r8">0</Current><DateUtc dt:dt="string">2016-06-06T22:08:43Z</DateUtc></FrequencyChange></FrequencyChanges></Clock>\n	Hungry_Donkey_bar_English_2-151-1	60.018	9	1.0.0.18	1	374500573	Standard	2.0.10.353	2.0.10.353	06-06-2016		18:08:44	2.0.10.248	91	Bar50-50.bmp	47	2	?	0r_4g.bmp	0r_4g.bmp	0r_2g.bmp	0r_2g.bmp		0r_4g.bmp			TrialProc	TrialList	0	cvbn	-999999	16	346635	0	v	419	347054	282	-323	-41	-22	-66	-1	48	8	10	91	0	0	0	0	4	4	2	2	0	4
Hungry_Donkey_bar_English_2	151	1	<?xml version="1.0"?>\n<Clock xmlns:dt="urn:schemas-microsoft-com:datatypes"><Description dt:dt="string">E-Prime Primary Realtime Clock</Description><StartTime><Timestamp dt:dt="int">0</Timestamp><DateUtc dt:dt="string">2016-06-06T22:08:43Z</DateUtc></StartTime><FrequencyChanges><FrequencyChange><Frequency dt:dt="r8">3507724</Frequency><Timestamp dt:dt="r8">373827826</Timestamp><Current dt:dt="r8">0</Current><DateUtc dt:dt="string">2016-06-06T22:08:43Z</DateUtc></FrequencyChange></FrequencyChanges></Clock>\n	Hungry_Donkey_bar_English_2-151-1	60.018	9	1.0.0.18	1	374500573	Standard	2.0.10.353	2.0.10.353	06-06-2016		18:08:44	2.0.10.248	92	Bar50-50.bmp	47	2	?	10r_4g.bmp	0r_4g.bmp	2r_2g.bmp	0r_2g.bmp		0r_4g.bmp			TrialProc	TrialList	0	cvbn	-999999	17	349085	0	v	1633	350718	286	-323	-37	-22	-62	-1	48	3	10	92	-10	0	-2	0	4	4	2	2	0	4
Hungry_Donkey_bar_English_2	151	1	<?xml version="1.0"?>\n<Clock xmlns:dt="urn:schemas-microsoft-com:datatypes"><Description dt:dt="string">E-Prime Primary Realtime Clock</Description><StartTime><Timestamp dt:dt="int">0</Timestamp><DateUtc dt:dt="string">2016-06-06T22:08:43Z</DateUtc></StartTime><FrequencyChanges><FrequencyChange><Frequency dt:dt="r8">3507724</Frequency><Timestamp dt:dt="r8">373827826</Timestamp><Current dt:dt="r8">0</Current><DateUtc dt:dt="string">2016-06-06T22:08:43Z</DateUtc></FrequencyChange></FrequencyChanges></Clock>\n	Hungry_Donkey_bar_English_2-151-1	60.018	9	1.0.0.18	1	374500573	Standard	2.0.10.353	2.0.10.353	06-06-2016		18:08:44	2.0.10.248	93	Bar50-50.bmp	47	2	?	10r_4g.bmp	0r_4g.bmp	2r_2g.bmp	0r_2g.bmp		0r_4g.bmp			TrialProc	TrialList	0	cvbn	-999999	16	352750	0	v	480	353230	290	-323	-33	-22	-58	-1	48	4	10	93	-10	0	-2	0	4	4	2	2	0	4
Hungry_Donkey_bar_English_2	151	1	<?xml version="1.0"?>\n<Clock xmlns:dt="urn:schemas-microsoft-com:datatypes"><Description dt:dt="string">E-Prime Primary Realtime Clock</Description><StartTime><Timestamp dt:dt="int">0</Timestamp><DateUtc dt:dt="string">2016-06-06T22:08:43Z</DateUtc></StartTime><FrequencyChanges><FrequencyChange><Frequency dt:dt="r8">3507724</Frequency><Timestamp dt:dt="r8">373827826</Timestamp><Current dt:dt="r8">0</Current><DateUtc dt:dt="string">2016-06-06T22:08:43Z</DateUtc></FrequencyChange></FrequencyChanges></Clock>\n	Hungry_Donkey_bar_English_2-151-1	60.018	9	1.0.0.18	1	374500573	Standard	2.0.10.353	2.0.10.353	06-06-2016		18:08:44	2.0.10.248	94	Bar50-50.bmp	48	2	?	0r_4g.bmp	0r_4g.bmp	0r_2g.bmp	0r_2g.bmp		0r_4g.bmp			TrialProc	TrialList	0	cvbn	-999999	16	355266	0	v	4091	359357	294	-323	-29	-22	-54	-1	48	9	10	94	0	0	0	0	4	4	2	2	0	4
Hungry_Donkey_bar_English_2	151	1	<?xml version="1.0"?>\n<Clock xmlns:dt="urn:schemas-microsoft-com:datatypes"><Description dt:dt="string">E-Prime Primary Realtime Clock</Description><StartTime><Timestamp dt:dt="int">0</Timestamp><DateUtc dt:dt="string">2016-06-06T22:08:43Z</DateUtc></StartTime><FrequencyChanges><FrequencyChange><Frequency dt:dt="r8">3507724</Frequency><Timestamp dt:dt="r8">373827826</Timestamp><Current dt:dt="r8">0</Current><DateUtc dt:dt="string">2016-06-06T22:08:43Z</DateUtc></FrequencyChange></FrequencyChanges></Clock>\n	Hungry_Donkey_bar_English_2-151-1	60.018	9	1.0.0.18	1	374500573	Standard	2.0.10.353	2.0.10.353	06-06-2016		18:08:44	2.0.10.248	95	Bar50-50.bmp	48	2	?	12r_4g.bmp	0r_4g.bmp	3r_2g.bmp	0r_2g.bmp		0r_4g.bmp			TrialProc	TrialList	0	cvbn	-999999	15	361381	0	v	568	361949	298	-323	-25	-22	-50	-1	48	5	10	95	-12	0	-3	0	4	4	2	2	0	4
Hungry_Donkey_bar_English_2	151	1	<?xml version="1.0"?>\n<Clock xmlns:dt="urn:schemas-microsoft-com:datatypes"><Description dt:dt="string">E-Prime Primary Realtime Clock</Description><StartTime><Timestamp dt:dt="int">0</Timestamp><DateUtc dt:dt="string">2016-06-06T22:08:43Z</DateUtc></StartTime><FrequencyChanges><FrequencyChange><Frequency dt:dt="r8">3507724</Frequency><Timestamp dt:dt="r8">373827826</Timestamp><Current dt:dt="r8">0</Current><DateUtc dt:dt="string">2016-06-06T22:08:43Z</DateUtc></FrequencyChange></FrequencyChanges></Clock>\n	Hungry_Donkey_bar_English_2-151-1	60.018	9	1.0.0.18	1	374500573	Standard	2.0.10.353	2.0.10.353	06-06-2016		18:08:44	2.0.10.248	96	Bar50-50.bmp	48	2	?	0r_4g.bmp	0r_4g.bmp	0r_2g.bmp	0r_2g.bmp		0r_4g.bmp			TrialProc	TrialList	0	cvbn	-999999	16	363980	0	v	961	364941	302	-323	-21	-22	-46	-1	48	6	10	96	0	0	0	0	4	4	2	2	0	4
Hungry_Donkey_bar_English_2	151	1	<?xml version="1.0"?>\n<Clock xmlns:dt="urn:schemas-microsoft-com:datatypes"><Description dt:dt="string">E-Prime Primary Realtime Clock</Description><StartTime><Timestamp dt:dt="int">0</Timestamp><DateUtc dt:dt="string">2016-06-06T22:08:43Z</DateUtc></StartTime><FrequencyChanges><FrequencyChange><Frequency dt:dt="r8">3507724</Frequency><Timestamp dt:dt="r8">373827826</Timestamp><Current dt:dt="r8">0</Current><DateUtc dt:dt="string">2016-06-06T22:08:43Z</DateUtc></FrequencyChange></FrequencyChanges></Clock>\n	Hungry_Donkey_bar_English_2-151-1	60.018	9	1.0.0.18	1	374500573	Standard	2.0.10.353	2.0.10.353	06-06-2016		18:08:44	2.0.10.248	97	Bar50-50.bmp	49	2	?	10r_4g.bmp	0r_4g.bmp	2r_2g.bmp	0r_2g.bmp		0r_4g.bmp			TrialProc	TrialList	0	cvbn	-999999	16	366979	0	v	410	367389	306	-323	-17	-22	-42	-1	48	2	10	97	-10	0	-2	0	4	4	2	2	0	4
Hungry_Donkey_bar_English_2	151	1	<?xml version="1.0"?>\n<Clock xmlns:dt="urn:schemas-microsoft-com:datatypes"><Description dt:dt="string">E-Prime Primary Realtime Clock</Description><StartTime><Timestamp dt:dt="int">0</Timestamp><DateUtc dt:dt="string">2016-06-06T22:08:43Z</DateUtc></StartTime><FrequencyChanges><FrequencyChange><Frequency dt:dt="r8">3507724</Frequency><Timestamp dt:dt="r8">373827826</Timestamp><Current dt:dt="r8">0</Current><DateUtc dt:dt="string">2016-06-06T22:08:43Z</DateUtc></FrequencyChange></FrequencyChanges></Clock>\n	Hungry_Donkey_bar_English_2-151-1	60.018	9	1.0.0.18	1	374500573	Standard	2.0.10.353	2.0.10.353	06-06-2016		18:08:44	2.0.10.248	98	Bar50-50.bmp	49	4	?	0r_4g.bmp	0r_4g.bmp	0r_2g.bmp	0r_2g.bmp				0r_2g.bmp	TrialProc	TrialList	0	cvbn	-999999	16	369428	0	n	969	370397	308	-323	-15	-22	-42	-1	50	10	10	98	0	0	0	0	4	4	2	2	0	2
Hungry_Donkey_bar_English_2	151	1	<?xml version="1.0"?>\n<Clock xmlns:dt="urn:schemas-microsoft-com:datatypes"><Description dt:dt="string">E-Prime Primary Realtime Clock</Description><StartTime><Timestamp dt:dt="int">0</Timestamp><DateUtc dt:dt="string">2016-06-06T22:08:43Z</DateUtc></StartTime><FrequencyChanges><FrequencyChange><Frequency dt:dt="r8">3507724</Frequency><Timestamp dt:dt="r8">373827826</Timestamp><Current dt:dt="r8">0</Current><DateUtc dt:dt="string">2016-06-06T22:08:43Z</DateUtc></FrequencyChange></FrequencyChanges></Clock>\n	Hungry_Donkey_bar_English_2-151-1	60.018	9	1.0.0.18	1	374500573	Standard	2.0.10.353	2.0.10.353	06-06-2016		18:08:44	2.0.10.248	99	Bar50-50.bmp	49	4	?	0r_4g.bmp	0r_4g.bmp	0r_2g.bmp	0r_2g.bmp				0r_2g.bmp	TrialProc	TrialList	0	cvbn	-999999	17	372428	0	n	417	372845	310	-323	-13	-22	-42	-1	52	7	10	99	0	0	0	0	4	4	2	2	0	2
Hungry_Donkey_bar_English_2	151	1	<?xml version="1.0"?>\n<Clock xmlns:dt="urn:schemas-microsoft-com:datatypes"><Description dt:dt="string">E-Prime Primary Realtime Clock</Description><StartTime><Timestamp dt:dt="int">0</Timestamp><DateUtc dt:dt="string">2016-06-06T22:08:43Z</DateUtc></StartTime><FrequencyChanges><FrequencyChange><Frequency dt:dt="r8">3507724</Frequency><Timestamp dt:dt="r8">373827826</Timestamp><Current dt:dt="r8">0</Current><DateUtc dt:dt="string">2016-06-06T22:08:43Z</DateUtc></FrequencyChange></FrequencyChanges></Clock>\n	Hungry_Donkey_bar_English_2-151-1	60.018	9	1.0.0.18	1	374500573	Standard	2.0.10.353	2.0.10.353	06-06-2016		18:08:44	2.0.10.248	100	Bar50-50.bmp	46	2	?	8r_4g.bmp	50r_4g.bmp	1r_2g.bmp	10r_2g.bmp		50r_4g.bmp			TrialProc	TrialList	0	cvbn	-999999	16	374877	0	v	1039	375916	314	-373	-59	-22	-88	-1	52	1	10	100	-8	-50	-1	-10	4	4	2	2	-50	4
Hungry_Donkey_bar_English_2	151	1	<?xml version="1.0"?>\n<Clock xmlns:dt="urn:schemas-microsoft-com:datatypes"><Description dt:dt="string">E-Prime Primary Realtime Clock</Description><StartTime><Timestamp dt:dt="int">0</Timestamp><DateUtc dt:dt="string">2016-06-06T22:08:43Z</DateUtc></StartTime><FrequencyChanges><FrequencyChange><Frequency dt:dt="r8">3507724</Frequency><Timestamp dt:dt="r8">373827826</Timestamp><Current dt:dt="r8">0</Current><DateUtc dt:dt="string">2016-06-06T22:08:43Z</DateUtc></FrequencyChange></FrequencyChanges></Clock>\n	Hungry_Donkey_bar_English_2-151-1	60.018	9	1.0.0.18	1	374500573	Standard	2.0.10.353	2.0.10.353	06-06-2016		18:08:44	2.0.10.248	101	Bar50-50.bmp	46	4	?	0r_4g.bmp	0r_4g.bmp	0r_2g.bmp	0r_2g.bmp				0r_2g.bmp	TrialProc	TrialList	0	cvbn	-999999	16	377943	0	n	1445	379388	316	-373	-57	-22	-88	-1	54	6	11	101	0	0	0	0	4	4	2	2	0	2
Hungry_Donkey_bar_English_2	151	1	<?xml version="1.0"?>\n<Clock xmlns:dt="urn:schemas-microsoft-com:datatypes"><Description dt:dt="string">E-Prime Primary Realtime Clock</Description><StartTime><Timestamp dt:dt="int">0</Timestamp><DateUtc dt:dt="string">2016-06-06T22:08:43Z</DateUtc></StartTime><FrequencyChanges><FrequencyChange><Frequency dt:dt="r8">3507724</Frequency><Timestamp dt:dt="r8">373827826</Timestamp><Current dt:dt="r8">0</Current><DateUtc dt:dt="string">2016-06-06T22:08:43Z</DateUtc></FrequencyChange></FrequencyChanges></Clock>\n	Hungry_Donkey_bar_English_2-151-1	60.018	9	1.0.0.18	1	374500573	Standard	2.0.10.353	2.0.10.353	06-06-2016		18:08:44	2.0.10.248	102	Bar50-50.bmp	46	4	?	10r_4g.bmp	0r_4g.bmp	2r_2g.bmp	0r_2g.bmp				0r_2g.bmp	TrialProc	TrialList	0	cvbn	-999999	16	381425	0	n	8314	389739	318	-373	-55	-22	-88	-1	56	3	11	102	-10	0	-2	0	4	4	2	2	0	2
Hungry_Donkey_bar_English_2	151	1	<?xml version="1.0"?>\n<Clock xmlns:dt="urn:schemas-microsoft-com:datatypes"><Description dt:dt="string">E-Prime Primary Realtime Clock</Description><StartTime><Timestamp dt:dt="int">0</Timestamp><DateUtc dt:dt="string">2016-06-06T22:08:43Z</DateUtc></StartTime><FrequencyChanges><FrequencyChange><Frequency dt:dt="r8">3507724</Frequency><Timestamp dt:dt="r8">373827826</Timestamp><Current dt:dt="r8">0</Current><DateUtc dt:dt="string">2016-06-06T22:08:43Z</DateUtc></FrequencyChange></FrequencyChanges></Clock>\n	Hungry_Donkey_bar_English_2-151-1	60.018	9	1.0.0.18	1	374500573	Standard	2.0.10.353	2.0.10.353	06-06-2016		18:08:44	2.0.10.248	103	Bar50-50.bmp	46	3	?	0r_4g.bmp	0r_4g.bmp	0r_2g.bmp	0r_2g.bmp			0r_2g.bmp		TrialProc	TrialList	0	cvbn	-999999	16	391772	0	b	1647	393419	320	-373	-53	-22	-88	1	56	9	11	103	0	0	0	0	4	4	2	2	0	2
Hungry_Donkey_bar_English_2	151	1	<?xml version="1.0"?>\n<Clock xmlns:dt="urn:schemas-microsoft-com:datatypes"><Description dt:dt="string">E-Prime Primary Realtime Clock</Description><StartTime><Timestamp dt:dt="int">0</Timestamp><DateUtc dt:dt="string">2016-06-06T22:08:43Z</DateUtc></StartTime><FrequencyChanges><FrequencyChange><Frequency dt:dt="r8">3507724</Frequency><Timestamp dt:dt="r8">373827826</Timestamp><Current dt:dt="r8">0</Current><DateUtc dt:dt="string">2016-06-06T22:08:43Z</DateUtc></FrequencyChange></FrequencyChanges></Clock>\n	Hungry_Donkey_bar_English_2-151-1	60.018	9	1.0.0.18	1	374500573	Standard	2.0.10.353	2.0.10.353	06-06-2016		18:08:44	2.0.10.248	104	Bar50-50.bmp	46	4	?	0r_4g.bmp	0r_4g.bmp	0r_2g.bmp	0r_2g.bmp				0r_2g.bmp	TrialProc	TrialList	0	cvbn	-999999	16	395454	0	n	589	396043	322	-373	-51	-22	-88	1	58	7	11	104	0	0	0	0	4	4	2	2	0	2
Hungry_Donkey_bar_English_2	151	1	<?xml version="1.0"?>\n<Clock xmlns:dt="urn:schemas-microsoft-com:datatypes"><Description dt:dt="string">E-Prime Primary Realtime Clock</Description><StartTime><Timestamp dt:dt="int">0</Timestamp><DateUtc dt:dt="string">2016-06-06T22:08:43Z</DateUtc></StartTime><FrequencyChanges><FrequencyChange><Frequency dt:dt="r8">3507724</Frequency><Timestamp dt:dt="r8">373827826</Timestamp><Current dt:dt="r8">0</Current><DateUtc dt:dt="string">2016-06-06T22:08:43Z</DateUtc></FrequencyChange></FrequencyChanges></Clock>\n	Hungry_Donkey_bar_English_2-151-1	60.018	9	1.0.0.18	1	374500573	Standard	2.0.10.353	2.0.10.353	06-06-2016		18:08:44	2.0.10.248	105	Bar50-50.bmp	46	3	?	12r_4g.bmp	0r_4g.bmp	3r_2g.bmp	0r_2g.bmp			3r_2g.bmp		TrialProc	TrialList	0	cvbn	-999999	16	398070	0	b	1013	399083	324	-376	-52	-22	-88	0	58	5	11	105	-12	0	-3	0	4	4	2	2	-3	2
Hungry_Donkey_bar_English_2	151	1	<?xml version="1.0"?>\n<Clock xmlns:dt="urn:schemas-microsoft-com:datatypes"><Description dt:dt="string">E-Prime Primary Realtime Clock</Description><StartTime><Timestamp dt:dt="int">0</Timestamp><DateUtc dt:dt="string">2016-06-06T22:08:43Z</DateUtc></StartTime><FrequencyChanges><FrequencyChange><Frequency dt:dt="r8">3507724</Frequency><Timestamp dt:dt="r8">373827826</Timestamp><Current dt:dt="r8">0</Current><DateUtc dt:dt="string">2016-06-06T22:08:43Z</DateUtc></FrequencyChange></FrequencyChanges></Clock>\n	Hungry_Donkey_bar_English_2-151-1	60.018	9	1.0.0.18	1	374500573	Standard	2.0.10.353	2.0.10.353	06-06-2016		18:08:44	2.0.10.248	106	Bar50-50.bmp	46	4	?	0r_4g.bmp	0r_4g.bmp	0r_2g.bmp	0r_2g.bmp				0r_2g.bmp	TrialProc	TrialList	0	cvbn	-999999	16	401119	0	n	1452	402571	326	-376	-50	-22	-88	0	60	10	11	106	0	0	0	0	4	4	2	2	0	2
Hungry_Donkey_bar_English_2	151	1	<?xml version="1.0"?>\n<Clock xmlns:dt="urn:schemas-microsoft-com:datatypes"><Description dt:dt="string">E-Prime Primary Realtime Clock</Description><StartTime><Timestamp dt:dt="int">0</Timestamp><DateUtc dt:dt="string">2016-06-06T22:08:43Z</DateUtc></StartTime><FrequencyChanges><FrequencyChange><Frequency dt:dt="r8">3507724</Frequency><Timestamp dt:dt="r8">373827826</Timestamp><Current dt:dt="r8">0</Current><DateUtc dt:dt="string">2016-06-06T22:08:43Z</DateUtc></FrequencyChange></FrequencyChanges></Clock>\n	Hungry_Donkey_bar_English_2-151-1	60.018	9	1.0.0.18	1	374500573	Standard	2.0.10.353	2.0.10.353	06-06-2016		18:08:44	2.0.10.248	107	Bar50-50.bmp	46	3	?	10r_4g.bmp	0r_4g.bmp	2r_2g.bmp	0r_2g.bmp			2r_2g.bmp		TrialProc	TrialList	0	cvbn	-999999	16	404601	0	b	913	405514	328	-378	-50	-22	-88	0	60	2	11	107	-10	0	-2	0	4	4	2	2	-2	2
Hungry_Donkey_bar_English_2	151	1	<?xml version="1.0"?>\n<Clock xmlns:dt="urn:schemas-microsoft-com:datatypes"><Description dt:dt="string">E-Prime Primary Realtime Clock</Description><StartTime><Timestamp dt:dt="int">0</Timestamp><DateUtc dt:dt="string">2016-06-06T22:08:43Z</DateUtc></StartTime><FrequencyChanges><FrequencyChange><Frequency dt:dt="r8">3507724</Frequency><Timestamp dt:dt="r8">373827826</Timestamp><Current dt:dt="r8">0</Current><DateUtc dt:dt="string">2016-06-06T22:08:43Z</DateUtc></FrequencyChange></FrequencyChanges></Clock>\n	Hungry_Donkey_bar_English_2-151-1	60.018	9	1.0.0.18	1	374500573	Standard	2.0.10.353	2.0.10.353	06-06-2016		18:08:44	2.0.10.248	108	Bar50-50.bmp	46	4	?	8r_4g.bmp	50r_4g.bmp	1r_2g.bmp	10r_2g.bmp				10r_2g.bmp	TrialProc	TrialList	0	cvbn	-999999	16	407550	0	n	1500	409050	330	-388	-58	-22	-88	0	52	1	11	108	-8	-50	-1	-10	4	4	2	2	-10	2
Hungry_Donkey_bar_English_2	151	1	<?xml version="1.0"?>\n<Clock xmlns:dt="urn:schemas-microsoft-com:datatypes"><Description dt:dt="string">E-Prime Primary Realtime Clock</Description><StartTime><Timestamp dt:dt="int">0</Timestamp><DateUtc dt:dt="string">2016-06-06T22:08:43Z</DateUtc></StartTime><FrequencyChanges><FrequencyChange><Frequency dt:dt="r8">3507724</Frequency><Timestamp dt:dt="r8">373827826</Timestamp><Current dt:dt="r8">0</Current><DateUtc dt:dt="string">2016-06-06T22:08:43Z</DateUtc></FrequencyChange></FrequencyChanges></Clock>\n	Hungry_Donkey_bar_English_2-151-1	60.018	9	1.0.0.18	1	374500573	Standard	2.0.10.353	2.0.10.353	06-06-2016		18:08:44	2.0.10.248	109	Bar50-50.bmp	46	2	?	0r_4g.bmp	0r_4g.bmp	0r_2g.bmp	0r_2g.bmp		0r_4g.bmp			TrialProc	TrialList	0	cvbn	-999999	16	411083	0	v	2175	413258	334	-388	-54	-22	-84	0	52	8	11	109	0	0	0	0	4	4	2	2	0	4
Hungry_Donkey_bar_English_2	151	1	<?xml version="1.0"?>\n<Clock xmlns:dt="urn:schemas-microsoft-com:datatypes"><Description dt:dt="string">E-Prime Primary Realtime Clock</Description><StartTime><Timestamp dt:dt="int">0</Timestamp><DateUtc dt:dt="string">2016-06-06T22:08:43Z</DateUtc></StartTime><FrequencyChanges><FrequencyChange><Frequency dt:dt="r8">3507724</Frequency><Timestamp dt:dt="r8">373827826</Timestamp><Current dt:dt="r8">0</Current><DateUtc dt:dt="string">2016-06-06T22:08:43Z</DateUtc></FrequencyChange></FrequencyChanges></Clock>\n	Hungry_Donkey_bar_English_2-151-1	60.018	9	1.0.0.18	1	374500573	Standard	2.0.10.353	2.0.10.353	06-06-2016		18:08:44	2.0.10.248	110	Bar50-50.bmp	46	1	?	10r_4g.bmp	0r_4g.bmp	2r_2g.bmp	0r_2g.bmp	10r_4g.bmp				TrialProc	TrialList	0	cvbn	-999999	16	415298	0	c	808	416106	338	-398	-60	-28	-84	0	52	4	11	110	-10	0	-2	0	4	4	2	2	-10	4
Hungry_Donkey_bar_English_2	151	1	<?xml version="1.0"?>\n<Clock xmlns:dt="urn:schemas-microsoft-com:datatypes"><Description dt:dt="string">E-Prime Primary Realtime Clock</Description><StartTime><Timestamp dt:dt="int">0</Timestamp><DateUtc dt:dt="string">2016-06-06T22:08:43Z</DateUtc></StartTime><FrequencyChanges><FrequencyChange><Frequency dt:dt="r8">3507724</Frequency><Timestamp dt:dt="r8">373827826</Timestamp><Current dt:dt="r8">0</Current><DateUtc dt:dt="string">2016-06-06T22:08:43Z</DateUtc></FrequencyChange></FrequencyChanges></Clock>\n	Hungry_Donkey_bar_English_2-151-1	60.018	9	1.0.0.18	1	374500573	Standard	2.0.10.353	2.0.10.353	06-06-2016		18:08:44	2.0.10.248	111	Bar50-50.bmp	46	2	?	0r_4g.bmp	0r_4g.bmp	0r_2g.bmp	0r_2g.bmp		0r_4g.bmp			TrialProc	TrialList	0	cvbn	-999999	16	418130	0	v	552	418682	342	-398	-56	-28	-80	0	52	8	12	111	0	0	0	0	4	4	2	2	0	4
Hungry_Donkey_bar_English_2	151	1	<?xml version="1.0"?>\n<Clock xmlns:dt="urn:schemas-microsoft-com:datatypes"><Description dt:dt="string">E-Prime Primary Realtime Clock</Description><StartTime><Timestamp dt:dt="int">0</Timestamp><DateUtc dt:dt="string">2016-06-06T22:08:43Z</DateUtc></StartTime><FrequencyChanges><FrequencyChange><Frequency dt:dt="r8">3507724</Frequency><Timestamp dt:dt="r8">373827826</Timestamp><Current dt:dt="r8">0</Current><DateUtc dt:dt="string">2016-06-06T22:08:43Z</DateUtc></FrequencyChange></FrequencyChanges></Clock>\n	Hungry_Donkey_bar_English_2-151-1	60.018	9	1.0.0.18	1	374500573	Standard	2.0.10.353	2.0.10.353	06-06-2016		18:08:44	2.0.10.248	112	Bar50-50.bmp	46	4	?	12r_4g.bmp	0r_4g.bmp	3r_2g.bmp	0r_2g.bmp				0r_2g.bmp	TrialProc	TrialList	0	cvbn	-999999	16	420713	0	n	544	421257	344	-398	-54	-28	-80	0	54	5	12	112	-12	0	-3	0	4	4	2	2	0	2
Hungry_Donkey_bar_English_2	151	1	<?xml version="1.0"?>\n<Clock xmlns:dt="urn:schemas-microsoft-com:datatypes"><Description dt:dt="string">E-Prime Primary Realtime Clock</Description><StartTime><Timestamp dt:dt="int">0</Timestamp><DateUtc dt:dt="string">2016-06-06T22:08:43Z</DateUtc></StartTime><FrequencyChanges><FrequencyChange><Frequency dt:dt="r8">3507724</Frequency><Timestamp dt:dt="r8">373827826</Timestamp><Current dt:dt="r8">0</Current><DateUtc dt:dt="string">2016-06-06T22:08:43Z</DateUtc></FrequencyChange></FrequencyChanges></Clock>\n	Hungry_Donkey_bar_English_2-151-1	60.018	9	1.0.0.18	1	374500573	Standard	2.0.10.353	2.0.10.353	06-06-2016		18:08:44	2.0.10.248	113	Bar50-50.bmp	47	2	?	0r_4g.bmp	0r_4g.bmp	0r_2g.bmp	0r_2g.bmp		0r_4g.bmp			TrialProc	TrialList	0	cvbn	-999999	16	423296	0	v	857	424153	348	-398	-50	-28	-76	0	54	6	12	113	0	0	0	0	4	4	2	2	0	4
Hungry_Donkey_bar_English_2	151	1	<?xml version="1.0"?>\n<Clock xmlns:dt="urn:schemas-microsoft-com:datatypes"><Description dt:dt="string">E-Prime Primary Realtime Clock</Description><StartTime><Timestamp dt:dt="int">0</Timestamp><DateUtc dt:dt="string">2016-06-06T22:08:43Z</DateUtc></StartTime><FrequencyChanges><FrequencyChange><Frequency dt:dt="r8">3507724</Frequency><Timestamp dt:dt="r8">373827826</Timestamp><Current dt:dt="r8">0</Current><DateUtc dt:dt="string">2016-06-06T22:08:43Z</DateUtc></FrequencyChange></FrequencyChanges></Clock>\n	Hungry_Donkey_bar_English_2-151-1	60.018	9	1.0.0.18	1	374500573	Standard	2.0.10.353	2.0.10.353	06-06-2016		18:08:44	2.0.10.248	114	Bar50-50.bmp	47	4	?	0r_4g.bmp	0r_4g.bmp	0r_2g.bmp	0r_2g.bmp				0r_2g.bmp	TrialProc	TrialList	0	cvbn	-999999	16	426178	0	n	807	426985	350	-398	-48	-28	-76	0	56	10	12	114	0	0	0	0	4	4	2	2	0	2
