ExperimentName	Subject	Session	Clock.Information	DataFile.Basename	Display.RefreshRate	Eindtotaal[Session]	ExperimentVersion	Group	RandomSeed	RuntimeCapabilities	RuntimeVersion	RuntimeVersionExpected	SessionDate	SessionStartDateTimeUtc	SessionTime	StudioVersion	Block	BarImage	BarTotalWinst	DoorChoice	Eindtotaal[Block]	FBDoor1	FBDoor2	FBDoor3	FBDoor4	Image1	Image2	Image3	Image4	Procedure	Running	spel.ACC	spel.CRESP	spel.DurationError	spel.OnsetDelay	spel.OnsetTime	spel.OnsetToOnsetTime	spel.RESP	spel.RT	spel.RTTime	TotalGain	TotalLose	Totalsum	TotalsumD1	TotalsumD2	TotalsumD3	TotalsumD4	TrialList	TrialList.Cycle	TrialList.Sample	varV1	varV2	varV3	varV4	varW1	varW2	varW3	varW4	Verliesbedrag	Winstbedrag
Hungry_Donkey_bar_English_2	111	2	<?xml version="1.0"?>\n<Clock xmlns:dt="urn:schemas-microsoft-com:datatypes"><Description dt:dt="string">E-Prime Primary Realtime Clock</Description><StartTime><Timestamp dt:dt="int">0</Timestamp><DateUtc dt:dt="string">2015-07-12T15:01:20Z</DateUtc></StartTime><FrequencyChanges><FrequencyChange><Frequency dt:dt="r8">3507685</Frequency><Timestamp dt:dt="r8">1503009468286</Timestamp><Current dt:dt="r8">0</Current><DateUtc dt:dt="string">2015-07-12T15:01:20Z</DateUtc></FrequencyChange></FrequencyChanges></Clock>\n	Hungry_Donkey_bar_English_2-111-2	60.017	-236	1.0.0.18	1	-228417876	Standard	2.0.10.353	2.0.10.353	07-12-2015	7/12/2015 3:01:21 PM	11:01:21	2.0.10.248	1	Bar100-0.bmp	100	2	?	10r_4g.bmp	0r_4g.bmp	2r_2g.bmp	0r_2g.bmp		0r_4g.bmp			TrialProc	TrialList	0	cvbn	-999999	19	57866	0	v	5229	63095	4	0	4	0	4	0	0	3	1	1	-10	0	-2	0	4	4	2	2	0	4
Hungry_Donkey_bar_English_2	111	2	<?xml version="1.0"?>\n<Clock xmlns:dt="urn:schemas-microsoft-com:datatypes"><Description dt:dt="string">E-Prime Primary Realtime Clock</Description><StartTime><Timestamp dt:dt="int">0</Timestamp><DateUtc dt:dt="string">2015-07-12T15:01:20Z</DateUtc></StartTime><FrequencyChanges><FrequencyChange><Frequency dt:dt="r8">3507685</Frequency><Timestamp dt:dt="r8">1503009468286</Timestamp><Current dt:dt="r8">0</Current><DateUtc dt:dt="string">2015-07-12T15:01:20Z</DateUtc></FrequencyChange></FrequencyChanges></Clock>\n	Hungry_Donkey_bar_English_2-111-2	60.017	-236	1.0.0.18	1	-228417876	Standard	2.0.10.353	2.0.10.353	07-12-2015	7/12/2015 3:01:21 PM	11:01:21	2.0.10.248	2	Bar100-0.bmp	100	4	?	0r_4g.bmp	0r_4g.bmp	0r_2g.bmp	0r_2g.bmp				0r_2g.bmp	TrialProc	TrialList	0	cvbn	-999999	16	65131	0	n	1596	66727	6	0	6	0	4	0	2	6	1	2	0	0	0	0	4	4	2	2	0	2
Hungry_Donkey_bar_English_2	111	2	<?xml version="1.0"?>\n<Clock xmlns:dt="urn:schemas-microsoft-com:datatypes"><Description dt:dt="string">E-Prime Primary Realtime Clock</Description><StartTime><Timestamp dt:dt="int">0</Timestamp><DateUtc dt:dt="string">2015-07-12T15:01:20Z</DateUtc></StartTime><FrequencyChanges><FrequencyChange><Frequency dt:dt="r8">3507685</Frequency><Timestamp dt:dt="r8">1503009468286</Timestamp><Current dt:dt="r8">0</Current><DateUtc dt:dt="string">2015-07-12T15:01:20Z</DateUtc></FrequencyChange></FrequencyChanges></Clock>\n	Hungry_Donkey_bar_English_2-111-2	60.017	-236	1.0.0.18	1	-228417876	Standard	2.0.10.353	2.0.10.353	07-12-2015	7/12/2015 3:01:21 PM	11:01:21	2.0.10.248	3	Bar100-0.bmp	100	1	?	0r_4g.bmp	0r_4g.bmp	0r_2g.bmp	0r_2g.bmp	0r_4g.bmp				TrialProc	TrialList	0	cvbn	-999999	16	68763	0	c	892	69655	10	0	10	4	4	0	2	9	1	3	0	0	0	0	4	4	2	2	0	4
Hungry_Donkey_bar_English_2	111	2	<?xml version="1.0"?>\n<Clock xmlns:dt="urn:schemas-microsoft-com:datatypes"><Description dt:dt="string">E-Prime Primary Realtime Clock</Description><StartTime><Timestamp dt:dt="int">0</Timestamp><DateUtc dt:dt="string">2015-07-12T15:01:20Z</DateUtc></StartTime><FrequencyChanges><FrequencyChange><Frequency dt:dt="r8">3507685</Frequency><Timestamp dt:dt="r8">1503009468286</Timestamp><Current dt:dt="r8">0</Current><DateUtc dt:dt="string">2015-07-12T15:01:20Z</DateUtc></FrequencyChange></FrequencyChanges></Clock>\n	Hungry_Donkey_bar_English_2-111-2	60.017	-236	1.0.0.18	1	-228417876	Standard	2.0.10.353	2.0.10.353	07-12-2015	7/12/2015 3:01:21 PM	11:01:21	2.0.10.248	4	Bar100-0.bmp	100	3	?	0r_4g.bmp	0r_4g.bmp	0r_2g.bmp	0r_2g.bmp			0r_2g.bmp		TrialProc	TrialList	0	cvbn	-999999	16	71679	0	b	1415	73094	12	0	12	4	4	2	2	10	1	4	0	0	0	0	4	4	2	2	0	2
Hungry_Donkey_bar_English_2	111	2	<?xml version="1.0"?>\n<Clock xmlns:dt="urn:schemas-microsoft-com:datatypes"><Description dt:dt="string">E-Prime Primary Realtime Clock</Description><StartTime><Timestamp dt:dt="int">0</Timestamp><DateUtc dt:dt="string">2015-07-12T15:01:20Z</DateUtc></StartTime><FrequencyChanges><FrequencyChange><Frequency dt:dt="r8">3507685</Frequency><Timestamp dt:dt="r8">1503009468286</Timestamp><Current dt:dt="r8">0</Current><DateUtc dt:dt="string">2015-07-12T15:01:20Z</DateUtc></FrequencyChange></FrequencyChanges></Clock>\n	Hungry_Donkey_bar_English_2-111-2	60.017	-236	1.0.0.18	1	-228417876	Standard	2.0.10.353	2.0.10.353	07-12-2015	7/12/2015 3:01:21 PM	11:01:21	2.0.10.248	5	Bar100-0.bmp	100	2	?	0r_4g.bmp	0r_4g.bmp	0r_2g.bmp	0r_2g.bmp		0r_4g.bmp			TrialProc	TrialList	0	cvbn	-999999	16	75128	0	v	846	75974	16	0	16	4	8	2	2	8	1	5	0	0	0	0	4	4	2	2	0	4
Hungry_Donkey_bar_English_2	111	2	<?xml version="1.0"?>\n<Clock xmlns:dt="urn:schemas-microsoft-com:datatypes"><Description dt:dt="string">E-Prime Primary Realtime Clock</Description><StartTime><Timestamp dt:dt="int">0</Timestamp><DateUtc dt:dt="string">2015-07-12T15:01:20Z</DateUtc></StartTime><FrequencyChanges><FrequencyChange><Frequency dt:dt="r8">3507685</Frequency><Timestamp dt:dt="r8">1503009468286</Timestamp><Current dt:dt="r8">0</Current><DateUtc dt:dt="string">2015-07-12T15:01:20Z</DateUtc></FrequencyChange></FrequencyChanges></Clock>\n	Hungry_Donkey_bar_English_2-111-2	60.017	-236	1.0.0.18	1	-228417876	Standard	2.0.10.353	2.0.10.353	07-12-2015	7/12/2015 3:01:21 PM	11:01:21	2.0.10.248	6	Bar100-0.bmp	100	4	?	10r_4g.bmp	0r_4g.bmp	2r_2g.bmp	0r_2g.bmp				0r_2g.bmp	TrialProc	TrialList	0	cvbn	-999999	17	78011	0	n	811	78822	18	0	18	4	8	2	4	4	1	6	-10	0	-2	0	4	4	2	2	0	2
Hungry_Donkey_bar_English_2	111	2	<?xml version="1.0"?>\n<Clock xmlns:dt="urn:schemas-microsoft-com:datatypes"><Description dt:dt="string">E-Prime Primary Realtime Clock</Description><StartTime><Timestamp dt:dt="int">0</Timestamp><DateUtc dt:dt="string">2015-07-12T15:01:20Z</DateUtc></StartTime><FrequencyChanges><FrequencyChange><Frequency dt:dt="r8">3507685</Frequency><Timestamp dt:dt="r8">1503009468286</Timestamp><Current dt:dt="r8">0</Current><DateUtc dt:dt="string">2015-07-12T15:01:20Z</DateUtc></FrequencyChange></FrequencyChanges></Clock>\n	Hungry_Donkey_bar_English_2-111-2	60.017	-236	1.0.0.18	1	-228417876	Standard	2.0.10.353	2.0.10.353	07-12-2015	7/12/2015 3:01:21 PM	11:01:21	2.0.10.248	7	Bar100-0.bmp	100	4	?	10r_4g.bmp	0r_4g.bmp	2r_2g.bmp	0r_2g.bmp				0r_2g.bmp	TrialProc	TrialList	0	cvbn	-999999	16	80860	0	n	410	81270	20	0	20	4	8	2	6	2	1	7	-10	0	-2	0	4	4	2	2	0	2
Hungry_Donkey_bar_English_2	111	2	<?xml version="1.0"?>\n<Clock xmlns:dt="urn:schemas-microsoft-com:datatypes"><Description dt:dt="string">E-Prime Primary Realtime Clock</Description><StartTime><Timestamp dt:dt="int">0</Timestamp><DateUtc dt:dt="string">2015-07-12T15:01:20Z</DateUtc></StartTime><FrequencyChanges><FrequencyChange><Frequency dt:dt="r8">3507685</Frequency><Timestamp dt:dt="r8">1503009468286</Timestamp><Current dt:dt="r8">0</Current><DateUtc dt:dt="string">2015-07-12T15:01:20Z</DateUtc></FrequencyChange></FrequencyChanges></Clock>\n	Hungry_Donkey_bar_English_2-111-2	60.017	-236	1.0.0.18	1	-228417876	Standard	2.0.10.353	2.0.10.353	07-12-2015	7/12/2015 3:01:21 PM	11:01:21	2.0.10.248	8	Bar100-0.bmp	100	3	?	0r_4g.bmp	0r_4g.bmp	0r_2g.bmp	0r_2g.bmp			0r_2g.bmp		TrialProc	TrialList	0	cvbn	-999999	16	83309	0	b	537	83846	22	0	22	4	8	4	6	7	1	8	0	0	0	0	4	4	2	2	0	2
Hungry_Donkey_bar_English_2	111	2	<?xml version="1.0"?>\n<Clock xmlns:dt="urn:schemas-microsoft-com:datatypes"><Description dt:dt="string">E-Prime Primary Realtime Clock</Description><StartTime><Timestamp dt:dt="int">0</Timestamp><DateUtc dt:dt="string">2015-07-12T15:01:20Z</DateUtc></StartTime><FrequencyChanges><FrequencyChange><Frequency dt:dt="r8">3507685</Frequency><Timestamp dt:dt="r8">1503009468286</Timestamp><Current dt:dt="r8">0</Current><DateUtc dt:dt="string">2015-07-12T15:01:20Z</DateUtc></FrequencyChange></FrequencyChanges></Clock>\n	Hungry_Donkey_bar_English_2-111-2	60.017	-236	1.0.0.18	1	-228417876	Standard	2.0.10.353	2.0.10.353	07-12-2015	7/12/2015 3:01:21 PM	11:01:21	2.0.10.248	9	Bar87-13.bmp	89	3	?	12r_4g.bmp	0r_4g.bmp	3r_2g.bmp	0r_2g.bmp			3r_2g.bmp		TrialProc	TrialList	0	cvbn	-999999	16	85875	0	b	291	86166	24	-3	21	4	8	3	6	5	1	9	-12	0	-3	0	4	4	2	2	-3	2
Hungry_Donkey_bar_English_2	111	2	<?xml version="1.0"?>\n<Clock xmlns:dt="urn:schemas-microsoft-com:datatypes"><Description dt:dt="string">E-Prime Primary Realtime Clock</Description><StartTime><Timestamp dt:dt="int">0</Timestamp><DateUtc dt:dt="string">2015-07-12T15:01:20Z</DateUtc></StartTime><FrequencyChanges><FrequencyChange><Frequency dt:dt="r8">3507685</Frequency><Timestamp dt:dt="r8">1503009468286</Timestamp><Current dt:dt="r8">0</Current><DateUtc dt:dt="string">2015-07-12T15:01:20Z</DateUtc></FrequencyChange></FrequencyChanges></Clock>\n	Hungry_Donkey_bar_English_2-111-2	60.017	-236	1.0.0.18	1	-228417876	Standard	2.0.10.353	2.0.10.353	07-12-2015	7/12/2015 3:01:21 PM	11:01:21	2.0.10.248	10	Bar37-63.bmp	35	2	?	8r_4g.bmp	50r_4g.bmp	1r_2g.bmp	10r_2g.bmp		50r_4g.bmp			TrialProc	TrialList	0	cvbn	-999999	16	88208	0	v	854	89062	28	-53	-25	4	-38	3	6	1	1	10	-8	-50	-1	-10	4	4	2	2	-50	4
Hungry_Donkey_bar_English_2	111	2	<?xml version="1.0"?>\n<Clock xmlns:dt="urn:schemas-microsoft-com:datatypes"><Description dt:dt="string">E-Prime Primary Realtime Clock</Description><StartTime><Timestamp dt:dt="int">0</Timestamp><DateUtc dt:dt="string">2015-07-12T15:01:20Z</DateUtc></StartTime><FrequencyChanges><FrequencyChange><Frequency dt:dt="r8">3507685</Frequency><Timestamp dt:dt="r8">1503009468286</Timestamp><Current dt:dt="r8">0</Current><DateUtc dt:dt="string">2015-07-12T15:01:20Z</DateUtc></FrequencyChange></FrequencyChanges></Clock>\n	Hungry_Donkey_bar_English_2-111-2	60.017	-236	1.0.0.18	1	-228417876	Standard	2.0.10.353	2.0.10.353	07-12-2015	7/12/2015 3:01:21 PM	11:01:21	2.0.10.248	11	Bar37-63.bmp	38	1	?	0r_4g.bmp	0r_4g.bmp	0r_2g.bmp	0r_2g.bmp	0r_4g.bmp				TrialProc	TrialList	0	cvbn	-999999	16	91090	0	c	1107	92197	32	-53	-21	8	-38	3	6	7	2	11	0	0	0	0	4	4	2	2	0	4
Hungry_Donkey_bar_English_2	111	2	<?xml version="1.0"?>\n<Clock xmlns:dt="urn:schemas-microsoft-com:datatypes"><Description dt:dt="string">E-Prime Primary Realtime Clock</Description><StartTime><Timestamp dt:dt="int">0</Timestamp><DateUtc dt:dt="string">2015-07-12T15:01:20Z</DateUtc></StartTime><FrequencyChanges><FrequencyChange><Frequency dt:dt="r8">3507685</Frequency><Timestamp dt:dt="r8">1503009468286</Timestamp><Current dt:dt="r8">0</Current><DateUtc dt:dt="string">2015-07-12T15:01:20Z</DateUtc></FrequencyChange></FrequencyChanges></Clock>\n	Hungry_Donkey_bar_English_2-111-2	60.017	-236	1.0.0.18	1	-228417876	Standard	2.0.10.353	2.0.10.353	07-12-2015	7/12/2015 3:01:21 PM	11:01:21	2.0.10.248	12	Bar37-63.bmp	39	4	?	0r_4g.bmp	0r_4g.bmp	0r_2g.bmp	0r_2g.bmp				0r_2g.bmp	TrialProc	TrialList	0	cvbn	-999999	16	94239	0	n	614	94853	34	-53	-19	8	-38	3	8	10	2	12	0	0	0	0	4	4	2	2	0	2
Hungry_Donkey_bar_English_2	111	2	<?xml version="1.0"?>\n<Clock xmlns:dt="urn:schemas-microsoft-com:datatypes"><Description dt:dt="string">E-Prime Primary Realtime Clock</Description><StartTime><Timestamp dt:dt="int">0</Timestamp><DateUtc dt:dt="string">2015-07-12T15:01:20Z</DateUtc></StartTime><FrequencyChanges><FrequencyChange><Frequency dt:dt="r8">3507685</Frequency><Timestamp dt:dt="r8">1503009468286</Timestamp><Current dt:dt="r8">0</Current><DateUtc dt:dt="string">2015-07-12T15:01:20Z</DateUtc></FrequencyChange></FrequencyChanges></Clock>\n	Hungry_Donkey_bar_English_2-111-2	60.017	-236	1.0.0.18	1	-228417876	Standard	2.0.10.353	2.0.10.353	07-12-2015	7/12/2015 3:01:21 PM	11:01:21	2.0.10.248	13	Bar37-63.bmp	40	3	?	0r_4g.bmp	0r_4g.bmp	0r_2g.bmp	0r_2g.bmp			0r_2g.bmp		TrialProc	TrialList	0	cvbn	-999999	16	96888	0	b	653	97541	36	-53	-17	8	-38	5	8	8	2	13	0	0	0	0	4	4	2	2	0	2
Hungry_Donkey_bar_English_2	111	2	<?xml version="1.0"?>\n<Clock xmlns:dt="urn:schemas-microsoft-com:datatypes"><Description dt:dt="string">E-Prime Primary Realtime Clock</Description><StartTime><Timestamp dt:dt="int">0</Timestamp><DateUtc dt:dt="string">2015-07-12T15:01:20Z</DateUtc></StartTime><FrequencyChanges><FrequencyChange><Frequency dt:dt="r8">3507685</Frequency><Timestamp dt:dt="r8">1503009468286</Timestamp><Current dt:dt="r8">0</Current><DateUtc dt:dt="string">2015-07-12T15:01:20Z</DateUtc></FrequencyChange></FrequencyChanges></Clock>\n	Hungry_Donkey_bar_English_2-111-2	60.017	-236	1.0.0.18	1	-228417876	Standard	2.0.10.353	2.0.10.353	07-12-2015	7/12/2015 3:01:21 PM	11:01:21	2.0.10.248	14	Bar37-63.bmp	42	4	?	10r_4g.bmp	0r_4g.bmp	2r_2g.bmp	0r_2g.bmp				0r_2g.bmp	TrialProc	TrialList	0	cvbn	-999999	16	99571	0	n	1170	100741	38	-53	-15	8	-38	5	10	2	2	14	-10	0	-2	0	4	4	2	2	0	2
Hungry_Donkey_bar_English_2	111	2	<?xml version="1.0"?>\n<Clock xmlns:dt="urn:schemas-microsoft-com:datatypes"><Description dt:dt="string">E-Prime Primary Realtime Clock</Description><StartTime><Timestamp dt:dt="int">0</Timestamp><DateUtc dt:dt="string">2015-07-12T15:01:20Z</DateUtc></StartTime><FrequencyChanges><FrequencyChange><Frequency dt:dt="r8">3507685</Frequency><Timestamp dt:dt="r8">1503009468286</Timestamp><Current dt:dt="r8">0</Current><DateUtc dt:dt="string">2015-07-12T15:01:20Z</DateUtc></FrequencyChange></FrequencyChanges></Clock>\n	Hungry_Donkey_bar_English_2-111-2	60.017	-236	1.0.0.18	1	-228417876	Standard	2.0.10.353	2.0.10.353	07-12-2015	7/12/2015 3:01:21 PM	11:01:21	2.0.10.248	15	Bar37-63.bmp	39	4	?	8r_4g.bmp	50r_4g.bmp	1r_2g.bmp	10r_2g.bmp				10r_2g.bmp	TrialProc	TrialList	0	cvbn	-999999	16	102770	0	n	771	103541	40	-63	-23	8	-38	5	2	1	2	15	-8	-50	-1	-10	4	4	2	2	-10	2
Hungry_Donkey_bar_English_2	111	2	<?xml version="1.0"?>\n<Clock xmlns:dt="urn:schemas-microsoft-com:datatypes"><Description dt:dt="string">E-Prime Primary Realtime Clock</Description><StartTime><Timestamp dt:dt="int">0</Timestamp><DateUtc dt:dt="string">2015-07-12T15:01:20Z</DateUtc></StartTime><FrequencyChanges><FrequencyChange><Frequency dt:dt="r8">3507685</Frequency><Timestamp dt:dt="r8">1503009468286</Timestamp><Current dt:dt="r8">0</Current><DateUtc dt:dt="string">2015-07-12T15:01:20Z</DateUtc></FrequencyChange></FrequencyChanges></Clock>\n	Hungry_Donkey_bar_English_2-111-2	60.017	-236	1.0.0.18	1	-228417876	Standard	2.0.10.353	2.0.10.353	07-12-2015	7/12/2015 3:01:21 PM	11:01:21	2.0.10.248	16	Bar37-63.bmp	41	2	?	0r_4g.bmp	0r_4g.bmp	0r_2g.bmp	0r_2g.bmp		0r_4g.bmp			TrialProc	TrialList	0	cvbn	-999999	16	105569	0	v	628	106197	44	-63	-19	8	-34	5	2	9	2	16	0	0	0	0	4	4	2	2	0	4
Hungry_Donkey_bar_English_2	111	2	<?xml version="1.0"?>\n<Clock xmlns:dt="urn:schemas-microsoft-com:datatypes"><Description dt:dt="string">E-Prime Primary Realtime Clock</Description><StartTime><Timestamp dt:dt="int">0</Timestamp><DateUtc dt:dt="string">2015-07-12T15:01:20Z</DateUtc></StartTime><FrequencyChanges><FrequencyChange><Frequency dt:dt="r8">3507685</Frequency><Timestamp dt:dt="r8">1503009468286</Timestamp><Current dt:dt="r8">0</Current><DateUtc dt:dt="string">2015-07-12T15:01:20Z</DateUtc></FrequencyChange></FrequencyChanges></Clock>\n	Hungry_Donkey_bar_English_2-111-2	60.017	-236	1.0.0.18	1	-228417876	Standard	2.0.10.353	2.0.10.353	07-12-2015	7/12/2015 3:01:21 PM	11:01:21	2.0.10.248	17	Bar37-63.bmp	43	2	?	10r_4g.bmp	0r_4g.bmp	2r_2g.bmp	0r_2g.bmp		0r_4g.bmp			TrialProc	TrialList	0	cvbn	-999999	16	108235	0	v	410	108645	48	-63	-15	8	-30	5	2	4	2	17	-10	0	-2	0	4	4	2	2	0	4
Hungry_Donkey_bar_English_2	111	2	<?xml version="1.0"?>\n<Clock xmlns:dt="urn:schemas-microsoft-com:datatypes"><Description dt:dt="string">E-Prime Primary Realtime Clock</Description><StartTime><Timestamp dt:dt="int">0</Timestamp><DateUtc dt:dt="string">2015-07-12T15:01:20Z</DateUtc></StartTime><FrequencyChanges><FrequencyChange><Frequency dt:dt="r8">3507685</Frequency><Timestamp dt:dt="r8">1503009468286</Timestamp><Current dt:dt="r8">0</Current><DateUtc dt:dt="string">2015-07-12T15:01:20Z</DateUtc></FrequencyChange></FrequencyChanges></Clock>\n	Hungry_Donkey_bar_English_2-111-2	60.017	-236	1.0.0.18	1	-228417876	Standard	2.0.10.353	2.0.10.353	07-12-2015	7/12/2015 3:01:21 PM	11:01:21	2.0.10.248	18	Bar50-50.bmp	45	2	?	10r_4g.bmp	0r_4g.bmp	2r_2g.bmp	0r_2g.bmp		0r_4g.bmp			TrialProc	TrialList	0	cvbn	-999999	16	110684	0	v	280	110964	52	-63	-11	8	-26	5	2	3	2	18	-10	0	-2	0	4	4	2	2	0	4
Hungry_Donkey_bar_English_2	111	2	<?xml version="1.0"?>\n<Clock xmlns:dt="urn:schemas-microsoft-com:datatypes"><Description dt:dt="string">E-Prime Primary Realtime Clock</Description><StartTime><Timestamp dt:dt="int">0</Timestamp><DateUtc dt:dt="string">2015-07-12T15:01:20Z</DateUtc></StartTime><FrequencyChanges><FrequencyChange><Frequency dt:dt="r8">3507685</Frequency><Timestamp dt:dt="r8">1503009468286</Timestamp><Current dt:dt="r8">0</Current><DateUtc dt:dt="string">2015-07-12T15:01:20Z</DateUtc></FrequencyChange></FrequencyChanges></Clock>\n	Hungry_Donkey_bar_English_2-111-2	60.017	-236	1.0.0.18	1	-228417876	Standard	2.0.10.353	2.0.10.353	07-12-2015	7/12/2015 3:01:21 PM	11:01:21	2.0.10.248	19	Bar50-50.bmp	47	2	?	12r_4g.bmp	0r_4g.bmp	3r_2g.bmp	0r_2g.bmp		0r_4g.bmp			TrialProc	TrialList	0	cvbn	-999999	16	113000	0	v	300	113300	56	-63	-7	8	-22	5	2	5	2	19	-12	0	-3	0	4	4	2	2	0	4
Hungry_Donkey_bar_English_2	111	2	<?xml version="1.0"?>\n<Clock xmlns:dt="urn:schemas-microsoft-com:datatypes"><Description dt:dt="string">E-Prime Primary Realtime Clock</Description><StartTime><Timestamp dt:dt="int">0</Timestamp><DateUtc dt:dt="string">2015-07-12T15:01:20Z</DateUtc></StartTime><FrequencyChanges><FrequencyChange><Frequency dt:dt="r8">3507685</Frequency><Timestamp dt:dt="r8">1503009468286</Timestamp><Current dt:dt="r8">0</Current><DateUtc dt:dt="string">2015-07-12T15:01:20Z</DateUtc></FrequencyChange></FrequencyChanges></Clock>\n	Hungry_Donkey_bar_English_2-111-2	60.017	-236	1.0.0.18	1	-228417876	Standard	2.0.10.353	2.0.10.353	07-12-2015	7/12/2015 3:01:21 PM	11:01:21	2.0.10.248	20	Bar50-50.bmp	49	2	?	0r_4g.bmp	0r_4g.bmp	0r_2g.bmp	0r_2g.bmp		0r_4g.bmp			TrialProc	TrialList	0	cvbn	-999999	16	115333	0	v	463	115796	60	-63	-3	8	-18	5	2	6	2	20	0	0	0	0	4	4	2	2	0	4
Hungry_Donkey_bar_English_2	111	2	<?xml version="1.0"?>\n<Clock xmlns:dt="urn:schemas-microsoft-com:datatypes"><Description dt:dt="string">E-Prime Primary Realtime Clock</Description><StartTime><Timestamp dt:dt="int">0</Timestamp><DateUtc dt:dt="string">2015-07-12T15:01:20Z</DateUtc></StartTime><FrequencyChanges><FrequencyChange><Frequency dt:dt="r8">3507685</Frequency><Timestamp dt:dt="r8">1503009468286</Timestamp><Current dt:dt="r8">0</Current><DateUtc dt:dt="string">2015-07-12T15:01:20Z</DateUtc></FrequencyChange></FrequencyChanges></Clock>\n	Hungry_Donkey_bar_English_2-111-2	60.017	-236	1.0.0.18	1	-228417876	Standard	2.0.10.353	2.0.10.353	07-12-2015	7/12/2015 3:01:21 PM	11:01:21	2.0.10.248	21	Bar50-50.bmp	50	2	?	10r_4g.bmp	0r_4g.bmp	2r_2g.bmp	0r_2g.bmp		0r_4g.bmp			TrialProc	TrialList	0	cvbn	-999999	16	117832	0	v	268	118100	64	-63	1	8	-14	5	2	2	3	21	-10	0	-2	0	4	4	2	2	0	4
Hungry_Donkey_bar_English_2	111	2	<?xml version="1.0"?>\n<Clock xmlns:dt="urn:schemas-microsoft-com:datatypes"><Description dt:dt="string">E-Prime Primary Realtime Clock</Description><StartTime><Timestamp dt:dt="int">0</Timestamp><DateUtc dt:dt="string">2015-07-12T15:01:20Z</DateUtc></StartTime><FrequencyChanges><FrequencyChange><Frequency dt:dt="r8">3507685</Frequency><Timestamp dt:dt="r8">1503009468286</Timestamp><Current dt:dt="r8">0</Current><DateUtc dt:dt="string">2015-07-12T15:01:20Z</DateUtc></FrequencyChange></FrequencyChanges></Clock>\n	Hungry_Donkey_bar_English_2-111-2	60.017	-236	1.0.0.18	1	-228417876	Standard	2.0.10.353	2.0.10.353	07-12-2015	7/12/2015 3:01:21 PM	11:01:21	2.0.10.248	22	Bar50-50.bmp	52	2	?	12r_4g.bmp	0r_4g.bmp	3r_2g.bmp	0r_2g.bmp		0r_4g.bmp			TrialProc	TrialList	0	cvbn	-999999	16	120132	0	v	320	120452	68	-63	5	8	-10	5	2	5	3	22	-12	0	-3	0	4	4	2	2	0	4
Hungry_Donkey_bar_English_2	111	2	<?xml version="1.0"?>\n<Clock xmlns:dt="urn:schemas-microsoft-com:datatypes"><Description dt:dt="string">E-Prime Primary Realtime Clock</Description><StartTime><Timestamp dt:dt="int">0</Timestamp><DateUtc dt:dt="string">2015-07-12T15:01:20Z</DateUtc></StartTime><FrequencyChanges><FrequencyChange><Frequency dt:dt="r8">3507685</Frequency><Timestamp dt:dt="r8">1503009468286</Timestamp><Current dt:dt="r8">0</Current><DateUtc dt:dt="string">2015-07-12T15:01:20Z</DateUtc></FrequencyChange></FrequencyChanges></Clock>\n	Hungry_Donkey_bar_English_2-111-2	60.017	-236	1.0.0.18	1	-228417876	Standard	2.0.10.353	2.0.10.353	07-12-2015	7/12/2015 3:01:21 PM	11:01:21	2.0.10.248	23	Bar50-50.bmp	50	1	?	10r_4g.bmp	0r_4g.bmp	2r_2g.bmp	0r_2g.bmp	10r_4g.bmp				TrialProc	TrialList	0	cvbn	-999999	16	122481	0	c	291	122772	72	-73	-1	2	-10	5	2	4	3	23	-10	0	-2	0	4	4	2	2	-10	4
Hungry_Donkey_bar_English_2	111	2	<?xml version="1.0"?>\n<Clock xmlns:dt="urn:schemas-microsoft-com:datatypes"><Description dt:dt="string">E-Prime Primary Realtime Clock</Description><StartTime><Timestamp dt:dt="int">0</Timestamp><DateUtc dt:dt="string">2015-07-12T15:01:20Z</DateUtc></StartTime><FrequencyChanges><FrequencyChange><Frequency dt:dt="r8">3507685</Frequency><Timestamp dt:dt="r8">1503009468286</Timestamp><Current dt:dt="r8">0</Current><DateUtc dt:dt="string">2015-07-12T15:01:20Z</DateUtc></FrequencyChange></FrequencyChanges></Clock>\n	Hungry_Donkey_bar_English_2-111-2	60.017	-236	1.0.0.18	1	-228417876	Standard	2.0.10.353	2.0.10.353	07-12-2015	7/12/2015 3:01:21 PM	11:01:21	2.0.10.248	24	Bar37-63.bmp	38	2	?	8r_4g.bmp	50r_4g.bmp	1r_2g.bmp	10r_2g.bmp		50r_4g.bmp			TrialProc	TrialList	0	cvbn	-999999	16	124797	0	v	359	125156	76	-123	-47	2	-56	5	2	1	3	24	-8	-50	-1	-10	4	4	2	2	-50	4
Hungry_Donkey_bar_English_2	111	2	<?xml version="1.0"?>\n<Clock xmlns:dt="urn:schemas-microsoft-com:datatypes"><Description dt:dt="string">E-Prime Primary Realtime Clock</Description><StartTime><Timestamp dt:dt="int">0</Timestamp><DateUtc dt:dt="string">2015-07-12T15:01:20Z</DateUtc></StartTime><FrequencyChanges><FrequencyChange><Frequency dt:dt="r8">3507685</Frequency><Timestamp dt:dt="r8">1503009468286</Timestamp><Current dt:dt="r8">0</Current><DateUtc dt:dt="string">2015-07-12T15:01:20Z</DateUtc></FrequencyChange></FrequencyChanges></Clock>\n	Hungry_Donkey_bar_English_2-111-2	60.017	-236	1.0.0.18	1	-228417876	Standard	2.0.10.353	2.0.10.353	07-12-2015	7/12/2015 3:01:21 PM	11:01:21	2.0.10.248	25	Bar37-63.bmp	39	1	?	0r_4g.bmp	0r_4g.bmp	0r_2g.bmp	0r_2g.bmp	0r_4g.bmp				TrialProc	TrialList	0	cvbn	-999999	16	127180	0	c	648	127828	80	-123	-43	6	-56	5	2	10	3	25	0	0	0	0	4	4	2	2	0	4
Hungry_Donkey_bar_English_2	111	2	<?xml version="1.0"?>\n<Clock xmlns:dt="urn:schemas-microsoft-com:datatypes"><Description dt:dt="string">E-Prime Primary Realtime Clock</Description><StartTime><Timestamp dt:dt="int">0</Timestamp><DateUtc dt:dt="string">2015-07-12T15:01:20Z</DateUtc></StartTime><FrequencyChanges><FrequencyChange><Frequency dt:dt="r8">3507685</Frequency><Timestamp dt:dt="r8">1503009468286</Timestamp><Current dt:dt="r8">0</Current><DateUtc dt:dt="string">2015-07-12T15:01:20Z</DateUtc></FrequencyChange></FrequencyChanges></Clock>\n	Hungry_Donkey_bar_English_2-111-2	60.017	-236	1.0.0.18	1	-228417876	Standard	2.0.10.353	2.0.10.353	07-12-2015	7/12/2015 3:01:21 PM	11:01:21	2.0.10.248	26	Bar37-63.bmp	40	3	?	10r_4g.bmp	0r_4g.bmp	2r_2g.bmp	0r_2g.bmp			2r_2g.bmp		TrialProc	TrialList	0	cvbn	-999999	16	129862	0	b	861	130723	82	-125	-43	6	-56	5	2	3	3	26	-10	0	-2	0	4	4	2	2	-2	2
Hungry_Donkey_bar_English_2	111	2	<?xml version="1.0"?>\n<Clock xmlns:dt="urn:schemas-microsoft-com:datatypes"><Description dt:dt="string">E-Prime Primary Realtime Clock</Description><StartTime><Timestamp dt:dt="int">0</Timestamp><DateUtc dt:dt="string">2015-07-12T15:01:20Z</DateUtc></StartTime><FrequencyChanges><FrequencyChange><Frequency dt:dt="r8">3507685</Frequency><Timestamp dt:dt="r8">1503009468286</Timestamp><Current dt:dt="r8">0</Current><DateUtc dt:dt="string">2015-07-12T15:01:20Z</DateUtc></FrequencyChange></FrequencyChanges></Clock>\n	Hungry_Donkey_bar_English_2-111-2	60.017	-236	1.0.0.18	1	-228417876	Standard	2.0.10.353	2.0.10.353	07-12-2015	7/12/2015 3:01:21 PM	11:01:21	2.0.10.248	27	Bar37-63.bmp	40	3	?	0r_4g.bmp	0r_4g.bmp	0r_2g.bmp	0r_2g.bmp			0r_2g.bmp		TrialProc	TrialList	0	cvbn	-999999	16	132761	0	b	1082	133843	84	-125	-41	6	-56	7	2	8	3	27	0	0	0	0	4	4	2	2	0	2
Hungry_Donkey_bar_English_2	111	2	<?xml version="1.0"?>\n<Clock xmlns:dt="urn:schemas-microsoft-com:datatypes"><Description dt:dt="string">E-Prime Primary Realtime Clock</Description><StartTime><Timestamp dt:dt="int">0</Timestamp><DateUtc dt:dt="string">2015-07-12T15:01:20Z</DateUtc></StartTime><FrequencyChanges><FrequencyChange><Frequency dt:dt="r8">3507685</Frequency><Timestamp dt:dt="r8">1503009468286</Timestamp><Current dt:dt="r8">0</Current><DateUtc dt:dt="string">2015-07-12T15:01:20Z</DateUtc></FrequencyChange></FrequencyChanges></Clock>\n	Hungry_Donkey_bar_English_2-111-2	60.017	-236	1.0.0.18	1	-228417876	Standard	2.0.10.353	2.0.10.353	07-12-2015	7/12/2015 3:01:21 PM	11:01:21	2.0.10.248	28	Bar37-63.bmp	41	3	?	0r_4g.bmp	0r_4g.bmp	0r_2g.bmp	0r_2g.bmp			0r_2g.bmp		TrialProc	TrialList	0	cvbn	-999999	16	135877	0	b	350	136227	86	-125	-39	6	-56	9	2	7	3	28	0	0	0	0	4	4	2	2	0	2
Hungry_Donkey_bar_English_2	111	2	<?xml version="1.0"?>\n<Clock xmlns:dt="urn:schemas-microsoft-com:datatypes"><Description dt:dt="string">E-Prime Primary Realtime Clock</Description><StartTime><Timestamp dt:dt="int">0</Timestamp><DateUtc dt:dt="string">2015-07-12T15:01:20Z</DateUtc></StartTime><FrequencyChanges><FrequencyChange><Frequency dt:dt="r8">3507685</Frequency><Timestamp dt:dt="r8">1503009468286</Timestamp><Current dt:dt="r8">0</Current><DateUtc dt:dt="string">2015-07-12T15:01:20Z</DateUtc></FrequencyChange></FrequencyChanges></Clock>\n	Hungry_Donkey_bar_English_2-111-2	60.017	-236	1.0.0.18	1	-228417876	Standard	2.0.10.353	2.0.10.353	07-12-2015	7/12/2015 3:01:21 PM	11:01:21	2.0.10.248	29	Bar37-63.bmp	41	4	?	0r_4g.bmp	0r_4g.bmp	0r_2g.bmp	0r_2g.bmp				0r_2g.bmp	TrialProc	TrialList	0	cvbn	-999999	16	138260	0	n	831	139091	88	-125	-37	6	-56	9	4	6	3	29	0	0	0	0	4	4	2	2	0	2
Hungry_Donkey_bar_English_2	111	2	<?xml version="1.0"?>\n<Clock xmlns:dt="urn:schemas-microsoft-com:datatypes"><Description dt:dt="string">E-Prime Primary Realtime Clock</Description><StartTime><Timestamp dt:dt="int">0</Timestamp><DateUtc dt:dt="string">2015-07-12T15:01:20Z</DateUtc></StartTime><FrequencyChanges><FrequencyChange><Frequency dt:dt="r8">3507685</Frequency><Timestamp dt:dt="r8">1503009468286</Timestamp><Current dt:dt="r8">0</Current><DateUtc dt:dt="string">2015-07-12T15:01:20Z</DateUtc></FrequencyChange></FrequencyChanges></Clock>\n	Hungry_Donkey_bar_English_2-111-2	60.017	-236	1.0.0.18	1	-228417876	Standard	2.0.10.353	2.0.10.353	07-12-2015	7/12/2015 3:01:21 PM	11:01:21	2.0.10.248	30	Bar37-63.bmp	42	2	?	0r_4g.bmp	0r_4g.bmp	0r_2g.bmp	0r_2g.bmp		0r_4g.bmp			TrialProc	TrialList	0	cvbn	-999999	16	141126	0	v	509	141635	92	-125	-33	6	-52	9	4	9	3	30	0	0	0	0	4	4	2	2	0	4
Hungry_Donkey_bar_English_2	111	2	<?xml version="1.0"?>\n<Clock xmlns:dt="urn:schemas-microsoft-com:datatypes"><Description dt:dt="string">E-Prime Primary Realtime Clock</Description><StartTime><Timestamp dt:dt="int">0</Timestamp><DateUtc dt:dt="string">2015-07-12T15:01:20Z</DateUtc></StartTime><FrequencyChanges><FrequencyChange><Frequency dt:dt="r8">3507685</Frequency><Timestamp dt:dt="r8">1503009468286</Timestamp><Current dt:dt="r8">0</Current><DateUtc dt:dt="string">2015-07-12T15:01:20Z</DateUtc></FrequencyChange></FrequencyChanges></Clock>\n	Hungry_Donkey_bar_English_2-111-2	60.017	-236	1.0.0.18	1	-228417876	Standard	2.0.10.353	2.0.10.353	07-12-2015	7/12/2015 3:01:21 PM	11:01:21	2.0.10.248	31	Bar37-63.bmp	42	3	?	12r_4g.bmp	0r_4g.bmp	3r_2g.bmp	0r_2g.bmp			3r_2g.bmp		TrialProc	TrialList	0	cvbn	-999999	16	143675	0	b	680	144355	94	-128	-34	6	-52	8	4	5	4	31	-12	0	-3	0	4	4	2	2	-3	2
Hungry_Donkey_bar_English_2	111	2	<?xml version="1.0"?>\n<Clock xmlns:dt="urn:schemas-microsoft-com:datatypes"><Description dt:dt="string">E-Prime Primary Realtime Clock</Description><StartTime><Timestamp dt:dt="int">0</Timestamp><DateUtc dt:dt="string">2015-07-12T15:01:20Z</DateUtc></StartTime><FrequencyChanges><FrequencyChange><Frequency dt:dt="r8">3507685</Frequency><Timestamp dt:dt="r8">1503009468286</Timestamp><Current dt:dt="r8">0</Current><DateUtc dt:dt="string">2015-07-12T15:01:20Z</DateUtc></FrequencyChange></FrequencyChanges></Clock>\n	Hungry_Donkey_bar_English_2-111-2	60.017	-236	1.0.0.18	1	-228417876	Standard	2.0.10.353	2.0.10.353	07-12-2015	7/12/2015 3:01:21 PM	11:01:21	2.0.10.248	32	Bar37-63.bmp	42	1	?	10r_4g.bmp	0r_4g.bmp	2r_2g.bmp	0r_2g.bmp	10r_4g.bmp				TrialProc	TrialList	0	cvbn	-999999	16	146391	0	c	316	146707	98	-138	-40	0	-52	8	4	4	4	32	-10	0	-2	0	4	4	2	2	-10	4
Hungry_Donkey_bar_English_2	111	2	<?xml version="1.0"?>\n<Clock xmlns:dt="urn:schemas-microsoft-com:datatypes"><Description dt:dt="string">E-Prime Primary Realtime Clock</Description><StartTime><Timestamp dt:dt="int">0</Timestamp><DateUtc dt:dt="string">2015-07-12T15:01:20Z</DateUtc></StartTime><FrequencyChanges><FrequencyChange><Frequency dt:dt="r8">3507685</Frequency><Timestamp dt:dt="r8">1503009468286</Timestamp><Current dt:dt="r8">0</Current><DateUtc dt:dt="string">2015-07-12T15:01:20Z</DateUtc></FrequencyChange></FrequencyChanges></Clock>\n	Hungry_Donkey_bar_English_2-111-2	60.017	-236	1.0.0.18	1	-228417876	Standard	2.0.10.353	2.0.10.353	07-12-2015	7/12/2015 3:01:21 PM	11:01:21	2.0.10.248	33	Bar37-63.bmp	42	4	?	10r_4g.bmp	0r_4g.bmp	2r_2g.bmp	0r_2g.bmp				0r_2g.bmp	TrialProc	TrialList	0	cvbn	-999999	16	148740	0	n	862	149602	100	-138	-38	0	-52	8	6	3	4	33	-10	0	-2	0	4	4	2	2	0	2
Hungry_Donkey_bar_English_2	111	2	<?xml version="1.0"?>\n<Clock xmlns:dt="urn:schemas-microsoft-com:datatypes"><Description dt:dt="string">E-Prime Primary Realtime Clock</Description><StartTime><Timestamp dt:dt="int">0</Timestamp><DateUtc dt:dt="string">2015-07-12T15:01:20Z</DateUtc></StartTime><FrequencyChanges><FrequencyChange><Frequency dt:dt="r8">3507685</Frequency><Timestamp dt:dt="r8">1503009468286</Timestamp><Current dt:dt="r8">0</Current><DateUtc dt:dt="string">2015-07-12T15:01:20Z</DateUtc></FrequencyChange></FrequencyChanges></Clock>\n	Hungry_Donkey_bar_English_2-111-2	60.017	-236	1.0.0.18	1	-228417876	Standard	2.0.10.353	2.0.10.353	07-12-2015	7/12/2015 3:01:21 PM	11:01:21	2.0.10.248	34	Bar37-63.bmp	42	4	?	10r_4g.bmp	0r_4g.bmp	2r_2g.bmp	0r_2g.bmp				0r_2g.bmp	TrialProc	TrialList	0	cvbn	-999999	16	151639	0	n	763	152402	102	-138	-36	0	-52	8	8	2	4	34	-10	0	-2	0	4	4	2	2	0	2
Hungry_Donkey_bar_English_2	111	2	<?xml version="1.0"?>\n<Clock xmlns:dt="urn:schemas-microsoft-com:datatypes"><Description dt:dt="string">E-Prime Primary Realtime Clock</Description><StartTime><Timestamp dt:dt="int">0</Timestamp><DateUtc dt:dt="string">2015-07-12T15:01:20Z</DateUtc></StartTime><FrequencyChanges><FrequencyChange><Frequency dt:dt="r8">3507685</Frequency><Timestamp dt:dt="r8">1503009468286</Timestamp><Current dt:dt="r8">0</Current><DateUtc dt:dt="string">2015-07-12T15:01:20Z</DateUtc></FrequencyChange></FrequencyChanges></Clock>\n	Hungry_Donkey_bar_English_2-111-2	60.017	-236	1.0.0.18	1	-228417876	Standard	2.0.10.353	2.0.10.353	07-12-2015	7/12/2015 3:01:21 PM	11:01:21	2.0.10.248	35	Bar37-63.bmp	43	4	?	0r_4g.bmp	0r_4g.bmp	0r_2g.bmp	0r_2g.bmp				0r_2g.bmp	TrialProc	TrialList	0	cvbn	-999999	16	154438	0	n	380	154818	104	-138	-34	0	-52	8	10	9	4	35	0	0	0	0	4	4	2	2	0	2
Hungry_Donkey_bar_English_2	111	2	<?xml version="1.0"?>\n<Clock xmlns:dt="urn:schemas-microsoft-com:datatypes"><Description dt:dt="string">E-Prime Primary Realtime Clock</Description><StartTime><Timestamp dt:dt="int">0</Timestamp><DateUtc dt:dt="string">2015-07-12T15:01:20Z</DateUtc></StartTime><FrequencyChanges><FrequencyChange><Frequency dt:dt="r8">3507685</Frequency><Timestamp dt:dt="r8">1503009468286</Timestamp><Current dt:dt="r8">0</Current><DateUtc dt:dt="string">2015-07-12T15:01:20Z</DateUtc></FrequencyChange></FrequencyChanges></Clock>\n	Hungry_Donkey_bar_English_2-111-2	60.017	-236	1.0.0.18	1	-228417876	Standard	2.0.10.353	2.0.10.353	07-12-2015	7/12/2015 3:01:21 PM	11:01:21	2.0.10.248	36	Bar37-63.bmp	43	4	?	0r_4g.bmp	0r_4g.bmp	0r_2g.bmp	0r_2g.bmp				0r_2g.bmp	TrialProc	TrialList	0	cvbn	-999999	16	156854	0	n	1852	158706	106	-138	-32	0	-52	8	12	10	4	36	0	0	0	0	4	4	2	2	0	2
Hungry_Donkey_bar_English_2	111	2	<?xml version="1.0"?>\n<Clock xmlns:dt="urn:schemas-microsoft-com:datatypes"><Description dt:dt="string">E-Prime Primary Realtime Clock</Description><StartTime><Timestamp dt:dt="int">0</Timestamp><DateUtc dt:dt="string">2015-07-12T15:01:20Z</DateUtc></StartTime><FrequencyChanges><FrequencyChange><Frequency dt:dt="r8">3507685</Frequency><Timestamp dt:dt="r8">1503009468286</Timestamp><Current dt:dt="r8">0</Current><DateUtc dt:dt="string">2015-07-12T15:01:20Z</DateUtc></FrequencyChange></FrequencyChanges></Clock>\n	Hungry_Donkey_bar_English_2-111-2	60.017	-236	1.0.0.18	1	-228417876	Standard	2.0.10.353	2.0.10.353	07-12-2015	7/12/2015 3:01:21 PM	11:01:21	2.0.10.248	37	Bar50-50.bmp	44	3	?	0r_4g.bmp	0r_4g.bmp	0r_2g.bmp	0r_2g.bmp			0r_2g.bmp		TrialProc	TrialList	0	cvbn	-999999	16	160737	0	b	1825	162562	108	-138	-30	0	-52	10	12	8	4	37	0	0	0	0	4	4	2	2	0	2
Hungry_Donkey_bar_English_2	111	2	<?xml version="1.0"?>\n<Clock xmlns:dt="urn:schemas-microsoft-com:datatypes"><Description dt:dt="string">E-Prime Primary Realtime Clock</Description><StartTime><Timestamp dt:dt="int">0</Timestamp><DateUtc dt:dt="string">2015-07-12T15:01:20Z</DateUtc></StartTime><FrequencyChanges><FrequencyChange><Frequency dt:dt="r8">3507685</Frequency><Timestamp dt:dt="r8">1503009468286</Timestamp><Current dt:dt="r8">0</Current><DateUtc dt:dt="string">2015-07-12T15:01:20Z</DateUtc></FrequencyChange></FrequencyChanges></Clock>\n	Hungry_Donkey_bar_English_2-111-2	60.017	-236	1.0.0.18	1	-228417876	Standard	2.0.10.353	2.0.10.353	07-12-2015	7/12/2015 3:01:21 PM	11:01:21	2.0.10.248	38	Bar50-50.bmp	45	2	?	0r_4g.bmp	0r_4g.bmp	0r_2g.bmp	0r_2g.bmp		0r_4g.bmp			TrialProc	TrialList	0	cvbn	-999999	16	164586	0	v	328	164914	112	-138	-26	0	-48	10	12	7	4	38	0	0	0	0	4	4	2	2	0	4
Hungry_Donkey_bar_English_2	111	2	<?xml version="1.0"?>\n<Clock xmlns:dt="urn:schemas-microsoft-com:datatypes"><Description dt:dt="string">E-Prime Primary Realtime Clock</Description><StartTime><Timestamp dt:dt="int">0</Timestamp><DateUtc dt:dt="string">2015-07-12T15:01:20Z</DateUtc></StartTime><FrequencyChanges><FrequencyChange><Frequency dt:dt="r8">3507685</Frequency><Timestamp dt:dt="r8">1503009468286</Timestamp><Current dt:dt="r8">0</Current><DateUtc dt:dt="string">2015-07-12T15:01:20Z</DateUtc></FrequencyChange></FrequencyChanges></Clock>\n	Hungry_Donkey_bar_English_2-111-2	60.017	-236	1.0.0.18	1	-228417876	Standard	2.0.10.353	2.0.10.353	07-12-2015	7/12/2015 3:01:21 PM	11:01:21	2.0.10.248	39	Bar50-50.bmp	45	4	?	0r_4g.bmp	0r_4g.bmp	0r_2g.bmp	0r_2g.bmp				0r_2g.bmp	TrialProc	TrialList	0	cvbn	-999999	17	166952	0	n	426	167378	114	-138	-24	0	-48	10	14	6	4	39	0	0	0	0	4	4	2	2	0	2
Hungry_Donkey_bar_English_2	111	2	<?xml version="1.0"?>\n<Clock xmlns:dt="urn:schemas-microsoft-com:datatypes"><Description dt:dt="string">E-Prime Primary Realtime Clock</Description><StartTime><Timestamp dt:dt="int">0</Timestamp><DateUtc dt:dt="string">2015-07-12T15:01:20Z</DateUtc></StartTime><FrequencyChanges><FrequencyChange><Frequency dt:dt="r8">3507685</Frequency><Timestamp dt:dt="r8">1503009468286</Timestamp><Current dt:dt="r8">0</Current><DateUtc dt:dt="string">2015-07-12T15:01:20Z</DateUtc></FrequencyChange></FrequencyChanges></Clock>\n	Hungry_Donkey_bar_English_2-111-2	60.017	-236	1.0.0.18	1	-228417876	Standard	2.0.10.353	2.0.10.353	07-12-2015	7/12/2015 3:01:21 PM	11:01:21	2.0.10.248	40	Bar50-50.bmp	45	1	?	8r_4g.bmp	50r_4g.bmp	1r_2g.bmp	10r_2g.bmp	8r_4g.bmp				TrialProc	TrialList	0	cvbn	-999999	16	169401	0	c	248	169649	118	-146	-28	-4	-48	10	14	1	4	40	-8	-50	-1	-10	4	4	2	2	-8	4
Hungry_Donkey_bar_English_2	111	2	<?xml version="1.0"?>\n<Clock xmlns:dt="urn:schemas-microsoft-com:datatypes"><Description dt:dt="string">E-Prime Primary Realtime Clock</Description><StartTime><Timestamp dt:dt="int">0</Timestamp><DateUtc dt:dt="string">2015-07-12T15:01:20Z</DateUtc></StartTime><FrequencyChanges><FrequencyChange><Frequency dt:dt="r8">3507685</Frequency><Timestamp dt:dt="r8">1503009468286</Timestamp><Current dt:dt="r8">0</Current><DateUtc dt:dt="string">2015-07-12T15:01:20Z</DateUtc></FrequencyChange></FrequencyChanges></Clock>\n	Hungry_Donkey_bar_English_2-111-2	60.017	-236	1.0.0.18	1	-228417876	Standard	2.0.10.353	2.0.10.353	07-12-2015	7/12/2015 3:01:21 PM	11:01:21	2.0.10.248	41	Bar50-50.bmp	45	3	?	10r_4g.bmp	0r_4g.bmp	2r_2g.bmp	0r_2g.bmp			2r_2g.bmp		TrialProc	TrialList	0	cvbn	-999999	16	171683	0	b	302	171985	120	-148	-28	-4	-48	10	14	3	5	41	-10	0	-2	0	4	4	2	2	-2	2
Hungry_Donkey_bar_English_2	111	2	<?xml version="1.0"?>\n<Clock xmlns:dt="urn:schemas-microsoft-com:datatypes"><Description dt:dt="string">E-Prime Primary Realtime Clock</Description><StartTime><Timestamp dt:dt="int">0</Timestamp><DateUtc dt:dt="string">2015-07-12T15:01:20Z</DateUtc></StartTime><FrequencyChanges><FrequencyChange><Frequency dt:dt="r8">3507685</Frequency><Timestamp dt:dt="r8">1503009468286</Timestamp><Current dt:dt="r8">0</Current><DateUtc dt:dt="string">2015-07-12T15:01:20Z</DateUtc></FrequencyChange></FrequencyChanges></Clock>\n	Hungry_Donkey_bar_English_2-111-2	60.017	-236	1.0.0.18	1	-228417876	Standard	2.0.10.353	2.0.10.353	07-12-2015	7/12/2015 3:01:21 PM	11:01:21	2.0.10.248	42	Bar50-50.bmp	45	4	?	12r_4g.bmp	0r_4g.bmp	3r_2g.bmp	0r_2g.bmp				0r_2g.bmp	TrialProc	TrialList	0	cvbn	-999999	16	174016	0	n	497	174513	122	-148	-26	-4	-48	10	16	5	5	42	-12	0	-3	0	4	4	2	2	0	2
Hungry_Donkey_bar_English_2	111	2	<?xml version="1.0"?>\n<Clock xmlns:dt="urn:schemas-microsoft-com:datatypes"><Description dt:dt="string">E-Prime Primary Realtime Clock</Description><StartTime><Timestamp dt:dt="int">0</Timestamp><DateUtc dt:dt="string">2015-07-12T15:01:20Z</DateUtc></StartTime><FrequencyChanges><FrequencyChange><Frequency dt:dt="r8">3507685</Frequency><Timestamp dt:dt="r8">1503009468286</Timestamp><Current dt:dt="r8">0</Current><DateUtc dt:dt="string">2015-07-12T15:01:20Z</DateUtc></FrequencyChange></FrequencyChanges></Clock>\n	Hungry_Donkey_bar_English_2-111-2	60.017	-236	1.0.0.18	1	-228417876	Standard	2.0.10.353	2.0.10.353	07-12-2015	7/12/2015 3:01:21 PM	11:01:21	2.0.10.248	43	Bar37-63.bmp	39	2	?	8r_4g.bmp	50r_4g.bmp	1r_2g.bmp	10r_2g.bmp		50r_4g.bmp			TrialProc	TrialList	0	cvbn	-999999	16	176549	0	v	300	176849	126	-198	-72	-4	-94	10	16	1	5	43	-8	-50	-1	-10	4	4	2	2	-50	4
Hungry_Donkey_bar_English_2	111	2	<?xml version="1.0"?>\n<Clock xmlns:dt="urn:schemas-microsoft-com:datatypes"><Description dt:dt="string">E-Prime Primary Realtime Clock</Description><StartTime><Timestamp dt:dt="int">0</Timestamp><DateUtc dt:dt="string">2015-07-12T15:01:20Z</DateUtc></StartTime><FrequencyChanges><FrequencyChange><Frequency dt:dt="r8">3507685</Frequency><Timestamp dt:dt="r8">1503009468286</Timestamp><Current dt:dt="r8">0</Current><DateUtc dt:dt="string">2015-07-12T15:01:20Z</DateUtc></FrequencyChange></FrequencyChanges></Clock>\n	Hungry_Donkey_bar_English_2-111-2	60.017	-236	1.0.0.18	1	-228417876	Standard	2.0.10.353	2.0.10.353	07-12-2015	7/12/2015 3:01:21 PM	11:01:21	2.0.10.248	44	Bar37-63.bmp	38	1	?	10r_4g.bmp	0r_4g.bmp	2r_2g.bmp	0r_2g.bmp	10r_4g.bmp				TrialProc	TrialList	0	cvbn	-999999	16	178881	0	c	464	179345	130	-208	-78	-10	-94	10	16	2	5	44	-10	0	-2	0	4	4	2	2	-10	4
Hungry_Donkey_bar_English_2	111	2	<?xml version="1.0"?>\n<Clock xmlns:dt="urn:schemas-microsoft-com:datatypes"><Description dt:dt="string">E-Prime Primary Realtime Clock</Description><StartTime><Timestamp dt:dt="int">0</Timestamp><DateUtc dt:dt="string">2015-07-12T15:01:20Z</DateUtc></StartTime><FrequencyChanges><FrequencyChange><Frequency dt:dt="r8">3507685</Frequency><Timestamp dt:dt="r8">1503009468286</Timestamp><Current dt:dt="r8">0</Current><DateUtc dt:dt="string">2015-07-12T15:01:20Z</DateUtc></FrequencyChange></FrequencyChanges></Clock>\n	Hungry_Donkey_bar_English_2-111-2	60.017	-236	1.0.0.18	1	-228417876	Standard	2.0.10.353	2.0.10.353	07-12-2015	7/12/2015 3:01:21 PM	11:01:21	2.0.10.248	45	Bar37-63.bmp	39	3	?	0r_4g.bmp	0r_4g.bmp	0r_2g.bmp	0r_2g.bmp			0r_2g.bmp		TrialProc	TrialList	0	cvbn	-999999	16	181381	0	b	1212	182593	132	-208	-76	-10	-94	12	16	10	5	45	0	0	0	0	4	4	2	2	0	2
Hungry_Donkey_bar_English_2	111	2	<?xml version="1.0"?>\n<Clock xmlns:dt="urn:schemas-microsoft-com:datatypes"><Description dt:dt="string">E-Prime Primary Realtime Clock</Description><StartTime><Timestamp dt:dt="int">0</Timestamp><DateUtc dt:dt="string">2015-07-12T15:01:20Z</DateUtc></StartTime><FrequencyChanges><FrequencyChange><Frequency dt:dt="r8">3507685</Frequency><Timestamp dt:dt="r8">1503009468286</Timestamp><Current dt:dt="r8">0</Current><DateUtc dt:dt="string">2015-07-12T15:01:20Z</DateUtc></FrequencyChange></FrequencyChanges></Clock>\n	Hungry_Donkey_bar_English_2-111-2	60.017	-236	1.0.0.18	1	-228417876	Standard	2.0.10.353	2.0.10.353	07-12-2015	7/12/2015 3:01:21 PM	11:01:21	2.0.10.248	46	Bar37-63.bmp	39	3	?	0r_4g.bmp	0r_4g.bmp	0r_2g.bmp	0r_2g.bmp			0r_2g.bmp		TrialProc	TrialList	0	cvbn	-999999	16	184630	0	b	331	184961	134	-208	-74	-10	-94	14	16	9	5	46	0	0	0	0	4	4	2	2	0	2
Hungry_Donkey_bar_English_2	111	2	<?xml version="1.0"?>\n<Clock xmlns:dt="urn:schemas-microsoft-com:datatypes"><Description dt:dt="string">E-Prime Primary Realtime Clock</Description><StartTime><Timestamp dt:dt="int">0</Timestamp><DateUtc dt:dt="string">2015-07-12T15:01:20Z</DateUtc></StartTime><FrequencyChanges><FrequencyChange><Frequency dt:dt="r8">3507685</Frequency><Timestamp dt:dt="r8">1503009468286</Timestamp><Current dt:dt="r8">0</Current><DateUtc dt:dt="string">2015-07-12T15:01:20Z</DateUtc></FrequencyChange></FrequencyChanges></Clock>\n	Hungry_Donkey_bar_English_2-111-2	60.017	-236	1.0.0.18	1	-228417876	Standard	2.0.10.353	2.0.10.353	07-12-2015	7/12/2015 3:01:21 PM	11:01:21	2.0.10.248	47	Bar37-63.bmp	39	3	?	10r_4g.bmp	0r_4g.bmp	2r_2g.bmp	0r_2g.bmp			2r_2g.bmp		TrialProc	TrialList	0	cvbn	-999999	16	186996	0	b	493	187489	136	-210	-74	-10	-94	14	16	4	5	47	-10	0	-2	0	4	4	2	2	-2	2
Hungry_Donkey_bar_English_2	111	2	<?xml version="1.0"?>\n<Clock xmlns:dt="urn:schemas-microsoft-com:datatypes"><Description dt:dt="string">E-Prime Primary Realtime Clock</Description><StartTime><Timestamp dt:dt="int">0</Timestamp><DateUtc dt:dt="string">2015-07-12T15:01:20Z</DateUtc></StartTime><FrequencyChanges><FrequencyChange><Frequency dt:dt="r8">3507685</Frequency><Timestamp dt:dt="r8">1503009468286</Timestamp><Current dt:dt="r8">0</Current><DateUtc dt:dt="string">2015-07-12T15:01:20Z</DateUtc></FrequencyChange></FrequencyChanges></Clock>\n	Hungry_Donkey_bar_English_2-111-2	60.017	-236	1.0.0.18	1	-228417876	Standard	2.0.10.353	2.0.10.353	07-12-2015	7/12/2015 3:01:21 PM	11:01:21	2.0.10.248	48	Bar37-63.bmp	40	3	?	0r_4g.bmp	0r_4g.bmp	0r_2g.bmp	0r_2g.bmp			0r_2g.bmp		TrialProc	TrialList	0	cvbn	-999999	16	189528	0	b	424	189952	138	-210	-72	-10	-94	16	16	8	5	48	0	0	0	0	4	4	2	2	0	2
Hungry_Donkey_bar_English_2	111	2	<?xml version="1.0"?>\n<Clock xmlns:dt="urn:schemas-microsoft-com:datatypes"><Description dt:dt="string">E-Prime Primary Realtime Clock</Description><StartTime><Timestamp dt:dt="int">0</Timestamp><DateUtc dt:dt="string">2015-07-12T15:01:20Z</DateUtc></StartTime><FrequencyChanges><FrequencyChange><Frequency dt:dt="r8">3507685</Frequency><Timestamp dt:dt="r8">1503009468286</Timestamp><Current dt:dt="r8">0</Current><DateUtc dt:dt="string">2015-07-12T15:01:20Z</DateUtc></FrequencyChange></FrequencyChanges></Clock>\n	Hungry_Donkey_bar_English_2-111-2	60.017	-236	1.0.0.18	1	-228417876	Standard	2.0.10.353	2.0.10.353	07-12-2015	7/12/2015 3:01:21 PM	11:01:21	2.0.10.248	49	Bar37-63.bmp	40	3	?	0r_4g.bmp	0r_4g.bmp	0r_2g.bmp	0r_2g.bmp			0r_2g.bmp		TrialProc	TrialList	0	cvbn	-999999	16	191978	0	b	262	192240	140	-210	-70	-10	-94	18	16	7	5	49	0	0	0	0	4	4	2	2	0	2
Hungry_Donkey_bar_English_2	111	2	<?xml version="1.0"?>\n<Clock xmlns:dt="urn:schemas-microsoft-com:datatypes"><Description dt:dt="string">E-Prime Primary Realtime Clock</Description><StartTime><Timestamp dt:dt="int">0</Timestamp><DateUtc dt:dt="string">2015-07-12T15:01:20Z</DateUtc></StartTime><FrequencyChanges><FrequencyChange><Frequency dt:dt="r8">3507685</Frequency><Timestamp dt:dt="r8">1503009468286</Timestamp><Current dt:dt="r8">0</Current><DateUtc dt:dt="string">2015-07-12T15:01:20Z</DateUtc></FrequencyChange></FrequencyChanges></Clock>\n	Hungry_Donkey_bar_English_2-111-2	60.017	-236	1.0.0.18	1	-228417876	Standard	2.0.10.353	2.0.10.353	07-12-2015	7/12/2015 3:01:21 PM	11:01:21	2.0.10.248	50	Bar37-63.bmp	40	4	?	0r_4g.bmp	0r_4g.bmp	0r_2g.bmp	0r_2g.bmp				0r_2g.bmp	TrialProc	TrialList	0	cvbn	-999999	16	194277	0	n	347	194624	142	-210	-68	-10	-94	18	18	6	5	50	0	0	0	0	4	4	2	2	0	2
Hungry_Donkey_bar_English_2	111	2	<?xml version="1.0"?>\n<Clock xmlns:dt="urn:schemas-microsoft-com:datatypes"><Description dt:dt="string">E-Prime Primary Realtime Clock</Description><StartTime><Timestamp dt:dt="int">0</Timestamp><DateUtc dt:dt="string">2015-07-12T15:01:20Z</DateUtc></StartTime><FrequencyChanges><FrequencyChange><Frequency dt:dt="r8">3507685</Frequency><Timestamp dt:dt="r8">1503009468286</Timestamp><Current dt:dt="r8">0</Current><DateUtc dt:dt="string">2015-07-12T15:01:20Z</DateUtc></FrequencyChange></FrequencyChanges></Clock>\n	Hungry_Donkey_bar_English_2-111-2	60.017	-236	1.0.0.18	1	-228417876	Standard	2.0.10.353	2.0.10.353	07-12-2015	7/12/2015 3:01:21 PM	11:01:21	2.0.10.248	51	Bar37-63.bmp	41	2	?	0r_4g.bmp	0r_4g.bmp	0r_2g.bmp	0r_2g.bmp		0r_4g.bmp			TrialProc	TrialList	0	cvbn	-999999	16	196660	0	v	300	196960	146	-210	-64	-10	-90	18	18	9	6	51	0	0	0	0	4	4	2	2	0	4
Hungry_Donkey_bar_English_2	111	2	<?xml version="1.0"?>\n<Clock xmlns:dt="urn:schemas-microsoft-com:datatypes"><Description dt:dt="string">E-Prime Primary Realtime Clock</Description><StartTime><Timestamp dt:dt="int">0</Timestamp><DateUtc dt:dt="string">2015-07-12T15:01:20Z</DateUtc></StartTime><FrequencyChanges><FrequencyChange><Frequency dt:dt="r8">3507685</Frequency><Timestamp dt:dt="r8">1503009468286</Timestamp><Current dt:dt="r8">0</Current><DateUtc dt:dt="string">2015-07-12T15:01:20Z</DateUtc></FrequencyChange></FrequencyChanges></Clock>\n	Hungry_Donkey_bar_English_2-111-2	60.017	-236	1.0.0.18	1	-228417876	Standard	2.0.10.353	2.0.10.353	07-12-2015	7/12/2015 3:01:21 PM	11:01:21	2.0.10.248	52	Bar37-63.bmp	42	2	?	12r_4g.bmp	0r_4g.bmp	3r_2g.bmp	0r_2g.bmp		0r_4g.bmp			TrialProc	TrialList	0	cvbn	-999999	16	198992	0	v	464	199456	150	-210	-60	-10	-86	18	18	5	6	52	-12	0	-3	0	4	4	2	2	0	4
Hungry_Donkey_bar_English_2	111	2	<?xml version="1.0"?>\n<Clock xmlns:dt="urn:schemas-microsoft-com:datatypes"><Description dt:dt="string">E-Prime Primary Realtime Clock</Description><StartTime><Timestamp dt:dt="int">0</Timestamp><DateUtc dt:dt="string">2015-07-12T15:01:20Z</DateUtc></StartTime><FrequencyChanges><FrequencyChange><Frequency dt:dt="r8">3507685</Frequency><Timestamp dt:dt="r8">1503009468286</Timestamp><Current dt:dt="r8">0</Current><DateUtc dt:dt="string">2015-07-12T15:01:20Z</DateUtc></FrequencyChange></FrequencyChanges></Clock>\n	Hungry_Donkey_bar_English_2-111-2	60.017	-236	1.0.0.18	1	-228417876	Standard	2.0.10.353	2.0.10.353	07-12-2015	7/12/2015 3:01:21 PM	11:01:21	2.0.10.248	53	Bar37-63.bmp	42	2	?	10r_4g.bmp	0r_4g.bmp	2r_2g.bmp	0r_2g.bmp		0r_4g.bmp			TrialProc	TrialList	0	cvbn	-999999	17	201492	0	v	508	202000	154	-210	-56	-10	-82	18	18	4	6	53	-10	0	-2	0	4	4	2	2	0	4
Hungry_Donkey_bar_English_2	111	2	<?xml version="1.0"?>\n<Clock xmlns:dt="urn:schemas-microsoft-com:datatypes"><Description dt:dt="string">E-Prime Primary Realtime Clock</Description><StartTime><Timestamp dt:dt="int">0</Timestamp><DateUtc dt:dt="string">2015-07-12T15:01:20Z</DateUtc></StartTime><FrequencyChanges><FrequencyChange><Frequency dt:dt="r8">3507685</Frequency><Timestamp dt:dt="r8">1503009468286</Timestamp><Current dt:dt="r8">0</Current><DateUtc dt:dt="string">2015-07-12T15:01:20Z</DateUtc></FrequencyChange></FrequencyChanges></Clock>\n	Hungry_Donkey_bar_English_2-111-2	60.017	-236	1.0.0.18	1	-228417876	Standard	2.0.10.353	2.0.10.353	07-12-2015	7/12/2015 3:01:21 PM	11:01:21	2.0.10.248	54	Bar37-63.bmp	43	2	?	0r_4g.bmp	0r_4g.bmp	0r_2g.bmp	0r_2g.bmp		0r_4g.bmp			TrialProc	TrialList	0	cvbn	-999999	16	204041	0	v	311	204352	158	-210	-52	-10	-78	18	18	8	6	54	0	0	0	0	4	4	2	2	0	4
Hungry_Donkey_bar_English_2	111	2	<?xml version="1.0"?>\n<Clock xmlns:dt="urn:schemas-microsoft-com:datatypes"><Description dt:dt="string">E-Prime Primary Realtime Clock</Description><StartTime><Timestamp dt:dt="int">0</Timestamp><DateUtc dt:dt="string">2015-07-12T15:01:20Z</DateUtc></StartTime><FrequencyChanges><FrequencyChange><Frequency dt:dt="r8">3507685</Frequency><Timestamp dt:dt="r8">1503009468286</Timestamp><Current dt:dt="r8">0</Current><DateUtc dt:dt="string">2015-07-12T15:01:20Z</DateUtc></FrequencyChange></FrequencyChanges></Clock>\n	Hungry_Donkey_bar_English_2-111-2	60.017	-236	1.0.0.18	1	-228417876	Standard	2.0.10.353	2.0.10.353	07-12-2015	7/12/2015 3:01:21 PM	11:01:21	2.0.10.248	55	Bar37-63.bmp	43	4	?	0r_4g.bmp	0r_4g.bmp	0r_2g.bmp	0r_2g.bmp				0r_2g.bmp	TrialProc	TrialList	0	cvbn	-999999	16	206390	0	n	346	206736	160	-210	-50	-10	-78	18	20	7	6	55	0	0	0	0	4	4	2	2	0	2
Hungry_Donkey_bar_English_2	111	2	<?xml version="1.0"?>\n<Clock xmlns:dt="urn:schemas-microsoft-com:datatypes"><Description dt:dt="string">E-Prime Primary Realtime Clock</Description><StartTime><Timestamp dt:dt="int">0</Timestamp><DateUtc dt:dt="string">2015-07-12T15:01:20Z</DateUtc></StartTime><FrequencyChanges><FrequencyChange><Frequency dt:dt="r8">3507685</Frequency><Timestamp dt:dt="r8">1503009468286</Timestamp><Current dt:dt="r8">0</Current><DateUtc dt:dt="string">2015-07-12T15:01:20Z</DateUtc></FrequencyChange></FrequencyChanges></Clock>\n	Hungry_Donkey_bar_English_2-111-2	60.017	-236	1.0.0.18	1	-228417876	Standard	2.0.10.353	2.0.10.353	07-12-2015	7/12/2015 3:01:21 PM	11:01:21	2.0.10.248	56	Bar50-50.bmp	44	3	?	0r_4g.bmp	0r_4g.bmp	0r_2g.bmp	0r_2g.bmp			0r_2g.bmp		TrialProc	TrialList	0	cvbn	-999999	16	208773	0	b	298	209071	162	-210	-48	-10	-78	20	20	6	6	56	0	0	0	0	4	4	2	2	0	2
Hungry_Donkey_bar_English_2	111	2	<?xml version="1.0"?>\n<Clock xmlns:dt="urn:schemas-microsoft-com:datatypes"><Description dt:dt="string">E-Prime Primary Realtime Clock</Description><StartTime><Timestamp dt:dt="int">0</Timestamp><DateUtc dt:dt="string">2015-07-12T15:01:20Z</DateUtc></StartTime><FrequencyChanges><FrequencyChange><Frequency dt:dt="r8">3507685</Frequency><Timestamp dt:dt="r8">1503009468286</Timestamp><Current dt:dt="r8">0</Current><DateUtc dt:dt="string">2015-07-12T15:01:20Z</DateUtc></FrequencyChange></FrequencyChanges></Clock>\n	Hungry_Donkey_bar_English_2-111-2	60.017	-236	1.0.0.18	1	-228417876	Standard	2.0.10.353	2.0.10.353	07-12-2015	7/12/2015 3:01:21 PM	11:01:21	2.0.10.248	57	Bar37-63.bmp	39	2	?	8r_4g.bmp	50r_4g.bmp	1r_2g.bmp	10r_2g.bmp		50r_4g.bmp			TrialProc	TrialList	0	cvbn	-999999	16	211105	0	v	462	211567	166	-260	-94	-10	-124	20	20	1	6	57	-8	-50	-1	-10	4	4	2	2	-50	4
Hungry_Donkey_bar_English_2	111	2	<?xml version="1.0"?>\n<Clock xmlns:dt="urn:schemas-microsoft-com:datatypes"><Description dt:dt="string">E-Prime Primary Realtime Clock</Description><StartTime><Timestamp dt:dt="int">0</Timestamp><DateUtc dt:dt="string">2015-07-12T15:01:20Z</DateUtc></StartTime><FrequencyChanges><FrequencyChange><Frequency dt:dt="r8">3507685</Frequency><Timestamp dt:dt="r8">1503009468286</Timestamp><Current dt:dt="r8">0</Current><DateUtc dt:dt="string">2015-07-12T15:01:20Z</DateUtc></FrequencyChange></FrequencyChanges></Clock>\n	Hungry_Donkey_bar_English_2-111-2	60.017	-236	1.0.0.18	1	-228417876	Standard	2.0.10.353	2.0.10.353	07-12-2015	7/12/2015 3:01:21 PM	11:01:21	2.0.10.248	58	Bar37-63.bmp	40	1	?	0r_4g.bmp	0r_4g.bmp	0r_2g.bmp	0r_2g.bmp	0r_4g.bmp				TrialProc	TrialList	0	cvbn	-999999	16	213605	0	c	330	213935	170	-260	-90	-6	-124	20	20	10	6	58	0	0	0	0	4	4	2	2	0	4
Hungry_Donkey_bar_English_2	111	2	<?xml version="1.0"?>\n<Clock xmlns:dt="urn:schemas-microsoft-com:datatypes"><Description dt:dt="string">E-Prime Primary Realtime Clock</Description><StartTime><Timestamp dt:dt="int">0</Timestamp><DateUtc dt:dt="string">2015-07-12T15:01:20Z</DateUtc></StartTime><FrequencyChanges><FrequencyChange><Frequency dt:dt="r8">3507685</Frequency><Timestamp dt:dt="r8">1503009468286</Timestamp><Current dt:dt="r8">0</Current><DateUtc dt:dt="string">2015-07-12T15:01:20Z</DateUtc></FrequencyChange></FrequencyChanges></Clock>\n	Hungry_Donkey_bar_English_2-111-2	60.017	-236	1.0.0.18	1	-228417876	Standard	2.0.10.353	2.0.10.353	07-12-2015	7/12/2015 3:01:21 PM	11:01:21	2.0.10.248	59	Bar37-63.bmp	39	1	?	10r_4g.bmp	0r_4g.bmp	2r_2g.bmp	0r_2g.bmp	10r_4g.bmp				TrialProc	TrialList	0	cvbn	-999999	16	215971	0	c	460	216431	174	-270	-96	-12	-124	20	20	3	6	59	-10	0	-2	0	4	4	2	2	-10	4
Hungry_Donkey_bar_English_2	111	2	<?xml version="1.0"?>\n<Clock xmlns:dt="urn:schemas-microsoft-com:datatypes"><Description dt:dt="string">E-Prime Primary Realtime Clock</Description><StartTime><Timestamp dt:dt="int">0</Timestamp><DateUtc dt:dt="string">2015-07-12T15:01:20Z</DateUtc></StartTime><FrequencyChanges><FrequencyChange><Frequency dt:dt="r8">3507685</Frequency><Timestamp dt:dt="r8">1503009468286</Timestamp><Current dt:dt="r8">0</Current><DateUtc dt:dt="string">2015-07-12T15:01:20Z</DateUtc></FrequencyChange></FrequencyChanges></Clock>\n	Hungry_Donkey_bar_English_2-111-2	60.017	-236	1.0.0.18	1	-228417876	Standard	2.0.10.353	2.0.10.353	07-12-2015	7/12/2015 3:01:21 PM	11:01:21	2.0.10.248	60	Bar37-63.bmp	40	2	?	10r_4g.bmp	0r_4g.bmp	2r_2g.bmp	0r_2g.bmp		0r_4g.bmp			TrialProc	TrialList	0	cvbn	-999999	16	218470	0	v	697	219167	178	-270	-92	-12	-120	20	20	2	6	60	-10	0	-2	0	4	4	2	2	0	4
Hungry_Donkey_bar_English_2	111	2	<?xml version="1.0"?>\n<Clock xmlns:dt="urn:schemas-microsoft-com:datatypes"><Description dt:dt="string">E-Prime Primary Realtime Clock</Description><StartTime><Timestamp dt:dt="int">0</Timestamp><DateUtc dt:dt="string">2015-07-12T15:01:20Z</DateUtc></StartTime><FrequencyChanges><FrequencyChange><Frequency dt:dt="r8">3507685</Frequency><Timestamp dt:dt="r8">1503009468286</Timestamp><Current dt:dt="r8">0</Current><DateUtc dt:dt="string">2015-07-12T15:01:20Z</DateUtc></FrequencyChange></FrequencyChanges></Clock>\n	Hungry_Donkey_bar_English_2-111-2	60.017	-236	1.0.0.18	1	-228417876	Standard	2.0.10.353	2.0.10.353	07-12-2015	7/12/2015 3:01:21 PM	11:01:21	2.0.10.248	61	Bar37-63.bmp	40	2	?	0r_4g.bmp	0r_4g.bmp	0r_2g.bmp	0r_2g.bmp		0r_4g.bmp			TrialProc	TrialList	0	cvbn	-999999	17	221203	0	v	700	221903	182	-270	-88	-12	-116	20	20	7	7	61	0	0	0	0	4	4	2	2	0	4
Hungry_Donkey_bar_English_2	111	2	<?xml version="1.0"?>\n<Clock xmlns:dt="urn:schemas-microsoft-com:datatypes"><Description dt:dt="string">E-Prime Primary Realtime Clock</Description><StartTime><Timestamp dt:dt="int">0</Timestamp><DateUtc dt:dt="string">2015-07-12T15:01:20Z</DateUtc></StartTime><FrequencyChanges><FrequencyChange><Frequency dt:dt="r8">3507685</Frequency><Timestamp dt:dt="r8">1503009468286</Timestamp><Current dt:dt="r8">0</Current><DateUtc dt:dt="string">2015-07-12T15:01:20Z</DateUtc></FrequencyChange></FrequencyChanges></Clock>\n	Hungry_Donkey_bar_English_2-111-2	60.017	-236	1.0.0.18	1	-228417876	Standard	2.0.10.353	2.0.10.353	07-12-2015	7/12/2015 3:01:21 PM	11:01:21	2.0.10.248	62	Bar37-63.bmp	41	2	?	0r_4g.bmp	0r_4g.bmp	0r_2g.bmp	0r_2g.bmp		0r_4g.bmp			TrialProc	TrialList	0	cvbn	-999999	16	223935	0	v	560	224495	186	-270	-84	-12	-112	20	20	8	7	62	0	0	0	0	4	4	2	2	0	4
Hungry_Donkey_bar_English_2	111	2	<?xml version="1.0"?>\n<Clock xmlns:dt="urn:schemas-microsoft-com:datatypes"><Description dt:dt="string">E-Prime Primary Realtime Clock</Description><StartTime><Timestamp dt:dt="int">0</Timestamp><DateUtc dt:dt="string">2015-07-12T15:01:20Z</DateUtc></StartTime><FrequencyChanges><FrequencyChange><Frequency dt:dt="r8">3507685</Frequency><Timestamp dt:dt="r8">1503009468286</Timestamp><Current dt:dt="r8">0</Current><DateUtc dt:dt="string">2015-07-12T15:01:20Z</DateUtc></FrequencyChange></FrequencyChanges></Clock>\n	Hungry_Donkey_bar_English_2-111-2	60.017	-236	1.0.0.18	1	-228417876	Standard	2.0.10.353	2.0.10.353	07-12-2015	7/12/2015 3:01:21 PM	11:01:21	2.0.10.248	63	Bar37-63.bmp	41	2	?	10r_4g.bmp	0r_4g.bmp	2r_2g.bmp	0r_2g.bmp		0r_4g.bmp			TrialProc	TrialList	0	cvbn	-999999	16	226518	0	v	312	226830	190	-270	-80	-12	-108	20	20	3	7	63	-10	0	-2	0	4	4	2	2	0	4
Hungry_Donkey_bar_English_2	111	2	<?xml version="1.0"?>\n<Clock xmlns:dt="urn:schemas-microsoft-com:datatypes"><Description dt:dt="string">E-Prime Primary Realtime Clock</Description><StartTime><Timestamp dt:dt="int">0</Timestamp><DateUtc dt:dt="string">2015-07-12T15:01:20Z</DateUtc></StartTime><FrequencyChanges><FrequencyChange><Frequency dt:dt="r8">3507685</Frequency><Timestamp dt:dt="r8">1503009468286</Timestamp><Current dt:dt="r8">0</Current><DateUtc dt:dt="string">2015-07-12T15:01:20Z</DateUtc></FrequencyChange></FrequencyChanges></Clock>\n	Hungry_Donkey_bar_English_2-111-2	60.017	-236	1.0.0.18	1	-228417876	Standard	2.0.10.353	2.0.10.353	07-12-2015	7/12/2015 3:01:21 PM	11:01:21	2.0.10.248	64	Bar37-63.bmp	42	2	?	12r_4g.bmp	0r_4g.bmp	3r_2g.bmp	0r_2g.bmp		0r_4g.bmp			TrialProc	TrialList	0	cvbn	-999999	16	228867	0	v	347	229214	194	-270	-76	-12	-104	20	20	5	7	64	-12	0	-3	0	4	4	2	2	0	4
Hungry_Donkey_bar_English_2	111	2	<?xml version="1.0"?>\n<Clock xmlns:dt="urn:schemas-microsoft-com:datatypes"><Description dt:dt="string">E-Prime Primary Realtime Clock</Description><StartTime><Timestamp dt:dt="int">0</Timestamp><DateUtc dt:dt="string">2015-07-12T15:01:20Z</DateUtc></StartTime><FrequencyChanges><FrequencyChange><Frequency dt:dt="r8">3507685</Frequency><Timestamp dt:dt="r8">1503009468286</Timestamp><Current dt:dt="r8">0</Current><DateUtc dt:dt="string">2015-07-12T15:01:20Z</DateUtc></FrequencyChange></FrequencyChanges></Clock>\n	Hungry_Donkey_bar_English_2-111-2	60.017	-236	1.0.0.18	1	-228417876	Standard	2.0.10.353	2.0.10.353	07-12-2015	7/12/2015 3:01:21 PM	11:01:21	2.0.10.248	65	Bar37-63.bmp	42	3	?	8r_4g.bmp	50r_4g.bmp	1r_2g.bmp	10r_2g.bmp			1r_2g.bmp		TrialProc	TrialList	0	cvbn	-999999	16	231250	0	b	252	231502	196	-271	-75	-12	-104	21	20	1	7	65	-8	-50	-1	-10	4	4	2	2	-1	2
Hungry_Donkey_bar_English_2	111	2	<?xml version="1.0"?>\n<Clock xmlns:dt="urn:schemas-microsoft-com:datatypes"><Description dt:dt="string">E-Prime Primary Realtime Clock</Description><StartTime><Timestamp dt:dt="int">0</Timestamp><DateUtc dt:dt="string">2015-07-12T15:01:20Z</DateUtc></StartTime><FrequencyChanges><FrequencyChange><Frequency dt:dt="r8">3507685</Frequency><Timestamp dt:dt="r8">1503009468286</Timestamp><Current dt:dt="r8">0</Current><DateUtc dt:dt="string">2015-07-12T15:01:20Z</DateUtc></FrequencyChange></FrequencyChanges></Clock>\n	Hungry_Donkey_bar_English_2-111-2	60.017	-236	1.0.0.18	1	-228417876	Standard	2.0.10.353	2.0.10.353	07-12-2015	7/12/2015 3:01:21 PM	11:01:21	2.0.10.248	66	Bar37-63.bmp	42	3	?	10r_4g.bmp	0r_4g.bmp	2r_2g.bmp	0r_2g.bmp			2r_2g.bmp		TrialProc	TrialList	0	cvbn	-999999	16	233532	0	b	226	233758	198	-273	-75	-12	-104	21	20	2	7	66	-10	0	-2	0	4	4	2	2	-2	2
Hungry_Donkey_bar_English_2	111	2	<?xml version="1.0"?>\n<Clock xmlns:dt="urn:schemas-microsoft-com:datatypes"><Description dt:dt="string">E-Prime Primary Realtime Clock</Description><StartTime><Timestamp dt:dt="int">0</Timestamp><DateUtc dt:dt="string">2015-07-12T15:01:20Z</DateUtc></StartTime><FrequencyChanges><FrequencyChange><Frequency dt:dt="r8">3507685</Frequency><Timestamp dt:dt="r8">1503009468286</Timestamp><Current dt:dt="r8">0</Current><DateUtc dt:dt="string">2015-07-12T15:01:20Z</DateUtc></FrequencyChange></FrequencyChanges></Clock>\n	Hungry_Donkey_bar_English_2-111-2	60.017	-236	1.0.0.18	1	-228417876	Standard	2.0.10.353	2.0.10.353	07-12-2015	7/12/2015 3:01:21 PM	11:01:21	2.0.10.248	67	Bar37-63.bmp	42	3	?	0r_4g.bmp	0r_4g.bmp	0r_2g.bmp	0r_2g.bmp			0r_2g.bmp		TrialProc	TrialList	0	cvbn	-999999	16	235798	0	b	856	236654	200	-273	-73	-12	-104	23	20	6	7	67	0	0	0	0	4	4	2	2	0	2
Hungry_Donkey_bar_English_2	111	2	<?xml version="1.0"?>\n<Clock xmlns:dt="urn:schemas-microsoft-com:datatypes"><Description dt:dt="string">E-Prime Primary Realtime Clock</Description><StartTime><Timestamp dt:dt="int">0</Timestamp><DateUtc dt:dt="string">2015-07-12T15:01:20Z</DateUtc></StartTime><FrequencyChanges><FrequencyChange><Frequency dt:dt="r8">3507685</Frequency><Timestamp dt:dt="r8">1503009468286</Timestamp><Current dt:dt="r8">0</Current><DateUtc dt:dt="string">2015-07-12T15:01:20Z</DateUtc></FrequencyChange></FrequencyChanges></Clock>\n	Hungry_Donkey_bar_English_2-111-2	60.017	-236	1.0.0.18	1	-228417876	Standard	2.0.10.353	2.0.10.353	07-12-2015	7/12/2015 3:01:21 PM	11:01:21	2.0.10.248	68	Bar37-63.bmp	43	3	?	0r_4g.bmp	0r_4g.bmp	0r_2g.bmp	0r_2g.bmp			0r_2g.bmp		TrialProc	TrialList	0	cvbn	-999999	16	238681	0	b	709	239390	202	-273	-71	-12	-104	25	20	10	7	68	0	0	0	0	4	4	2	2	0	2
Hungry_Donkey_bar_English_2	111	2	<?xml version="1.0"?>\n<Clock xmlns:dt="urn:schemas-microsoft-com:datatypes"><Description dt:dt="string">E-Prime Primary Realtime Clock</Description><StartTime><Timestamp dt:dt="int">0</Timestamp><DateUtc dt:dt="string">2015-07-12T15:01:20Z</DateUtc></StartTime><FrequencyChanges><FrequencyChange><Frequency dt:dt="r8">3507685</Frequency><Timestamp dt:dt="r8">1503009468286</Timestamp><Current dt:dt="r8">0</Current><DateUtc dt:dt="string">2015-07-12T15:01:20Z</DateUtc></FrequencyChange></FrequencyChanges></Clock>\n	Hungry_Donkey_bar_English_2-111-2	60.017	-236	1.0.0.18	1	-228417876	Standard	2.0.10.353	2.0.10.353	07-12-2015	7/12/2015 3:01:21 PM	11:01:21	2.0.10.248	69	Bar37-63.bmp	43	3	?	10r_4g.bmp	0r_4g.bmp	2r_2g.bmp	0r_2g.bmp			2r_2g.bmp		TrialProc	TrialList	0	cvbn	-999999	16	241413	0	b	361	241774	204	-275	-71	-12	-104	25	20	4	7	69	-10	0	-2	0	4	4	2	2	-2	2
Hungry_Donkey_bar_English_2	111	2	<?xml version="1.0"?>\n<Clock xmlns:dt="urn:schemas-microsoft-com:datatypes"><Description dt:dt="string">E-Prime Primary Realtime Clock</Description><StartTime><Timestamp dt:dt="int">0</Timestamp><DateUtc dt:dt="string">2015-07-12T15:01:20Z</DateUtc></StartTime><FrequencyChanges><FrequencyChange><Frequency dt:dt="r8">3507685</Frequency><Timestamp dt:dt="r8">1503009468286</Timestamp><Current dt:dt="r8">0</Current><DateUtc dt:dt="string">2015-07-12T15:01:20Z</DateUtc></FrequencyChange></FrequencyChanges></Clock>\n	Hungry_Donkey_bar_English_2-111-2	60.017	-236	1.0.0.18	1	-228417876	Standard	2.0.10.353	2.0.10.353	07-12-2015	7/12/2015 3:01:21 PM	11:01:21	2.0.10.248	70	Bar37-63.bmp	43	3	?	0r_4g.bmp	0r_4g.bmp	0r_2g.bmp	0r_2g.bmp			0r_2g.bmp		TrialProc	TrialList	0	cvbn	-999999	16	243813	0	b	505	244318	206	-275	-69	-12	-104	27	20	9	7	70	0	0	0	0	4	4	2	2	0	2
Hungry_Donkey_bar_English_2	111	2	<?xml version="1.0"?>\n<Clock xmlns:dt="urn:schemas-microsoft-com:datatypes"><Description dt:dt="string">E-Prime Primary Realtime Clock</Description><StartTime><Timestamp dt:dt="int">0</Timestamp><DateUtc dt:dt="string">2015-07-12T15:01:20Z</DateUtc></StartTime><FrequencyChanges><FrequencyChange><Frequency dt:dt="r8">3507685</Frequency><Timestamp dt:dt="r8">1503009468286</Timestamp><Current dt:dt="r8">0</Current><DateUtc dt:dt="string">2015-07-12T15:01:20Z</DateUtc></FrequencyChange></FrequencyChanges></Clock>\n	Hungry_Donkey_bar_English_2-111-2	60.017	-236	1.0.0.18	1	-228417876	Standard	2.0.10.353	2.0.10.353	07-12-2015	7/12/2015 3:01:21 PM	11:01:21	2.0.10.248	71	Bar37-63.bmp	39	2	?	8r_4g.bmp	50r_4g.bmp	1r_2g.bmp	10r_2g.bmp		50r_4g.bmp			TrialProc	TrialList	0	cvbn	-999999	16	246345	0	v	245	246590	210	-325	-115	-12	-150	27	20	1	8	71	-8	-50	-1	-10	4	4	2	2	-50	4
Hungry_Donkey_bar_English_2	111	2	<?xml version="1.0"?>\n<Clock xmlns:dt="urn:schemas-microsoft-com:datatypes"><Description dt:dt="string">E-Prime Primary Realtime Clock</Description><StartTime><Timestamp dt:dt="int">0</Timestamp><DateUtc dt:dt="string">2015-07-12T15:01:20Z</DateUtc></StartTime><FrequencyChanges><FrequencyChange><Frequency dt:dt="r8">3507685</Frequency><Timestamp dt:dt="r8">1503009468286</Timestamp><Current dt:dt="r8">0</Current><DateUtc dt:dt="string">2015-07-12T15:01:20Z</DateUtc></FrequencyChange></FrequencyChanges></Clock>\n	Hungry_Donkey_bar_English_2-111-2	60.017	-236	1.0.0.18	1	-228417876	Standard	2.0.10.353	2.0.10.353	07-12-2015	7/12/2015 3:01:21 PM	11:01:21	2.0.10.248	72	Bar37-63.bmp	40	2	?	10r_4g.bmp	0r_4g.bmp	2r_2g.bmp	0r_2g.bmp		0r_4g.bmp			TrialProc	TrialList	0	cvbn	-999999	16	248628	0	v	265	248893	214	-325	-111	-12	-146	27	20	3	8	72	-10	0	-2	0	4	4	2	2	0	4
Hungry_Donkey_bar_English_2	111	2	<?xml version="1.0"?>\n<Clock xmlns:dt="urn:schemas-microsoft-com:datatypes"><Description dt:dt="string">E-Prime Primary Realtime Clock</Description><StartTime><Timestamp dt:dt="int">0</Timestamp><DateUtc dt:dt="string">2015-07-12T15:01:20Z</DateUtc></StartTime><FrequencyChanges><FrequencyChange><Frequency dt:dt="r8">3507685</Frequency><Timestamp dt:dt="r8">1503009468286</Timestamp><Current dt:dt="r8">0</Current><DateUtc dt:dt="string">2015-07-12T15:01:20Z</DateUtc></FrequencyChange></FrequencyChanges></Clock>\n	Hungry_Donkey_bar_English_2-111-2	60.017	-236	1.0.0.18	1	-228417876	Standard	2.0.10.353	2.0.10.353	07-12-2015	7/12/2015 3:01:21 PM	11:01:21	2.0.10.248	73	Bar37-63.bmp	40	2	?	0r_4g.bmp	0r_4g.bmp	0r_2g.bmp	0r_2g.bmp		0r_4g.bmp			TrialProc	TrialList	0	cvbn	-999999	16	250927	0	v	318	251245	218	-325	-107	-12	-142	27	20	7	8	73	0	0	0	0	4	4	2	2	0	4
Hungry_Donkey_bar_English_2	111	2	<?xml version="1.0"?>\n<Clock xmlns:dt="urn:schemas-microsoft-com:datatypes"><Description dt:dt="string">E-Prime Primary Realtime Clock</Description><StartTime><Timestamp dt:dt="int">0</Timestamp><DateUtc dt:dt="string">2015-07-12T15:01:20Z</DateUtc></StartTime><FrequencyChanges><FrequencyChange><Frequency dt:dt="r8">3507685</Frequency><Timestamp dt:dt="r8">1503009468286</Timestamp><Current dt:dt="r8">0</Current><DateUtc dt:dt="string">2015-07-12T15:01:20Z</DateUtc></FrequencyChange></FrequencyChanges></Clock>\n	Hungry_Donkey_bar_English_2-111-2	60.017	-236	1.0.0.18	1	-228417876	Standard	2.0.10.353	2.0.10.353	07-12-2015	7/12/2015 3:01:21 PM	11:01:21	2.0.10.248	74	Bar37-63.bmp	41	2	?	12r_4g.bmp	0r_4g.bmp	3r_2g.bmp	0r_2g.bmp		0r_4g.bmp			TrialProc	TrialList	0	cvbn	-999999	17	253277	0	v	272	253549	222	-325	-103	-12	-138	27	20	5	8	74	-12	0	-3	0	4	4	2	2	0	4
Hungry_Donkey_bar_English_2	111	2	<?xml version="1.0"?>\n<Clock xmlns:dt="urn:schemas-microsoft-com:datatypes"><Description dt:dt="string">E-Prime Primary Realtime Clock</Description><StartTime><Timestamp dt:dt="int">0</Timestamp><DateUtc dt:dt="string">2015-07-12T15:01:20Z</DateUtc></StartTime><FrequencyChanges><FrequencyChange><Frequency dt:dt="r8">3507685</Frequency><Timestamp dt:dt="r8">1503009468286</Timestamp><Current dt:dt="r8">0</Current><DateUtc dt:dt="string">2015-07-12T15:01:20Z</DateUtc></FrequencyChange></FrequencyChanges></Clock>\n	Hungry_Donkey_bar_English_2-111-2	60.017	-236	1.0.0.18	1	-228417876	Standard	2.0.10.353	2.0.10.353	07-12-2015	7/12/2015 3:01:21 PM	11:01:21	2.0.10.248	75	Bar37-63.bmp	41	2	?	0r_4g.bmp	0r_4g.bmp	0r_2g.bmp	0r_2g.bmp		0r_4g.bmp			TrialProc	TrialList	0	cvbn	-999999	16	255576	0	v	277	255853	226	-325	-99	-12	-134	27	20	9	8	75	0	0	0	0	4	4	2	2	0	4
Hungry_Donkey_bar_English_2	111	2	<?xml version="1.0"?>\n<Clock xmlns:dt="urn:schemas-microsoft-com:datatypes"><Description dt:dt="string">E-Prime Primary Realtime Clock</Description><StartTime><Timestamp dt:dt="int">0</Timestamp><DateUtc dt:dt="string">2015-07-12T15:01:20Z</DateUtc></StartTime><FrequencyChanges><FrequencyChange><Frequency dt:dt="r8">3507685</Frequency><Timestamp dt:dt="r8">1503009468286</Timestamp><Current dt:dt="r8">0</Current><DateUtc dt:dt="string">2015-07-12T15:01:20Z</DateUtc></FrequencyChange></FrequencyChanges></Clock>\n	Hungry_Donkey_bar_English_2-111-2	60.017	-236	1.0.0.18	1	-228417876	Standard	2.0.10.353	2.0.10.353	07-12-2015	7/12/2015 3:01:21 PM	11:01:21	2.0.10.248	76	Bar37-63.bmp	41	2	?	0r_4g.bmp	0r_4g.bmp	0r_2g.bmp	0r_2g.bmp		0r_4g.bmp			TrialProc	TrialList	0	cvbn	-999999	16	257892	0	v	313	258205	230	-325	-95	-12	-130	27	20	10	8	76	0	0	0	0	4	4	2	2	0	4
Hungry_Donkey_bar_English_2	111	2	<?xml version="1.0"?>\n<Clock xmlns:dt="urn:schemas-microsoft-com:datatypes"><Description dt:dt="string">E-Prime Primary Realtime Clock</Description><StartTime><Timestamp dt:dt="int">0</Timestamp><DateUtc dt:dt="string">2015-07-12T15:01:20Z</DateUtc></StartTime><FrequencyChanges><FrequencyChange><Frequency dt:dt="r8">3507685</Frequency><Timestamp dt:dt="r8">1503009468286</Timestamp><Current dt:dt="r8">0</Current><DateUtc dt:dt="string">2015-07-12T15:01:20Z</DateUtc></FrequencyChange></FrequencyChanges></Clock>\n	Hungry_Donkey_bar_English_2-111-2	60.017	-236	1.0.0.18	1	-228417876	Standard	2.0.10.353	2.0.10.353	07-12-2015	7/12/2015 3:01:21 PM	11:01:21	2.0.10.248	77	Bar37-63.bmp	42	2	?	10r_4g.bmp	0r_4g.bmp	2r_2g.bmp	0r_2g.bmp		0r_4g.bmp			TrialProc	TrialList	0	cvbn	-999999	16	260241	0	v	220	260461	234	-325	-91	-12	-126	27	20	4	8	77	-10	0	-2	0	4	4	2	2	0	4
Hungry_Donkey_bar_English_2	111	2	<?xml version="1.0"?>\n<Clock xmlns:dt="urn:schemas-microsoft-com:datatypes"><Description dt:dt="string">E-Prime Primary Realtime Clock</Description><StartTime><Timestamp dt:dt="int">0</Timestamp><DateUtc dt:dt="string">2015-07-12T15:01:20Z</DateUtc></StartTime><FrequencyChanges><FrequencyChange><Frequency dt:dt="r8">3507685</Frequency><Timestamp dt:dt="r8">1503009468286</Timestamp><Current dt:dt="r8">0</Current><DateUtc dt:dt="string">2015-07-12T15:01:20Z</DateUtc></FrequencyChange></FrequencyChanges></Clock>\n	Hungry_Donkey_bar_English_2-111-2	60.017	-236	1.0.0.18	1	-228417876	Standard	2.0.10.353	2.0.10.353	07-12-2015	7/12/2015 3:01:21 PM	11:01:21	2.0.10.248	78	Bar37-63.bmp	42	2	?	0r_4g.bmp	0r_4g.bmp	0r_2g.bmp	0r_2g.bmp		0r_4g.bmp			TrialProc	TrialList	0	cvbn	-999999	16	262491	0	v	258	262749	238	-325	-87	-12	-122	27	20	8	8	78	0	0	0	0	4	4	2	2	0	4
Hungry_Donkey_bar_English_2	111	2	<?xml version="1.0"?>\n<Clock xmlns:dt="urn:schemas-microsoft-com:datatypes"><Description dt:dt="string">E-Prime Primary Realtime Clock</Description><StartTime><Timestamp dt:dt="int">0</Timestamp><DateUtc dt:dt="string">2015-07-12T15:01:20Z</DateUtc></StartTime><FrequencyChanges><FrequencyChange><Frequency dt:dt="r8">3507685</Frequency><Timestamp dt:dt="r8">1503009468286</Timestamp><Current dt:dt="r8">0</Current><DateUtc dt:dt="string">2015-07-12T15:01:20Z</DateUtc></FrequencyChange></FrequencyChanges></Clock>\n	Hungry_Donkey_bar_English_2-111-2	60.017	-236	1.0.0.18	1	-228417876	Standard	2.0.10.353	2.0.10.353	07-12-2015	7/12/2015 3:01:21 PM	11:01:21	2.0.10.248	79	Bar37-63.bmp	43	2	?	10r_4g.bmp	0r_4g.bmp	2r_2g.bmp	0r_2g.bmp		0r_4g.bmp			TrialProc	TrialList	0	cvbn	-999999	16	264773	0	v	408	265181	242	-325	-83	-12	-118	27	20	2	8	79	-10	0	-2	0	4	4	2	2	0	4
Hungry_Donkey_bar_English_2	111	2	<?xml version="1.0"?>\n<Clock xmlns:dt="urn:schemas-microsoft-com:datatypes"><Description dt:dt="string">E-Prime Primary Realtime Clock</Description><StartTime><Timestamp dt:dt="int">0</Timestamp><DateUtc dt:dt="string">2015-07-12T15:01:20Z</DateUtc></StartTime><FrequencyChanges><FrequencyChange><Frequency dt:dt="r8">3507685</Frequency><Timestamp dt:dt="r8">1503009468286</Timestamp><Current dt:dt="r8">0</Current><DateUtc dt:dt="string">2015-07-12T15:01:20Z</DateUtc></FrequencyChange></FrequencyChanges></Clock>\n	Hungry_Donkey_bar_English_2-111-2	60.017	-236	1.0.0.18	1	-228417876	Standard	2.0.10.353	2.0.10.353	07-12-2015	7/12/2015 3:01:21 PM	11:01:21	2.0.10.248	80	Bar37-63.bmp	43	2	?	0r_4g.bmp	0r_4g.bmp	0r_2g.bmp	0r_2g.bmp		0r_4g.bmp			TrialProc	TrialList	0	cvbn	-999999	16	267206	0	v	246	267452	246	-325	-79	-12	-114	27	20	6	8	80	0	0	0	0	4	4	2	2	0	4
Hungry_Donkey_bar_English_2	111	2	<?xml version="1.0"?>\n<Clock xmlns:dt="urn:schemas-microsoft-com:datatypes"><Description dt:dt="string">E-Prime Primary Realtime Clock</Description><StartTime><Timestamp dt:dt="int">0</Timestamp><DateUtc dt:dt="string">2015-07-12T15:01:20Z</DateUtc></StartTime><FrequencyChanges><FrequencyChange><Frequency dt:dt="r8">3507685</Frequency><Timestamp dt:dt="r8">1503009468286</Timestamp><Current dt:dt="r8">0</Current><DateUtc dt:dt="string">2015-07-12T15:01:20Z</DateUtc></FrequencyChange></FrequencyChanges></Clock>\n	Hungry_Donkey_bar_English_2-111-2	60.017	-236	1.0.0.18	1	-228417876	Standard	2.0.10.353	2.0.10.353	07-12-2015	7/12/2015 3:01:21 PM	11:01:21	2.0.10.248	81	Bar37-63.bmp	43	1	?	0r_4g.bmp	0r_4g.bmp	0r_2g.bmp	0r_2g.bmp	0r_4g.bmp				TrialProc	TrialList	0	cvbn	-999999	17	269489	0	c	267	269756	250	-325	-75	-8	-114	27	20	9	9	81	0	0	0	0	4	4	2	2	0	4
Hungry_Donkey_bar_English_2	111	2	<?xml version="1.0"?>\n<Clock xmlns:dt="urn:schemas-microsoft-com:datatypes"><Description dt:dt="string">E-Prime Primary Realtime Clock</Description><StartTime><Timestamp dt:dt="int">0</Timestamp><DateUtc dt:dt="string">2015-07-12T15:01:20Z</DateUtc></StartTime><FrequencyChanges><FrequencyChange><Frequency dt:dt="r8">3507685</Frequency><Timestamp dt:dt="r8">1503009468286</Timestamp><Current dt:dt="r8">0</Current><DateUtc dt:dt="string">2015-07-12T15:01:20Z</DateUtc></FrequencyChange></FrequencyChanges></Clock>\n	Hungry_Donkey_bar_English_2-111-2	60.017	-236	1.0.0.18	1	-228417876	Standard	2.0.10.353	2.0.10.353	07-12-2015	7/12/2015 3:01:21 PM	11:01:21	2.0.10.248	82	Bar50-50.bmp	44	4	?	10r_4g.bmp	0r_4g.bmp	2r_2g.bmp	0r_2g.bmp				0r_2g.bmp	TrialProc	TrialList	0	cvbn	-999999	16	271788	0	n	320	272108	252	-325	-73	-8	-114	27	22	3	9	82	-10	0	-2	0	4	4	2	2	0	2
Hungry_Donkey_bar_English_2	111	2	<?xml version="1.0"?>\n<Clock xmlns:dt="urn:schemas-microsoft-com:datatypes"><Description dt:dt="string">E-Prime Primary Realtime Clock</Description><StartTime><Timestamp dt:dt="int">0</Timestamp><DateUtc dt:dt="string">2015-07-12T15:01:20Z</DateUtc></StartTime><FrequencyChanges><FrequencyChange><Frequency dt:dt="r8">3507685</Frequency><Timestamp dt:dt="r8">1503009468286</Timestamp><Current dt:dt="r8">0</Current><DateUtc dt:dt="string">2015-07-12T15:01:20Z</DateUtc></FrequencyChange></FrequencyChanges></Clock>\n	Hungry_Donkey_bar_English_2-111-2	60.017	-236	1.0.0.18	1	-228417876	Standard	2.0.10.353	2.0.10.353	07-12-2015	7/12/2015 3:01:21 PM	11:01:21	2.0.10.248	83	Bar50-50.bmp	44	3	?	10r_4g.bmp	0r_4g.bmp	2r_2g.bmp	0r_2g.bmp			2r_2g.bmp		TrialProc	TrialList	0	cvbn	-999999	16	274137	0	b	307	274444	254	-327	-73	-8	-114	27	22	2	9	83	-10	0	-2	0	4	4	2	2	-2	2
Hungry_Donkey_bar_English_2	111	2	<?xml version="1.0"?>\n<Clock xmlns:dt="urn:schemas-microsoft-com:datatypes"><Description dt:dt="string">E-Prime Primary Realtime Clock</Description><StartTime><Timestamp dt:dt="int">0</Timestamp><DateUtc dt:dt="string">2015-07-12T15:01:20Z</DateUtc></StartTime><FrequencyChanges><FrequencyChange><Frequency dt:dt="r8">3507685</Frequency><Timestamp dt:dt="r8">1503009468286</Timestamp><Current dt:dt="r8">0</Current><DateUtc dt:dt="string">2015-07-12T15:01:20Z</DateUtc></FrequencyChange></FrequencyChanges></Clock>\n	Hungry_Donkey_bar_English_2-111-2	60.017	-236	1.0.0.18	1	-228417876	Standard	2.0.10.353	2.0.10.353	07-12-2015	7/12/2015 3:01:21 PM	11:01:21	2.0.10.248	84	Bar50-50.bmp	44	3	?	0r_4g.bmp	0r_4g.bmp	0r_2g.bmp	0r_2g.bmp			0r_2g.bmp		TrialProc	TrialList	0	cvbn	-999999	16	276470	0	b	278	276748	256	-327	-71	-8	-114	29	22	10	9	84	0	0	0	0	4	4	2	2	0	2
Hungry_Donkey_bar_English_2	111	2	<?xml version="1.0"?>\n<Clock xmlns:dt="urn:schemas-microsoft-com:datatypes"><Description dt:dt="string">E-Prime Primary Realtime Clock</Description><StartTime><Timestamp dt:dt="int">0</Timestamp><DateUtc dt:dt="string">2015-07-12T15:01:20Z</DateUtc></StartTime><FrequencyChanges><FrequencyChange><Frequency dt:dt="r8">3507685</Frequency><Timestamp dt:dt="r8">1503009468286</Timestamp><Current dt:dt="r8">0</Current><DateUtc dt:dt="string">2015-07-12T15:01:20Z</DateUtc></FrequencyChange></FrequencyChanges></Clock>\n	Hungry_Donkey_bar_English_2-111-2	60.017	-236	1.0.0.18	1	-228417876	Standard	2.0.10.353	2.0.10.353	07-12-2015	7/12/2015 3:01:21 PM	11:01:21	2.0.10.248	85	Bar50-50.bmp	44	1	?	0r_4g.bmp	0r_4g.bmp	0r_2g.bmp	0r_2g.bmp	0r_4g.bmp				TrialProc	TrialList	0	cvbn	-999999	16	278786	0	c	266	279052	260	-327	-67	-4	-114	29	22	8	9	85	0	0	0	0	4	4	2	2	0	4
Hungry_Donkey_bar_English_2	111	2	<?xml version="1.0"?>\n<Clock xmlns:dt="urn:schemas-microsoft-com:datatypes"><Description dt:dt="string">E-Prime Primary Realtime Clock</Description><StartTime><Timestamp dt:dt="int">0</Timestamp><DateUtc dt:dt="string">2015-07-12T15:01:20Z</DateUtc></StartTime><FrequencyChanges><FrequencyChange><Frequency dt:dt="r8">3507685</Frequency><Timestamp dt:dt="r8">1503009468286</Timestamp><Current dt:dt="r8">0</Current><DateUtc dt:dt="string">2015-07-12T15:01:20Z</DateUtc></FrequencyChange></FrequencyChanges></Clock>\n	Hungry_Donkey_bar_English_2-111-2	60.017	-236	1.0.0.18	1	-228417876	Standard	2.0.10.353	2.0.10.353	07-12-2015	7/12/2015 3:01:21 PM	11:01:21	2.0.10.248	86	Bar50-50.bmp	45	2	?	0r_4g.bmp	0r_4g.bmp	0r_2g.bmp	0r_2g.bmp		0r_4g.bmp			TrialProc	TrialList	0	cvbn	-999999	16	281085	0	v	303	281388	264	-327	-63	-4	-110	29	22	7	9	86	0	0	0	0	4	4	2	2	0	4
Hungry_Donkey_bar_English_2	111	2	<?xml version="1.0"?>\n<Clock xmlns:dt="urn:schemas-microsoft-com:datatypes"><Description dt:dt="string">E-Prime Primary Realtime Clock</Description><StartTime><Timestamp dt:dt="int">0</Timestamp><DateUtc dt:dt="string">2015-07-12T15:01:20Z</DateUtc></StartTime><FrequencyChanges><FrequencyChange><Frequency dt:dt="r8">3507685</Frequency><Timestamp dt:dt="r8">1503009468286</Timestamp><Current dt:dt="r8">0</Current><DateUtc dt:dt="string">2015-07-12T15:01:20Z</DateUtc></FrequencyChange></FrequencyChanges></Clock>\n	Hungry_Donkey_bar_English_2-111-2	60.017	-236	1.0.0.18	1	-228417876	Standard	2.0.10.353	2.0.10.353	07-12-2015	7/12/2015 3:01:21 PM	11:01:21	2.0.10.248	87	Bar37-63.bmp	42	2	?	8r_4g.bmp	50r_4g.bmp	1r_2g.bmp	10r_2g.bmp		50r_4g.bmp			TrialProc	TrialList	0	cvbn	-999999	16	283418	0	v	210	283628	268	-377	-109	-4	-156	29	22	1	9	87	-8	-50	-1	-10	4	4	2	2	-50	4
Hungry_Donkey_bar_English_2	111	2	<?xml version="1.0"?>\n<Clock xmlns:dt="urn:schemas-microsoft-com:datatypes"><Description dt:dt="string">E-Prime Primary Realtime Clock</Description><StartTime><Timestamp dt:dt="int">0</Timestamp><DateUtc dt:dt="string">2015-07-12T15:01:20Z</DateUtc></StartTime><FrequencyChanges><FrequencyChange><Frequency dt:dt="r8">3507685</Frequency><Timestamp dt:dt="r8">1503009468286</Timestamp><Current dt:dt="r8">0</Current><DateUtc dt:dt="string">2015-07-12T15:01:20Z</DateUtc></FrequencyChange></FrequencyChanges></Clock>\n	Hungry_Donkey_bar_English_2-111-2	60.017	-236	1.0.0.18	1	-228417876	Standard	2.0.10.353	2.0.10.353	07-12-2015	7/12/2015 3:01:21 PM	11:01:21	2.0.10.248	88	Bar37-63.bmp	42	4	?	12r_4g.bmp	0r_4g.bmp	3r_2g.bmp	0r_2g.bmp				0r_2g.bmp	TrialProc	TrialList	0	cvbn	-999999	16	285667	0	n	328	285995	270	-377	-107	-4	-156	29	24	5	9	88	-12	0	-3	0	4	4	2	2	0	2
Hungry_Donkey_bar_English_2	111	2	<?xml version="1.0"?>\n<Clock xmlns:dt="urn:schemas-microsoft-com:datatypes"><Description dt:dt="string">E-Prime Primary Realtime Clock</Description><StartTime><Timestamp dt:dt="int">0</Timestamp><DateUtc dt:dt="string">2015-07-12T15:01:20Z</DateUtc></StartTime><FrequencyChanges><FrequencyChange><Frequency dt:dt="r8">3507685</Frequency><Timestamp dt:dt="r8">1503009468286</Timestamp><Current dt:dt="r8">0</Current><DateUtc dt:dt="string">2015-07-12T15:01:20Z</DateUtc></FrequencyChange></FrequencyChanges></Clock>\n	Hungry_Donkey_bar_English_2-111-2	60.017	-236	1.0.0.18	1	-228417876	Standard	2.0.10.353	2.0.10.353	07-12-2015	7/12/2015 3:01:21 PM	11:01:21	2.0.10.248	89	Bar37-63.bmp	42	3	?	0r_4g.bmp	0r_4g.bmp	0r_2g.bmp	0r_2g.bmp			0r_2g.bmp		TrialProc	TrialList	0	cvbn	-999999	16	288033	0	b	282	288315	272	-377	-105	-4	-156	31	24	6	9	89	0	0	0	0	4	4	2	2	0	2
Hungry_Donkey_bar_English_2	111	2	<?xml version="1.0"?>\n<Clock xmlns:dt="urn:schemas-microsoft-com:datatypes"><Description dt:dt="string">E-Prime Primary Realtime Clock</Description><StartTime><Timestamp dt:dt="int">0</Timestamp><DateUtc dt:dt="string">2015-07-12T15:01:20Z</DateUtc></StartTime><FrequencyChanges><FrequencyChange><Frequency dt:dt="r8">3507685</Frequency><Timestamp dt:dt="r8">1503009468286</Timestamp><Current dt:dt="r8">0</Current><DateUtc dt:dt="string">2015-07-12T15:01:20Z</DateUtc></FrequencyChange></FrequencyChanges></Clock>\n	Hungry_Donkey_bar_English_2-111-2	60.017	-236	1.0.0.18	1	-228417876	Standard	2.0.10.353	2.0.10.353	07-12-2015	7/12/2015 3:01:21 PM	11:01:21	2.0.10.248	90	Bar37-63.bmp	42	1	?	10r_4g.bmp	0r_4g.bmp	2r_2g.bmp	0r_2g.bmp	10r_4g.bmp				TrialProc	TrialList	0	cvbn	-999999	16	290349	0	c	350	290699	276	-387	-111	-10	-156	31	24	4	9	90	-10	0	-2	0	4	4	2	2	-10	4
Hungry_Donkey_bar_English_2	111	2	<?xml version="1.0"?>\n<Clock xmlns:dt="urn:schemas-microsoft-com:datatypes"><Description dt:dt="string">E-Prime Primary Realtime Clock</Description><StartTime><Timestamp dt:dt="int">0</Timestamp><DateUtc dt:dt="string">2015-07-12T15:01:20Z</DateUtc></StartTime><FrequencyChanges><FrequencyChange><Frequency dt:dt="r8">3507685</Frequency><Timestamp dt:dt="r8">1503009468286</Timestamp><Current dt:dt="r8">0</Current><DateUtc dt:dt="string">2015-07-12T15:01:20Z</DateUtc></FrequencyChange></FrequencyChanges></Clock>\n	Hungry_Donkey_bar_English_2-111-2	60.017	-236	1.0.0.18	1	-228417876	Standard	2.0.10.353	2.0.10.353	07-12-2015	7/12/2015 3:01:21 PM	11:01:21	2.0.10.248	91	Bar37-63.bmp	42	2	?	10r_4g.bmp	0r_4g.bmp	2r_2g.bmp	0r_2g.bmp		0r_4g.bmp			TrialProc	TrialList	0	cvbn	-999999	16	292732	0	v	511	293243	280	-387	-107	-10	-152	31	24	3	10	91	-10	0	-2	0	4	4	2	2	0	4
Hungry_Donkey_bar_English_2	111	2	<?xml version="1.0"?>\n<Clock xmlns:dt="urn:schemas-microsoft-com:datatypes"><Description dt:dt="string">E-Prime Primary Realtime Clock</Description><StartTime><Timestamp dt:dt="int">0</Timestamp><DateUtc dt:dt="string">2015-07-12T15:01:20Z</DateUtc></StartTime><FrequencyChanges><FrequencyChange><Frequency dt:dt="r8">3507685</Frequency><Timestamp dt:dt="r8">1503009468286</Timestamp><Current dt:dt="r8">0</Current><DateUtc dt:dt="string">2015-07-12T15:01:20Z</DateUtc></FrequencyChange></FrequencyChanges></Clock>\n	Hungry_Donkey_bar_English_2-111-2	60.017	-236	1.0.0.18	1	-228417876	Standard	2.0.10.353	2.0.10.353	07-12-2015	7/12/2015 3:01:21 PM	11:01:21	2.0.10.248	92	Bar37-63.bmp	42	2	?	0r_4g.bmp	0r_4g.bmp	0r_2g.bmp	0r_2g.bmp		0r_4g.bmp			TrialProc	TrialList	0	cvbn	-999999	16	295281	0	v	282	295563	284	-387	-103	-10	-148	31	24	6	10	92	0	0	0	0	4	4	2	2	0	4
Hungry_Donkey_bar_English_2	111	2	<?xml version="1.0"?>\n<Clock xmlns:dt="urn:schemas-microsoft-com:datatypes"><Description dt:dt="string">E-Prime Primary Realtime Clock</Description><StartTime><Timestamp dt:dt="int">0</Timestamp><DateUtc dt:dt="string">2015-07-12T15:01:20Z</DateUtc></StartTime><FrequencyChanges><FrequencyChange><Frequency dt:dt="r8">3507685</Frequency><Timestamp dt:dt="r8">1503009468286</Timestamp><Current dt:dt="r8">0</Current><DateUtc dt:dt="string">2015-07-12T15:01:20Z</DateUtc></FrequencyChange></FrequencyChanges></Clock>\n	Hungry_Donkey_bar_English_2-111-2	60.017	-236	1.0.0.18	1	-228417876	Standard	2.0.10.353	2.0.10.353	07-12-2015	7/12/2015 3:01:21 PM	11:01:21	2.0.10.248	93	Bar37-63.bmp	43	2	?	0r_4g.bmp	0r_4g.bmp	0r_2g.bmp	0r_2g.bmp		0r_4g.bmp			TrialProc	TrialList	0	cvbn	-999999	16	297597	0	v	270	297867	288	-387	-99	-10	-144	31	24	10	10	93	0	0	0	0	4	4	2	2	0	4
Hungry_Donkey_bar_English_2	111	2	<?xml version="1.0"?>\n<Clock xmlns:dt="urn:schemas-microsoft-com:datatypes"><Description dt:dt="string">E-Prime Primary Realtime Clock</Description><StartTime><Timestamp dt:dt="int">0</Timestamp><DateUtc dt:dt="string">2015-07-12T15:01:20Z</DateUtc></StartTime><FrequencyChanges><FrequencyChange><Frequency dt:dt="r8">3507685</Frequency><Timestamp dt:dt="r8">1503009468286</Timestamp><Current dt:dt="r8">0</Current><DateUtc dt:dt="string">2015-07-12T15:01:20Z</DateUtc></FrequencyChange></FrequencyChanges></Clock>\n	Hungry_Donkey_bar_English_2-111-2	60.017	-236	1.0.0.18	1	-228417876	Standard	2.0.10.353	2.0.10.353	07-12-2015	7/12/2015 3:01:21 PM	11:01:21	2.0.10.248	94	Bar37-63.bmp	43	2	?	0r_4g.bmp	0r_4g.bmp	0r_2g.bmp	0r_2g.bmp		0r_4g.bmp			TrialProc	TrialList	0	cvbn	-999999	16	299896	0	v	467	300363	292	-387	-95	-10	-140	31	24	8	10	94	0	0	0	0	4	4	2	2	0	4
Hungry_Donkey_bar_English_2	111	2	<?xml version="1.0"?>\n<Clock xmlns:dt="urn:schemas-microsoft-com:datatypes"><Description dt:dt="string">E-Prime Primary Realtime Clock</Description><StartTime><Timestamp dt:dt="int">0</Timestamp><DateUtc dt:dt="string">2015-07-12T15:01:20Z</DateUtc></StartTime><FrequencyChanges><FrequencyChange><Frequency dt:dt="r8">3507685</Frequency><Timestamp dt:dt="r8">1503009468286</Timestamp><Current dt:dt="r8">0</Current><DateUtc dt:dt="string">2015-07-12T15:01:20Z</DateUtc></FrequencyChange></FrequencyChanges></Clock>\n	Hungry_Donkey_bar_English_2-111-2	60.017	-236	1.0.0.18	1	-228417876	Standard	2.0.10.353	2.0.10.353	07-12-2015	7/12/2015 3:01:21 PM	11:01:21	2.0.10.248	95	Bar37-63.bmp	40	2	?	8r_4g.bmp	50r_4g.bmp	1r_2g.bmp	10r_2g.bmp		50r_4g.bmp			TrialProc	TrialList	0	cvbn	-999999	16	302396	0	v	287	302683	296	-437	-141	-10	-186	31	24	1	10	95	-8	-50	-1	-10	4	4	2	2	-50	4
Hungry_Donkey_bar_English_2	111	2	<?xml version="1.0"?>\n<Clock xmlns:dt="urn:schemas-microsoft-com:datatypes"><Description dt:dt="string">E-Prime Primary Realtime Clock</Description><StartTime><Timestamp dt:dt="int">0</Timestamp><DateUtc dt:dt="string">2015-07-12T15:01:20Z</DateUtc></StartTime><FrequencyChanges><FrequencyChange><Frequency dt:dt="r8">3507685</Frequency><Timestamp dt:dt="r8">1503009468286</Timestamp><Current dt:dt="r8">0</Current><DateUtc dt:dt="string">2015-07-12T15:01:20Z</DateUtc></FrequencyChange></FrequencyChanges></Clock>\n	Hungry_Donkey_bar_English_2-111-2	60.017	-236	1.0.0.18	1	-228417876	Standard	2.0.10.353	2.0.10.353	07-12-2015	7/12/2015 3:01:21 PM	11:01:21	2.0.10.248	96	Bar37-63.bmp	41	2	?	12r_4g.bmp	0r_4g.bmp	3r_2g.bmp	0r_2g.bmp		0r_4g.bmp			TrialProc	TrialList	0	cvbn	-999999	16	304712	0	v	339	305051	300	-437	-137	-10	-182	31	24	5	10	96	-12	0	-3	0	4	4	2	2	0	4
Hungry_Donkey_bar_English_2	111	2	<?xml version="1.0"?>\n<Clock xmlns:dt="urn:schemas-microsoft-com:datatypes"><Description dt:dt="string">E-Prime Primary Realtime Clock</Description><StartTime><Timestamp dt:dt="int">0</Timestamp><DateUtc dt:dt="string">2015-07-12T15:01:20Z</DateUtc></StartTime><FrequencyChanges><FrequencyChange><Frequency dt:dt="r8">3507685</Frequency><Timestamp dt:dt="r8">1503009468286</Timestamp><Current dt:dt="r8">0</Current><DateUtc dt:dt="string">2015-07-12T15:01:20Z</DateUtc></FrequencyChange></FrequencyChanges></Clock>\n	Hungry_Donkey_bar_English_2-111-2	60.017	-236	1.0.0.18	1	-228417876	Standard	2.0.10.353	2.0.10.353	07-12-2015	7/12/2015 3:01:21 PM	11:01:21	2.0.10.248	97	Bar37-63.bmp	41	3	?	0r_4g.bmp	0r_4g.bmp	0r_2g.bmp	0r_2g.bmp			0r_2g.bmp		TrialProc	TrialList	0	cvbn	-999999	16	307078	0	b	308	307386	302	-437	-135	-10	-182	33	24	7	10	97	0	0	0	0	4	4	2	2	0	2
Hungry_Donkey_bar_English_2	111	2	<?xml version="1.0"?>\n<Clock xmlns:dt="urn:schemas-microsoft-com:datatypes"><Description dt:dt="string">E-Prime Primary Realtime Clock</Description><StartTime><Timestamp dt:dt="int">0</Timestamp><DateUtc dt:dt="string">2015-07-12T15:01:20Z</DateUtc></StartTime><FrequencyChanges><FrequencyChange><Frequency dt:dt="r8">3507685</Frequency><Timestamp dt:dt="r8">1503009468286</Timestamp><Current dt:dt="r8">0</Current><DateUtc dt:dt="string">2015-07-12T15:01:20Z</DateUtc></FrequencyChange></FrequencyChanges></Clock>\n	Hungry_Donkey_bar_English_2-111-2	60.017	-236	1.0.0.18	1	-228417876	Standard	2.0.10.353	2.0.10.353	07-12-2015	7/12/2015 3:01:21 PM	11:01:21	2.0.10.248	98	Bar37-63.bmp	41	4	?	10r_4g.bmp	0r_4g.bmp	2r_2g.bmp	0r_2g.bmp				0r_2g.bmp	TrialProc	TrialList	0	cvbn	-999999	16	309410	0	n	648	310058	304	-437	-133	-10	-182	33	26	2	10	98	-10	0	-2	0	4	4	2	2	0	2
Hungry_Donkey_bar_English_2	111	2	<?xml version="1.0"?>\n<Clock xmlns:dt="urn:schemas-microsoft-com:datatypes"><Description dt:dt="string">E-Prime Primary Realtime Clock</Description><StartTime><Timestamp dt:dt="int">0</Timestamp><DateUtc dt:dt="string">2015-07-12T15:01:20Z</DateUtc></StartTime><FrequencyChanges><FrequencyChange><Frequency dt:dt="r8">3507685</Frequency><Timestamp dt:dt="r8">1503009468286</Timestamp><Current dt:dt="r8">0</Current><DateUtc dt:dt="string">2015-07-12T15:01:20Z</DateUtc></FrequencyChange></FrequencyChanges></Clock>\n	Hungry_Donkey_bar_English_2-111-2	60.017	-236	1.0.0.18	1	-228417876	Standard	2.0.10.353	2.0.10.353	07-12-2015	7/12/2015 3:01:21 PM	11:01:21	2.0.10.248	99	Bar37-63.bmp	41	1	?	10r_4g.bmp	0r_4g.bmp	2r_2g.bmp	0r_2g.bmp	10r_4g.bmp				TrialProc	TrialList	0	cvbn	-999999	16	312093	0	c	301	312394	308	-447	-139	-16	-182	33	26	4	10	99	-10	0	-2	0	4	4	2	2	-10	4
Hungry_Donkey_bar_English_2	111	2	<?xml version="1.0"?>\n<Clock xmlns:dt="urn:schemas-microsoft-com:datatypes"><Description dt:dt="string">E-Prime Primary Realtime Clock</Description><StartTime><Timestamp dt:dt="int">0</Timestamp><DateUtc dt:dt="string">2015-07-12T15:01:20Z</DateUtc></StartTime><FrequencyChanges><FrequencyChange><Frequency dt:dt="r8">3507685</Frequency><Timestamp dt:dt="r8">1503009468286</Timestamp><Current dt:dt="r8">0</Current><DateUtc dt:dt="string">2015-07-12T15:01:20Z</DateUtc></FrequencyChange></FrequencyChanges></Clock>\n	Hungry_Donkey_bar_English_2-111-2	60.017	-236	1.0.0.18	1	-228417876	Standard	2.0.10.353	2.0.10.353	07-12-2015	7/12/2015 3:01:21 PM	11:01:21	2.0.10.248	100	Bar37-63.bmp	41	3	?	0r_4g.bmp	0r_4g.bmp	0r_2g.bmp	0r_2g.bmp			0r_2g.bmp		TrialProc	TrialList	0	cvbn	-999999	16	314426	0	b	256	314682	310	-447	-137	-16	-182	35	26	9	10	100	0	0	0	0	4	4	2	2	0	2
Hungry_Donkey_bar_English_2	111	2	<?xml version="1.0"?>\n<Clock xmlns:dt="urn:schemas-microsoft-com:datatypes"><Description dt:dt="string">E-Prime Primary Realtime Clock</Description><StartTime><Timestamp dt:dt="int">0</Timestamp><DateUtc dt:dt="string">2015-07-12T15:01:20Z</DateUtc></StartTime><FrequencyChanges><FrequencyChange><Frequency dt:dt="r8">3507685</Frequency><Timestamp dt:dt="r8">1503009468286</Timestamp><Current dt:dt="r8">0</Current><DateUtc dt:dt="string">2015-07-12T15:01:20Z</DateUtc></FrequencyChange></FrequencyChanges></Clock>\n	Hungry_Donkey_bar_English_2-111-2	60.017	-236	1.0.0.18	1	-228417876	Standard	2.0.10.353	2.0.10.353	07-12-2015	7/12/2015 3:01:21 PM	11:01:21	2.0.10.248	101	Bar37-63.bmp	41	2	?	0r_4g.bmp	0r_4g.bmp	0r_2g.bmp	0r_2g.bmp		0r_4g.bmp			TrialProc	TrialList	0	cvbn	-999999	16	316708	0	v	1014	317722	314	-447	-133	-16	-178	35	26	6	11	101	0	0	0	0	4	4	2	2	0	4
Hungry_Donkey_bar_English_2	111	2	<?xml version="1.0"?>\n<Clock xmlns:dt="urn:schemas-microsoft-com:datatypes"><Description dt:dt="string">E-Prime Primary Realtime Clock</Description><StartTime><Timestamp dt:dt="int">0</Timestamp><DateUtc dt:dt="string">2015-07-12T15:01:20Z</DateUtc></StartTime><FrequencyChanges><FrequencyChange><Frequency dt:dt="r8">3507685</Frequency><Timestamp dt:dt="r8">1503009468286</Timestamp><Current dt:dt="r8">0</Current><DateUtc dt:dt="string">2015-07-12T15:01:20Z</DateUtc></FrequencyChange></FrequencyChanges></Clock>\n	Hungry_Donkey_bar_English_2-111-2	60.017	-236	1.0.0.18	1	-228417876	Standard	2.0.10.353	2.0.10.353	07-12-2015	7/12/2015 3:01:21 PM	11:01:21	2.0.10.248	102	Bar37-63.bmp	42	2	?	12r_4g.bmp	0r_4g.bmp	3r_2g.bmp	0r_2g.bmp		0r_4g.bmp			TrialProc	TrialList	0	cvbn	-999999	16	319757	0	v	413	320170	318	-447	-129	-16	-174	35	26	5	11	102	-12	0	-3	0	4	4	2	2	0	4
Hungry_Donkey_bar_English_2	111	2	<?xml version="1.0"?>\n<Clock xmlns:dt="urn:schemas-microsoft-com:datatypes"><Description dt:dt="string">E-Prime Primary Realtime Clock</Description><StartTime><Timestamp dt:dt="int">0</Timestamp><DateUtc dt:dt="string">2015-07-12T15:01:20Z</DateUtc></StartTime><FrequencyChanges><FrequencyChange><Frequency dt:dt="r8">3507685</Frequency><Timestamp dt:dt="r8">1503009468286</Timestamp><Current dt:dt="r8">0</Current><DateUtc dt:dt="string">2015-07-12T15:01:20Z</DateUtc></FrequencyChange></FrequencyChanges></Clock>\n	Hungry_Donkey_bar_English_2-111-2	60.017	-236	1.0.0.18	1	-228417876	Standard	2.0.10.353	2.0.10.353	07-12-2015	7/12/2015 3:01:21 PM	11:01:21	2.0.10.248	103	Bar37-63.bmp	42	2	?	0r_4g.bmp	0r_4g.bmp	0r_2g.bmp	0r_2g.bmp		0r_4g.bmp			TrialProc	TrialList	0	cvbn	-999999	16	322207	0	v	283	322490	322	-447	-125	-16	-170	35	26	7	11	103	0	0	0	0	4	4	2	2	0	4
Hungry_Donkey_bar_English_2	111	2	<?xml version="1.0"?>\n<Clock xmlns:dt="urn:schemas-microsoft-com:datatypes"><Description dt:dt="string">E-Prime Primary Realtime Clock</Description><StartTime><Timestamp dt:dt="int">0</Timestamp><DateUtc dt:dt="string">2015-07-12T15:01:20Z</DateUtc></StartTime><FrequencyChanges><FrequencyChange><Frequency dt:dt="r8">3507685</Frequency><Timestamp dt:dt="r8">1503009468286</Timestamp><Current dt:dt="r8">0</Current><DateUtc dt:dt="string">2015-07-12T15:01:20Z</DateUtc></FrequencyChange></FrequencyChanges></Clock>\n	Hungry_Donkey_bar_English_2-111-2	60.017	-236	1.0.0.18	1	-228417876	Standard	2.0.10.353	2.0.10.353	07-12-2015	7/12/2015 3:01:21 PM	11:01:21	2.0.10.248	104	Bar37-63.bmp	42	4	?	0r_4g.bmp	0r_4g.bmp	0r_2g.bmp	0r_2g.bmp				0r_2g.bmp	TrialProc	TrialList	0	cvbn	-999999	16	324523	0	n	366	324889	324	-447	-123	-16	-170	35	28	9	11	104	0	0	0	0	4	4	2	2	0	2
Hungry_Donkey_bar_English_2	111	2	<?xml version="1.0"?>\n<Clock xmlns:dt="urn:schemas-microsoft-com:datatypes"><Description dt:dt="string">E-Prime Primary Realtime Clock</Description><StartTime><Timestamp dt:dt="int">0</Timestamp><DateUtc dt:dt="string">2015-07-12T15:01:20Z</DateUtc></StartTime><FrequencyChanges><FrequencyChange><Frequency dt:dt="r8">3507685</Frequency><Timestamp dt:dt="r8">1503009468286</Timestamp><Current dt:dt="r8">0</Current><DateUtc dt:dt="string">2015-07-12T15:01:20Z</DateUtc></FrequencyChange></FrequencyChanges></Clock>\n	Hungry_Donkey_bar_English_2-111-2	60.017	-236	1.0.0.18	1	-228417876	Standard	2.0.10.353	2.0.10.353	07-12-2015	7/12/2015 3:01:21 PM	11:01:21	2.0.10.248	105	Bar37-63.bmp	42	4	?	0r_4g.bmp	0r_4g.bmp	0r_2g.bmp	0r_2g.bmp				0r_2g.bmp	TrialProc	TrialList	0	cvbn	-999999	16	326922	0	n	303	327225	326	-447	-121	-16	-170	35	30	8	11	105	0	0	0	0	4	4	2	2	0	2
Hungry_Donkey_bar_English_2	111	2	<?xml version="1.0"?>\n<Clock xmlns:dt="urn:schemas-microsoft-com:datatypes"><Description dt:dt="string">E-Prime Primary Realtime Clock</Description><StartTime><Timestamp dt:dt="int">0</Timestamp><DateUtc dt:dt="string">2015-07-12T15:01:20Z</DateUtc></StartTime><FrequencyChanges><FrequencyChange><Frequency dt:dt="r8">3507685</Frequency><Timestamp dt:dt="r8">1503009468286</Timestamp><Current dt:dt="r8">0</Current><DateUtc dt:dt="string">2015-07-12T15:01:20Z</DateUtc></FrequencyChange></FrequencyChanges></Clock>\n	Hungry_Donkey_bar_English_2-111-2	60.017	-236	1.0.0.18	1	-228417876	Standard	2.0.10.353	2.0.10.353	07-12-2015	7/12/2015 3:01:21 PM	11:01:21	2.0.10.248	106	Bar37-63.bmp	42	3	?	10r_4g.bmp	0r_4g.bmp	2r_2g.bmp	0r_2g.bmp			2r_2g.bmp		TrialProc	TrialList	0	cvbn	-999999	16	329255	0	b	82	329337	328	-449	-121	-16	-170	35	30	3	11	106	-10	0	-2	0	4	4	2	2	-2	2
Hungry_Donkey_bar_English_2	111	2	<?xml version="1.0"?>\n<Clock xmlns:dt="urn:schemas-microsoft-com:datatypes"><Description dt:dt="string">E-Prime Primary Realtime Clock</Description><StartTime><Timestamp dt:dt="int">0</Timestamp><DateUtc dt:dt="string">2015-07-12T15:01:20Z</DateUtc></StartTime><FrequencyChanges><FrequencyChange><Frequency dt:dt="r8">3507685</Frequency><Timestamp dt:dt="r8">1503009468286</Timestamp><Current dt:dt="r8">0</Current><DateUtc dt:dt="string">2015-07-12T15:01:20Z</DateUtc></FrequencyChange></FrequencyChanges></Clock>\n	Hungry_Donkey_bar_English_2-111-2	60.017	-236	1.0.0.18	1	-228417876	Standard	2.0.10.353	2.0.10.353	07-12-2015	7/12/2015 3:01:21 PM	11:01:21	2.0.10.248	107	Bar37-63.bmp	42	3	?	10r_4g.bmp	0r_4g.bmp	2r_2g.bmp	0r_2g.bmp			2r_2g.bmp		TrialProc	TrialList	0	cvbn	-999999	16	331371	0	b	350	331721	330	-451	-121	-16	-170	35	30	4	11	107	-10	0	-2	0	4	4	2	2	-2	2
Hungry_Donkey_bar_English_2	111	2	<?xml version="1.0"?>\n<Clock xmlns:dt="urn:schemas-microsoft-com:datatypes"><Description dt:dt="string">E-Prime Primary Realtime Clock</Description><StartTime><Timestamp dt:dt="int">0</Timestamp><DateUtc dt:dt="string">2015-07-12T15:01:20Z</DateUtc></StartTime><FrequencyChanges><FrequencyChange><Frequency dt:dt="r8">3507685</Frequency><Timestamp dt:dt="r8">1503009468286</Timestamp><Current dt:dt="r8">0</Current><DateUtc dt:dt="string">2015-07-12T15:01:20Z</DateUtc></FrequencyChange></FrequencyChanges></Clock>\n	Hungry_Donkey_bar_English_2-111-2	60.017	-236	1.0.0.18	1	-228417876	Standard	2.0.10.353	2.0.10.353	07-12-2015	7/12/2015 3:01:21 PM	11:01:21	2.0.10.248	108	Bar37-63.bmp	42	3	?	8r_4g.bmp	50r_4g.bmp	1r_2g.bmp	10r_2g.bmp			1r_2g.bmp		TrialProc	TrialList	0	cvbn	-999999	16	333753	0	b	304	334057	332	-452	-120	-16	-170	36	30	1	11	108	-8	-50	-1	-10	4	4	2	2	-1	2
Hungry_Donkey_bar_English_2	111	2	<?xml version="1.0"?>\n<Clock xmlns:dt="urn:schemas-microsoft-com:datatypes"><Description dt:dt="string">E-Prime Primary Realtime Clock</Description><StartTime><Timestamp dt:dt="int">0</Timestamp><DateUtc dt:dt="string">2015-07-12T15:01:20Z</DateUtc></StartTime><FrequencyChanges><FrequencyChange><Frequency dt:dt="r8">3507685</Frequency><Timestamp dt:dt="r8">1503009468286</Timestamp><Current dt:dt="r8">0</Current><DateUtc dt:dt="string">2015-07-12T15:01:20Z</DateUtc></FrequencyChange></FrequencyChanges></Clock>\n	Hungry_Donkey_bar_English_2-111-2	60.017	-236	1.0.0.18	1	-228417876	Standard	2.0.10.353	2.0.10.353	07-12-2015	7/12/2015 3:01:21 PM	11:01:21	2.0.10.248	109	Bar37-63.bmp	42	3	?	10r_4g.bmp	0r_4g.bmp	2r_2g.bmp	0r_2g.bmp			2r_2g.bmp		TrialProc	TrialList	0	cvbn	-999999	16	336086	0	b	419	336505	334	-454	-120	-16	-170	36	30	2	11	109	-10	0	-2	0	4	4	2	2	-2	2
Hungry_Donkey_bar_English_2	111	2	<?xml version="1.0"?>\n<Clock xmlns:dt="urn:schemas-microsoft-com:datatypes"><Description dt:dt="string">E-Prime Primary Realtime Clock</Description><StartTime><Timestamp dt:dt="int">0</Timestamp><DateUtc dt:dt="string">2015-07-12T15:01:20Z</DateUtc></StartTime><FrequencyChanges><FrequencyChange><Frequency dt:dt="r8">3507685</Frequency><Timestamp dt:dt="r8">1503009468286</Timestamp><Current dt:dt="r8">0</Current><DateUtc dt:dt="string">2015-07-12T15:01:20Z</DateUtc></FrequencyChange></FrequencyChanges></Clock>\n	Hungry_Donkey_bar_English_2-111-2	60.017	-236	1.0.0.18	1	-228417876	Standard	2.0.10.353	2.0.10.353	07-12-2015	7/12/2015 3:01:21 PM	11:01:21	2.0.10.248	110	Bar37-63.bmp	43	3	?	0r_4g.bmp	0r_4g.bmp	0r_2g.bmp	0r_2g.bmp			0r_2g.bmp		TrialProc	TrialList	0	cvbn	-999999	16	338535	0	b	450	338985	336	-454	-118	-16	-170	38	30	10	11	110	0	0	0	0	4	4	2	2	0	2
