ExperimentName	Subject	Session	Clock.Information	DataFile.Basename	Display.RefreshRate	Eindtotaal[Session]	ExperimentVersion	Group	RandomSeed	RuntimeCapabilities	RuntimeVersion	RuntimeVersionExpected	SessionDate	SessionStartDateTimeUtc	SessionTime	StudioVersion	Block	BarImage	BarTotalWinst	DoorChoice	Eindtotaal[Block]	FBDoor1	FBDoor2	FBDoor3	FBDoor4	Image1	Image2	Image3	Image4	Procedure	Running	spel.ACC	spel.CRESP	spel.DurationError	spel.OnsetDelay	spel.OnsetTime	spel.OnsetToOnsetTime	spel.RESP	spel.RT	spel.RTTime	TotalGain	TotalLose	Totalsum	TotalsumD1	TotalsumD2	TotalsumD3	TotalsumD4	TrialList	TrialList.Cycle	TrialList.Sample	varV1	varV2	varV3	varV4	varW1	varW2	varW3	varW4	Verliesbedrag	Winstbedrag
Hungry_Donkey_bar_English_2	119	3	<?xml version="1.0"?>\n<Clock xmlns:dt="urn:schemas-microsoft-com:datatypes"><Description dt:dt="string">E-Prime Primary Realtime Clock</Description><StartTime><Timestamp dt:dt="int">0</Timestamp><DateUtc dt:dt="string">2015-07-13T15:59:29Z</DateUtc></StartTime><FrequencyChanges><FrequencyChange><Frequency dt:dt="r8">3507685</Frequency><Timestamp dt:dt="r8">1818290353131</Timestamp><Current dt:dt="r8">0</Current><DateUtc dt:dt="string">2015-07-13T15:59:29Z</DateUtc></FrequencyChange></FrequencyChanges></Clock>\n	Hungry_Donkey_bar_English_2-119-3	60.017	-136	1.0.0.18	1	1519854800	Standard	2.0.10.353	2.0.10.353	07-13-2015	7/13/2015 3:59:29 PM	11:59:29	2.0.10.248	1	Bar100-0.bmp	100	2	?	0r_4g.bmp	0r_4g.bmp	0r_2g.bmp	0r_2g.bmp		0r_4g.bmp			TrialProc	TrialList	0	cvbn	-999999	26	55185	0	v	7493	62678	4	0	4	0	4	0	0	7	1	1	0	0	0	0	4	4	2	2	0	4
Hungry_Donkey_bar_English_2	119	3	<?xml version="1.0"?>\n<Clock xmlns:dt="urn:schemas-microsoft-com:datatypes"><Description dt:dt="string">E-Prime Primary Realtime Clock</Description><StartTime><Timestamp dt:dt="int">0</Timestamp><DateUtc dt:dt="string">2015-07-13T15:59:29Z</DateUtc></StartTime><FrequencyChanges><FrequencyChange><Frequency dt:dt="r8">3507685</Frequency><Timestamp dt:dt="r8">1818290353131</Timestamp><Current dt:dt="r8">0</Current><DateUtc dt:dt="string">2015-07-13T15:59:29Z</DateUtc></FrequencyChange></FrequencyChanges></Clock>\n	Hungry_Donkey_bar_English_2-119-3	60.017	-136	1.0.0.18	1	1519854800	Standard	2.0.10.353	2.0.10.353	07-13-2015	7/13/2015 3:59:29 PM	11:59:29	2.0.10.248	2	Bar100-0.bmp	100	2	?	12r_4g.bmp	0r_4g.bmp	3r_2g.bmp	0r_2g.bmp		0r_4g.bmp			TrialProc	TrialList	0	cvbn	-999999	16	64715	0	v	2155	66870	8	0	8	0	8	0	0	5	1	2	-12	0	-3	0	4	4	2	2	0	4
Hungry_Donkey_bar_English_2	119	3	<?xml version="1.0"?>\n<Clock xmlns:dt="urn:schemas-microsoft-com:datatypes"><Description dt:dt="string">E-Prime Primary Realtime Clock</Description><StartTime><Timestamp dt:dt="int">0</Timestamp><DateUtc dt:dt="string">2015-07-13T15:59:29Z</DateUtc></StartTime><FrequencyChanges><FrequencyChange><Frequency dt:dt="r8">3507685</Frequency><Timestamp dt:dt="r8">1818290353131</Timestamp><Current dt:dt="r8">0</Current><DateUtc dt:dt="string">2015-07-13T15:59:29Z</DateUtc></FrequencyChange></FrequencyChanges></Clock>\n	Hungry_Donkey_bar_English_2-119-3	60.017	-136	1.0.0.18	1	1519854800	Standard	2.0.10.353	2.0.10.353	07-13-2015	7/13/2015 3:59:29 PM	11:59:29	2.0.10.248	3	Bar50-50.bmp	55	1	?	10r_4g.bmp	0r_4g.bmp	2r_2g.bmp	0r_2g.bmp	10r_4g.bmp				TrialProc	TrialList	0	cvbn	-999999	16	68897	0	c	1093	69990	12	-10	2	-6	8	0	0	2	1	3	-10	0	-2	0	4	4	2	2	-10	4
Hungry_Donkey_bar_English_2	119	3	<?xml version="1.0"?>\n<Clock xmlns:dt="urn:schemas-microsoft-com:datatypes"><Description dt:dt="string">E-Prime Primary Realtime Clock</Description><StartTime><Timestamp dt:dt="int">0</Timestamp><DateUtc dt:dt="string">2015-07-13T15:59:29Z</DateUtc></StartTime><FrequencyChanges><FrequencyChange><Frequency dt:dt="r8">3507685</Frequency><Timestamp dt:dt="r8">1818290353131</Timestamp><Current dt:dt="r8">0</Current><DateUtc dt:dt="string">2015-07-13T15:59:29Z</DateUtc></FrequencyChange></FrequencyChanges></Clock>\n	Hungry_Donkey_bar_English_2-119-3	60.017	-136	1.0.0.18	1	1519854800	Standard	2.0.10.353	2.0.10.353	07-13-2015	7/13/2015 3:59:29 PM	11:59:29	2.0.10.248	4	Bar50-50.bmp	54	3	?	10r_4g.bmp	0r_4g.bmp	2r_2g.bmp	0r_2g.bmp			2r_2g.bmp		TrialProc	TrialList	0	cvbn	-999999	16	72030	0	b	2344	74374	14	-12	2	-6	8	0	0	4	1	4	-10	0	-2	0	4	4	2	2	-2	2
Hungry_Donkey_bar_English_2	119	3	<?xml version="1.0"?>\n<Clock xmlns:dt="urn:schemas-microsoft-com:datatypes"><Description dt:dt="string">E-Prime Primary Realtime Clock</Description><StartTime><Timestamp dt:dt="int">0</Timestamp><DateUtc dt:dt="string">2015-07-13T15:59:29Z</DateUtc></StartTime><FrequencyChanges><FrequencyChange><Frequency dt:dt="r8">3507685</Frequency><Timestamp dt:dt="r8">1818290353131</Timestamp><Current dt:dt="r8">0</Current><DateUtc dt:dt="string">2015-07-13T15:59:29Z</DateUtc></FrequencyChange></FrequencyChanges></Clock>\n	Hungry_Donkey_bar_English_2-119-3	60.017	-136	1.0.0.18	1	1519854800	Standard	2.0.10.353	2.0.10.353	07-13-2015	7/13/2015 3:59:29 PM	11:59:29	2.0.10.248	5	Bar63-37.bmp	60	2	?	0r_4g.bmp	0r_4g.bmp	0r_2g.bmp	0r_2g.bmp		0r_4g.bmp			TrialProc	TrialList	0	cvbn	-999999	16	76412	0	v	986	77398	18	-12	6	-6	12	0	0	9	1	5	0	0	0	0	4	4	2	2	0	4
Hungry_Donkey_bar_English_2	119	3	<?xml version="1.0"?>\n<Clock xmlns:dt="urn:schemas-microsoft-com:datatypes"><Description dt:dt="string">E-Prime Primary Realtime Clock</Description><StartTime><Timestamp dt:dt="int">0</Timestamp><DateUtc dt:dt="string">2015-07-13T15:59:29Z</DateUtc></StartTime><FrequencyChanges><FrequencyChange><Frequency dt:dt="r8">3507685</Frequency><Timestamp dt:dt="r8">1818290353131</Timestamp><Current dt:dt="r8">0</Current><DateUtc dt:dt="string">2015-07-13T15:59:29Z</DateUtc></FrequencyChange></FrequencyChanges></Clock>\n	Hungry_Donkey_bar_English_2-119-3	60.017	-136	1.0.0.18	1	1519854800	Standard	2.0.10.353	2.0.10.353	07-13-2015	7/13/2015 3:59:29 PM	11:59:29	2.0.10.248	6	Bar63-37.bmp	65	2	?	0r_4g.bmp	0r_4g.bmp	0r_2g.bmp	0r_2g.bmp		0r_4g.bmp			TrialProc	TrialList	0	cvbn	-999999	16	79428	0	v	529	79957	22	-12	10	-6	16	0	0	8	1	6	0	0	0	0	4	4	2	2	0	4
Hungry_Donkey_bar_English_2	119	3	<?xml version="1.0"?>\n<Clock xmlns:dt="urn:schemas-microsoft-com:datatypes"><Description dt:dt="string">E-Prime Primary Realtime Clock</Description><StartTime><Timestamp dt:dt="int">0</Timestamp><DateUtc dt:dt="string">2015-07-13T15:59:29Z</DateUtc></StartTime><FrequencyChanges><FrequencyChange><Frequency dt:dt="r8">3507685</Frequency><Timestamp dt:dt="r8">1818290353131</Timestamp><Current dt:dt="r8">0</Current><DateUtc dt:dt="string">2015-07-13T15:59:29Z</DateUtc></FrequencyChange></FrequencyChanges></Clock>\n	Hungry_Donkey_bar_English_2-119-3	60.017	-136	1.0.0.18	1	1519854800	Standard	2.0.10.353	2.0.10.353	07-13-2015	7/13/2015 3:59:29 PM	11:59:29	2.0.10.248	7	Bar63-37.bmp	67	4	?	0r_4g.bmp	0r_4g.bmp	0r_2g.bmp	0r_2g.bmp				0r_2g.bmp	TrialProc	TrialList	0	cvbn	-999999	17	81994	0	n	2139	84133	24	-12	12	-6	16	0	2	6	1	7	0	0	0	0	4	4	2	2	0	2
Hungry_Donkey_bar_English_2	119	3	<?xml version="1.0"?>\n<Clock xmlns:dt="urn:schemas-microsoft-com:datatypes"><Description dt:dt="string">E-Prime Primary Realtime Clock</Description><StartTime><Timestamp dt:dt="int">0</Timestamp><DateUtc dt:dt="string">2015-07-13T15:59:29Z</DateUtc></StartTime><FrequencyChanges><FrequencyChange><Frequency dt:dt="r8">3507685</Frequency><Timestamp dt:dt="r8">1818290353131</Timestamp><Current dt:dt="r8">0</Current><DateUtc dt:dt="string">2015-07-13T15:59:29Z</DateUtc></FrequencyChange></FrequencyChanges></Clock>\n	Hungry_Donkey_bar_English_2-119-3	60.017	-136	1.0.0.18	1	1519854800	Standard	2.0.10.353	2.0.10.353	07-13-2015	7/13/2015 3:59:29 PM	11:59:29	2.0.10.248	8	Bar25-75.bmp	31	2	?	8r_4g.bmp	50r_4g.bmp	1r_2g.bmp	10r_2g.bmp		50r_4g.bmp			TrialProc	TrialList	0	cvbn	-999999	15	86159	0	v	1718	87877	28	-62	-34	-6	-30	0	2	1	1	8	-8	-50	-1	-10	4	4	2	2	-50	4
Hungry_Donkey_bar_English_2	119	3	<?xml version="1.0"?>\n<Clock xmlns:dt="urn:schemas-microsoft-com:datatypes"><Description dt:dt="string">E-Prime Primary Realtime Clock</Description><StartTime><Timestamp dt:dt="int">0</Timestamp><DateUtc dt:dt="string">2015-07-13T15:59:29Z</DateUtc></StartTime><FrequencyChanges><FrequencyChange><Frequency dt:dt="r8">3507685</Frequency><Timestamp dt:dt="r8">1818290353131</Timestamp><Current dt:dt="r8">0</Current><DateUtc dt:dt="string">2015-07-13T15:59:29Z</DateUtc></FrequencyChange></FrequencyChanges></Clock>\n	Hungry_Donkey_bar_English_2-119-3	60.017	-136	1.0.0.18	1	1519854800	Standard	2.0.10.353	2.0.10.353	07-13-2015	7/13/2015 3:59:29 PM	11:59:29	2.0.10.248	9	Bar37-63.bmp	33	3	?	0r_4g.bmp	0r_4g.bmp	0r_2g.bmp	0r_2g.bmp			0r_2g.bmp		TrialProc	TrialList	0	cvbn	-999999	16	89908	0	b	2113	92021	30	-62	-32	-6	-30	2	2	10	1	9	0	0	0	0	4	4	2	2	0	2
Hungry_Donkey_bar_English_2	119	3	<?xml version="1.0"?>\n<Clock xmlns:dt="urn:schemas-microsoft-com:datatypes"><Description dt:dt="string">E-Prime Primary Realtime Clock</Description><StartTime><Timestamp dt:dt="int">0</Timestamp><DateUtc dt:dt="string">2015-07-13T15:59:29Z</DateUtc></StartTime><FrequencyChanges><FrequencyChange><Frequency dt:dt="r8">3507685</Frequency><Timestamp dt:dt="r8">1818290353131</Timestamp><Current dt:dt="r8">0</Current><DateUtc dt:dt="string">2015-07-13T15:59:29Z</DateUtc></FrequencyChange></FrequencyChanges></Clock>\n	Hungry_Donkey_bar_English_2-119-3	60.017	-136	1.0.0.18	1	1519854800	Standard	2.0.10.353	2.0.10.353	07-13-2015	7/13/2015 3:59:29 PM	11:59:29	2.0.10.248	10	Bar37-63.bmp	34	4	?	10r_4g.bmp	0r_4g.bmp	2r_2g.bmp	0r_2g.bmp				0r_2g.bmp	TrialProc	TrialList	0	cvbn	-999999	16	94057	0	n	1308	95365	32	-62	-30	-6	-30	2	4	3	1	10	-10	0	-2	0	4	4	2	2	0	2
Hungry_Donkey_bar_English_2	119	3	<?xml version="1.0"?>\n<Clock xmlns:dt="urn:schemas-microsoft-com:datatypes"><Description dt:dt="string">E-Prime Primary Realtime Clock</Description><StartTime><Timestamp dt:dt="int">0</Timestamp><DateUtc dt:dt="string">2015-07-13T15:59:29Z</DateUtc></StartTime><FrequencyChanges><FrequencyChange><Frequency dt:dt="r8">3507685</Frequency><Timestamp dt:dt="r8">1818290353131</Timestamp><Current dt:dt="r8">0</Current><DateUtc dt:dt="string">2015-07-13T15:59:29Z</DateUtc></FrequencyChange></FrequencyChanges></Clock>\n	Hungry_Donkey_bar_English_2-119-3	60.017	-136	1.0.0.18	1	1519854800	Standard	2.0.10.353	2.0.10.353	07-13-2015	7/13/2015 3:59:29 PM	11:59:29	2.0.10.248	11	Bar37-63.bmp	33	1	?	10r_4g.bmp	0r_4g.bmp	2r_2g.bmp	0r_2g.bmp	10r_4g.bmp				TrialProc	TrialList	0	cvbn	-999999	16	97389	0	c	840	98229	36	-72	-36	-12	-30	2	4	4	2	11	-10	0	-2	0	4	4	2	2	-10	4
Hungry_Donkey_bar_English_2	119	3	<?xml version="1.0"?>\n<Clock xmlns:dt="urn:schemas-microsoft-com:datatypes"><Description dt:dt="string">E-Prime Primary Realtime Clock</Description><StartTime><Timestamp dt:dt="int">0</Timestamp><DateUtc dt:dt="string">2015-07-13T15:59:29Z</DateUtc></StartTime><FrequencyChanges><FrequencyChange><Frequency dt:dt="r8">3507685</Frequency><Timestamp dt:dt="r8">1818290353131</Timestamp><Current dt:dt="r8">0</Current><DateUtc dt:dt="string">2015-07-13T15:59:29Z</DateUtc></FrequencyChange></FrequencyChanges></Clock>\n	Hungry_Donkey_bar_English_2-119-3	60.017	-136	1.0.0.18	1	1519854800	Standard	2.0.10.353	2.0.10.353	07-13-2015	7/13/2015 3:59:29 PM	11:59:29	2.0.10.248	12	Bar37-63.bmp	35	4	?	0r_4g.bmp	0r_4g.bmp	0r_2g.bmp	0r_2g.bmp				0r_2g.bmp	TrialProc	TrialList	0	cvbn	-999999	16	100255	0	n	1237	101492	38	-72	-34	-12	-30	2	6	10	2	12	0	0	0	0	4	4	2	2	0	2
Hungry_Donkey_bar_English_2	119	3	<?xml version="1.0"?>\n<Clock xmlns:dt="urn:schemas-microsoft-com:datatypes"><Description dt:dt="string">E-Prime Primary Realtime Clock</Description><StartTime><Timestamp dt:dt="int">0</Timestamp><DateUtc dt:dt="string">2015-07-13T15:59:29Z</DateUtc></StartTime><FrequencyChanges><FrequencyChange><Frequency dt:dt="r8">3507685</Frequency><Timestamp dt:dt="r8">1818290353131</Timestamp><Current dt:dt="r8">0</Current><DateUtc dt:dt="string">2015-07-13T15:59:29Z</DateUtc></FrequencyChange></FrequencyChanges></Clock>\n	Hungry_Donkey_bar_English_2-119-3	60.017	-136	1.0.0.18	1	1519854800	Standard	2.0.10.353	2.0.10.353	07-13-2015	7/13/2015 3:59:29 PM	11:59:29	2.0.10.248	13	Bar37-63.bmp	35	3	?	8r_4g.bmp	50r_4g.bmp	1r_2g.bmp	10r_2g.bmp			1r_2g.bmp		TrialProc	TrialList	0	cvbn	-999999	16	103521	0	b	1443	104964	40	-73	-33	-12	-30	3	6	1	2	13	-8	-50	-1	-10	4	4	2	2	-1	2
Hungry_Donkey_bar_English_2	119	3	<?xml version="1.0"?>\n<Clock xmlns:dt="urn:schemas-microsoft-com:datatypes"><Description dt:dt="string">E-Prime Primary Realtime Clock</Description><StartTime><Timestamp dt:dt="int">0</Timestamp><DateUtc dt:dt="string">2015-07-13T15:59:29Z</DateUtc></StartTime><FrequencyChanges><FrequencyChange><Frequency dt:dt="r8">3507685</Frequency><Timestamp dt:dt="r8">1818290353131</Timestamp><Current dt:dt="r8">0</Current><DateUtc dt:dt="string">2015-07-13T15:59:29Z</DateUtc></FrequencyChange></FrequencyChanges></Clock>\n	Hungry_Donkey_bar_English_2-119-3	60.017	-136	1.0.0.18	1	1519854800	Standard	2.0.10.353	2.0.10.353	07-13-2015	7/13/2015 3:59:29 PM	11:59:29	2.0.10.248	14	Bar37-63.bmp	38	2	?	0r_4g.bmp	0r_4g.bmp	0r_2g.bmp	0r_2g.bmp		0r_4g.bmp			TrialProc	TrialList	0	cvbn	-999999	16	107003	0	v	1209	108212	44	-73	-29	-12	-26	3	6	8	2	14	0	0	0	0	4	4	2	2	0	4
Hungry_Donkey_bar_English_2	119	3	<?xml version="1.0"?>\n<Clock xmlns:dt="urn:schemas-microsoft-com:datatypes"><Description dt:dt="string">E-Prime Primary Realtime Clock</Description><StartTime><Timestamp dt:dt="int">0</Timestamp><DateUtc dt:dt="string">2015-07-13T15:59:29Z</DateUtc></StartTime><FrequencyChanges><FrequencyChange><Frequency dt:dt="r8">3507685</Frequency><Timestamp dt:dt="r8">1818290353131</Timestamp><Current dt:dt="r8">0</Current><DateUtc dt:dt="string">2015-07-13T15:59:29Z</DateUtc></FrequencyChange></FrequencyChanges></Clock>\n	Hungry_Donkey_bar_English_2-119-3	60.017	-136	1.0.0.18	1	1519854800	Standard	2.0.10.353	2.0.10.353	07-13-2015	7/13/2015 3:59:29 PM	11:59:29	2.0.10.248	15	Bar37-63.bmp	40	2	?	10r_4g.bmp	0r_4g.bmp	2r_2g.bmp	0r_2g.bmp		0r_4g.bmp			TrialProc	TrialList	0	cvbn	-999999	15	110235	0	v	825	111060	48	-73	-25	-12	-22	3	6	3	2	15	-10	0	-2	0	4	4	2	2	0	4
Hungry_Donkey_bar_English_2	119	3	<?xml version="1.0"?>\n<Clock xmlns:dt="urn:schemas-microsoft-com:datatypes"><Description dt:dt="string">E-Prime Primary Realtime Clock</Description><StartTime><Timestamp dt:dt="int">0</Timestamp><DateUtc dt:dt="string">2015-07-13T15:59:29Z</DateUtc></StartTime><FrequencyChanges><FrequencyChange><Frequency dt:dt="r8">3507685</Frequency><Timestamp dt:dt="r8">1818290353131</Timestamp><Current dt:dt="r8">0</Current><DateUtc dt:dt="string">2015-07-13T15:59:29Z</DateUtc></FrequencyChange></FrequencyChanges></Clock>\n	Hungry_Donkey_bar_English_2-119-3	60.017	-136	1.0.0.18	1	1519854800	Standard	2.0.10.353	2.0.10.353	07-13-2015	7/13/2015 3:59:29 PM	11:59:29	2.0.10.248	16	Bar37-63.bmp	42	2	?	0r_4g.bmp	0r_4g.bmp	0r_2g.bmp	0r_2g.bmp		0r_4g.bmp			TrialProc	TrialList	0	cvbn	-999999	16	113085	0	v	471	113556	52	-73	-21	-12	-18	3	6	6	2	16	0	0	0	0	4	4	2	2	0	4
Hungry_Donkey_bar_English_2	119	3	<?xml version="1.0"?>\n<Clock xmlns:dt="urn:schemas-microsoft-com:datatypes"><Description dt:dt="string">E-Prime Primary Realtime Clock</Description><StartTime><Timestamp dt:dt="int">0</Timestamp><DateUtc dt:dt="string">2015-07-13T15:59:29Z</DateUtc></StartTime><FrequencyChanges><FrequencyChange><Frequency dt:dt="r8">3507685</Frequency><Timestamp dt:dt="r8">1818290353131</Timestamp><Current dt:dt="r8">0</Current><DateUtc dt:dt="string">2015-07-13T15:59:29Z</DateUtc></FrequencyChange></FrequencyChanges></Clock>\n	Hungry_Donkey_bar_English_2-119-3	60.017	-136	1.0.0.18	1	1519854800	Standard	2.0.10.353	2.0.10.353	07-13-2015	7/13/2015 3:59:29 PM	11:59:29	2.0.10.248	17	Bar37-63.bmp	43	2	?	12r_4g.bmp	0r_4g.bmp	3r_2g.bmp	0r_2g.bmp		0r_4g.bmp			TrialProc	TrialList	0	cvbn	-999999	16	115584	0	v	548	116132	56	-73	-17	-12	-14	3	6	5	2	17	-12	0	-3	0	4	4	2	2	0	4
Hungry_Donkey_bar_English_2	119	3	<?xml version="1.0"?>\n<Clock xmlns:dt="urn:schemas-microsoft-com:datatypes"><Description dt:dt="string">E-Prime Primary Realtime Clock</Description><StartTime><Timestamp dt:dt="int">0</Timestamp><DateUtc dt:dt="string">2015-07-13T15:59:29Z</DateUtc></StartTime><FrequencyChanges><FrequencyChange><Frequency dt:dt="r8">3507685</Frequency><Timestamp dt:dt="r8">1818290353131</Timestamp><Current dt:dt="r8">0</Current><DateUtc dt:dt="string">2015-07-13T15:59:29Z</DateUtc></FrequencyChange></FrequencyChanges></Clock>\n	Hungry_Donkey_bar_English_2-119-3	60.017	-136	1.0.0.18	1	1519854800	Standard	2.0.10.353	2.0.10.353	07-13-2015	7/13/2015 3:59:29 PM	11:59:29	2.0.10.248	18	Bar50-50.bmp	44	4	?	0r_4g.bmp	0r_4g.bmp	0r_2g.bmp	0r_2g.bmp				0r_2g.bmp	TrialProc	TrialList	0	cvbn	-999999	16	118166	0	n	701	118867	58	-73	-15	-12	-14	3	8	7	2	18	0	0	0	0	4	4	2	2	0	2
Hungry_Donkey_bar_English_2	119	3	<?xml version="1.0"?>\n<Clock xmlns:dt="urn:schemas-microsoft-com:datatypes"><Description dt:dt="string">E-Prime Primary Realtime Clock</Description><StartTime><Timestamp dt:dt="int">0</Timestamp><DateUtc dt:dt="string">2015-07-13T15:59:29Z</DateUtc></StartTime><FrequencyChanges><FrequencyChange><Frequency dt:dt="r8">3507685</Frequency><Timestamp dt:dt="r8">1818290353131</Timestamp><Current dt:dt="r8">0</Current><DateUtc dt:dt="string">2015-07-13T15:59:29Z</DateUtc></FrequencyChange></FrequencyChanges></Clock>\n	Hungry_Donkey_bar_English_2-119-3	60.017	-136	1.0.0.18	1	1519854800	Standard	2.0.10.353	2.0.10.353	07-13-2015	7/13/2015 3:59:29 PM	11:59:29	2.0.10.248	19	Bar50-50.bmp	46	2	?	10r_4g.bmp	0r_4g.bmp	2r_2g.bmp	0r_2g.bmp		0r_4g.bmp			TrialProc	TrialList	0	cvbn	-999999	16	120899	0	v	640	121539	62	-73	-11	-12	-10	3	8	2	2	19	-10	0	-2	0	4	4	2	2	0	4
Hungry_Donkey_bar_English_2	119	3	<?xml version="1.0"?>\n<Clock xmlns:dt="urn:schemas-microsoft-com:datatypes"><Description dt:dt="string">E-Prime Primary Realtime Clock</Description><StartTime><Timestamp dt:dt="int">0</Timestamp><DateUtc dt:dt="string">2015-07-13T15:59:29Z</DateUtc></StartTime><FrequencyChanges><FrequencyChange><Frequency dt:dt="r8">3507685</Frequency><Timestamp dt:dt="r8">1818290353131</Timestamp><Current dt:dt="r8">0</Current><DateUtc dt:dt="string">2015-07-13T15:59:29Z</DateUtc></FrequencyChange></FrequencyChanges></Clock>\n	Hungry_Donkey_bar_English_2-119-3	60.017	-136	1.0.0.18	1	1519854800	Standard	2.0.10.353	2.0.10.353	07-13-2015	7/13/2015 3:59:29 PM	11:59:29	2.0.10.248	20	Bar50-50.bmp	47	2	?	0r_4g.bmp	0r_4g.bmp	0r_2g.bmp	0r_2g.bmp		0r_4g.bmp			TrialProc	TrialList	0	cvbn	-999999	16	123565	0	v	918	124483	66	-73	-7	-12	-6	3	8	9	2	20	0	0	0	0	4	4	2	2	0	4
Hungry_Donkey_bar_English_2	119	3	<?xml version="1.0"?>\n<Clock xmlns:dt="urn:schemas-microsoft-com:datatypes"><Description dt:dt="string">E-Prime Primary Realtime Clock</Description><StartTime><Timestamp dt:dt="int">0</Timestamp><DateUtc dt:dt="string">2015-07-13T15:59:29Z</DateUtc></StartTime><FrequencyChanges><FrequencyChange><Frequency dt:dt="r8">3507685</Frequency><Timestamp dt:dt="r8">1818290353131</Timestamp><Current dt:dt="r8">0</Current><DateUtc dt:dt="string">2015-07-13T15:59:29Z</DateUtc></FrequencyChange></FrequencyChanges></Clock>\n	Hungry_Donkey_bar_English_2-119-3	60.017	-136	1.0.0.18	1	1519854800	Standard	2.0.10.353	2.0.10.353	07-13-2015	7/13/2015 3:59:29 PM	11:59:29	2.0.10.248	21	Bar50-50.bmp	49	2	?	0r_4g.bmp	0r_4g.bmp	0r_2g.bmp	0r_2g.bmp		0r_4g.bmp			TrialProc	TrialList	0	cvbn	-999999	16	126514	0	v	497	127011	70	-73	-3	-12	-2	3	8	10	3	21	0	0	0	0	4	4	2	2	0	4
Hungry_Donkey_bar_English_2	119	3	<?xml version="1.0"?>\n<Clock xmlns:dt="urn:schemas-microsoft-com:datatypes"><Description dt:dt="string">E-Prime Primary Realtime Clock</Description><StartTime><Timestamp dt:dt="int">0</Timestamp><DateUtc dt:dt="string">2015-07-13T15:59:29Z</DateUtc></StartTime><FrequencyChanges><FrequencyChange><Frequency dt:dt="r8">3507685</Frequency><Timestamp dt:dt="r8">1818290353131</Timestamp><Current dt:dt="r8">0</Current><DateUtc dt:dt="string">2015-07-13T15:59:29Z</DateUtc></FrequencyChange></FrequencyChanges></Clock>\n	Hungry_Donkey_bar_English_2-119-3	60.017	-136	1.0.0.18	1	1519854800	Standard	2.0.10.353	2.0.10.353	07-13-2015	7/13/2015 3:59:29 PM	11:59:29	2.0.10.248	22	Bar50-50.bmp	50	2	?	0r_4g.bmp	0r_4g.bmp	0r_2g.bmp	0r_2g.bmp		0r_4g.bmp			TrialProc	TrialList	0	cvbn	-999999	16	129047	0	v	908	129955	74	-73	1	-12	2	3	8	6	3	22	0	0	0	0	4	4	2	2	0	4
Hungry_Donkey_bar_English_2	119	3	<?xml version="1.0"?>\n<Clock xmlns:dt="urn:schemas-microsoft-com:datatypes"><Description dt:dt="string">E-Prime Primary Realtime Clock</Description><StartTime><Timestamp dt:dt="int">0</Timestamp><DateUtc dt:dt="string">2015-07-13T15:59:29Z</DateUtc></StartTime><FrequencyChanges><FrequencyChange><Frequency dt:dt="r8">3507685</Frequency><Timestamp dt:dt="r8">1818290353131</Timestamp><Current dt:dt="r8">0</Current><DateUtc dt:dt="string">2015-07-13T15:59:29Z</DateUtc></FrequencyChange></FrequencyChanges></Clock>\n	Hungry_Donkey_bar_English_2-119-3	60.017	-136	1.0.0.18	1	1519854800	Standard	2.0.10.353	2.0.10.353	07-13-2015	7/13/2015 3:59:29 PM	11:59:29	2.0.10.248	23	Bar50-50.bmp	51	4	?	0r_4g.bmp	0r_4g.bmp	0r_2g.bmp	0r_2g.bmp				0r_2g.bmp	TrialProc	TrialList	0	cvbn	-999999	16	131979	0	n	1032	133011	76	-73	3	-12	2	3	10	8	3	23	0	0	0	0	4	4	2	2	0	2
Hungry_Donkey_bar_English_2	119	3	<?xml version="1.0"?>\n<Clock xmlns:dt="urn:schemas-microsoft-com:datatypes"><Description dt:dt="string">E-Prime Primary Realtime Clock</Description><StartTime><Timestamp dt:dt="int">0</Timestamp><DateUtc dt:dt="string">2015-07-13T15:59:29Z</DateUtc></StartTime><FrequencyChanges><FrequencyChange><Frequency dt:dt="r8">3507685</Frequency><Timestamp dt:dt="r8">1818290353131</Timestamp><Current dt:dt="r8">0</Current><DateUtc dt:dt="string">2015-07-13T15:59:29Z</DateUtc></FrequencyChange></FrequencyChanges></Clock>\n	Hungry_Donkey_bar_English_2-119-3	60.017	-136	1.0.0.18	1	1519854800	Standard	2.0.10.353	2.0.10.353	07-13-2015	7/13/2015 3:59:29 PM	11:59:29	2.0.10.248	24	Bar50-50.bmp	52	2	?	0r_4g.bmp	0r_4g.bmp	0r_2g.bmp	0r_2g.bmp		0r_4g.bmp			TrialProc	TrialList	0	cvbn	-999999	16	135045	0	v	494	135539	80	-73	7	-12	6	3	10	7	3	24	0	0	0	0	4	4	2	2	0	4
Hungry_Donkey_bar_English_2	119	3	<?xml version="1.0"?>\n<Clock xmlns:dt="urn:schemas-microsoft-com:datatypes"><Description dt:dt="string">E-Prime Primary Realtime Clock</Description><StartTime><Timestamp dt:dt="int">0</Timestamp><DateUtc dt:dt="string">2015-07-13T15:59:29Z</DateUtc></StartTime><FrequencyChanges><FrequencyChange><Frequency dt:dt="r8">3507685</Frequency><Timestamp dt:dt="r8">1818290353131</Timestamp><Current dt:dt="r8">0</Current><DateUtc dt:dt="string">2015-07-13T15:59:29Z</DateUtc></FrequencyChange></FrequencyChanges></Clock>\n	Hungry_Donkey_bar_English_2-119-3	60.017	-136	1.0.0.18	1	1519854800	Standard	2.0.10.353	2.0.10.353	07-13-2015	7/13/2015 3:59:29 PM	11:59:29	2.0.10.248	25	Bar37-63.bmp	41	2	?	8r_4g.bmp	50r_4g.bmp	1r_2g.bmp	10r_2g.bmp		50r_4g.bmp			TrialProc	TrialList	0	cvbn	-999999	17	137578	0	v	1096	138674	84	-123	-39	-12	-40	3	10	1	3	25	-8	-50	-1	-10	4	4	2	2	-50	4
Hungry_Donkey_bar_English_2	119	3	<?xml version="1.0"?>\n<Clock xmlns:dt="urn:schemas-microsoft-com:datatypes"><Description dt:dt="string">E-Prime Primary Realtime Clock</Description><StartTime><Timestamp dt:dt="int">0</Timestamp><DateUtc dt:dt="string">2015-07-13T15:59:29Z</DateUtc></StartTime><FrequencyChanges><FrequencyChange><Frequency dt:dt="r8">3507685</Frequency><Timestamp dt:dt="r8">1818290353131</Timestamp><Current dt:dt="r8">0</Current><DateUtc dt:dt="string">2015-07-13T15:59:29Z</DateUtc></FrequencyChange></FrequencyChanges></Clock>\n	Hungry_Donkey_bar_English_2-119-3	60.017	-136	1.0.0.18	1	1519854800	Standard	2.0.10.353	2.0.10.353	07-13-2015	7/13/2015 3:59:29 PM	11:59:29	2.0.10.248	26	Bar37-63.bmp	41	3	?	10r_4g.bmp	0r_4g.bmp	2r_2g.bmp	0r_2g.bmp			2r_2g.bmp		TrialProc	TrialList	0	cvbn	-999999	16	140710	0	b	1420	142130	86	-125	-39	-12	-40	3	10	2	3	26	-10	0	-2	0	4	4	2	2	-2	2
Hungry_Donkey_bar_English_2	119	3	<?xml version="1.0"?>\n<Clock xmlns:dt="urn:schemas-microsoft-com:datatypes"><Description dt:dt="string">E-Prime Primary Realtime Clock</Description><StartTime><Timestamp dt:dt="int">0</Timestamp><DateUtc dt:dt="string">2015-07-13T15:59:29Z</DateUtc></StartTime><FrequencyChanges><FrequencyChange><Frequency dt:dt="r8">3507685</Frequency><Timestamp dt:dt="r8">1818290353131</Timestamp><Current dt:dt="r8">0</Current><DateUtc dt:dt="string">2015-07-13T15:59:29Z</DateUtc></FrequencyChange></FrequencyChanges></Clock>\n	Hungry_Donkey_bar_English_2-119-3	60.017	-136	1.0.0.18	1	1519854800	Standard	2.0.10.353	2.0.10.353	07-13-2015	7/13/2015 3:59:29 PM	11:59:29	2.0.10.248	27	Bar37-63.bmp	41	4	?	0r_4g.bmp	0r_4g.bmp	0r_2g.bmp	0r_2g.bmp				0r_2g.bmp	TrialProc	TrialList	0	cvbn	-999999	16	144159	0	n	2083	146242	88	-125	-37	-12	-40	3	12	9	3	27	0	0	0	0	4	4	2	2	0	2
Hungry_Donkey_bar_English_2	119	3	<?xml version="1.0"?>\n<Clock xmlns:dt="urn:schemas-microsoft-com:datatypes"><Description dt:dt="string">E-Prime Primary Realtime Clock</Description><StartTime><Timestamp dt:dt="int">0</Timestamp><DateUtc dt:dt="string">2015-07-13T15:59:29Z</DateUtc></StartTime><FrequencyChanges><FrequencyChange><Frequency dt:dt="r8">3507685</Frequency><Timestamp dt:dt="r8">1818290353131</Timestamp><Current dt:dt="r8">0</Current><DateUtc dt:dt="string">2015-07-13T15:59:29Z</DateUtc></FrequencyChange></FrequencyChanges></Clock>\n	Hungry_Donkey_bar_English_2-119-3	60.017	-136	1.0.0.18	1	1519854800	Standard	2.0.10.353	2.0.10.353	07-13-2015	7/13/2015 3:59:29 PM	11:59:29	2.0.10.248	28	Bar37-63.bmp	41	1	?	10r_4g.bmp	0r_4g.bmp	2r_2g.bmp	0r_2g.bmp	10r_4g.bmp				TrialProc	TrialList	0	cvbn	-999999	16	148274	0	c	1056	149330	92	-135	-43	-18	-40	3	12	3	3	28	-10	0	-2	0	4	4	2	2	-10	4
Hungry_Donkey_bar_English_2	119	3	<?xml version="1.0"?>\n<Clock xmlns:dt="urn:schemas-microsoft-com:datatypes"><Description dt:dt="string">E-Prime Primary Realtime Clock</Description><StartTime><Timestamp dt:dt="int">0</Timestamp><DateUtc dt:dt="string">2015-07-13T15:59:29Z</DateUtc></StartTime><FrequencyChanges><FrequencyChange><Frequency dt:dt="r8">3507685</Frequency><Timestamp dt:dt="r8">1818290353131</Timestamp><Current dt:dt="r8">0</Current><DateUtc dt:dt="string">2015-07-13T15:59:29Z</DateUtc></FrequencyChange></FrequencyChanges></Clock>\n	Hungry_Donkey_bar_English_2-119-3	60.017	-136	1.0.0.18	1	1519854800	Standard	2.0.10.353	2.0.10.353	07-13-2015	7/13/2015 3:59:29 PM	11:59:29	2.0.10.248	29	Bar37-63.bmp	41	4	?	10r_4g.bmp	0r_4g.bmp	2r_2g.bmp	0r_2g.bmp				0r_2g.bmp	TrialProc	TrialList	0	cvbn	-999999	16	151357	0	n	805	152162	94	-135	-41	-18	-40	3	14	4	3	29	-10	0	-2	0	4	4	2	2	0	2
Hungry_Donkey_bar_English_2	119	3	<?xml version="1.0"?>\n<Clock xmlns:dt="urn:schemas-microsoft-com:datatypes"><Description dt:dt="string">E-Prime Primary Realtime Clock</Description><StartTime><Timestamp dt:dt="int">0</Timestamp><DateUtc dt:dt="string">2015-07-13T15:59:29Z</DateUtc></StartTime><FrequencyChanges><FrequencyChange><Frequency dt:dt="r8">3507685</Frequency><Timestamp dt:dt="r8">1818290353131</Timestamp><Current dt:dt="r8">0</Current><DateUtc dt:dt="string">2015-07-13T15:59:29Z</DateUtc></FrequencyChange></FrequencyChanges></Clock>\n	Hungry_Donkey_bar_English_2-119-3	60.017	-136	1.0.0.18	1	1519854800	Standard	2.0.10.353	2.0.10.353	07-13-2015	7/13/2015 3:59:29 PM	11:59:29	2.0.10.248	30	Bar37-63.bmp	42	4	?	12r_4g.bmp	0r_4g.bmp	3r_2g.bmp	0r_2g.bmp				0r_2g.bmp	TrialProc	TrialList	0	cvbn	-999999	16	154189	0	n	1109	155298	96	-135	-39	-18	-40	3	16	5	3	30	-12	0	-3	0	4	4	2	2	0	2
Hungry_Donkey_bar_English_2	119	3	<?xml version="1.0"?>\n<Clock xmlns:dt="urn:schemas-microsoft-com:datatypes"><Description dt:dt="string">E-Prime Primary Realtime Clock</Description><StartTime><Timestamp dt:dt="int">0</Timestamp><DateUtc dt:dt="string">2015-07-13T15:59:29Z</DateUtc></StartTime><FrequencyChanges><FrequencyChange><Frequency dt:dt="r8">3507685</Frequency><Timestamp dt:dt="r8">1818290353131</Timestamp><Current dt:dt="r8">0</Current><DateUtc dt:dt="string">2015-07-13T15:59:29Z</DateUtc></FrequencyChange></FrequencyChanges></Clock>\n	Hungry_Donkey_bar_English_2-119-3	60.017	-136	1.0.0.18	1	1519854800	Standard	2.0.10.353	2.0.10.353	07-13-2015	7/13/2015 3:59:29 PM	11:59:29	2.0.10.248	31	Bar37-63.bmp	43	2	?	0r_4g.bmp	0r_4g.bmp	0r_2g.bmp	0r_2g.bmp		0r_4g.bmp			TrialProc	TrialList	0	cvbn	-999999	16	157322	0	v	472	157794	100	-135	-35	-18	-36	3	16	8	4	31	0	0	0	0	4	4	2	2	0	4
Hungry_Donkey_bar_English_2	119	3	<?xml version="1.0"?>\n<Clock xmlns:dt="urn:schemas-microsoft-com:datatypes"><Description dt:dt="string">E-Prime Primary Realtime Clock</Description><StartTime><Timestamp dt:dt="int">0</Timestamp><DateUtc dt:dt="string">2015-07-13T15:59:29Z</DateUtc></StartTime><FrequencyChanges><FrequencyChange><Frequency dt:dt="r8">3507685</Frequency><Timestamp dt:dt="r8">1818290353131</Timestamp><Current dt:dt="r8">0</Current><DateUtc dt:dt="string">2015-07-13T15:59:29Z</DateUtc></FrequencyChange></FrequencyChanges></Clock>\n	Hungry_Donkey_bar_English_2-119-3	60.017	-136	1.0.0.18	1	1519854800	Standard	2.0.10.353	2.0.10.353	07-13-2015	7/13/2015 3:59:29 PM	11:59:29	2.0.10.248	32	Bar50-50.bmp	44	2	?	0r_4g.bmp	0r_4g.bmp	0r_2g.bmp	0r_2g.bmp		0r_4g.bmp			TrialProc	TrialList	0	cvbn	-999999	16	159821	0	v	564	160385	104	-135	-31	-18	-32	3	16	9	4	32	0	0	0	0	4	4	2	2	0	4
Hungry_Donkey_bar_English_2	119	3	<?xml version="1.0"?>\n<Clock xmlns:dt="urn:schemas-microsoft-com:datatypes"><Description dt:dt="string">E-Prime Primary Realtime Clock</Description><StartTime><Timestamp dt:dt="int">0</Timestamp><DateUtc dt:dt="string">2015-07-13T15:59:29Z</DateUtc></StartTime><FrequencyChanges><FrequencyChange><Frequency dt:dt="r8">3507685</Frequency><Timestamp dt:dt="r8">1818290353131</Timestamp><Current dt:dt="r8">0</Current><DateUtc dt:dt="string">2015-07-13T15:59:29Z</DateUtc></FrequencyChange></FrequencyChanges></Clock>\n	Hungry_Donkey_bar_English_2-119-3	60.017	-136	1.0.0.18	1	1519854800	Standard	2.0.10.353	2.0.10.353	07-13-2015	7/13/2015 3:59:29 PM	11:59:29	2.0.10.248	33	Bar50-50.bmp	44	2	?	12r_4g.bmp	0r_4g.bmp	3r_2g.bmp	0r_2g.bmp		0r_4g.bmp			TrialProc	TrialList	0	cvbn	-999999	16	162420	0	v	525	162945	108	-135	-27	-18	-28	3	16	5	4	33	-12	0	-3	0	4	4	2	2	0	4
Hungry_Donkey_bar_English_2	119	3	<?xml version="1.0"?>\n<Clock xmlns:dt="urn:schemas-microsoft-com:datatypes"><Description dt:dt="string">E-Prime Primary Realtime Clock</Description><StartTime><Timestamp dt:dt="int">0</Timestamp><DateUtc dt:dt="string">2015-07-13T15:59:29Z</DateUtc></StartTime><FrequencyChanges><FrequencyChange><Frequency dt:dt="r8">3507685</Frequency><Timestamp dt:dt="r8">1818290353131</Timestamp><Current dt:dt="r8">0</Current><DateUtc dt:dt="string">2015-07-13T15:59:29Z</DateUtc></FrequencyChange></FrequencyChanges></Clock>\n	Hungry_Donkey_bar_English_2-119-3	60.017	-136	1.0.0.18	1	1519854800	Standard	2.0.10.353	2.0.10.353	07-13-2015	7/13/2015 3:59:29 PM	11:59:29	2.0.10.248	34	Bar50-50.bmp	45	2	?	10r_4g.bmp	0r_4g.bmp	2r_2g.bmp	0r_2g.bmp		0r_4g.bmp			TrialProc	TrialList	0	cvbn	-999999	16	164970	0	v	791	165761	112	-135	-23	-18	-24	3	16	3	4	34	-10	0	-2	0	4	4	2	2	0	4
Hungry_Donkey_bar_English_2	119	3	<?xml version="1.0"?>\n<Clock xmlns:dt="urn:schemas-microsoft-com:datatypes"><Description dt:dt="string">E-Prime Primary Realtime Clock</Description><StartTime><Timestamp dt:dt="int">0</Timestamp><DateUtc dt:dt="string">2015-07-13T15:59:29Z</DateUtc></StartTime><FrequencyChanges><FrequencyChange><Frequency dt:dt="r8">3507685</Frequency><Timestamp dt:dt="r8">1818290353131</Timestamp><Current dt:dt="r8">0</Current><DateUtc dt:dt="string">2015-07-13T15:59:29Z</DateUtc></FrequencyChange></FrequencyChanges></Clock>\n	Hungry_Donkey_bar_English_2-119-3	60.017	-136	1.0.0.18	1	1519854800	Standard	2.0.10.353	2.0.10.353	07-13-2015	7/13/2015 3:59:29 PM	11:59:29	2.0.10.248	35	Bar50-50.bmp	46	2	?	0r_4g.bmp	0r_4g.bmp	0r_2g.bmp	0r_2g.bmp		0r_4g.bmp			TrialProc	TrialList	0	cvbn	-999999	15	167785	0	v	728	168513	116	-135	-19	-18	-20	3	16	10	4	35	0	0	0	0	4	4	2	2	0	4
Hungry_Donkey_bar_English_2	119	3	<?xml version="1.0"?>\n<Clock xmlns:dt="urn:schemas-microsoft-com:datatypes"><Description dt:dt="string">E-Prime Primary Realtime Clock</Description><StartTime><Timestamp dt:dt="int">0</Timestamp><DateUtc dt:dt="string">2015-07-13T15:59:29Z</DateUtc></StartTime><FrequencyChanges><FrequencyChange><Frequency dt:dt="r8">3507685</Frequency><Timestamp dt:dt="r8">1818290353131</Timestamp><Current dt:dt="r8">0</Current><DateUtc dt:dt="string">2015-07-13T15:59:29Z</DateUtc></FrequencyChange></FrequencyChanges></Clock>\n	Hungry_Donkey_bar_English_2-119-3	60.017	-136	1.0.0.18	1	1519854800	Standard	2.0.10.353	2.0.10.353	07-13-2015	7/13/2015 3:59:29 PM	11:59:29	2.0.10.248	36	Bar50-50.bmp	47	2	?	0r_4g.bmp	0r_4g.bmp	0r_2g.bmp	0r_2g.bmp		0r_4g.bmp			TrialProc	TrialList	0	cvbn	-999999	16	170551	0	v	1034	171585	120	-135	-15	-18	-16	3	16	6	4	36	0	0	0	0	4	4	2	2	0	4
Hungry_Donkey_bar_English_2	119	3	<?xml version="1.0"?>\n<Clock xmlns:dt="urn:schemas-microsoft-com:datatypes"><Description dt:dt="string">E-Prime Primary Realtime Clock</Description><StartTime><Timestamp dt:dt="int">0</Timestamp><DateUtc dt:dt="string">2015-07-13T15:59:29Z</DateUtc></StartTime><FrequencyChanges><FrequencyChange><Frequency dt:dt="r8">3507685</Frequency><Timestamp dt:dt="r8">1818290353131</Timestamp><Current dt:dt="r8">0</Current><DateUtc dt:dt="string">2015-07-13T15:59:29Z</DateUtc></FrequencyChange></FrequencyChanges></Clock>\n	Hungry_Donkey_bar_English_2-119-3	60.017	-136	1.0.0.18	1	1519854800	Standard	2.0.10.353	2.0.10.353	07-13-2015	7/13/2015 3:59:29 PM	11:59:29	2.0.10.248	37	Bar50-50.bmp	48	2	?	10r_4g.bmp	0r_4g.bmp	2r_2g.bmp	0r_2g.bmp		0r_4g.bmp			TrialProc	TrialList	0	cvbn	-999999	16	173617	0	v	464	174081	124	-135	-11	-18	-12	3	16	2	4	37	-10	0	-2	0	4	4	2	2	0	4
Hungry_Donkey_bar_English_2	119	3	<?xml version="1.0"?>\n<Clock xmlns:dt="urn:schemas-microsoft-com:datatypes"><Description dt:dt="string">E-Prime Primary Realtime Clock</Description><StartTime><Timestamp dt:dt="int">0</Timestamp><DateUtc dt:dt="string">2015-07-13T15:59:29Z</DateUtc></StartTime><FrequencyChanges><FrequencyChange><Frequency dt:dt="r8">3507685</Frequency><Timestamp dt:dt="r8">1818290353131</Timestamp><Current dt:dt="r8">0</Current><DateUtc dt:dt="string">2015-07-13T15:59:29Z</DateUtc></FrequencyChange></FrequencyChanges></Clock>\n	Hungry_Donkey_bar_English_2-119-3	60.017	-136	1.0.0.18	1	1519854800	Standard	2.0.10.353	2.0.10.353	07-13-2015	7/13/2015 3:59:29 PM	11:59:29	2.0.10.248	38	Bar50-50.bmp	48	4	?	0r_4g.bmp	0r_4g.bmp	0r_2g.bmp	0r_2g.bmp				0r_2g.bmp	TrialProc	TrialList	0	cvbn	-999999	16	176116	0	n	413	176529	126	-135	-9	-18	-12	3	18	7	4	38	0	0	0	0	4	4	2	2	0	2
Hungry_Donkey_bar_English_2	119	3	<?xml version="1.0"?>\n<Clock xmlns:dt="urn:schemas-microsoft-com:datatypes"><Description dt:dt="string">E-Prime Primary Realtime Clock</Description><StartTime><Timestamp dt:dt="int">0</Timestamp><DateUtc dt:dt="string">2015-07-13T15:59:29Z</DateUtc></StartTime><FrequencyChanges><FrequencyChange><Frequency dt:dt="r8">3507685</Frequency><Timestamp dt:dt="r8">1818290353131</Timestamp><Current dt:dt="r8">0</Current><DateUtc dt:dt="string">2015-07-13T15:59:29Z</DateUtc></FrequencyChange></FrequencyChanges></Clock>\n	Hungry_Donkey_bar_English_2-119-3	60.017	-136	1.0.0.18	1	1519854800	Standard	2.0.10.353	2.0.10.353	07-13-2015	7/13/2015 3:59:29 PM	11:59:29	2.0.10.248	39	Bar37-63.bmp	41	2	?	8r_4g.bmp	50r_4g.bmp	1r_2g.bmp	10r_2g.bmp		50r_4g.bmp			TrialProc	TrialList	0	cvbn	-999999	16	178566	0	v	346	178912	130	-185	-55	-18	-58	3	18	1	4	39	-8	-50	-1	-10	4	4	2	2	-50	4
Hungry_Donkey_bar_English_2	119	3	<?xml version="1.0"?>\n<Clock xmlns:dt="urn:schemas-microsoft-com:datatypes"><Description dt:dt="string">E-Prime Primary Realtime Clock</Description><StartTime><Timestamp dt:dt="int">0</Timestamp><DateUtc dt:dt="string">2015-07-13T15:59:29Z</DateUtc></StartTime><FrequencyChanges><FrequencyChange><Frequency dt:dt="r8">3507685</Frequency><Timestamp dt:dt="r8">1818290353131</Timestamp><Current dt:dt="r8">0</Current><DateUtc dt:dt="string">2015-07-13T15:59:29Z</DateUtc></FrequencyChange></FrequencyChanges></Clock>\n	Hungry_Donkey_bar_English_2-119-3	60.017	-136	1.0.0.18	1	1519854800	Standard	2.0.10.353	2.0.10.353	07-13-2015	7/13/2015 3:59:29 PM	11:59:29	2.0.10.248	40	Bar37-63.bmp	42	2	?	10r_4g.bmp	0r_4g.bmp	2r_2g.bmp	0r_2g.bmp		0r_4g.bmp			TrialProc	TrialList	0	cvbn	-999999	16	180948	0	v	828	181776	134	-185	-51	-18	-54	3	18	4	4	40	-10	0	-2	0	4	4	2	2	0	4
Hungry_Donkey_bar_English_2	119	3	<?xml version="1.0"?>\n<Clock xmlns:dt="urn:schemas-microsoft-com:datatypes"><Description dt:dt="string">E-Prime Primary Realtime Clock</Description><StartTime><Timestamp dt:dt="int">0</Timestamp><DateUtc dt:dt="string">2015-07-13T15:59:29Z</DateUtc></StartTime><FrequencyChanges><FrequencyChange><Frequency dt:dt="r8">3507685</Frequency><Timestamp dt:dt="r8">1818290353131</Timestamp><Current dt:dt="r8">0</Current><DateUtc dt:dt="string">2015-07-13T15:59:29Z</DateUtc></FrequencyChange></FrequencyChanges></Clock>\n	Hungry_Donkey_bar_English_2-119-3	60.017	-136	1.0.0.18	1	1519854800	Standard	2.0.10.353	2.0.10.353	07-13-2015	7/13/2015 3:59:29 PM	11:59:29	2.0.10.248	41	Bar37-63.bmp	43	2	?	0r_4g.bmp	0r_4g.bmp	0r_2g.bmp	0r_2g.bmp		0r_4g.bmp			TrialProc	TrialList	0	cvbn	-999999	16	183814	0	v	378	184192	138	-185	-47	-18	-50	3	18	6	5	41	0	0	0	0	4	4	2	2	0	4
Hungry_Donkey_bar_English_2	119	3	<?xml version="1.0"?>\n<Clock xmlns:dt="urn:schemas-microsoft-com:datatypes"><Description dt:dt="string">E-Prime Primary Realtime Clock</Description><StartTime><Timestamp dt:dt="int">0</Timestamp><DateUtc dt:dt="string">2015-07-13T15:59:29Z</DateUtc></StartTime><FrequencyChanges><FrequencyChange><Frequency dt:dt="r8">3507685</Frequency><Timestamp dt:dt="r8">1818290353131</Timestamp><Current dt:dt="r8">0</Current><DateUtc dt:dt="string">2015-07-13T15:59:29Z</DateUtc></FrequencyChange></FrequencyChanges></Clock>\n	Hungry_Donkey_bar_English_2-119-3	60.017	-136	1.0.0.18	1	1519854800	Standard	2.0.10.353	2.0.10.353	07-13-2015	7/13/2015 3:59:29 PM	11:59:29	2.0.10.248	42	Bar37-63.bmp	43	2	?	10r_4g.bmp	0r_4g.bmp	2r_2g.bmp	0r_2g.bmp		0r_4g.bmp			TrialProc	TrialList	0	cvbn	-999999	16	186230	0	v	426	186656	142	-185	-43	-18	-46	3	18	3	5	42	-10	0	-2	0	4	4	2	2	0	4
Hungry_Donkey_bar_English_2	119	3	<?xml version="1.0"?>\n<Clock xmlns:dt="urn:schemas-microsoft-com:datatypes"><Description dt:dt="string">E-Prime Primary Realtime Clock</Description><StartTime><Timestamp dt:dt="int">0</Timestamp><DateUtc dt:dt="string">2015-07-13T15:59:29Z</DateUtc></StartTime><FrequencyChanges><FrequencyChange><Frequency dt:dt="r8">3507685</Frequency><Timestamp dt:dt="r8">1818290353131</Timestamp><Current dt:dt="r8">0</Current><DateUtc dt:dt="string">2015-07-13T15:59:29Z</DateUtc></FrequencyChange></FrequencyChanges></Clock>\n	Hungry_Donkey_bar_English_2-119-3	60.017	-136	1.0.0.18	1	1519854800	Standard	2.0.10.353	2.0.10.353	07-13-2015	7/13/2015 3:59:29 PM	11:59:29	2.0.10.248	43	Bar50-50.bmp	44	2	?	0r_4g.bmp	0r_4g.bmp	0r_2g.bmp	0r_2g.bmp		0r_4g.bmp			TrialProc	TrialList	0	cvbn	-999999	16	188696	0	v	392	189088	146	-185	-39	-18	-42	3	18	10	5	43	0	0	0	0	4	4	2	2	0	4
Hungry_Donkey_bar_English_2	119	3	<?xml version="1.0"?>\n<Clock xmlns:dt="urn:schemas-microsoft-com:datatypes"><Description dt:dt="string">E-Prime Primary Realtime Clock</Description><StartTime><Timestamp dt:dt="int">0</Timestamp><DateUtc dt:dt="string">2015-07-13T15:59:29Z</DateUtc></StartTime><FrequencyChanges><FrequencyChange><Frequency dt:dt="r8">3507685</Frequency><Timestamp dt:dt="r8">1818290353131</Timestamp><Current dt:dt="r8">0</Current><DateUtc dt:dt="string">2015-07-13T15:59:29Z</DateUtc></FrequencyChange></FrequencyChanges></Clock>\n	Hungry_Donkey_bar_English_2-119-3	60.017	-136	1.0.0.18	1	1519854800	Standard	2.0.10.353	2.0.10.353	07-13-2015	7/13/2015 3:59:29 PM	11:59:29	2.0.10.248	44	Bar37-63.bmp	39	2	?	8r_4g.bmp	50r_4g.bmp	1r_2g.bmp	10r_2g.bmp		50r_4g.bmp			TrialProc	TrialList	0	cvbn	-999999	16	191112	0	v	552	191664	150	-235	-85	-18	-88	3	18	1	5	44	-8	-50	-1	-10	4	4	2	2	-50	4
Hungry_Donkey_bar_English_2	119	3	<?xml version="1.0"?>\n<Clock xmlns:dt="urn:schemas-microsoft-com:datatypes"><Description dt:dt="string">E-Prime Primary Realtime Clock</Description><StartTime><Timestamp dt:dt="int">0</Timestamp><DateUtc dt:dt="string">2015-07-13T15:59:29Z</DateUtc></StartTime><FrequencyChanges><FrequencyChange><Frequency dt:dt="r8">3507685</Frequency><Timestamp dt:dt="r8">1818290353131</Timestamp><Current dt:dt="r8">0</Current><DateUtc dt:dt="string">2015-07-13T15:59:29Z</DateUtc></FrequencyChange></FrequencyChanges></Clock>\n	Hungry_Donkey_bar_English_2-119-3	60.017	-136	1.0.0.18	1	1519854800	Standard	2.0.10.353	2.0.10.353	07-13-2015	7/13/2015 3:59:29 PM	11:59:29	2.0.10.248	45	Bar37-63.bmp	39	4	?	12r_4g.bmp	0r_4g.bmp	3r_2g.bmp	0r_2g.bmp				0r_2g.bmp	TrialProc	TrialList	0	cvbn	-999999	16	193695	0	n	1089	194784	152	-235	-83	-18	-88	3	20	5	5	45	-12	0	-3	0	4	4	2	2	0	2
Hungry_Donkey_bar_English_2	119	3	<?xml version="1.0"?>\n<Clock xmlns:dt="urn:schemas-microsoft-com:datatypes"><Description dt:dt="string">E-Prime Primary Realtime Clock</Description><StartTime><Timestamp dt:dt="int">0</Timestamp><DateUtc dt:dt="string">2015-07-13T15:59:29Z</DateUtc></StartTime><FrequencyChanges><FrequencyChange><Frequency dt:dt="r8">3507685</Frequency><Timestamp dt:dt="r8">1818290353131</Timestamp><Current dt:dt="r8">0</Current><DateUtc dt:dt="string">2015-07-13T15:59:29Z</DateUtc></FrequencyChange></FrequencyChanges></Clock>\n	Hungry_Donkey_bar_English_2-119-3	60.017	-136	1.0.0.18	1	1519854800	Standard	2.0.10.353	2.0.10.353	07-13-2015	7/13/2015 3:59:29 PM	11:59:29	2.0.10.248	46	Bar37-63.bmp	40	4	?	0r_4g.bmp	0r_4g.bmp	0r_2g.bmp	0r_2g.bmp				0r_2g.bmp	TrialProc	TrialList	0	cvbn	-999999	16	196810	0	n	501	197311	154	-235	-81	-18	-88	3	22	8	5	46	0	0	0	0	4	4	2	2	0	2
Hungry_Donkey_bar_English_2	119	3	<?xml version="1.0"?>\n<Clock xmlns:dt="urn:schemas-microsoft-com:datatypes"><Description dt:dt="string">E-Prime Primary Realtime Clock</Description><StartTime><Timestamp dt:dt="int">0</Timestamp><DateUtc dt:dt="string">2015-07-13T15:59:29Z</DateUtc></StartTime><FrequencyChanges><FrequencyChange><Frequency dt:dt="r8">3507685</Frequency><Timestamp dt:dt="r8">1818290353131</Timestamp><Current dt:dt="r8">0</Current><DateUtc dt:dt="string">2015-07-13T15:59:29Z</DateUtc></FrequencyChange></FrequencyChanges></Clock>\n	Hungry_Donkey_bar_English_2-119-3	60.017	-136	1.0.0.18	1	1519854800	Standard	2.0.10.353	2.0.10.353	07-13-2015	7/13/2015 3:59:29 PM	11:59:29	2.0.10.248	47	Bar37-63.bmp	40	4	?	10r_4g.bmp	0r_4g.bmp	2r_2g.bmp	0r_2g.bmp				0r_2g.bmp	TrialProc	TrialList	0	cvbn	-999999	16	199343	0	n	480	199823	156	-235	-79	-18	-88	3	24	2	5	47	-10	0	-2	0	4	4	2	2	0	2
Hungry_Donkey_bar_English_2	119	3	<?xml version="1.0"?>\n<Clock xmlns:dt="urn:schemas-microsoft-com:datatypes"><Description dt:dt="string">E-Prime Primary Realtime Clock</Description><StartTime><Timestamp dt:dt="int">0</Timestamp><DateUtc dt:dt="string">2015-07-13T15:59:29Z</DateUtc></StartTime><FrequencyChanges><FrequencyChange><Frequency dt:dt="r8">3507685</Frequency><Timestamp dt:dt="r8">1818290353131</Timestamp><Current dt:dt="r8">0</Current><DateUtc dt:dt="string">2015-07-13T15:59:29Z</DateUtc></FrequencyChange></FrequencyChanges></Clock>\n	Hungry_Donkey_bar_English_2-119-3	60.017	-136	1.0.0.18	1	1519854800	Standard	2.0.10.353	2.0.10.353	07-13-2015	7/13/2015 3:59:29 PM	11:59:29	2.0.10.248	48	Bar37-63.bmp	40	4	?	0r_4g.bmp	0r_4g.bmp	0r_2g.bmp	0r_2g.bmp				0r_2g.bmp	TrialProc	TrialList	0	cvbn	-999999	16	201859	0	n	444	202303	158	-235	-77	-18	-88	3	26	7	5	48	0	0	0	0	4	4	2	2	0	2
Hungry_Donkey_bar_English_2	119	3	<?xml version="1.0"?>\n<Clock xmlns:dt="urn:schemas-microsoft-com:datatypes"><Description dt:dt="string">E-Prime Primary Realtime Clock</Description><StartTime><Timestamp dt:dt="int">0</Timestamp><DateUtc dt:dt="string">2015-07-13T15:59:29Z</DateUtc></StartTime><FrequencyChanges><FrequencyChange><Frequency dt:dt="r8">3507685</Frequency><Timestamp dt:dt="r8">1818290353131</Timestamp><Current dt:dt="r8">0</Current><DateUtc dt:dt="string">2015-07-13T15:59:29Z</DateUtc></FrequencyChange></FrequencyChanges></Clock>\n	Hungry_Donkey_bar_English_2-119-3	60.017	-136	1.0.0.18	1	1519854800	Standard	2.0.10.353	2.0.10.353	07-13-2015	7/13/2015 3:59:29 PM	11:59:29	2.0.10.248	49	Bar37-63.bmp	41	1	?	0r_4g.bmp	0r_4g.bmp	0r_2g.bmp	0r_2g.bmp	0r_4g.bmp				TrialProc	TrialList	0	cvbn	-999999	17	204342	0	c	665	205007	162	-235	-73	-14	-88	3	26	9	5	49	0	0	0	0	4	4	2	2	0	4
Hungry_Donkey_bar_English_2	119	3	<?xml version="1.0"?>\n<Clock xmlns:dt="urn:schemas-microsoft-com:datatypes"><Description dt:dt="string">E-Prime Primary Realtime Clock</Description><StartTime><Timestamp dt:dt="int">0</Timestamp><DateUtc dt:dt="string">2015-07-13T15:59:29Z</DateUtc></StartTime><FrequencyChanges><FrequencyChange><Frequency dt:dt="r8">3507685</Frequency><Timestamp dt:dt="r8">1818290353131</Timestamp><Current dt:dt="r8">0</Current><DateUtc dt:dt="string">2015-07-13T15:59:29Z</DateUtc></FrequencyChange></FrequencyChanges></Clock>\n	Hungry_Donkey_bar_English_2-119-3	60.017	-136	1.0.0.18	1	1519854800	Standard	2.0.10.353	2.0.10.353	07-13-2015	7/13/2015 3:59:29 PM	11:59:29	2.0.10.248	50	Bar37-63.bmp	40	1	?	10r_4g.bmp	0r_4g.bmp	2r_2g.bmp	0r_2g.bmp	10r_4g.bmp				TrialProc	TrialList	0	cvbn	-999999	16	207041	0	c	398	207439	166	-245	-79	-20	-88	3	26	4	5	50	-10	0	-2	0	4	4	2	2	-10	4
Hungry_Donkey_bar_English_2	119	3	<?xml version="1.0"?>\n<Clock xmlns:dt="urn:schemas-microsoft-com:datatypes"><Description dt:dt="string">E-Prime Primary Realtime Clock</Description><StartTime><Timestamp dt:dt="int">0</Timestamp><DateUtc dt:dt="string">2015-07-13T15:59:29Z</DateUtc></StartTime><FrequencyChanges><FrequencyChange><Frequency dt:dt="r8">3507685</Frequency><Timestamp dt:dt="r8">1818290353131</Timestamp><Current dt:dt="r8">0</Current><DateUtc dt:dt="string">2015-07-13T15:59:29Z</DateUtc></FrequencyChange></FrequencyChanges></Clock>\n	Hungry_Donkey_bar_English_2-119-3	60.017	-136	1.0.0.18	1	1519854800	Standard	2.0.10.353	2.0.10.353	07-13-2015	7/13/2015 3:59:29 PM	11:59:29	2.0.10.248	51	Bar37-63.bmp	41	3	?	0r_4g.bmp	0r_4g.bmp	0r_2g.bmp	0r_2g.bmp			0r_2g.bmp		TrialProc	TrialList	0	cvbn	-999999	16	209473	0	b	1182	210655	168	-245	-77	-20	-88	5	26	10	6	51	0	0	0	0	4	4	2	2	0	2
Hungry_Donkey_bar_English_2	119	3	<?xml version="1.0"?>\n<Clock xmlns:dt="urn:schemas-microsoft-com:datatypes"><Description dt:dt="string">E-Prime Primary Realtime Clock</Description><StartTime><Timestamp dt:dt="int">0</Timestamp><DateUtc dt:dt="string">2015-07-13T15:59:29Z</DateUtc></StartTime><FrequencyChanges><FrequencyChange><Frequency dt:dt="r8">3507685</Frequency><Timestamp dt:dt="r8">1818290353131</Timestamp><Current dt:dt="r8">0</Current><DateUtc dt:dt="string">2015-07-13T15:59:29Z</DateUtc></FrequencyChange></FrequencyChanges></Clock>\n	Hungry_Donkey_bar_English_2-119-3	60.017	-136	1.0.0.18	1	1519854800	Standard	2.0.10.353	2.0.10.353	07-13-2015	7/13/2015 3:59:29 PM	11:59:29	2.0.10.248	52	Bar37-63.bmp	41	4	?	12r_4g.bmp	0r_4g.bmp	3r_2g.bmp	0r_2g.bmp				0r_2g.bmp	TrialProc	TrialList	0	cvbn	-999999	16	212689	0	n	398	213087	170	-245	-75	-20	-88	5	28	5	6	52	-12	0	-3	0	4	4	2	2	0	2
Hungry_Donkey_bar_English_2	119	3	<?xml version="1.0"?>\n<Clock xmlns:dt="urn:schemas-microsoft-com:datatypes"><Description dt:dt="string">E-Prime Primary Realtime Clock</Description><StartTime><Timestamp dt:dt="int">0</Timestamp><DateUtc dt:dt="string">2015-07-13T15:59:29Z</DateUtc></StartTime><FrequencyChanges><FrequencyChange><Frequency dt:dt="r8">3507685</Frequency><Timestamp dt:dt="r8">1818290353131</Timestamp><Current dt:dt="r8">0</Current><DateUtc dt:dt="string">2015-07-13T15:59:29Z</DateUtc></FrequencyChange></FrequencyChanges></Clock>\n	Hungry_Donkey_bar_English_2-119-3	60.017	-136	1.0.0.18	1	1519854800	Standard	2.0.10.353	2.0.10.353	07-13-2015	7/13/2015 3:59:29 PM	11:59:29	2.0.10.248	53	Bar37-63.bmp	41	3	?	10r_4g.bmp	0r_4g.bmp	2r_2g.bmp	0r_2g.bmp			2r_2g.bmp		TrialProc	TrialList	0	cvbn	-999999	16	215122	0	b	685	215807	172	-247	-75	-20	-88	5	28	2	6	53	-10	0	-2	0	4	4	2	2	-2	2
Hungry_Donkey_bar_English_2	119	3	<?xml version="1.0"?>\n<Clock xmlns:dt="urn:schemas-microsoft-com:datatypes"><Description dt:dt="string">E-Prime Primary Realtime Clock</Description><StartTime><Timestamp dt:dt="int">0</Timestamp><DateUtc dt:dt="string">2015-07-13T15:59:29Z</DateUtc></StartTime><FrequencyChanges><FrequencyChange><Frequency dt:dt="r8">3507685</Frequency><Timestamp dt:dt="r8">1818290353131</Timestamp><Current dt:dt="r8">0</Current><DateUtc dt:dt="string">2015-07-13T15:59:29Z</DateUtc></FrequencyChange></FrequencyChanges></Clock>\n	Hungry_Donkey_bar_English_2-119-3	60.017	-136	1.0.0.18	1	1519854800	Standard	2.0.10.353	2.0.10.353	07-13-2015	7/13/2015 3:59:29 PM	11:59:29	2.0.10.248	54	Bar37-63.bmp	41	4	?	0r_4g.bmp	0r_4g.bmp	0r_2g.bmp	0r_2g.bmp				0r_2g.bmp	TrialProc	TrialList	0	cvbn	-999999	16	217838	0	n	448	218286	174	-247	-73	-20	-88	5	30	6	6	54	0	0	0	0	4	4	2	2	0	2
Hungry_Donkey_bar_English_2	119	3	<?xml version="1.0"?>\n<Clock xmlns:dt="urn:schemas-microsoft-com:datatypes"><Description dt:dt="string">E-Prime Primary Realtime Clock</Description><StartTime><Timestamp dt:dt="int">0</Timestamp><DateUtc dt:dt="string">2015-07-13T15:59:29Z</DateUtc></StartTime><FrequencyChanges><FrequencyChange><Frequency dt:dt="r8">3507685</Frequency><Timestamp dt:dt="r8">1818290353131</Timestamp><Current dt:dt="r8">0</Current><DateUtc dt:dt="string">2015-07-13T15:59:29Z</DateUtc></FrequencyChange></FrequencyChanges></Clock>\n	Hungry_Donkey_bar_English_2-119-3	60.017	-136	1.0.0.18	1	1519854800	Standard	2.0.10.353	2.0.10.353	07-13-2015	7/13/2015 3:59:29 PM	11:59:29	2.0.10.248	55	Bar37-63.bmp	42	2	?	10r_4g.bmp	0r_4g.bmp	2r_2g.bmp	0r_2g.bmp		0r_4g.bmp			TrialProc	TrialList	0	cvbn	-999999	16	220320	0	v	366	220686	178	-247	-69	-20	-84	5	30	3	6	55	-10	0	-2	0	4	4	2	2	0	4
Hungry_Donkey_bar_English_2	119	3	<?xml version="1.0"?>\n<Clock xmlns:dt="urn:schemas-microsoft-com:datatypes"><Description dt:dt="string">E-Prime Primary Realtime Clock</Description><StartTime><Timestamp dt:dt="int">0</Timestamp><DateUtc dt:dt="string">2015-07-13T15:59:29Z</DateUtc></StartTime><FrequencyChanges><FrequencyChange><Frequency dt:dt="r8">3507685</Frequency><Timestamp dt:dt="r8">1818290353131</Timestamp><Current dt:dt="r8">0</Current><DateUtc dt:dt="string">2015-07-13T15:59:29Z</DateUtc></FrequencyChange></FrequencyChanges></Clock>\n	Hungry_Donkey_bar_English_2-119-3	60.017	-136	1.0.0.18	1	1519854800	Standard	2.0.10.353	2.0.10.353	07-13-2015	7/13/2015 3:59:29 PM	11:59:29	2.0.10.248	56	Bar37-63.bmp	42	4	?	0r_4g.bmp	0r_4g.bmp	0r_2g.bmp	0r_2g.bmp				0r_2g.bmp	TrialProc	TrialList	0	cvbn	-999999	16	222720	0	n	2462	225182	180	-247	-67	-20	-84	5	32	8	6	56	0	0	0	0	4	4	2	2	0	2
Hungry_Donkey_bar_English_2	119	3	<?xml version="1.0"?>\n<Clock xmlns:dt="urn:schemas-microsoft-com:datatypes"><Description dt:dt="string">E-Prime Primary Realtime Clock</Description><StartTime><Timestamp dt:dt="int">0</Timestamp><DateUtc dt:dt="string">2015-07-13T15:59:29Z</DateUtc></StartTime><FrequencyChanges><FrequencyChange><Frequency dt:dt="r8">3507685</Frequency><Timestamp dt:dt="r8">1818290353131</Timestamp><Current dt:dt="r8">0</Current><DateUtc dt:dt="string">2015-07-13T15:59:29Z</DateUtc></FrequencyChange></FrequencyChanges></Clock>\n	Hungry_Donkey_bar_English_2-119-3	60.017	-136	1.0.0.18	1	1519854800	Standard	2.0.10.353	2.0.10.353	07-13-2015	7/13/2015 3:59:29 PM	11:59:29	2.0.10.248	57	Bar37-63.bmp	43	2	?	0r_4g.bmp	0r_4g.bmp	0r_2g.bmp	0r_2g.bmp		0r_4g.bmp			TrialProc	TrialList	0	cvbn	-999999	16	227218	0	v	1644	228862	184	-247	-63	-20	-80	5	32	7	6	57	0	0	0	0	4	4	2	2	0	4
Hungry_Donkey_bar_English_2	119	3	<?xml version="1.0"?>\n<Clock xmlns:dt="urn:schemas-microsoft-com:datatypes"><Description dt:dt="string">E-Prime Primary Realtime Clock</Description><StartTime><Timestamp dt:dt="int">0</Timestamp><DateUtc dt:dt="string">2015-07-13T15:59:29Z</DateUtc></StartTime><FrequencyChanges><FrequencyChange><Frequency dt:dt="r8">3507685</Frequency><Timestamp dt:dt="r8">1818290353131</Timestamp><Current dt:dt="r8">0</Current><DateUtc dt:dt="string">2015-07-13T15:59:29Z</DateUtc></FrequencyChange></FrequencyChanges></Clock>\n	Hungry_Donkey_bar_English_2-119-3	60.017	-136	1.0.0.18	1	1519854800	Standard	2.0.10.353	2.0.10.353	07-13-2015	7/13/2015 3:59:29 PM	11:59:29	2.0.10.248	58	Bar37-63.bmp	43	2	?	0r_4g.bmp	0r_4g.bmp	0r_2g.bmp	0r_2g.bmp		0r_4g.bmp			TrialProc	TrialList	0	cvbn	-999999	17	230901	0	v	985	231886	188	-247	-59	-20	-76	5	32	9	6	58	0	0	0	0	4	4	2	2	0	4
Hungry_Donkey_bar_English_2	119	3	<?xml version="1.0"?>\n<Clock xmlns:dt="urn:schemas-microsoft-com:datatypes"><Description dt:dt="string">E-Prime Primary Realtime Clock</Description><StartTime><Timestamp dt:dt="int">0</Timestamp><DateUtc dt:dt="string">2015-07-13T15:59:29Z</DateUtc></StartTime><FrequencyChanges><FrequencyChange><Frequency dt:dt="r8">3507685</Frequency><Timestamp dt:dt="r8">1818290353131</Timestamp><Current dt:dt="r8">0</Current><DateUtc dt:dt="string">2015-07-13T15:59:29Z</DateUtc></FrequencyChange></FrequencyChanges></Clock>\n	Hungry_Donkey_bar_English_2-119-3	60.017	-136	1.0.0.18	1	1519854800	Standard	2.0.10.353	2.0.10.353	07-13-2015	7/13/2015 3:59:29 PM	11:59:29	2.0.10.248	59	Bar37-63.bmp	39	2	?	8r_4g.bmp	50r_4g.bmp	1r_2g.bmp	10r_2g.bmp		50r_4g.bmp			TrialProc	TrialList	0	cvbn	-999999	16	233916	0	v	498	234414	192	-297	-105	-20	-122	5	32	1	6	59	-8	-50	-1	-10	4	4	2	2	-50	4
Hungry_Donkey_bar_English_2	119	3	<?xml version="1.0"?>\n<Clock xmlns:dt="urn:schemas-microsoft-com:datatypes"><Description dt:dt="string">E-Prime Primary Realtime Clock</Description><StartTime><Timestamp dt:dt="int">0</Timestamp><DateUtc dt:dt="string">2015-07-13T15:59:29Z</DateUtc></StartTime><FrequencyChanges><FrequencyChange><Frequency dt:dt="r8">3507685</Frequency><Timestamp dt:dt="r8">1818290353131</Timestamp><Current dt:dt="r8">0</Current><DateUtc dt:dt="string">2015-07-13T15:59:29Z</DateUtc></FrequencyChange></FrequencyChanges></Clock>\n	Hungry_Donkey_bar_English_2-119-3	60.017	-136	1.0.0.18	1	1519854800	Standard	2.0.10.353	2.0.10.353	07-13-2015	7/13/2015 3:59:29 PM	11:59:29	2.0.10.248	60	Bar37-63.bmp	40	2	?	10r_4g.bmp	0r_4g.bmp	2r_2g.bmp	0r_2g.bmp		0r_4g.bmp			TrialProc	TrialList	0	cvbn	-999999	16	236449	0	v	972	237421	196	-297	-101	-20	-118	5	32	4	6	60	-10	0	-2	0	4	4	2	2	0	4
Hungry_Donkey_bar_English_2	119	3	<?xml version="1.0"?>\n<Clock xmlns:dt="urn:schemas-microsoft-com:datatypes"><Description dt:dt="string">E-Prime Primary Realtime Clock</Description><StartTime><Timestamp dt:dt="int">0</Timestamp><DateUtc dt:dt="string">2015-07-13T15:59:29Z</DateUtc></StartTime><FrequencyChanges><FrequencyChange><Frequency dt:dt="r8">3507685</Frequency><Timestamp dt:dt="r8">1818290353131</Timestamp><Current dt:dt="r8">0</Current><DateUtc dt:dt="string">2015-07-13T15:59:29Z</DateUtc></FrequencyChange></FrequencyChanges></Clock>\n	Hungry_Donkey_bar_English_2-119-3	60.017	-136	1.0.0.18	1	1519854800	Standard	2.0.10.353	2.0.10.353	07-13-2015	7/13/2015 3:59:29 PM	11:59:29	2.0.10.248	61	Bar37-63.bmp	37	2	?	8r_4g.bmp	50r_4g.bmp	1r_2g.bmp	10r_2g.bmp		50r_4g.bmp			TrialProc	TrialList	0	cvbn	-999999	16	239448	0	v	549	239997	200	-347	-147	-20	-164	5	32	1	7	61	-8	-50	-1	-10	4	4	2	2	-50	4
Hungry_Donkey_bar_English_2	119	3	<?xml version="1.0"?>\n<Clock xmlns:dt="urn:schemas-microsoft-com:datatypes"><Description dt:dt="string">E-Prime Primary Realtime Clock</Description><StartTime><Timestamp dt:dt="int">0</Timestamp><DateUtc dt:dt="string">2015-07-13T15:59:29Z</DateUtc></StartTime><FrequencyChanges><FrequencyChange><Frequency dt:dt="r8">3507685</Frequency><Timestamp dt:dt="r8">1818290353131</Timestamp><Current dt:dt="r8">0</Current><DateUtc dt:dt="string">2015-07-13T15:59:29Z</DateUtc></FrequencyChange></FrequencyChanges></Clock>\n	Hungry_Donkey_bar_English_2-119-3	60.017	-136	1.0.0.18	1	1519854800	Standard	2.0.10.353	2.0.10.353	07-13-2015	7/13/2015 3:59:29 PM	11:59:29	2.0.10.248	62	Bar37-63.bmp	37	4	?	0r_4g.bmp	0r_4g.bmp	0r_2g.bmp	0r_2g.bmp				0r_2g.bmp	TrialProc	TrialList	0	cvbn	-999999	16	242031	0	n	3406	245437	202	-347	-145	-20	-164	5	34	10	7	62	0	0	0	0	4	4	2	2	0	2
Hungry_Donkey_bar_English_2	119	3	<?xml version="1.0"?>\n<Clock xmlns:dt="urn:schemas-microsoft-com:datatypes"><Description dt:dt="string">E-Prime Primary Realtime Clock</Description><StartTime><Timestamp dt:dt="int">0</Timestamp><DateUtc dt:dt="string">2015-07-13T15:59:29Z</DateUtc></StartTime><FrequencyChanges><FrequencyChange><Frequency dt:dt="r8">3507685</Frequency><Timestamp dt:dt="r8">1818290353131</Timestamp><Current dt:dt="r8">0</Current><DateUtc dt:dt="string">2015-07-13T15:59:29Z</DateUtc></FrequencyChange></FrequencyChanges></Clock>\n	Hungry_Donkey_bar_English_2-119-3	60.017	-136	1.0.0.18	1	1519854800	Standard	2.0.10.353	2.0.10.353	07-13-2015	7/13/2015 3:59:29 PM	11:59:29	2.0.10.248	63	Bar37-63.bmp	37	4	?	0r_4g.bmp	0r_4g.bmp	0r_2g.bmp	0r_2g.bmp				0r_2g.bmp	TrialProc	TrialList	0	cvbn	-999999	16	247462	0	n	1543	249005	204	-347	-143	-20	-164	5	36	7	7	63	0	0	0	0	4	4	2	2	0	2
Hungry_Donkey_bar_English_2	119	3	<?xml version="1.0"?>\n<Clock xmlns:dt="urn:schemas-microsoft-com:datatypes"><Description dt:dt="string">E-Prime Primary Realtime Clock</Description><StartTime><Timestamp dt:dt="int">0</Timestamp><DateUtc dt:dt="string">2015-07-13T15:59:29Z</DateUtc></StartTime><FrequencyChanges><FrequencyChange><Frequency dt:dt="r8">3507685</Frequency><Timestamp dt:dt="r8">1818290353131</Timestamp><Current dt:dt="r8">0</Current><DateUtc dt:dt="string">2015-07-13T15:59:29Z</DateUtc></FrequencyChange></FrequencyChanges></Clock>\n	Hungry_Donkey_bar_English_2-119-3	60.017	-136	1.0.0.18	1	1519854800	Standard	2.0.10.353	2.0.10.353	07-13-2015	7/13/2015 3:59:29 PM	11:59:29	2.0.10.248	64	Bar37-63.bmp	37	4	?	10r_4g.bmp	0r_4g.bmp	2r_2g.bmp	0r_2g.bmp				0r_2g.bmp	TrialProc	TrialList	0	cvbn	-999999	16	251028	0	n	457	251485	206	-347	-141	-20	-164	5	38	4	7	64	-10	0	-2	0	4	4	2	2	0	2
Hungry_Donkey_bar_English_2	119	3	<?xml version="1.0"?>\n<Clock xmlns:dt="urn:schemas-microsoft-com:datatypes"><Description dt:dt="string">E-Prime Primary Realtime Clock</Description><StartTime><Timestamp dt:dt="int">0</Timestamp><DateUtc dt:dt="string">2015-07-13T15:59:29Z</DateUtc></StartTime><FrequencyChanges><FrequencyChange><Frequency dt:dt="r8">3507685</Frequency><Timestamp dt:dt="r8">1818290353131</Timestamp><Current dt:dt="r8">0</Current><DateUtc dt:dt="string">2015-07-13T15:59:29Z</DateUtc></FrequencyChange></FrequencyChanges></Clock>\n	Hungry_Donkey_bar_English_2-119-3	60.017	-136	1.0.0.18	1	1519854800	Standard	2.0.10.353	2.0.10.353	07-13-2015	7/13/2015 3:59:29 PM	11:59:29	2.0.10.248	65	Bar37-63.bmp	37	4	?	12r_4g.bmp	0r_4g.bmp	3r_2g.bmp	0r_2g.bmp				0r_2g.bmp	TrialProc	TrialList	0	cvbn	-999999	16	253511	0	n	598	254109	208	-347	-139	-20	-164	5	40	5	7	65	-12	0	-3	0	4	4	2	2	0	2
Hungry_Donkey_bar_English_2	119	3	<?xml version="1.0"?>\n<Clock xmlns:dt="urn:schemas-microsoft-com:datatypes"><Description dt:dt="string">E-Prime Primary Realtime Clock</Description><StartTime><Timestamp dt:dt="int">0</Timestamp><DateUtc dt:dt="string">2015-07-13T15:59:29Z</DateUtc></StartTime><FrequencyChanges><FrequencyChange><Frequency dt:dt="r8">3507685</Frequency><Timestamp dt:dt="r8">1818290353131</Timestamp><Current dt:dt="r8">0</Current><DateUtc dt:dt="string">2015-07-13T15:59:29Z</DateUtc></FrequencyChange></FrequencyChanges></Clock>\n	Hungry_Donkey_bar_English_2-119-3	60.017	-136	1.0.0.18	1	1519854800	Standard	2.0.10.353	2.0.10.353	07-13-2015	7/13/2015 3:59:29 PM	11:59:29	2.0.10.248	66	Bar37-63.bmp	38	2	?	10r_4g.bmp	0r_4g.bmp	2r_2g.bmp	0r_2g.bmp		0r_4g.bmp			TrialProc	TrialList	0	cvbn	-999999	16	256143	0	v	381	256524	212	-347	-135	-20	-160	5	40	2	7	66	-10	0	-2	0	4	4	2	2	0	4
Hungry_Donkey_bar_English_2	119	3	<?xml version="1.0"?>\n<Clock xmlns:dt="urn:schemas-microsoft-com:datatypes"><Description dt:dt="string">E-Prime Primary Realtime Clock</Description><StartTime><Timestamp dt:dt="int">0</Timestamp><DateUtc dt:dt="string">2015-07-13T15:59:29Z</DateUtc></StartTime><FrequencyChanges><FrequencyChange><Frequency dt:dt="r8">3507685</Frequency><Timestamp dt:dt="r8">1818290353131</Timestamp><Current dt:dt="r8">0</Current><DateUtc dt:dt="string">2015-07-13T15:59:29Z</DateUtc></FrequencyChange></FrequencyChanges></Clock>\n	Hungry_Donkey_bar_English_2-119-3	60.017	-136	1.0.0.18	1	1519854800	Standard	2.0.10.353	2.0.10.353	07-13-2015	7/13/2015 3:59:29 PM	11:59:29	2.0.10.248	67	Bar37-63.bmp	38	2	?	10r_4g.bmp	0r_4g.bmp	2r_2g.bmp	0r_2g.bmp		0r_4g.bmp			TrialProc	TrialList	0	cvbn	-999999	16	258559	0	v	1037	259596	216	-347	-131	-20	-156	5	40	3	7	67	-10	0	-2	0	4	4	2	2	0	4
Hungry_Donkey_bar_English_2	119	3	<?xml version="1.0"?>\n<Clock xmlns:dt="urn:schemas-microsoft-com:datatypes"><Description dt:dt="string">E-Prime Primary Realtime Clock</Description><StartTime><Timestamp dt:dt="int">0</Timestamp><DateUtc dt:dt="string">2015-07-13T15:59:29Z</DateUtc></StartTime><FrequencyChanges><FrequencyChange><Frequency dt:dt="r8">3507685</Frequency><Timestamp dt:dt="r8">1818290353131</Timestamp><Current dt:dt="r8">0</Current><DateUtc dt:dt="string">2015-07-13T15:59:29Z</DateUtc></FrequencyChange></FrequencyChanges></Clock>\n	Hungry_Donkey_bar_English_2-119-3	60.017	-136	1.0.0.18	1	1519854800	Standard	2.0.10.353	2.0.10.353	07-13-2015	7/13/2015 3:59:29 PM	11:59:29	2.0.10.248	68	Bar37-63.bmp	39	2	?	0r_4g.bmp	0r_4g.bmp	0r_2g.bmp	0r_2g.bmp		0r_4g.bmp			TrialProc	TrialList	0	cvbn	-999999	16	261625	0	v	483	262108	220	-347	-127	-20	-152	5	40	6	7	68	0	0	0	0	4	4	2	2	0	4
Hungry_Donkey_bar_English_2	119	3	<?xml version="1.0"?>\n<Clock xmlns:dt="urn:schemas-microsoft-com:datatypes"><Description dt:dt="string">E-Prime Primary Realtime Clock</Description><StartTime><Timestamp dt:dt="int">0</Timestamp><DateUtc dt:dt="string">2015-07-13T15:59:29Z</DateUtc></StartTime><FrequencyChanges><FrequencyChange><Frequency dt:dt="r8">3507685</Frequency><Timestamp dt:dt="r8">1818290353131</Timestamp><Current dt:dt="r8">0</Current><DateUtc dt:dt="string">2015-07-13T15:59:29Z</DateUtc></FrequencyChange></FrequencyChanges></Clock>\n	Hungry_Donkey_bar_English_2-119-3	60.017	-136	1.0.0.18	1	1519854800	Standard	2.0.10.353	2.0.10.353	07-13-2015	7/13/2015 3:59:29 PM	11:59:29	2.0.10.248	69	Bar37-63.bmp	39	4	?	0r_4g.bmp	0r_4g.bmp	0r_2g.bmp	0r_2g.bmp				0r_2g.bmp	TrialProc	TrialList	0	cvbn	-999999	16	264141	0	n	447	264588	222	-347	-125	-20	-152	5	42	8	7	69	0	0	0	0	4	4	2	2	0	2
Hungry_Donkey_bar_English_2	119	3	<?xml version="1.0"?>\n<Clock xmlns:dt="urn:schemas-microsoft-com:datatypes"><Description dt:dt="string">E-Prime Primary Realtime Clock</Description><StartTime><Timestamp dt:dt="int">0</Timestamp><DateUtc dt:dt="string">2015-07-13T15:59:29Z</DateUtc></StartTime><FrequencyChanges><FrequencyChange><Frequency dt:dt="r8">3507685</Frequency><Timestamp dt:dt="r8">1818290353131</Timestamp><Current dt:dt="r8">0</Current><DateUtc dt:dt="string">2015-07-13T15:59:29Z</DateUtc></FrequencyChange></FrequencyChanges></Clock>\n	Hungry_Donkey_bar_English_2-119-3	60.017	-136	1.0.0.18	1	1519854800	Standard	2.0.10.353	2.0.10.353	07-13-2015	7/13/2015 3:59:29 PM	11:59:29	2.0.10.248	70	Bar37-63.bmp	39	2	?	0r_4g.bmp	0r_4g.bmp	0r_2g.bmp	0r_2g.bmp		0r_4g.bmp			TrialProc	TrialList	0	cvbn	-999999	16	266624	0	v	412	267036	226	-347	-121	-20	-148	5	42	9	7	70	0	0	0	0	4	4	2	2	0	4
Hungry_Donkey_bar_English_2	119	3	<?xml version="1.0"?>\n<Clock xmlns:dt="urn:schemas-microsoft-com:datatypes"><Description dt:dt="string">E-Prime Primary Realtime Clock</Description><StartTime><Timestamp dt:dt="int">0</Timestamp><DateUtc dt:dt="string">2015-07-13T15:59:29Z</DateUtc></StartTime><FrequencyChanges><FrequencyChange><Frequency dt:dt="r8">3507685</Frequency><Timestamp dt:dt="r8">1818290353131</Timestamp><Current dt:dt="r8">0</Current><DateUtc dt:dt="string">2015-07-13T15:59:29Z</DateUtc></FrequencyChange></FrequencyChanges></Clock>\n	Hungry_Donkey_bar_English_2-119-3	60.017	-136	1.0.0.18	1	1519854800	Standard	2.0.10.353	2.0.10.353	07-13-2015	7/13/2015 3:59:29 PM	11:59:29	2.0.10.248	71	Bar37-63.bmp	40	2	?	0r_4g.bmp	0r_4g.bmp	0r_2g.bmp	0r_2g.bmp		0r_4g.bmp			TrialProc	TrialList	0	cvbn	-999999	16	269073	0	v	363	269436	230	-347	-117	-20	-144	5	42	8	8	71	0	0	0	0	4	4	2	2	0	4
Hungry_Donkey_bar_English_2	119	3	<?xml version="1.0"?>\n<Clock xmlns:dt="urn:schemas-microsoft-com:datatypes"><Description dt:dt="string">E-Prime Primary Realtime Clock</Description><StartTime><Timestamp dt:dt="int">0</Timestamp><DateUtc dt:dt="string">2015-07-13T15:59:29Z</DateUtc></StartTime><FrequencyChanges><FrequencyChange><Frequency dt:dt="r8">3507685</Frequency><Timestamp dt:dt="r8">1818290353131</Timestamp><Current dt:dt="r8">0</Current><DateUtc dt:dt="string">2015-07-13T15:59:29Z</DateUtc></FrequencyChange></FrequencyChanges></Clock>\n	Hungry_Donkey_bar_English_2-119-3	60.017	-136	1.0.0.18	1	1519854800	Standard	2.0.10.353	2.0.10.353	07-13-2015	7/13/2015 3:59:29 PM	11:59:29	2.0.10.248	72	Bar37-63.bmp	39	4	?	8r_4g.bmp	50r_4g.bmp	1r_2g.bmp	10r_2g.bmp				10r_2g.bmp	TrialProc	TrialList	0	cvbn	-999999	16	271472	0	n	460	271932	232	-357	-125	-20	-144	5	34	1	8	72	-8	-50	-1	-10	4	4	2	2	-10	2
Hungry_Donkey_bar_English_2	119	3	<?xml version="1.0"?>\n<Clock xmlns:dt="urn:schemas-microsoft-com:datatypes"><Description dt:dt="string">E-Prime Primary Realtime Clock</Description><StartTime><Timestamp dt:dt="int">0</Timestamp><DateUtc dt:dt="string">2015-07-13T15:59:29Z</DateUtc></StartTime><FrequencyChanges><FrequencyChange><Frequency dt:dt="r8">3507685</Frequency><Timestamp dt:dt="r8">1818290353131</Timestamp><Current dt:dt="r8">0</Current><DateUtc dt:dt="string">2015-07-13T15:59:29Z</DateUtc></FrequencyChange></FrequencyChanges></Clock>\n	Hungry_Donkey_bar_English_2-119-3	60.017	-136	1.0.0.18	1	1519854800	Standard	2.0.10.353	2.0.10.353	07-13-2015	7/13/2015 3:59:29 PM	11:59:29	2.0.10.248	73	Bar37-63.bmp	40	4	?	0r_4g.bmp	0r_4g.bmp	0r_2g.bmp	0r_2g.bmp				0r_2g.bmp	TrialProc	TrialList	0	cvbn	-999999	16	273955	0	n	441	274396	234	-357	-123	-20	-144	5	36	7	8	73	0	0	0	0	4	4	2	2	0	2
Hungry_Donkey_bar_English_2	119	3	<?xml version="1.0"?>\n<Clock xmlns:dt="urn:schemas-microsoft-com:datatypes"><Description dt:dt="string">E-Prime Primary Realtime Clock</Description><StartTime><Timestamp dt:dt="int">0</Timestamp><DateUtc dt:dt="string">2015-07-13T15:59:29Z</DateUtc></StartTime><FrequencyChanges><FrequencyChange><Frequency dt:dt="r8">3507685</Frequency><Timestamp dt:dt="r8">1818290353131</Timestamp><Current dt:dt="r8">0</Current><DateUtc dt:dt="string">2015-07-13T15:59:29Z</DateUtc></FrequencyChange></FrequencyChanges></Clock>\n	Hungry_Donkey_bar_English_2-119-3	60.017	-136	1.0.0.18	1	1519854800	Standard	2.0.10.353	2.0.10.353	07-13-2015	7/13/2015 3:59:29 PM	11:59:29	2.0.10.248	74	Bar37-63.bmp	40	2	?	10r_4g.bmp	0r_4g.bmp	2r_2g.bmp	0r_2g.bmp		0r_4g.bmp			TrialProc	TrialList	0	cvbn	-999999	16	276421	0	v	374	276795	238	-357	-119	-20	-140	5	36	4	8	74	-10	0	-2	0	4	4	2	2	0	4
Hungry_Donkey_bar_English_2	119	3	<?xml version="1.0"?>\n<Clock xmlns:dt="urn:schemas-microsoft-com:datatypes"><Description dt:dt="string">E-Prime Primary Realtime Clock</Description><StartTime><Timestamp dt:dt="int">0</Timestamp><DateUtc dt:dt="string">2015-07-13T15:59:29Z</DateUtc></StartTime><FrequencyChanges><FrequencyChange><Frequency dt:dt="r8">3507685</Frequency><Timestamp dt:dt="r8">1818290353131</Timestamp><Current dt:dt="r8">0</Current><DateUtc dt:dt="string">2015-07-13T15:59:29Z</DateUtc></FrequencyChange></FrequencyChanges></Clock>\n	Hungry_Donkey_bar_English_2-119-3	60.017	-136	1.0.0.18	1	1519854800	Standard	2.0.10.353	2.0.10.353	07-13-2015	7/13/2015 3:59:29 PM	11:59:29	2.0.10.248	75	Bar37-63.bmp	40	2	?	0r_4g.bmp	0r_4g.bmp	0r_2g.bmp	0r_2g.bmp		0r_4g.bmp			TrialProc	TrialList	0	cvbn	-999999	16	278820	0	v	423	279243	242	-357	-115	-20	-136	5	36	9	8	75	0	0	0	0	4	4	2	2	0	4
Hungry_Donkey_bar_English_2	119	3	<?xml version="1.0"?>\n<Clock xmlns:dt="urn:schemas-microsoft-com:datatypes"><Description dt:dt="string">E-Prime Primary Realtime Clock</Description><StartTime><Timestamp dt:dt="int">0</Timestamp><DateUtc dt:dt="string">2015-07-13T15:59:29Z</DateUtc></StartTime><FrequencyChanges><FrequencyChange><Frequency dt:dt="r8">3507685</Frequency><Timestamp dt:dt="r8">1818290353131</Timestamp><Current dt:dt="r8">0</Current><DateUtc dt:dt="string">2015-07-13T15:59:29Z</DateUtc></FrequencyChange></FrequencyChanges></Clock>\n	Hungry_Donkey_bar_English_2-119-3	60.017	-136	1.0.0.18	1	1519854800	Standard	2.0.10.353	2.0.10.353	07-13-2015	7/13/2015 3:59:29 PM	11:59:29	2.0.10.248	76	Bar37-63.bmp	41	4	?	12r_4g.bmp	0r_4g.bmp	3r_2g.bmp	0r_2g.bmp				0r_2g.bmp	TrialProc	TrialList	0	cvbn	-999999	16	281269	0	n	742	282011	244	-357	-113	-20	-136	5	38	5	8	76	-12	0	-3	0	4	4	2	2	0	2
Hungry_Donkey_bar_English_2	119	3	<?xml version="1.0"?>\n<Clock xmlns:dt="urn:schemas-microsoft-com:datatypes"><Description dt:dt="string">E-Prime Primary Realtime Clock</Description><StartTime><Timestamp dt:dt="int">0</Timestamp><DateUtc dt:dt="string">2015-07-13T15:59:29Z</DateUtc></StartTime><FrequencyChanges><FrequencyChange><Frequency dt:dt="r8">3507685</Frequency><Timestamp dt:dt="r8">1818290353131</Timestamp><Current dt:dt="r8">0</Current><DateUtc dt:dt="string">2015-07-13T15:59:29Z</DateUtc></FrequencyChange></FrequencyChanges></Clock>\n	Hungry_Donkey_bar_English_2-119-3	60.017	-136	1.0.0.18	1	1519854800	Standard	2.0.10.353	2.0.10.353	07-13-2015	7/13/2015 3:59:29 PM	11:59:29	2.0.10.248	77	Bar37-63.bmp	41	2	?	0r_4g.bmp	0r_4g.bmp	0r_2g.bmp	0r_2g.bmp		0r_4g.bmp			TrialProc	TrialList	0	cvbn	-999999	16	284035	0	v	440	284475	248	-357	-109	-20	-132	5	38	10	8	77	0	0	0	0	4	4	2	2	0	4
Hungry_Donkey_bar_English_2	119	3	<?xml version="1.0"?>\n<Clock xmlns:dt="urn:schemas-microsoft-com:datatypes"><Description dt:dt="string">E-Prime Primary Realtime Clock</Description><StartTime><Timestamp dt:dt="int">0</Timestamp><DateUtc dt:dt="string">2015-07-13T15:59:29Z</DateUtc></StartTime><FrequencyChanges><FrequencyChange><Frequency dt:dt="r8">3507685</Frequency><Timestamp dt:dt="r8">1818290353131</Timestamp><Current dt:dt="r8">0</Current><DateUtc dt:dt="string">2015-07-13T15:59:29Z</DateUtc></FrequencyChange></FrequencyChanges></Clock>\n	Hungry_Donkey_bar_English_2-119-3	60.017	-136	1.0.0.18	1	1519854800	Standard	2.0.10.353	2.0.10.353	07-13-2015	7/13/2015 3:59:29 PM	11:59:29	2.0.10.248	78	Bar37-63.bmp	41	2	?	10r_4g.bmp	0r_4g.bmp	2r_2g.bmp	0r_2g.bmp		0r_4g.bmp			TrialProc	TrialList	0	cvbn	-999999	16	286501	0	v	406	286907	252	-357	-105	-20	-128	5	38	3	8	78	-10	0	-2	0	4	4	2	2	0	4
Hungry_Donkey_bar_English_2	119	3	<?xml version="1.0"?>\n<Clock xmlns:dt="urn:schemas-microsoft-com:datatypes"><Description dt:dt="string">E-Prime Primary Realtime Clock</Description><StartTime><Timestamp dt:dt="int">0</Timestamp><DateUtc dt:dt="string">2015-07-13T15:59:29Z</DateUtc></StartTime><FrequencyChanges><FrequencyChange><Frequency dt:dt="r8">3507685</Frequency><Timestamp dt:dt="r8">1818290353131</Timestamp><Current dt:dt="r8">0</Current><DateUtc dt:dt="string">2015-07-13T15:59:29Z</DateUtc></FrequencyChange></FrequencyChanges></Clock>\n	Hungry_Donkey_bar_English_2-119-3	60.017	-136	1.0.0.18	1	1519854800	Standard	2.0.10.353	2.0.10.353	07-13-2015	7/13/2015 3:59:29 PM	11:59:29	2.0.10.248	79	Bar37-63.bmp	42	2	?	0r_4g.bmp	0r_4g.bmp	0r_2g.bmp	0r_2g.bmp		0r_4g.bmp			TrialProc	TrialList	0	cvbn	-999999	16	288934	0	v	453	289387	256	-357	-101	-20	-124	5	38	6	8	79	0	0	0	0	4	4	2	2	0	4
Hungry_Donkey_bar_English_2	119	3	<?xml version="1.0"?>\n<Clock xmlns:dt="urn:schemas-microsoft-com:datatypes"><Description dt:dt="string">E-Prime Primary Realtime Clock</Description><StartTime><Timestamp dt:dt="int">0</Timestamp><DateUtc dt:dt="string">2015-07-13T15:59:29Z</DateUtc></StartTime><FrequencyChanges><FrequencyChange><Frequency dt:dt="r8">3507685</Frequency><Timestamp dt:dt="r8">1818290353131</Timestamp><Current dt:dt="r8">0</Current><DateUtc dt:dt="string">2015-07-13T15:59:29Z</DateUtc></FrequencyChange></FrequencyChanges></Clock>\n	Hungry_Donkey_bar_English_2-119-3	60.017	-136	1.0.0.18	1	1519854800	Standard	2.0.10.353	2.0.10.353	07-13-2015	7/13/2015 3:59:29 PM	11:59:29	2.0.10.248	80	Bar37-63.bmp	42	4	?	10r_4g.bmp	0r_4g.bmp	2r_2g.bmp	0r_2g.bmp				0r_2g.bmp	TrialProc	TrialList	0	cvbn	-999999	16	291416	0	n	451	291867	258	-357	-99	-20	-124	5	40	2	8	80	-10	0	-2	0	4	4	2	2	0	2
Hungry_Donkey_bar_English_2	119	3	<?xml version="1.0"?>\n<Clock xmlns:dt="urn:schemas-microsoft-com:datatypes"><Description dt:dt="string">E-Prime Primary Realtime Clock</Description><StartTime><Timestamp dt:dt="int">0</Timestamp><DateUtc dt:dt="string">2015-07-13T15:59:29Z</DateUtc></StartTime><FrequencyChanges><FrequencyChange><Frequency dt:dt="r8">3507685</Frequency><Timestamp dt:dt="r8">1818290353131</Timestamp><Current dt:dt="r8">0</Current><DateUtc dt:dt="string">2015-07-13T15:59:29Z</DateUtc></FrequencyChange></FrequencyChanges></Clock>\n	Hungry_Donkey_bar_English_2-119-3	60.017	-136	1.0.0.18	1	1519854800	Standard	2.0.10.353	2.0.10.353	07-13-2015	7/13/2015 3:59:29 PM	11:59:29	2.0.10.248	81	Bar37-63.bmp	42	4	?	12r_4g.bmp	0r_4g.bmp	3r_2g.bmp	0r_2g.bmp				0r_2g.bmp	TrialProc	TrialList	0	cvbn	-999999	16	293899	0	n	160	294059	260	-357	-97	-20	-124	5	42	5	9	81	-12	0	-3	0	4	4	2	2	0	2
Hungry_Donkey_bar_English_2	119	3	<?xml version="1.0"?>\n<Clock xmlns:dt="urn:schemas-microsoft-com:datatypes"><Description dt:dt="string">E-Prime Primary Realtime Clock</Description><StartTime><Timestamp dt:dt="int">0</Timestamp><DateUtc dt:dt="string">2015-07-13T15:59:29Z</DateUtc></StartTime><FrequencyChanges><FrequencyChange><Frequency dt:dt="r8">3507685</Frequency><Timestamp dt:dt="r8">1818290353131</Timestamp><Current dt:dt="r8">0</Current><DateUtc dt:dt="string">2015-07-13T15:59:29Z</DateUtc></FrequencyChange></FrequencyChanges></Clock>\n	Hungry_Donkey_bar_English_2-119-3	60.017	-136	1.0.0.18	1	1519854800	Standard	2.0.10.353	2.0.10.353	07-13-2015	7/13/2015 3:59:29 PM	11:59:29	2.0.10.248	82	Bar37-63.bmp	43	2	?	0r_4g.bmp	0r_4g.bmp	0r_2g.bmp	0r_2g.bmp		0r_4g.bmp			TrialProc	TrialList	0	cvbn	-999999	16	296098	0	v	760	296858	264	-357	-93	-20	-120	5	42	9	9	82	0	0	0	0	4	4	2	2	0	4
Hungry_Donkey_bar_English_2	119	3	<?xml version="1.0"?>\n<Clock xmlns:dt="urn:schemas-microsoft-com:datatypes"><Description dt:dt="string">E-Prime Primary Realtime Clock</Description><StartTime><Timestamp dt:dt="int">0</Timestamp><DateUtc dt:dt="string">2015-07-13T15:59:29Z</DateUtc></StartTime><FrequencyChanges><FrequencyChange><Frequency dt:dt="r8">3507685</Frequency><Timestamp dt:dt="r8">1818290353131</Timestamp><Current dt:dt="r8">0</Current><DateUtc dt:dt="string">2015-07-13T15:59:29Z</DateUtc></FrequencyChange></FrequencyChanges></Clock>\n	Hungry_Donkey_bar_English_2-119-3	60.017	-136	1.0.0.18	1	1519854800	Standard	2.0.10.353	2.0.10.353	07-13-2015	7/13/2015 3:59:29 PM	11:59:29	2.0.10.248	83	Bar37-63.bmp	43	2	?	0r_4g.bmp	0r_4g.bmp	0r_2g.bmp	0r_2g.bmp		0r_4g.bmp			TrialProc	TrialList	0	cvbn	-999999	15	298881	0	v	569	299450	268	-357	-89	-20	-116	5	42	10	9	83	0	0	0	0	4	4	2	2	0	4
Hungry_Donkey_bar_English_2	119	3	<?xml version="1.0"?>\n<Clock xmlns:dt="urn:schemas-microsoft-com:datatypes"><Description dt:dt="string">E-Prime Primary Realtime Clock</Description><StartTime><Timestamp dt:dt="int">0</Timestamp><DateUtc dt:dt="string">2015-07-13T15:59:29Z</DateUtc></StartTime><FrequencyChanges><FrequencyChange><Frequency dt:dt="r8">3507685</Frequency><Timestamp dt:dt="r8">1818290353131</Timestamp><Current dt:dt="r8">0</Current><DateUtc dt:dt="string">2015-07-13T15:59:29Z</DateUtc></FrequencyChange></FrequencyChanges></Clock>\n	Hungry_Donkey_bar_English_2-119-3	60.017	-136	1.0.0.18	1	1519854800	Standard	2.0.10.353	2.0.10.353	07-13-2015	7/13/2015 3:59:29 PM	11:59:29	2.0.10.248	84	Bar37-63.bmp	40	2	?	8r_4g.bmp	50r_4g.bmp	1r_2g.bmp	10r_2g.bmp		50r_4g.bmp			TrialProc	TrialList	0	cvbn	-999999	16	301480	0	v	386	301866	272	-407	-135	-20	-162	5	42	1	9	84	-8	-50	-1	-10	4	4	2	2	-50	4
Hungry_Donkey_bar_English_2	119	3	<?xml version="1.0"?>\n<Clock xmlns:dt="urn:schemas-microsoft-com:datatypes"><Description dt:dt="string">E-Prime Primary Realtime Clock</Description><StartTime><Timestamp dt:dt="int">0</Timestamp><DateUtc dt:dt="string">2015-07-13T15:59:29Z</DateUtc></StartTime><FrequencyChanges><FrequencyChange><Frequency dt:dt="r8">3507685</Frequency><Timestamp dt:dt="r8">1818290353131</Timestamp><Current dt:dt="r8">0</Current><DateUtc dt:dt="string">2015-07-13T15:59:29Z</DateUtc></FrequencyChange></FrequencyChanges></Clock>\n	Hungry_Donkey_bar_English_2-119-3	60.017	-136	1.0.0.18	1	1519854800	Standard	2.0.10.353	2.0.10.353	07-13-2015	7/13/2015 3:59:29 PM	11:59:29	2.0.10.248	85	Bar37-63.bmp	40	2	?	10r_4g.bmp	0r_4g.bmp	2r_2g.bmp	0r_2g.bmp		0r_4g.bmp			TrialProc	TrialList	0	cvbn	-999999	16	303896	0	v	434	304330	276	-407	-131	-20	-158	5	42	2	9	85	-10	0	-2	0	4	4	2	2	0	4
Hungry_Donkey_bar_English_2	119	3	<?xml version="1.0"?>\n<Clock xmlns:dt="urn:schemas-microsoft-com:datatypes"><Description dt:dt="string">E-Prime Primary Realtime Clock</Description><StartTime><Timestamp dt:dt="int">0</Timestamp><DateUtc dt:dt="string">2015-07-13T15:59:29Z</DateUtc></StartTime><FrequencyChanges><FrequencyChange><Frequency dt:dt="r8">3507685</Frequency><Timestamp dt:dt="r8">1818290353131</Timestamp><Current dt:dt="r8">0</Current><DateUtc dt:dt="string">2015-07-13T15:59:29Z</DateUtc></FrequencyChange></FrequencyChanges></Clock>\n	Hungry_Donkey_bar_English_2-119-3	60.017	-136	1.0.0.18	1	1519854800	Standard	2.0.10.353	2.0.10.353	07-13-2015	7/13/2015 3:59:29 PM	11:59:29	2.0.10.248	86	Bar37-63.bmp	41	2	?	10r_4g.bmp	0r_4g.bmp	2r_2g.bmp	0r_2g.bmp		0r_4g.bmp			TrialProc	TrialList	0	cvbn	-999999	16	306362	0	v	432	306794	280	-407	-127	-20	-154	5	42	4	9	86	-10	0	-2	0	4	4	2	2	0	4
Hungry_Donkey_bar_English_2	119	3	<?xml version="1.0"?>\n<Clock xmlns:dt="urn:schemas-microsoft-com:datatypes"><Description dt:dt="string">E-Prime Primary Realtime Clock</Description><StartTime><Timestamp dt:dt="int">0</Timestamp><DateUtc dt:dt="string">2015-07-13T15:59:29Z</DateUtc></StartTime><FrequencyChanges><FrequencyChange><Frequency dt:dt="r8">3507685</Frequency><Timestamp dt:dt="r8">1818290353131</Timestamp><Current dt:dt="r8">0</Current><DateUtc dt:dt="string">2015-07-13T15:59:29Z</DateUtc></FrequencyChange></FrequencyChanges></Clock>\n	Hungry_Donkey_bar_English_2-119-3	60.017	-136	1.0.0.18	1	1519854800	Standard	2.0.10.353	2.0.10.353	07-13-2015	7/13/2015 3:59:29 PM	11:59:29	2.0.10.248	87	Bar37-63.bmp	41	1	?	0r_4g.bmp	0r_4g.bmp	0r_2g.bmp	0r_2g.bmp	0r_4g.bmp				TrialProc	TrialList	0	cvbn	-999999	16	308828	0	c	494	309322	284	-407	-123	-16	-154	5	42	6	9	87	0	0	0	0	4	4	2	2	0	4
Hungry_Donkey_bar_English_2	119	3	<?xml version="1.0"?>\n<Clock xmlns:dt="urn:schemas-microsoft-com:datatypes"><Description dt:dt="string">E-Prime Primary Realtime Clock</Description><StartTime><Timestamp dt:dt="int">0</Timestamp><DateUtc dt:dt="string">2015-07-13T15:59:29Z</DateUtc></StartTime><FrequencyChanges><FrequencyChange><Frequency dt:dt="r8">3507685</Frequency><Timestamp dt:dt="r8">1818290353131</Timestamp><Current dt:dt="r8">0</Current><DateUtc dt:dt="string">2015-07-13T15:59:29Z</DateUtc></FrequencyChange></FrequencyChanges></Clock>\n	Hungry_Donkey_bar_English_2-119-3	60.017	-136	1.0.0.18	1	1519854800	Standard	2.0.10.353	2.0.10.353	07-13-2015	7/13/2015 3:59:29 PM	11:59:29	2.0.10.248	88	Bar37-63.bmp	41	1	?	0r_4g.bmp	0r_4g.bmp	0r_2g.bmp	0r_2g.bmp	0r_4g.bmp				TrialProc	TrialList	0	cvbn	-999999	16	311361	0	c	473	311834	288	-407	-119	-12	-154	5	42	7	9	88	0	0	0	0	4	4	2	2	0	4
Hungry_Donkey_bar_English_2	119	3	<?xml version="1.0"?>\n<Clock xmlns:dt="urn:schemas-microsoft-com:datatypes"><Description dt:dt="string">E-Prime Primary Realtime Clock</Description><StartTime><Timestamp dt:dt="int">0</Timestamp><DateUtc dt:dt="string">2015-07-13T15:59:29Z</DateUtc></StartTime><FrequencyChanges><FrequencyChange><Frequency dt:dt="r8">3507685</Frequency><Timestamp dt:dt="r8">1818290353131</Timestamp><Current dt:dt="r8">0</Current><DateUtc dt:dt="string">2015-07-13T15:59:29Z</DateUtc></FrequencyChange></FrequencyChanges></Clock>\n	Hungry_Donkey_bar_English_2-119-3	60.017	-136	1.0.0.18	1	1519854800	Standard	2.0.10.353	2.0.10.353	07-13-2015	7/13/2015 3:59:29 PM	11:59:29	2.0.10.248	89	Bar37-63.bmp	41	3	?	10r_4g.bmp	0r_4g.bmp	2r_2g.bmp	0r_2g.bmp			2r_2g.bmp		TrialProc	TrialList	0	cvbn	-999999	16	313860	0	b	437	314297	290	-409	-119	-12	-154	5	42	3	9	89	-10	0	-2	0	4	4	2	2	-2	2
Hungry_Donkey_bar_English_2	119	3	<?xml version="1.0"?>\n<Clock xmlns:dt="urn:schemas-microsoft-com:datatypes"><Description dt:dt="string">E-Prime Primary Realtime Clock</Description><StartTime><Timestamp dt:dt="int">0</Timestamp><DateUtc dt:dt="string">2015-07-13T15:59:29Z</DateUtc></StartTime><FrequencyChanges><FrequencyChange><Frequency dt:dt="r8">3507685</Frequency><Timestamp dt:dt="r8">1818290353131</Timestamp><Current dt:dt="r8">0</Current><DateUtc dt:dt="string">2015-07-13T15:59:29Z</DateUtc></FrequencyChange></FrequencyChanges></Clock>\n	Hungry_Donkey_bar_English_2-119-3	60.017	-136	1.0.0.18	1	1519854800	Standard	2.0.10.353	2.0.10.353	07-13-2015	7/13/2015 3:59:29 PM	11:59:29	2.0.10.248	90	Bar37-63.bmp	42	3	?	0r_4g.bmp	0r_4g.bmp	0r_2g.bmp	0r_2g.bmp			0r_2g.bmp		TrialProc	TrialList	0	cvbn	-999999	16	316326	0	b	387	316713	292	-409	-117	-12	-154	7	42	8	9	90	0	0	0	0	4	4	2	2	0	2
Hungry_Donkey_bar_English_2	119	3	<?xml version="1.0"?>\n<Clock xmlns:dt="urn:schemas-microsoft-com:datatypes"><Description dt:dt="string">E-Prime Primary Realtime Clock</Description><StartTime><Timestamp dt:dt="int">0</Timestamp><DateUtc dt:dt="string">2015-07-13T15:59:29Z</DateUtc></StartTime><FrequencyChanges><FrequencyChange><Frequency dt:dt="r8">3507685</Frequency><Timestamp dt:dt="r8">1818290353131</Timestamp><Current dt:dt="r8">0</Current><DateUtc dt:dt="string">2015-07-13T15:59:29Z</DateUtc></FrequencyChange></FrequencyChanges></Clock>\n	Hungry_Donkey_bar_English_2-119-3	60.017	-136	1.0.0.18	1	1519854800	Standard	2.0.10.353	2.0.10.353	07-13-2015	7/13/2015 3:59:29 PM	11:59:29	2.0.10.248	91	Bar37-63.bmp	42	3	?	10r_4g.bmp	0r_4g.bmp	2r_2g.bmp	0r_2g.bmp			2r_2g.bmp		TrialProc	TrialList	0	cvbn	-999999	16	318742	0	b	339	319081	294	-411	-117	-12	-154	7	42	3	10	91	-10	0	-2	0	4	4	2	2	-2	2
Hungry_Donkey_bar_English_2	119	3	<?xml version="1.0"?>\n<Clock xmlns:dt="urn:schemas-microsoft-com:datatypes"><Description dt:dt="string">E-Prime Primary Realtime Clock</Description><StartTime><Timestamp dt:dt="int">0</Timestamp><DateUtc dt:dt="string">2015-07-13T15:59:29Z</DateUtc></StartTime><FrequencyChanges><FrequencyChange><Frequency dt:dt="r8">3507685</Frequency><Timestamp dt:dt="r8">1818290353131</Timestamp><Current dt:dt="r8">0</Current><DateUtc dt:dt="string">2015-07-13T15:59:29Z</DateUtc></FrequencyChange></FrequencyChanges></Clock>\n	Hungry_Donkey_bar_English_2-119-3	60.017	-136	1.0.0.18	1	1519854800	Standard	2.0.10.353	2.0.10.353	07-13-2015	7/13/2015 3:59:29 PM	11:59:29	2.0.10.248	92	Bar37-63.bmp	42	3	?	0r_4g.bmp	0r_4g.bmp	0r_2g.bmp	0r_2g.bmp			0r_2g.bmp		TrialProc	TrialList	0	cvbn	-999999	16	321108	0	b	357	321465	296	-411	-115	-12	-154	9	42	6	10	92	0	0	0	0	4	4	2	2	0	2
Hungry_Donkey_bar_English_2	119	3	<?xml version="1.0"?>\n<Clock xmlns:dt="urn:schemas-microsoft-com:datatypes"><Description dt:dt="string">E-Prime Primary Realtime Clock</Description><StartTime><Timestamp dt:dt="int">0</Timestamp><DateUtc dt:dt="string">2015-07-13T15:59:29Z</DateUtc></StartTime><FrequencyChanges><FrequencyChange><Frequency dt:dt="r8">3507685</Frequency><Timestamp dt:dt="r8">1818290353131</Timestamp><Current dt:dt="r8">0</Current><DateUtc dt:dt="string">2015-07-13T15:59:29Z</DateUtc></FrequencyChange></FrequencyChanges></Clock>\n	Hungry_Donkey_bar_English_2-119-3	60.017	-136	1.0.0.18	1	1519854800	Standard	2.0.10.353	2.0.10.353	07-13-2015	7/13/2015 3:59:29 PM	11:59:29	2.0.10.248	93	Bar37-63.bmp	42	4	?	0r_4g.bmp	0r_4g.bmp	0r_2g.bmp	0r_2g.bmp				0r_2g.bmp	TrialProc	TrialList	0	cvbn	-999999	17	323491	0	n	390	323881	298	-411	-113	-12	-154	9	44	8	10	93	0	0	0	0	4	4	2	2	0	2
Hungry_Donkey_bar_English_2	119	3	<?xml version="1.0"?>\n<Clock xmlns:dt="urn:schemas-microsoft-com:datatypes"><Description dt:dt="string">E-Prime Primary Realtime Clock</Description><StartTime><Timestamp dt:dt="int">0</Timestamp><DateUtc dt:dt="string">2015-07-13T15:59:29Z</DateUtc></StartTime><FrequencyChanges><FrequencyChange><Frequency dt:dt="r8">3507685</Frequency><Timestamp dt:dt="r8">1818290353131</Timestamp><Current dt:dt="r8">0</Current><DateUtc dt:dt="string">2015-07-13T15:59:29Z</DateUtc></FrequencyChange></FrequencyChanges></Clock>\n	Hungry_Donkey_bar_English_2-119-3	60.017	-136	1.0.0.18	1	1519854800	Standard	2.0.10.353	2.0.10.353	07-13-2015	7/13/2015 3:59:29 PM	11:59:29	2.0.10.248	94	Bar37-63.bmp	42	4	?	10r_4g.bmp	0r_4g.bmp	2r_2g.bmp	0r_2g.bmp				0r_2g.bmp	TrialProc	TrialList	0	cvbn	-999999	16	325906	0	n	247	326153	300	-411	-111	-12	-154	9	46	2	10	94	-10	0	-2	0	4	4	2	2	0	2
Hungry_Donkey_bar_English_2	119	3	<?xml version="1.0"?>\n<Clock xmlns:dt="urn:schemas-microsoft-com:datatypes"><Description dt:dt="string">E-Prime Primary Realtime Clock</Description><StartTime><Timestamp dt:dt="int">0</Timestamp><DateUtc dt:dt="string">2015-07-13T15:59:29Z</DateUtc></StartTime><FrequencyChanges><FrequencyChange><Frequency dt:dt="r8">3507685</Frequency><Timestamp dt:dt="r8">1818290353131</Timestamp><Current dt:dt="r8">0</Current><DateUtc dt:dt="string">2015-07-13T15:59:29Z</DateUtc></FrequencyChange></FrequencyChanges></Clock>\n	Hungry_Donkey_bar_English_2-119-3	60.017	-136	1.0.0.18	1	1519854800	Standard	2.0.10.353	2.0.10.353	07-13-2015	7/13/2015 3:59:29 PM	11:59:29	2.0.10.248	95	Bar37-63.bmp	43	2	?	10r_4g.bmp	0r_4g.bmp	2r_2g.bmp	0r_2g.bmp		0r_4g.bmp			TrialProc	TrialList	0	cvbn	-999999	16	328189	0	v	748	328937	304	-411	-107	-12	-150	9	46	4	10	95	-10	0	-2	0	4	4	2	2	0	4
Hungry_Donkey_bar_English_2	119	3	<?xml version="1.0"?>\n<Clock xmlns:dt="urn:schemas-microsoft-com:datatypes"><Description dt:dt="string">E-Prime Primary Realtime Clock</Description><StartTime><Timestamp dt:dt="int">0</Timestamp><DateUtc dt:dt="string">2015-07-13T15:59:29Z</DateUtc></StartTime><FrequencyChanges><FrequencyChange><Frequency dt:dt="r8">3507685</Frequency><Timestamp dt:dt="r8">1818290353131</Timestamp><Current dt:dt="r8">0</Current><DateUtc dt:dt="string">2015-07-13T15:59:29Z</DateUtc></FrequencyChange></FrequencyChanges></Clock>\n	Hungry_Donkey_bar_English_2-119-3	60.017	-136	1.0.0.18	1	1519854800	Standard	2.0.10.353	2.0.10.353	07-13-2015	7/13/2015 3:59:29 PM	11:59:29	2.0.10.248	96	Bar37-63.bmp	43	1	?	0r_4g.bmp	0r_4g.bmp	0r_2g.bmp	0r_2g.bmp	0r_4g.bmp				TrialProc	TrialList	0	cvbn	-999999	16	330972	0	c	509	331481	308	-411	-103	-8	-150	9	46	9	10	96	0	0	0	0	4	4	2	2	0	4
Hungry_Donkey_bar_English_2	119	3	<?xml version="1.0"?>\n<Clock xmlns:dt="urn:schemas-microsoft-com:datatypes"><Description dt:dt="string">E-Prime Primary Realtime Clock</Description><StartTime><Timestamp dt:dt="int">0</Timestamp><DateUtc dt:dt="string">2015-07-13T15:59:29Z</DateUtc></StartTime><FrequencyChanges><FrequencyChange><Frequency dt:dt="r8">3507685</Frequency><Timestamp dt:dt="r8">1818290353131</Timestamp><Current dt:dt="r8">0</Current><DateUtc dt:dt="string">2015-07-13T15:59:29Z</DateUtc></FrequencyChange></FrequencyChanges></Clock>\n	Hungry_Donkey_bar_English_2-119-3	60.017	-136	1.0.0.18	1	1519854800	Standard	2.0.10.353	2.0.10.353	07-13-2015	7/13/2015 3:59:29 PM	11:59:29	2.0.10.248	97	Bar37-63.bmp	42	1	?	12r_4g.bmp	0r_4g.bmp	3r_2g.bmp	0r_2g.bmp	12r_4g.bmp				TrialProc	TrialList	0	cvbn	-999999	16	333521	0	c	504	334025	312	-423	-111	-16	-150	9	46	5	10	97	-12	0	-3	0	4	4	2	2	-12	4
Hungry_Donkey_bar_English_2	119	3	<?xml version="1.0"?>\n<Clock xmlns:dt="urn:schemas-microsoft-com:datatypes"><Description dt:dt="string">E-Prime Primary Realtime Clock</Description><StartTime><Timestamp dt:dt="int">0</Timestamp><DateUtc dt:dt="string">2015-07-13T15:59:29Z</DateUtc></StartTime><FrequencyChanges><FrequencyChange><Frequency dt:dt="r8">3507685</Frequency><Timestamp dt:dt="r8">1818290353131</Timestamp><Current dt:dt="r8">0</Current><DateUtc dt:dt="string">2015-07-13T15:59:29Z</DateUtc></FrequencyChange></FrequencyChanges></Clock>\n	Hungry_Donkey_bar_English_2-119-3	60.017	-136	1.0.0.18	1	1519854800	Standard	2.0.10.353	2.0.10.353	07-13-2015	7/13/2015 3:59:29 PM	11:59:29	2.0.10.248	98	Bar37-63.bmp	43	1	?	0r_4g.bmp	0r_4g.bmp	0r_2g.bmp	0r_2g.bmp	0r_4g.bmp				TrialProc	TrialList	0	cvbn	-999999	17	336054	0	c	498	336552	316	-423	-107	-12	-150	9	46	10	10	98	0	0	0	0	4	4	2	2	0	4
Hungry_Donkey_bar_English_2	119	3	<?xml version="1.0"?>\n<Clock xmlns:dt="urn:schemas-microsoft-com:datatypes"><Description dt:dt="string">E-Prime Primary Realtime Clock</Description><StartTime><Timestamp dt:dt="int">0</Timestamp><DateUtc dt:dt="string">2015-07-13T15:59:29Z</DateUtc></StartTime><FrequencyChanges><FrequencyChange><Frequency dt:dt="r8">3507685</Frequency><Timestamp dt:dt="r8">1818290353131</Timestamp><Current dt:dt="r8">0</Current><DateUtc dt:dt="string">2015-07-13T15:59:29Z</DateUtc></FrequencyChange></FrequencyChanges></Clock>\n	Hungry_Donkey_bar_English_2-119-3	60.017	-136	1.0.0.18	1	1519854800	Standard	2.0.10.353	2.0.10.353	07-13-2015	7/13/2015 3:59:29 PM	11:59:29	2.0.10.248	99	Bar37-63.bmp	43	2	?	0r_4g.bmp	0r_4g.bmp	0r_2g.bmp	0r_2g.bmp		0r_4g.bmp			TrialProc	TrialList	0	cvbn	-999999	16	338586	0	v	190	338776	320	-423	-103	-12	-146	9	46	7	10	99	0	0	0	0	4	4	2	2	0	4
Hungry_Donkey_bar_English_2	119	3	<?xml version="1.0"?>\n<Clock xmlns:dt="urn:schemas-microsoft-com:datatypes"><Description dt:dt="string">E-Prime Primary Realtime Clock</Description><StartTime><Timestamp dt:dt="int">0</Timestamp><DateUtc dt:dt="string">2015-07-13T15:59:29Z</DateUtc></StartTime><FrequencyChanges><FrequencyChange><Frequency dt:dt="r8">3507685</Frequency><Timestamp dt:dt="r8">1818290353131</Timestamp><Current dt:dt="r8">0</Current><DateUtc dt:dt="string">2015-07-13T15:59:29Z</DateUtc></FrequencyChange></FrequencyChanges></Clock>\n	Hungry_Donkey_bar_English_2-119-3	60.017	-136	1.0.0.18	1	1519854800	Standard	2.0.10.353	2.0.10.353	07-13-2015	7/13/2015 3:59:29 PM	11:59:29	2.0.10.248	100	Bar37-63.bmp	43	4	?	8r_4g.bmp	50r_4g.bmp	1r_2g.bmp	10r_2g.bmp				10r_2g.bmp	TrialProc	TrialList	0	cvbn	-999999	16	340802	0	n	1030	341832	322	-433	-111	-12	-146	9	38	1	10	100	-8	-50	-1	-10	4	4	2	2	-10	2
Hungry_Donkey_bar_English_2	119	3	<?xml version="1.0"?>\n<Clock xmlns:dt="urn:schemas-microsoft-com:datatypes"><Description dt:dt="string">E-Prime Primary Realtime Clock</Description><StartTime><Timestamp dt:dt="int">0</Timestamp><DateUtc dt:dt="string">2015-07-13T15:59:29Z</DateUtc></StartTime><FrequencyChanges><FrequencyChange><Frequency dt:dt="r8">3507685</Frequency><Timestamp dt:dt="r8">1818290353131</Timestamp><Current dt:dt="r8">0</Current><DateUtc dt:dt="string">2015-07-13T15:59:29Z</DateUtc></FrequencyChange></FrequencyChanges></Clock>\n	Hungry_Donkey_bar_English_2-119-3	60.017	-136	1.0.0.18	1	1519854800	Standard	2.0.10.353	2.0.10.353	07-13-2015	7/13/2015 3:59:29 PM	11:59:29	2.0.10.248	101	Bar37-63.bmp	43	4	?	10r_4g.bmp	0r_4g.bmp	2r_2g.bmp	0r_2g.bmp				0r_2g.bmp	TrialProc	TrialList	0	cvbn	-999999	16	343868	0	n	668	344536	324	-433	-109	-12	-146	9	40	2	11	101	-10	0	-2	0	4	4	2	2	0	2
Hungry_Donkey_bar_English_2	119	3	<?xml version="1.0"?>\n<Clock xmlns:dt="urn:schemas-microsoft-com:datatypes"><Description dt:dt="string">E-Prime Primary Realtime Clock</Description><StartTime><Timestamp dt:dt="int">0</Timestamp><DateUtc dt:dt="string">2015-07-13T15:59:29Z</DateUtc></StartTime><FrequencyChanges><FrequencyChange><Frequency dt:dt="r8">3507685</Frequency><Timestamp dt:dt="r8">1818290353131</Timestamp><Current dt:dt="r8">0</Current><DateUtc dt:dt="string">2015-07-13T15:59:29Z</DateUtc></FrequencyChange></FrequencyChanges></Clock>\n	Hungry_Donkey_bar_English_2-119-3	60.017	-136	1.0.0.18	1	1519854800	Standard	2.0.10.353	2.0.10.353	07-13-2015	7/13/2015 3:59:29 PM	11:59:29	2.0.10.248	102	Bar37-63.bmp	43	3	?	8r_4g.bmp	50r_4g.bmp	1r_2g.bmp	10r_2g.bmp			1r_2g.bmp		TrialProc	TrialList	0	cvbn	-999999	16	346567	0	b	465	347032	326	-434	-108	-12	-146	10	40	1	11	102	-8	-50	-1	-10	4	4	2	2	-1	2
Hungry_Donkey_bar_English_2	119	3	<?xml version="1.0"?>\n<Clock xmlns:dt="urn:schemas-microsoft-com:datatypes"><Description dt:dt="string">E-Prime Primary Realtime Clock</Description><StartTime><Timestamp dt:dt="int">0</Timestamp><DateUtc dt:dt="string">2015-07-13T15:59:29Z</DateUtc></StartTime><FrequencyChanges><FrequencyChange><Frequency dt:dt="r8">3507685</Frequency><Timestamp dt:dt="r8">1818290353131</Timestamp><Current dt:dt="r8">0</Current><DateUtc dt:dt="string">2015-07-13T15:59:29Z</DateUtc></FrequencyChange></FrequencyChanges></Clock>\n	Hungry_Donkey_bar_English_2-119-3	60.017	-136	1.0.0.18	1	1519854800	Standard	2.0.10.353	2.0.10.353	07-13-2015	7/13/2015 3:59:29 PM	11:59:29	2.0.10.248	103	Bar37-63.bmp	43	2	?	0r_4g.bmp	0r_4g.bmp	0r_2g.bmp	0r_2g.bmp		0r_4g.bmp			TrialProc	TrialList	0	cvbn	-999999	16	349066	0	v	462	349528	330	-434	-104	-12	-142	10	40	8	11	103	0	0	0	0	4	4	2	2	0	4
Hungry_Donkey_bar_English_2	119	3	<?xml version="1.0"?>\n<Clock xmlns:dt="urn:schemas-microsoft-com:datatypes"><Description dt:dt="string">E-Prime Primary Realtime Clock</Description><StartTime><Timestamp dt:dt="int">0</Timestamp><DateUtc dt:dt="string">2015-07-13T15:59:29Z</DateUtc></StartTime><FrequencyChanges><FrequencyChange><Frequency dt:dt="r8">3507685</Frequency><Timestamp dt:dt="r8">1818290353131</Timestamp><Current dt:dt="r8">0</Current><DateUtc dt:dt="string">2015-07-13T15:59:29Z</DateUtc></FrequencyChange></FrequencyChanges></Clock>\n	Hungry_Donkey_bar_English_2-119-3	60.017	-136	1.0.0.18	1	1519854800	Standard	2.0.10.353	2.0.10.353	07-13-2015	7/13/2015 3:59:29 PM	11:59:29	2.0.10.248	104	Bar37-63.bmp	43	1	?	0r_4g.bmp	0r_4g.bmp	0r_2g.bmp	0r_2g.bmp	0r_4g.bmp				TrialProc	TrialList	0	cvbn	-999999	16	351566	0	c	394	351960	334	-434	-100	-8	-142	10	40	10	11	104	0	0	0	0	4	4	2	2	0	4
Hungry_Donkey_bar_English_2	119	3	<?xml version="1.0"?>\n<Clock xmlns:dt="urn:schemas-microsoft-com:datatypes"><Description dt:dt="string">E-Prime Primary Realtime Clock</Description><StartTime><Timestamp dt:dt="int">0</Timestamp><DateUtc dt:dt="string">2015-07-13T15:59:29Z</DateUtc></StartTime><FrequencyChanges><FrequencyChange><Frequency dt:dt="r8">3507685</Frequency><Timestamp dt:dt="r8">1818290353131</Timestamp><Current dt:dt="r8">0</Current><DateUtc dt:dt="string">2015-07-13T15:59:29Z</DateUtc></FrequencyChange></FrequencyChanges></Clock>\n	Hungry_Donkey_bar_English_2-119-3	60.017	-136	1.0.0.18	1	1519854800	Standard	2.0.10.353	2.0.10.353	07-13-2015	7/13/2015 3:59:29 PM	11:59:29	2.0.10.248	105	Bar50-50.bmp	44	1	?	0r_4g.bmp	0r_4g.bmp	0r_2g.bmp	0r_2g.bmp	0r_4g.bmp				TrialProc	TrialList	0	cvbn	-999999	16	353998	0	c	409	354407	338	-434	-96	-4	-142	10	40	6	11	105	0	0	0	0	4	4	2	2	0	4
Hungry_Donkey_bar_English_2	119	3	<?xml version="1.0"?>\n<Clock xmlns:dt="urn:schemas-microsoft-com:datatypes"><Description dt:dt="string">E-Prime Primary Realtime Clock</Description><StartTime><Timestamp dt:dt="int">0</Timestamp><DateUtc dt:dt="string">2015-07-13T15:59:29Z</DateUtc></StartTime><FrequencyChanges><FrequencyChange><Frequency dt:dt="r8">3507685</Frequency><Timestamp dt:dt="r8">1818290353131</Timestamp><Current dt:dt="r8">0</Current><DateUtc dt:dt="string">2015-07-13T15:59:29Z</DateUtc></FrequencyChange></FrequencyChanges></Clock>\n	Hungry_Donkey_bar_English_2-119-3	60.017	-136	1.0.0.18	1	1519854800	Standard	2.0.10.353	2.0.10.353	07-13-2015	7/13/2015 3:59:29 PM	11:59:29	2.0.10.248	106	Bar50-50.bmp	44	1	?	10r_4g.bmp	0r_4g.bmp	2r_2g.bmp	0r_2g.bmp	10r_4g.bmp				TrialProc	TrialList	0	cvbn	-999999	16	356431	0	c	408	356839	342	-444	-102	-10	-142	10	40	4	11	106	-10	0	-2	0	4	4	2	2	-10	4
Hungry_Donkey_bar_English_2	119	3	<?xml version="1.0"?>\n<Clock xmlns:dt="urn:schemas-microsoft-com:datatypes"><Description dt:dt="string">E-Prime Primary Realtime Clock</Description><StartTime><Timestamp dt:dt="int">0</Timestamp><DateUtc dt:dt="string">2015-07-13T15:59:29Z</DateUtc></StartTime><FrequencyChanges><FrequencyChange><Frequency dt:dt="r8">3507685</Frequency><Timestamp dt:dt="r8">1818290353131</Timestamp><Current dt:dt="r8">0</Current><DateUtc dt:dt="string">2015-07-13T15:59:29Z</DateUtc></FrequencyChange></FrequencyChanges></Clock>\n	Hungry_Donkey_bar_English_2-119-3	60.017	-136	1.0.0.18	1	1519854800	Standard	2.0.10.353	2.0.10.353	07-13-2015	7/13/2015 3:59:29 PM	11:59:29	2.0.10.248	107	Bar50-50.bmp	44	2	?	12r_4g.bmp	0r_4g.bmp	3r_2g.bmp	0r_2g.bmp		0r_4g.bmp			TrialProc	TrialList	0	cvbn	-999999	16	358864	0	v	583	359447	346	-444	-98	-10	-138	10	40	5	11	107	-12	0	-3	0	4	4	2	2	0	4
Hungry_Donkey_bar_English_2	119	3	<?xml version="1.0"?>\n<Clock xmlns:dt="urn:schemas-microsoft-com:datatypes"><Description dt:dt="string">E-Prime Primary Realtime Clock</Description><StartTime><Timestamp dt:dt="int">0</Timestamp><DateUtc dt:dt="string">2015-07-13T15:59:29Z</DateUtc></StartTime><FrequencyChanges><FrequencyChange><Frequency dt:dt="r8">3507685</Frequency><Timestamp dt:dt="r8">1818290353131</Timestamp><Current dt:dt="r8">0</Current><DateUtc dt:dt="string">2015-07-13T15:59:29Z</DateUtc></FrequencyChange></FrequencyChanges></Clock>\n	Hungry_Donkey_bar_English_2-119-3	60.017	-136	1.0.0.18	1	1519854800	Standard	2.0.10.353	2.0.10.353	07-13-2015	7/13/2015 3:59:29 PM	11:59:29	2.0.10.248	108	Bar50-50.bmp	44	4	?	0r_4g.bmp	0r_4g.bmp	0r_2g.bmp	0r_2g.bmp				0r_2g.bmp	TrialProc	TrialList	0	cvbn	-999999	17	361480	0	n	863	362343	348	-444	-96	-10	-138	10	42	9	11	108	0	0	0	0	4	4	2	2	0	2
Hungry_Donkey_bar_English_2	119	3	<?xml version="1.0"?>\n<Clock xmlns:dt="urn:schemas-microsoft-com:datatypes"><Description dt:dt="string">E-Prime Primary Realtime Clock</Description><StartTime><Timestamp dt:dt="int">0</Timestamp><DateUtc dt:dt="string">2015-07-13T15:59:29Z</DateUtc></StartTime><FrequencyChanges><FrequencyChange><Frequency dt:dt="r8">3507685</Frequency><Timestamp dt:dt="r8">1818290353131</Timestamp><Current dt:dt="r8">0</Current><DateUtc dt:dt="string">2015-07-13T15:59:29Z</DateUtc></FrequencyChange></FrequencyChanges></Clock>\n	Hungry_Donkey_bar_English_2-119-3	60.017	-136	1.0.0.18	1	1519854800	Standard	2.0.10.353	2.0.10.353	07-13-2015	7/13/2015 3:59:29 PM	11:59:29	2.0.10.248	109	Bar50-50.bmp	44	3	?	0r_4g.bmp	0r_4g.bmp	0r_2g.bmp	0r_2g.bmp			0r_2g.bmp		TrialProc	TrialList	0	cvbn	-999999	16	364379	0	b	476	364855	350	-444	-94	-10	-138	12	42	7	11	109	0	0	0	0	4	4	2	2	0	2
Hungry_Donkey_bar_English_2	119	3	<?xml version="1.0"?>\n<Clock xmlns:dt="urn:schemas-microsoft-com:datatypes"><Description dt:dt="string">E-Prime Primary Realtime Clock</Description><StartTime><Timestamp dt:dt="int">0</Timestamp><DateUtc dt:dt="string">2015-07-13T15:59:29Z</DateUtc></StartTime><FrequencyChanges><FrequencyChange><Frequency dt:dt="r8">3507685</Frequency><Timestamp dt:dt="r8">1818290353131</Timestamp><Current dt:dt="r8">0</Current><DateUtc dt:dt="string">2015-07-13T15:59:29Z</DateUtc></FrequencyChange></FrequencyChanges></Clock>\n	Hungry_Donkey_bar_English_2-119-3	60.017	-136	1.0.0.18	1	1519854800	Standard	2.0.10.353	2.0.10.353	07-13-2015	7/13/2015 3:59:29 PM	11:59:29	2.0.10.248	110	Bar50-50.bmp	44	2	?	10r_4g.bmp	0r_4g.bmp	2r_2g.bmp	0r_2g.bmp		0r_4g.bmp			TrialProc	TrialList	0	cvbn	-999999	16	366895	0	v	600	367495	354	-444	-90	-10	-134	12	42	3	11	110	-10	0	-2	0	4	4	2	2	0	4
