ExperimentName	Subject	Session	Clock.Information	DataFile.Basename	Display.RefreshRate	Eindtotaal[Session]	ExperimentVersion	Group	RandomSeed	RuntimeCapabilities	RuntimeVersion	RuntimeVersionExpected	SessionDate	SessionStartDateTimeUtc	SessionTime	StudioVersion	Block	BarImage	BarTotalWinst	DoorChoice	Eindtotaal[Block]	FBDoor1	FBDoor2	FBDoor3	FBDoor4	Image1	Image2	Image3	Image4	Procedure	Running	spel.ACC	spel.CRESP	spel.DurationError	spel.OnsetDelay	spel.OnsetTime	spel.OnsetToOnsetTime	spel.RESP	spel.RT	spel.RTTime	TotalGain	TotalLose	Totalsum	TotalsumD1	TotalsumD2	TotalsumD3	TotalsumD4	TrialList	TrialList.Cycle	TrialList.Sample	varV1	varV2	varV3	varV4	varW1	varW2	varW3	varW4	Verliesbedrag	Winstbedrag
Hungry_Donkey_bar_English_2	169	1	<?xml version="1.0"?>\n<Clock xmlns:dt="urn:schemas-microsoft-com:datatypes"><Description dt:dt="string">E-Prime Primary Realtime Clock</Description><StartTime><Timestamp dt:dt="int">0</Timestamp><DateUtc dt:dt="string">2016-08-22T21:36:37Z</DateUtc></StartTime><FrequencyChanges><FrequencyChange><Frequency dt:dt="r8">3507685</Frequency><Timestamp dt:dt="r8">1209117156003</Timestamp><Current dt:dt="r8">0</Current><DateUtc dt:dt="string">2016-08-22T21:36:37Z</DateUtc></FrequencyChange></FrequencyChanges></Clock>\n	Hungry_Donkey_bar_English_2-169-1	60.017	87	1.0.0.18	1	-2062925481	Standard	2.0.10.353	2.0.10.353	08-22-2016	8/22/2016 9:36:37 PM	17:36:37	2.0.10.248	1	Bar25-75.bmp	29	1	?	10r_4g.bmp	0r_4g.bmp	2r_2g.bmp	0r_2g.bmp	10r_4g.bmp				TrialProc	TrialList	0	cvbn	-999999	25	53783	0	c	1063	54846	4	-10	-6	-6	0	0	0	3	1	1	-10	0	-2	0	4	4	2	2	-10	4
Hungry_Donkey_bar_English_2	169	1	<?xml version="1.0"?>\n<Clock xmlns:dt="urn:schemas-microsoft-com:datatypes"><Description dt:dt="string">E-Prime Primary Realtime Clock</Description><StartTime><Timestamp dt:dt="int">0</Timestamp><DateUtc dt:dt="string">2016-08-22T21:36:37Z</DateUtc></StartTime><FrequencyChanges><FrequencyChange><Frequency dt:dt="r8">3507685</Frequency><Timestamp dt:dt="r8">1209117156003</Timestamp><Current dt:dt="r8">0</Current><DateUtc dt:dt="string">2016-08-22T21:36:37Z</DateUtc></FrequencyChange></FrequencyChanges></Clock>\n	Hungry_Donkey_bar_English_2-169-1	60.017	87	1.0.0.18	1	-2062925481	Standard	2.0.10.353	2.0.10.353	08-22-2016	8/22/2016 9:36:37 PM	17:36:37	2.0.10.248	2	Bar50-50.bmp	44	2	?	0r_4g.bmp	0r_4g.bmp	0r_2g.bmp	0r_2g.bmp		0r_4g.bmp			TrialProc	TrialList	0	cvbn	-999999	16	56882	0	v	620	57502	8	-10	-2	-6	4	0	0	10	1	2	0	0	0	0	4	4	2	2	0	4
Hungry_Donkey_bar_English_2	169	1	<?xml version="1.0"?>\n<Clock xmlns:dt="urn:schemas-microsoft-com:datatypes"><Description dt:dt="string">E-Prime Primary Realtime Clock</Description><StartTime><Timestamp dt:dt="int">0</Timestamp><DateUtc dt:dt="string">2016-08-22T21:36:37Z</DateUtc></StartTime><FrequencyChanges><FrequencyChange><Frequency dt:dt="r8">3507685</Frequency><Timestamp dt:dt="r8">1209117156003</Timestamp><Current dt:dt="r8">0</Current><DateUtc dt:dt="string">2016-08-22T21:36:37Z</DateUtc></FrequencyChange></FrequencyChanges></Clock>\n	Hungry_Donkey_bar_English_2-169-1	60.017	87	1.0.0.18	1	-2062925481	Standard	2.0.10.353	2.0.10.353	08-22-2016	8/22/2016 9:36:37 PM	17:36:37	2.0.10.248	3	Bar37-63.bmp	43	3	?	12r_4g.bmp	0r_4g.bmp	3r_2g.bmp	0r_2g.bmp			3r_2g.bmp		TrialProc	TrialList	0	cvbn	-999999	16	59531	0	b	515	60046	10	-13	-3	-6	4	-1	0	5	1	3	-12	0	-3	0	4	4	2	2	-3	2
Hungry_Donkey_bar_English_2	169	1	<?xml version="1.0"?>\n<Clock xmlns:dt="urn:schemas-microsoft-com:datatypes"><Description dt:dt="string">E-Prime Primary Realtime Clock</Description><StartTime><Timestamp dt:dt="int">0</Timestamp><DateUtc dt:dt="string">2016-08-22T21:36:37Z</DateUtc></StartTime><FrequencyChanges><FrequencyChange><Frequency dt:dt="r8">3507685</Frequency><Timestamp dt:dt="r8">1209117156003</Timestamp><Current dt:dt="r8">0</Current><DateUtc dt:dt="string">2016-08-22T21:36:37Z</DateUtc></FrequencyChange></FrequencyChanges></Clock>\n	Hungry_Donkey_bar_English_2-169-1	60.017	87	1.0.0.18	1	-2062925481	Standard	2.0.10.353	2.0.10.353	08-22-2016	8/22/2016 9:36:37 PM	17:36:37	2.0.10.248	4	Bar50-50.bmp	52	2	?	0r_4g.bmp	0r_4g.bmp	0r_2g.bmp	0r_2g.bmp		0r_4g.bmp			TrialProc	TrialList	0	cvbn	-999999	16	62081	0	v	813	62894	14	-13	1	-6	8	-1	0	8	1	4	0	0	0	0	4	4	2	2	0	4
Hungry_Donkey_bar_English_2	169	1	<?xml version="1.0"?>\n<Clock xmlns:dt="urn:schemas-microsoft-com:datatypes"><Description dt:dt="string">E-Prime Primary Realtime Clock</Description><StartTime><Timestamp dt:dt="int">0</Timestamp><DateUtc dt:dt="string">2016-08-22T21:36:37Z</DateUtc></StartTime><FrequencyChanges><FrequencyChange><Frequency dt:dt="r8">3507685</Frequency><Timestamp dt:dt="r8">1209117156003</Timestamp><Current dt:dt="r8">0</Current><DateUtc dt:dt="string">2016-08-22T21:36:37Z</DateUtc></FrequencyChange></FrequencyChanges></Clock>\n	Hungry_Donkey_bar_English_2-169-1	60.017	87	1.0.0.18	1	-2062925481	Standard	2.0.10.353	2.0.10.353	08-22-2016	8/22/2016 9:36:37 PM	17:36:37	2.0.10.248	5	Bar50-50.bmp	55	4	?	0r_4g.bmp	0r_4g.bmp	0r_2g.bmp	0r_2g.bmp				0r_2g.bmp	TrialProc	TrialList	0	cvbn	-999999	16	64930	0	n	668	65598	16	-13	3	-6	8	-1	2	6	1	5	0	0	0	0	4	4	2	2	0	2
Hungry_Donkey_bar_English_2	169	1	<?xml version="1.0"?>\n<Clock xmlns:dt="urn:schemas-microsoft-com:datatypes"><Description dt:dt="string">E-Prime Primary Realtime Clock</Description><StartTime><Timestamp dt:dt="int">0</Timestamp><DateUtc dt:dt="string">2016-08-22T21:36:37Z</DateUtc></StartTime><FrequencyChanges><FrequencyChange><Frequency dt:dt="r8">3507685</Frequency><Timestamp dt:dt="r8">1209117156003</Timestamp><Current dt:dt="r8">0</Current><DateUtc dt:dt="string">2016-08-22T21:36:37Z</DateUtc></FrequencyChange></FrequencyChanges></Clock>\n	Hungry_Donkey_bar_English_2-169-1	60.017	87	1.0.0.18	1	-2062925481	Standard	2.0.10.353	2.0.10.353	08-22-2016	8/22/2016 9:36:37 PM	17:36:37	2.0.10.248	6	Bar63-37.bmp	61	2	?	10r_4g.bmp	0r_4g.bmp	2r_2g.bmp	0r_2g.bmp		0r_4g.bmp			TrialProc	TrialList	0	cvbn	-999999	16	67629	0	v	993	68622	20	-13	7	-6	12	-1	2	2	1	6	-10	0	-2	0	4	4	2	2	0	4
Hungry_Donkey_bar_English_2	169	1	<?xml version="1.0"?>\n<Clock xmlns:dt="urn:schemas-microsoft-com:datatypes"><Description dt:dt="string">E-Prime Primary Realtime Clock</Description><StartTime><Timestamp dt:dt="int">0</Timestamp><DateUtc dt:dt="string">2016-08-22T21:36:37Z</DateUtc></StartTime><FrequencyChanges><FrequencyChange><Frequency dt:dt="r8">3507685</Frequency><Timestamp dt:dt="r8">1209117156003</Timestamp><Current dt:dt="r8">0</Current><DateUtc dt:dt="string">2016-08-22T21:36:37Z</DateUtc></FrequencyChange></FrequencyChanges></Clock>\n	Hungry_Donkey_bar_English_2-169-1	60.017	87	1.0.0.18	1	-2062925481	Standard	2.0.10.353	2.0.10.353	08-22-2016	8/22/2016 9:36:37 PM	17:36:37	2.0.10.248	7	Bar63-37.bmp	65	2	?	0r_4g.bmp	0r_4g.bmp	0r_2g.bmp	0r_2g.bmp		0r_4g.bmp			TrialProc	TrialList	0	cvbn	-999999	17	70662	0	v	583	71245	24	-13	11	-6	16	-1	2	9	1	7	0	0	0	0	4	4	2	2	0	4
Hungry_Donkey_bar_English_2	169	1	<?xml version="1.0"?>\n<Clock xmlns:dt="urn:schemas-microsoft-com:datatypes"><Description dt:dt="string">E-Prime Primary Realtime Clock</Description><StartTime><Timestamp dt:dt="int">0</Timestamp><DateUtc dt:dt="string">2016-08-22T21:36:37Z</DateUtc></StartTime><FrequencyChanges><FrequencyChange><Frequency dt:dt="r8">3507685</Frequency><Timestamp dt:dt="r8">1209117156003</Timestamp><Current dt:dt="r8">0</Current><DateUtc dt:dt="string">2016-08-22T21:36:37Z</DateUtc></FrequencyChange></FrequencyChanges></Clock>\n	Hungry_Donkey_bar_English_2-169-1	60.017	87	1.0.0.18	1	-2062925481	Standard	2.0.10.353	2.0.10.353	08-22-2016	8/22/2016 9:36:37 PM	17:36:37	2.0.10.248	8	Bar63-37.bmp	68	2	?	0r_4g.bmp	0r_4g.bmp	0r_2g.bmp	0r_2g.bmp		0r_4g.bmp			TrialProc	TrialList	0	cvbn	-999999	16	73277	0	v	656	73933	28	-13	15	-6	20	-1	2	7	1	8	0	0	0	0	4	4	2	2	0	4
Hungry_Donkey_bar_English_2	169	1	<?xml version="1.0"?>\n<Clock xmlns:dt="urn:schemas-microsoft-com:datatypes"><Description dt:dt="string">E-Prime Primary Realtime Clock</Description><StartTime><Timestamp dt:dt="int">0</Timestamp><DateUtc dt:dt="string">2016-08-22T21:36:37Z</DateUtc></StartTime><FrequencyChanges><FrequencyChange><Frequency dt:dt="r8">3507685</Frequency><Timestamp dt:dt="r8">1209117156003</Timestamp><Current dt:dt="r8">0</Current><DateUtc dt:dt="string">2016-08-22T21:36:37Z</DateUtc></FrequencyChange></FrequencyChanges></Clock>\n	Hungry_Donkey_bar_English_2-169-1	60.017	87	1.0.0.18	1	-2062925481	Standard	2.0.10.353	2.0.10.353	08-22-2016	8/22/2016 9:36:37 PM	17:36:37	2.0.10.248	9	Bar37-63.bmp	34	2	?	8r_4g.bmp	50r_4g.bmp	1r_2g.bmp	10r_2g.bmp		50r_4g.bmp			TrialProc	TrialList	0	cvbn	-999999	16	75960	0	v	453	76413	32	-63	-31	-6	-26	-1	2	1	1	9	-8	-50	-1	-10	4	4	2	2	-50	4
Hungry_Donkey_bar_English_2	169	1	<?xml version="1.0"?>\n<Clock xmlns:dt="urn:schemas-microsoft-com:datatypes"><Description dt:dt="string">E-Prime Primary Realtime Clock</Description><StartTime><Timestamp dt:dt="int">0</Timestamp><DateUtc dt:dt="string">2016-08-22T21:36:37Z</DateUtc></StartTime><FrequencyChanges><FrequencyChange><Frequency dt:dt="r8">3507685</Frequency><Timestamp dt:dt="r8">1209117156003</Timestamp><Current dt:dt="r8">0</Current><DateUtc dt:dt="string">2016-08-22T21:36:37Z</DateUtc></FrequencyChange></FrequencyChanges></Clock>\n	Hungry_Donkey_bar_English_2-169-1	60.017	87	1.0.0.18	1	-2062925481	Standard	2.0.10.353	2.0.10.353	08-22-2016	8/22/2016 9:36:37 PM	17:36:37	2.0.10.248	10	Bar37-63.bmp	34	3	?	10r_4g.bmp	0r_4g.bmp	2r_2g.bmp	0r_2g.bmp			2r_2g.bmp		TrialProc	TrialList	0	cvbn	-999999	16	78443	0	b	2066	80509	34	-65	-31	-6	-26	-1	2	4	1	10	-10	0	-2	0	4	4	2	2	-2	2
Hungry_Donkey_bar_English_2	169	1	<?xml version="1.0"?>\n<Clock xmlns:dt="urn:schemas-microsoft-com:datatypes"><Description dt:dt="string">E-Prime Primary Realtime Clock</Description><StartTime><Timestamp dt:dt="int">0</Timestamp><DateUtc dt:dt="string">2016-08-22T21:36:37Z</DateUtc></StartTime><FrequencyChanges><FrequencyChange><Frequency dt:dt="r8">3507685</Frequency><Timestamp dt:dt="r8">1209117156003</Timestamp><Current dt:dt="r8">0</Current><DateUtc dt:dt="string">2016-08-22T21:36:37Z</DateUtc></FrequencyChange></FrequencyChanges></Clock>\n	Hungry_Donkey_bar_English_2-169-1	60.017	87	1.0.0.18	1	-2062925481	Standard	2.0.10.353	2.0.10.353	08-22-2016	8/22/2016 9:36:37 PM	17:36:37	2.0.10.248	11	Bar37-63.bmp	37	2	?	0r_4g.bmp	0r_4g.bmp	0r_2g.bmp	0r_2g.bmp		0r_4g.bmp			TrialProc	TrialList	0	cvbn	-999999	16	82541	0	v	576	83117	38	-65	-27	-6	-22	-1	2	6	2	11	0	0	0	0	4	4	2	2	0	4
Hungry_Donkey_bar_English_2	169	1	<?xml version="1.0"?>\n<Clock xmlns:dt="urn:schemas-microsoft-com:datatypes"><Description dt:dt="string">E-Prime Primary Realtime Clock</Description><StartTime><Timestamp dt:dt="int">0</Timestamp><DateUtc dt:dt="string">2016-08-22T21:36:37Z</DateUtc></StartTime><FrequencyChanges><FrequencyChange><Frequency dt:dt="r8">3507685</Frequency><Timestamp dt:dt="r8">1209117156003</Timestamp><Current dt:dt="r8">0</Current><DateUtc dt:dt="string">2016-08-22T21:36:37Z</DateUtc></FrequencyChange></FrequencyChanges></Clock>\n	Hungry_Donkey_bar_English_2-169-1	60.017	87	1.0.0.18	1	-2062925481	Standard	2.0.10.353	2.0.10.353	08-22-2016	8/22/2016 9:36:37 PM	17:36:37	2.0.10.248	12	Bar37-63.bmp	38	4	?	0r_4g.bmp	0r_4g.bmp	0r_2g.bmp	0r_2g.bmp				0r_2g.bmp	TrialProc	TrialList	0	cvbn	-999999	16	85157	0	n	264	85421	40	-65	-25	-6	-22	-1	4	8	2	12	0	0	0	0	4	4	2	2	0	2
Hungry_Donkey_bar_English_2	169	1	<?xml version="1.0"?>\n<Clock xmlns:dt="urn:schemas-microsoft-com:datatypes"><Description dt:dt="string">E-Prime Primary Realtime Clock</Description><StartTime><Timestamp dt:dt="int">0</Timestamp><DateUtc dt:dt="string">2016-08-22T21:36:37Z</DateUtc></StartTime><FrequencyChanges><FrequencyChange><Frequency dt:dt="r8">3507685</Frequency><Timestamp dt:dt="r8">1209117156003</Timestamp><Current dt:dt="r8">0</Current><DateUtc dt:dt="string">2016-08-22T21:36:37Z</DateUtc></FrequencyChange></FrequencyChanges></Clock>\n	Hungry_Donkey_bar_English_2-169-1	60.017	87	1.0.0.18	1	-2062925481	Standard	2.0.10.353	2.0.10.353	08-22-2016	8/22/2016 9:36:37 PM	17:36:37	2.0.10.248	13	Bar37-63.bmp	40	2	?	0r_4g.bmp	0r_4g.bmp	0r_2g.bmp	0r_2g.bmp		0r_4g.bmp			TrialProc	TrialList	0	cvbn	-999999	16	87457	0	v	764	88221	44	-65	-21	-6	-18	-1	4	9	2	13	0	0	0	0	4	4	2	2	0	4
Hungry_Donkey_bar_English_2	169	1	<?xml version="1.0"?>\n<Clock xmlns:dt="urn:schemas-microsoft-com:datatypes"><Description dt:dt="string">E-Prime Primary Realtime Clock</Description><StartTime><Timestamp dt:dt="int">0</Timestamp><DateUtc dt:dt="string">2016-08-22T21:36:37Z</DateUtc></StartTime><FrequencyChanges><FrequencyChange><Frequency dt:dt="r8">3507685</Frequency><Timestamp dt:dt="r8">1209117156003</Timestamp><Current dt:dt="r8">0</Current><DateUtc dt:dt="string">2016-08-22T21:36:37Z</DateUtc></FrequencyChange></FrequencyChanges></Clock>\n	Hungry_Donkey_bar_English_2-169-1	60.017	87	1.0.0.18	1	-2062925481	Standard	2.0.10.353	2.0.10.353	08-22-2016	8/22/2016 9:36:37 PM	17:36:37	2.0.10.248	14	Bar37-63.bmp	40	1	?	8r_4g.bmp	50r_4g.bmp	1r_2g.bmp	10r_2g.bmp	8r_4g.bmp				TrialProc	TrialList	0	cvbn	-999999	16	90256	0	c	412	90668	48	-73	-25	-10	-18	-1	4	1	2	14	-8	-50	-1	-10	4	4	2	2	-8	4
Hungry_Donkey_bar_English_2	169	1	<?xml version="1.0"?>\n<Clock xmlns:dt="urn:schemas-microsoft-com:datatypes"><Description dt:dt="string">E-Prime Primary Realtime Clock</Description><StartTime><Timestamp dt:dt="int">0</Timestamp><DateUtc dt:dt="string">2016-08-22T21:36:37Z</DateUtc></StartTime><FrequencyChanges><FrequencyChange><Frequency dt:dt="r8">3507685</Frequency><Timestamp dt:dt="r8">1209117156003</Timestamp><Current dt:dt="r8">0</Current><DateUtc dt:dt="string">2016-08-22T21:36:37Z</DateUtc></FrequencyChange></FrequencyChanges></Clock>\n	Hungry_Donkey_bar_English_2-169-1	60.017	87	1.0.0.18	1	-2062925481	Standard	2.0.10.353	2.0.10.353	08-22-2016	8/22/2016 9:36:37 PM	17:36:37	2.0.10.248	15	Bar37-63.bmp	42	2	?	0r_4g.bmp	0r_4g.bmp	0r_2g.bmp	0r_2g.bmp		0r_4g.bmp			TrialProc	TrialList	0	cvbn	-999999	16	92705	0	v	651	93356	52	-73	-21	-10	-14	-1	4	10	2	15	0	0	0	0	4	4	2	2	0	4
Hungry_Donkey_bar_English_2	169	1	<?xml version="1.0"?>\n<Clock xmlns:dt="urn:schemas-microsoft-com:datatypes"><Description dt:dt="string">E-Prime Primary Realtime Clock</Description><StartTime><Timestamp dt:dt="int">0</Timestamp><DateUtc dt:dt="string">2016-08-22T21:36:37Z</DateUtc></StartTime><FrequencyChanges><FrequencyChange><Frequency dt:dt="r8">3507685</Frequency><Timestamp dt:dt="r8">1209117156003</Timestamp><Current dt:dt="r8">0</Current><DateUtc dt:dt="string">2016-08-22T21:36:37Z</DateUtc></FrequencyChange></FrequencyChanges></Clock>\n	Hungry_Donkey_bar_English_2-169-1	60.017	87	1.0.0.18	1	-2062925481	Standard	2.0.10.353	2.0.10.353	08-22-2016	8/22/2016 9:36:37 PM	17:36:37	2.0.10.248	16	Bar37-63.bmp	43	2	?	10r_4g.bmp	0r_4g.bmp	2r_2g.bmp	0r_2g.bmp		0r_4g.bmp			TrialProc	TrialList	0	cvbn	-999999	16	95388	0	v	560	95948	56	-73	-17	-10	-10	-1	4	4	2	16	-10	0	-2	0	4	4	2	2	0	4
Hungry_Donkey_bar_English_2	169	1	<?xml version="1.0"?>\n<Clock xmlns:dt="urn:schemas-microsoft-com:datatypes"><Description dt:dt="string">E-Prime Primary Realtime Clock</Description><StartTime><Timestamp dt:dt="int">0</Timestamp><DateUtc dt:dt="string">2016-08-22T21:36:37Z</DateUtc></StartTime><FrequencyChanges><FrequencyChange><Frequency dt:dt="r8">3507685</Frequency><Timestamp dt:dt="r8">1209117156003</Timestamp><Current dt:dt="r8">0</Current><DateUtc dt:dt="string">2016-08-22T21:36:37Z</DateUtc></FrequencyChange></FrequencyChanges></Clock>\n	Hungry_Donkey_bar_English_2-169-1	60.017	87	1.0.0.18	1	-2062925481	Standard	2.0.10.353	2.0.10.353	08-22-2016	8/22/2016 9:36:37 PM	17:36:37	2.0.10.248	17	Bar50-50.bmp	45	2	?	12r_4g.bmp	0r_4g.bmp	3r_2g.bmp	0r_2g.bmp		0r_4g.bmp			TrialProc	TrialList	0	cvbn	-999999	16	97987	0	v	697	98684	60	-73	-13	-10	-6	-1	4	5	2	17	-12	0	-3	0	4	4	2	2	0	4
Hungry_Donkey_bar_English_2	169	1	<?xml version="1.0"?>\n<Clock xmlns:dt="urn:schemas-microsoft-com:datatypes"><Description dt:dt="string">E-Prime Primary Realtime Clock</Description><StartTime><Timestamp dt:dt="int">0</Timestamp><DateUtc dt:dt="string">2016-08-22T21:36:37Z</DateUtc></StartTime><FrequencyChanges><FrequencyChange><Frequency dt:dt="r8">3507685</Frequency><Timestamp dt:dt="r8">1209117156003</Timestamp><Current dt:dt="r8">0</Current><DateUtc dt:dt="string">2016-08-22T21:36:37Z</DateUtc></FrequencyChange></FrequencyChanges></Clock>\n	Hungry_Donkey_bar_English_2-169-1	60.017	87	1.0.0.18	1	-2062925481	Standard	2.0.10.353	2.0.10.353	08-22-2016	8/22/2016 9:36:37 PM	17:36:37	2.0.10.248	18	Bar50-50.bmp	47	2	?	10r_4g.bmp	0r_4g.bmp	2r_2g.bmp	0r_2g.bmp		0r_4g.bmp			TrialProc	TrialList	0	cvbn	-999999	17	100720	0	v	476	101196	64	-73	-9	-10	-2	-1	4	3	2	18	-10	0	-2	0	4	4	2	2	0	4
Hungry_Donkey_bar_English_2	169	1	<?xml version="1.0"?>\n<Clock xmlns:dt="urn:schemas-microsoft-com:datatypes"><Description dt:dt="string">E-Prime Primary Realtime Clock</Description><StartTime><Timestamp dt:dt="int">0</Timestamp><DateUtc dt:dt="string">2016-08-22T21:36:37Z</DateUtc></StartTime><FrequencyChanges><FrequencyChange><Frequency dt:dt="r8">3507685</Frequency><Timestamp dt:dt="r8">1209117156003</Timestamp><Current dt:dt="r8">0</Current><DateUtc dt:dt="string">2016-08-22T21:36:37Z</DateUtc></FrequencyChange></FrequencyChanges></Clock>\n	Hungry_Donkey_bar_English_2-169-1	60.017	87	1.0.0.18	1	-2062925481	Standard	2.0.10.353	2.0.10.353	08-22-2016	8/22/2016 9:36:37 PM	17:36:37	2.0.10.248	19	Bar50-50.bmp	47	3	?	0r_4g.bmp	0r_4g.bmp	0r_2g.bmp	0r_2g.bmp			0r_2g.bmp		TrialProc	TrialList	0	cvbn	-999999	16	103235	0	b	2505	105740	66	-73	-7	-10	-2	1	4	7	2	19	0	0	0	0	4	4	2	2	0	2
Hungry_Donkey_bar_English_2	169	1	<?xml version="1.0"?>\n<Clock xmlns:dt="urn:schemas-microsoft-com:datatypes"><Description dt:dt="string">E-Prime Primary Realtime Clock</Description><StartTime><Timestamp dt:dt="int">0</Timestamp><DateUtc dt:dt="string">2016-08-22T21:36:37Z</DateUtc></StartTime><FrequencyChanges><FrequencyChange><Frequency dt:dt="r8">3507685</Frequency><Timestamp dt:dt="r8">1209117156003</Timestamp><Current dt:dt="r8">0</Current><DateUtc dt:dt="string">2016-08-22T21:36:37Z</DateUtc></FrequencyChange></FrequencyChanges></Clock>\n	Hungry_Donkey_bar_English_2-169-1	60.017	87	1.0.0.18	1	-2062925481	Standard	2.0.10.353	2.0.10.353	08-22-2016	8/22/2016 9:36:37 PM	17:36:37	2.0.10.248	20	Bar50-50.bmp	49	2	?	10r_4g.bmp	0r_4g.bmp	2r_2g.bmp	0r_2g.bmp		0r_4g.bmp			TrialProc	TrialList	0	cvbn	-999999	17	107768	0	v	675	108443	70	-73	-3	-10	2	1	4	2	2	20	-10	0	-2	0	4	4	2	2	0	4
Hungry_Donkey_bar_English_2	169	1	<?xml version="1.0"?>\n<Clock xmlns:dt="urn:schemas-microsoft-com:datatypes"><Description dt:dt="string">E-Prime Primary Realtime Clock</Description><StartTime><Timestamp dt:dt="int">0</Timestamp><DateUtc dt:dt="string">2016-08-22T21:36:37Z</DateUtc></StartTime><FrequencyChanges><FrequencyChange><Frequency dt:dt="r8">3507685</Frequency><Timestamp dt:dt="r8">1209117156003</Timestamp><Current dt:dt="r8">0</Current><DateUtc dt:dt="string">2016-08-22T21:36:37Z</DateUtc></FrequencyChange></FrequencyChanges></Clock>\n	Hungry_Donkey_bar_English_2-169-1	60.017	87	1.0.0.18	1	-2062925481	Standard	2.0.10.353	2.0.10.353	08-22-2016	8/22/2016 9:36:37 PM	17:36:37	2.0.10.248	21	Bar50-50.bmp	49	3	?	12r_4g.bmp	0r_4g.bmp	3r_2g.bmp	0r_2g.bmp			3r_2g.bmp		TrialProc	TrialList	0	cvbn	-999999	16	110483	0	b	600	111083	72	-76	-4	-10	2	0	4	5	3	21	-12	0	-3	0	4	4	2	2	-3	2
Hungry_Donkey_bar_English_2	169	1	<?xml version="1.0"?>\n<Clock xmlns:dt="urn:schemas-microsoft-com:datatypes"><Description dt:dt="string">E-Prime Primary Realtime Clock</Description><StartTime><Timestamp dt:dt="int">0</Timestamp><DateUtc dt:dt="string">2016-08-22T21:36:37Z</DateUtc></StartTime><FrequencyChanges><FrequencyChange><Frequency dt:dt="r8">3507685</Frequency><Timestamp dt:dt="r8">1209117156003</Timestamp><Current dt:dt="r8">0</Current><DateUtc dt:dt="string">2016-08-22T21:36:37Z</DateUtc></FrequencyChange></FrequencyChanges></Clock>\n	Hungry_Donkey_bar_English_2-169-1	60.017	87	1.0.0.18	1	-2062925481	Standard	2.0.10.353	2.0.10.353	08-22-2016	8/22/2016 9:36:37 PM	17:36:37	2.0.10.248	22	Bar50-50.bmp	50	2	?	0r_4g.bmp	0r_4g.bmp	0r_2g.bmp	0r_2g.bmp		0r_4g.bmp			TrialProc	TrialList	0	cvbn	-999999	16	113116	0	v	543	113659	76	-76	0	-10	6	0	4	6	3	22	0	0	0	0	4	4	2	2	0	4
Hungry_Donkey_bar_English_2	169	1	<?xml version="1.0"?>\n<Clock xmlns:dt="urn:schemas-microsoft-com:datatypes"><Description dt:dt="string">E-Prime Primary Realtime Clock</Description><StartTime><Timestamp dt:dt="int">0</Timestamp><DateUtc dt:dt="string">2016-08-22T21:36:37Z</DateUtc></StartTime><FrequencyChanges><FrequencyChange><Frequency dt:dt="r8">3507685</Frequency><Timestamp dt:dt="r8">1209117156003</Timestamp><Current dt:dt="r8">0</Current><DateUtc dt:dt="string">2016-08-22T21:36:37Z</DateUtc></FrequencyChange></FrequencyChanges></Clock>\n	Hungry_Donkey_bar_English_2-169-1	60.017	87	1.0.0.18	1	-2062925481	Standard	2.0.10.353	2.0.10.353	08-22-2016	8/22/2016 9:36:37 PM	17:36:37	2.0.10.248	23	Bar50-50.bmp	51	4	?	10r_4g.bmp	0r_4g.bmp	2r_2g.bmp	0r_2g.bmp				0r_2g.bmp	TrialProc	TrialList	0	cvbn	-999999	17	115699	0	n	424	116123	78	-76	2	-10	6	0	6	2	3	23	-10	0	-2	0	4	4	2	2	0	2
Hungry_Donkey_bar_English_2	169	1	<?xml version="1.0"?>\n<Clock xmlns:dt="urn:schemas-microsoft-com:datatypes"><Description dt:dt="string">E-Prime Primary Realtime Clock</Description><StartTime><Timestamp dt:dt="int">0</Timestamp><DateUtc dt:dt="string">2016-08-22T21:36:37Z</DateUtc></StartTime><FrequencyChanges><FrequencyChange><Frequency dt:dt="r8">3507685</Frequency><Timestamp dt:dt="r8">1209117156003</Timestamp><Current dt:dt="r8">0</Current><DateUtc dt:dt="string">2016-08-22T21:36:37Z</DateUtc></FrequencyChange></FrequencyChanges></Clock>\n	Hungry_Donkey_bar_English_2-169-1	60.017	87	1.0.0.18	1	-2062925481	Standard	2.0.10.353	2.0.10.353	08-22-2016	8/22/2016 9:36:37 PM	17:36:37	2.0.10.248	24	Bar50-50.bmp	51	3	?	8r_4g.bmp	50r_4g.bmp	1r_2g.bmp	10r_2g.bmp			1r_2g.bmp		TrialProc	TrialList	0	cvbn	-999999	16	118148	0	b	2103	120251	80	-77	3	-10	6	1	6	1	3	24	-8	-50	-1	-10	4	4	2	2	-1	2
Hungry_Donkey_bar_English_2	169	1	<?xml version="1.0"?>\n<Clock xmlns:dt="urn:schemas-microsoft-com:datatypes"><Description dt:dt="string">E-Prime Primary Realtime Clock</Description><StartTime><Timestamp dt:dt="int">0</Timestamp><DateUtc dt:dt="string">2016-08-22T21:36:37Z</DateUtc></StartTime><FrequencyChanges><FrequencyChange><Frequency dt:dt="r8">3507685</Frequency><Timestamp dt:dt="r8">1209117156003</Timestamp><Current dt:dt="r8">0</Current><DateUtc dt:dt="string">2016-08-22T21:36:37Z</DateUtc></FrequencyChange></FrequencyChanges></Clock>\n	Hungry_Donkey_bar_English_2-169-1	60.017	87	1.0.0.18	1	-2062925481	Standard	2.0.10.353	2.0.10.353	08-22-2016	8/22/2016 9:36:37 PM	17:36:37	2.0.10.248	25	Bar50-50.bmp	52	4	?	10r_4g.bmp	0r_4g.bmp	2r_2g.bmp	0r_2g.bmp				0r_2g.bmp	TrialProc	TrialList	0	cvbn	-999999	16	122280	0	n	371	122651	82	-77	5	-10	6	1	8	3	3	25	-10	0	-2	0	4	4	2	2	0	2
Hungry_Donkey_bar_English_2	169	1	<?xml version="1.0"?>\n<Clock xmlns:dt="urn:schemas-microsoft-com:datatypes"><Description dt:dt="string">E-Prime Primary Realtime Clock</Description><StartTime><Timestamp dt:dt="int">0</Timestamp><DateUtc dt:dt="string">2016-08-22T21:36:37Z</DateUtc></StartTime><FrequencyChanges><FrequencyChange><Frequency dt:dt="r8">3507685</Frequency><Timestamp dt:dt="r8">1209117156003</Timestamp><Current dt:dt="r8">0</Current><DateUtc dt:dt="string">2016-08-22T21:36:37Z</DateUtc></FrequencyChange></FrequencyChanges></Clock>\n	Hungry_Donkey_bar_English_2-169-1	60.017	87	1.0.0.18	1	-2062925481	Standard	2.0.10.353	2.0.10.353	08-22-2016	8/22/2016 9:36:37 PM	17:36:37	2.0.10.248	26	Bar50-50.bmp	53	2	?	0r_4g.bmp	0r_4g.bmp	0r_2g.bmp	0r_2g.bmp		0r_4g.bmp			TrialProc	TrialList	0	cvbn	-999999	16	124679	0	v	772	125451	86	-77	9	-10	10	1	8	10	3	26	0	0	0	0	4	4	2	2	0	4
Hungry_Donkey_bar_English_2	169	1	<?xml version="1.0"?>\n<Clock xmlns:dt="urn:schemas-microsoft-com:datatypes"><Description dt:dt="string">E-Prime Primary Realtime Clock</Description><StartTime><Timestamp dt:dt="int">0</Timestamp><DateUtc dt:dt="string">2016-08-22T21:36:37Z</DateUtc></StartTime><FrequencyChanges><FrequencyChange><Frequency dt:dt="r8">3507685</Frequency><Timestamp dt:dt="r8">1209117156003</Timestamp><Current dt:dt="r8">0</Current><DateUtc dt:dt="string">2016-08-22T21:36:37Z</DateUtc></FrequencyChange></FrequencyChanges></Clock>\n	Hungry_Donkey_bar_English_2-169-1	60.017	87	1.0.0.18	1	-2062925481	Standard	2.0.10.353	2.0.10.353	08-22-2016	8/22/2016 9:36:37 PM	17:36:37	2.0.10.248	27	Bar50-50.bmp	51	1	?	10r_4g.bmp	0r_4g.bmp	2r_2g.bmp	0r_2g.bmp	10r_4g.bmp				TrialProc	TrialList	0	cvbn	-999999	16	127478	0	c	933	128411	90	-87	3	-16	10	1	8	4	3	27	-10	0	-2	0	4	4	2	2	-10	4
Hungry_Donkey_bar_English_2	169	1	<?xml version="1.0"?>\n<Clock xmlns:dt="urn:schemas-microsoft-com:datatypes"><Description dt:dt="string">E-Prime Primary Realtime Clock</Description><StartTime><Timestamp dt:dt="int">0</Timestamp><DateUtc dt:dt="string">2016-08-22T21:36:37Z</DateUtc></StartTime><FrequencyChanges><FrequencyChange><Frequency dt:dt="r8">3507685</Frequency><Timestamp dt:dt="r8">1209117156003</Timestamp><Current dt:dt="r8">0</Current><DateUtc dt:dt="string">2016-08-22T21:36:37Z</DateUtc></FrequencyChange></FrequencyChanges></Clock>\n	Hungry_Donkey_bar_English_2-169-1	60.017	87	1.0.0.18	1	-2062925481	Standard	2.0.10.353	2.0.10.353	08-22-2016	8/22/2016 9:36:37 PM	17:36:37	2.0.10.248	28	Bar50-50.bmp	52	2	?	0r_4g.bmp	0r_4g.bmp	0r_2g.bmp	0r_2g.bmp		0r_4g.bmp			TrialProc	TrialList	0	cvbn	-999999	16	130444	0	v	1262	131706	94	-87	7	-16	14	1	8	7	3	28	0	0	0	0	4	4	2	2	0	4
Hungry_Donkey_bar_English_2	169	1	<?xml version="1.0"?>\n<Clock xmlns:dt="urn:schemas-microsoft-com:datatypes"><Description dt:dt="string">E-Prime Primary Realtime Clock</Description><StartTime><Timestamp dt:dt="int">0</Timestamp><DateUtc dt:dt="string">2016-08-22T21:36:37Z</DateUtc></StartTime><FrequencyChanges><FrequencyChange><Frequency dt:dt="r8">3507685</Frequency><Timestamp dt:dt="r8">1209117156003</Timestamp><Current dt:dt="r8">0</Current><DateUtc dt:dt="string">2016-08-22T21:36:37Z</DateUtc></FrequencyChange></FrequencyChanges></Clock>\n	Hungry_Donkey_bar_English_2-169-1	60.017	87	1.0.0.18	1	-2062925481	Standard	2.0.10.353	2.0.10.353	08-22-2016	8/22/2016 9:36:37 PM	17:36:37	2.0.10.248	29	Bar50-50.bmp	52	4	?	0r_4g.bmp	0r_4g.bmp	0r_2g.bmp	0r_2g.bmp				0r_2g.bmp	TrialProc	TrialList	0	cvbn	-999999	16	133743	0	n	411	134154	96	-87	9	-16	14	1	10	8	3	29	0	0	0	0	4	4	2	2	0	2
Hungry_Donkey_bar_English_2	169	1	<?xml version="1.0"?>\n<Clock xmlns:dt="urn:schemas-microsoft-com:datatypes"><Description dt:dt="string">E-Prime Primary Realtime Clock</Description><StartTime><Timestamp dt:dt="int">0</Timestamp><DateUtc dt:dt="string">2016-08-22T21:36:37Z</DateUtc></StartTime><FrequencyChanges><FrequencyChange><Frequency dt:dt="r8">3507685</Frequency><Timestamp dt:dt="r8">1209117156003</Timestamp><Current dt:dt="r8">0</Current><DateUtc dt:dt="string">2016-08-22T21:36:37Z</DateUtc></FrequencyChange></FrequencyChanges></Clock>\n	Hungry_Donkey_bar_English_2-169-1	60.017	87	1.0.0.18	1	-2062925481	Standard	2.0.10.353	2.0.10.353	08-22-2016	8/22/2016 9:36:37 PM	17:36:37	2.0.10.248	30	Bar50-50.bmp	53	3	?	0r_4g.bmp	0r_4g.bmp	0r_2g.bmp	0r_2g.bmp			0r_2g.bmp		TrialProc	TrialList	0	cvbn	-999999	16	136193	0	b	457	136650	98	-87	11	-16	14	3	10	9	3	30	0	0	0	0	4	4	2	2	0	2
Hungry_Donkey_bar_English_2	169	1	<?xml version="1.0"?>\n<Clock xmlns:dt="urn:schemas-microsoft-com:datatypes"><Description dt:dt="string">E-Prime Primary Realtime Clock</Description><StartTime><Timestamp dt:dt="int">0</Timestamp><DateUtc dt:dt="string">2016-08-22T21:36:37Z</DateUtc></StartTime><FrequencyChanges><FrequencyChange><Frequency dt:dt="r8">3507685</Frequency><Timestamp dt:dt="r8">1209117156003</Timestamp><Current dt:dt="r8">0</Current><DateUtc dt:dt="string">2016-08-22T21:36:37Z</DateUtc></FrequencyChange></FrequencyChanges></Clock>\n	Hungry_Donkey_bar_English_2-169-1	60.017	87	1.0.0.18	1	-2062925481	Standard	2.0.10.353	2.0.10.353	08-22-2016	8/22/2016 9:36:37 PM	17:36:37	2.0.10.248	31	Bar50-50.bmp	53	4	?	0r_4g.bmp	0r_4g.bmp	0r_2g.bmp	0r_2g.bmp				0r_2g.bmp	TrialProc	TrialList	0	cvbn	-999999	16	138675	0	n	3159	141834	100	-87	13	-16	14	3	12	7	4	31	0	0	0	0	4	4	2	2	0	2
Hungry_Donkey_bar_English_2	169	1	<?xml version="1.0"?>\n<Clock xmlns:dt="urn:schemas-microsoft-com:datatypes"><Description dt:dt="string">E-Prime Primary Realtime Clock</Description><StartTime><Timestamp dt:dt="int">0</Timestamp><DateUtc dt:dt="string">2016-08-22T21:36:37Z</DateUtc></StartTime><FrequencyChanges><FrequencyChange><Frequency dt:dt="r8">3507685</Frequency><Timestamp dt:dt="r8">1209117156003</Timestamp><Current dt:dt="r8">0</Current><DateUtc dt:dt="string">2016-08-22T21:36:37Z</DateUtc></FrequencyChange></FrequencyChanges></Clock>\n	Hungry_Donkey_bar_English_2-169-1	60.017	87	1.0.0.18	1	-2062925481	Standard	2.0.10.353	2.0.10.353	08-22-2016	8/22/2016 9:36:37 PM	17:36:37	2.0.10.248	32	Bar50-50.bmp	54	2	?	12r_4g.bmp	0r_4g.bmp	3r_2g.bmp	0r_2g.bmp		0r_4g.bmp			TrialProc	TrialList	0	cvbn	-999999	16	143874	0	v	424	144298	104	-87	17	-16	18	3	12	5	4	32	-12	0	-3	0	4	4	2	2	0	4
Hungry_Donkey_bar_English_2	169	1	<?xml version="1.0"?>\n<Clock xmlns:dt="urn:schemas-microsoft-com:datatypes"><Description dt:dt="string">E-Prime Primary Realtime Clock</Description><StartTime><Timestamp dt:dt="int">0</Timestamp><DateUtc dt:dt="string">2016-08-22T21:36:37Z</DateUtc></StartTime><FrequencyChanges><FrequencyChange><Frequency dt:dt="r8">3507685</Frequency><Timestamp dt:dt="r8">1209117156003</Timestamp><Current dt:dt="r8">0</Current><DateUtc dt:dt="string">2016-08-22T21:36:37Z</DateUtc></FrequencyChange></FrequencyChanges></Clock>\n	Hungry_Donkey_bar_English_2-169-1	60.017	87	1.0.0.18	1	-2062925481	Standard	2.0.10.353	2.0.10.353	08-22-2016	8/22/2016 9:36:37 PM	17:36:37	2.0.10.248	33	Bar50-50.bmp	55	4	?	10r_4g.bmp	0r_4g.bmp	2r_2g.bmp	0r_2g.bmp				0r_2g.bmp	TrialProc	TrialList	0	cvbn	-999999	16	146323	0	n	1446	147769	106	-87	19	-16	18	3	14	3	4	33	-10	0	-2	0	4	4	2	2	0	2
Hungry_Donkey_bar_English_2	169	1	<?xml version="1.0"?>\n<Clock xmlns:dt="urn:schemas-microsoft-com:datatypes"><Description dt:dt="string">E-Prime Primary Realtime Clock</Description><StartTime><Timestamp dt:dt="int">0</Timestamp><DateUtc dt:dt="string">2016-08-22T21:36:37Z</DateUtc></StartTime><FrequencyChanges><FrequencyChange><Frequency dt:dt="r8">3507685</Frequency><Timestamp dt:dt="r8">1209117156003</Timestamp><Current dt:dt="r8">0</Current><DateUtc dt:dt="string">2016-08-22T21:36:37Z</DateUtc></FrequencyChange></FrequencyChanges></Clock>\n	Hungry_Donkey_bar_English_2-169-1	60.017	87	1.0.0.18	1	-2062925481	Standard	2.0.10.353	2.0.10.353	08-22-2016	8/22/2016 9:36:37 PM	17:36:37	2.0.10.248	34	Bar50-50.bmp	56	2	?	0r_4g.bmp	0r_4g.bmp	0r_2g.bmp	0r_2g.bmp		0r_4g.bmp			TrialProc	TrialList	0	cvbn	-999999	16	149805	0	v	1164	150969	110	-87	23	-16	22	3	14	9	4	34	0	0	0	0	4	4	2	2	0	4
Hungry_Donkey_bar_English_2	169	1	<?xml version="1.0"?>\n<Clock xmlns:dt="urn:schemas-microsoft-com:datatypes"><Description dt:dt="string">E-Prime Primary Realtime Clock</Description><StartTime><Timestamp dt:dt="int">0</Timestamp><DateUtc dt:dt="string">2016-08-22T21:36:37Z</DateUtc></StartTime><FrequencyChanges><FrequencyChange><Frequency dt:dt="r8">3507685</Frequency><Timestamp dt:dt="r8">1209117156003</Timestamp><Current dt:dt="r8">0</Current><DateUtc dt:dt="string">2016-08-22T21:36:37Z</DateUtc></FrequencyChange></FrequencyChanges></Clock>\n	Hungry_Donkey_bar_English_2-169-1	60.017	87	1.0.0.18	1	-2062925481	Standard	2.0.10.353	2.0.10.353	08-22-2016	8/22/2016 9:36:37 PM	17:36:37	2.0.10.248	35	Bar50-50.bmp	56	3	?	10r_4g.bmp	0r_4g.bmp	2r_2g.bmp	0r_2g.bmp			2r_2g.bmp		TrialProc	TrialList	0	cvbn	-999999	16	153004	0	b	973	153977	112	-89	23	-16	22	3	14	2	4	35	-10	0	-2	0	4	4	2	2	-2	2
Hungry_Donkey_bar_English_2	169	1	<?xml version="1.0"?>\n<Clock xmlns:dt="urn:schemas-microsoft-com:datatypes"><Description dt:dt="string">E-Prime Primary Realtime Clock</Description><StartTime><Timestamp dt:dt="int">0</Timestamp><DateUtc dt:dt="string">2016-08-22T21:36:37Z</DateUtc></StartTime><FrequencyChanges><FrequencyChange><Frequency dt:dt="r8">3507685</Frequency><Timestamp dt:dt="r8">1209117156003</Timestamp><Current dt:dt="r8">0</Current><DateUtc dt:dt="string">2016-08-22T21:36:37Z</DateUtc></FrequencyChange></FrequencyChanges></Clock>\n	Hungry_Donkey_bar_English_2-169-1	60.017	87	1.0.0.18	1	-2062925481	Standard	2.0.10.353	2.0.10.353	08-22-2016	8/22/2016 9:36:37 PM	17:36:37	2.0.10.248	36	Bar63-37.bmp	57	2	?	0r_4g.bmp	0r_4g.bmp	0r_2g.bmp	0r_2g.bmp		0r_4g.bmp			TrialProc	TrialList	0	cvbn	-999999	17	156004	0	v	501	156505	116	-89	27	-16	26	3	14	6	4	36	0	0	0	0	4	4	2	2	0	4
Hungry_Donkey_bar_English_2	169	1	<?xml version="1.0"?>\n<Clock xmlns:dt="urn:schemas-microsoft-com:datatypes"><Description dt:dt="string">E-Prime Primary Realtime Clock</Description><StartTime><Timestamp dt:dt="int">0</Timestamp><DateUtc dt:dt="string">2016-08-22T21:36:37Z</DateUtc></StartTime><FrequencyChanges><FrequencyChange><Frequency dt:dt="r8">3507685</Frequency><Timestamp dt:dt="r8">1209117156003</Timestamp><Current dt:dt="r8">0</Current><DateUtc dt:dt="string">2016-08-22T21:36:37Z</DateUtc></FrequencyChange></FrequencyChanges></Clock>\n	Hungry_Donkey_bar_English_2-169-1	60.017	87	1.0.0.18	1	-2062925481	Standard	2.0.10.353	2.0.10.353	08-22-2016	8/22/2016 9:36:37 PM	17:36:37	2.0.10.248	37	Bar63-37.bmp	57	4	?	0r_4g.bmp	0r_4g.bmp	0r_2g.bmp	0r_2g.bmp				0r_2g.bmp	TrialProc	TrialList	0	cvbn	-999999	16	158536	0	n	1057	159593	118	-89	29	-16	26	3	16	8	4	37	0	0	0	0	4	4	2	2	0	2
Hungry_Donkey_bar_English_2	169	1	<?xml version="1.0"?>\n<Clock xmlns:dt="urn:schemas-microsoft-com:datatypes"><Description dt:dt="string">E-Prime Primary Realtime Clock</Description><StartTime><Timestamp dt:dt="int">0</Timestamp><DateUtc dt:dt="string">2016-08-22T21:36:37Z</DateUtc></StartTime><FrequencyChanges><FrequencyChange><Frequency dt:dt="r8">3507685</Frequency><Timestamp dt:dt="r8">1209117156003</Timestamp><Current dt:dt="r8">0</Current><DateUtc dt:dt="string">2016-08-22T21:36:37Z</DateUtc></FrequencyChange></FrequencyChanges></Clock>\n	Hungry_Donkey_bar_English_2-169-1	60.017	87	1.0.0.18	1	-2062925481	Standard	2.0.10.353	2.0.10.353	08-22-2016	8/22/2016 9:36:37 PM	17:36:37	2.0.10.248	38	Bar50-50.bmp	55	4	?	8r_4g.bmp	50r_4g.bmp	1r_2g.bmp	10r_2g.bmp				10r_2g.bmp	TrialProc	TrialList	0	cvbn	-999999	16	161619	0	n	1222	162841	120	-99	21	-16	26	3	8	1	4	38	-8	-50	-1	-10	4	4	2	2	-10	2
Hungry_Donkey_bar_English_2	169	1	<?xml version="1.0"?>\n<Clock xmlns:dt="urn:schemas-microsoft-com:datatypes"><Description dt:dt="string">E-Prime Primary Realtime Clock</Description><StartTime><Timestamp dt:dt="int">0</Timestamp><DateUtc dt:dt="string">2016-08-22T21:36:37Z</DateUtc></StartTime><FrequencyChanges><FrequencyChange><Frequency dt:dt="r8">3507685</Frequency><Timestamp dt:dt="r8">1209117156003</Timestamp><Current dt:dt="r8">0</Current><DateUtc dt:dt="string">2016-08-22T21:36:37Z</DateUtc></FrequencyChange></FrequencyChanges></Clock>\n	Hungry_Donkey_bar_English_2-169-1	60.017	87	1.0.0.18	1	-2062925481	Standard	2.0.10.353	2.0.10.353	08-22-2016	8/22/2016 9:36:37 PM	17:36:37	2.0.10.248	39	Bar50-50.bmp	56	2	?	0r_4g.bmp	0r_4g.bmp	0r_2g.bmp	0r_2g.bmp		0r_4g.bmp			TrialProc	TrialList	0	cvbn	-999999	16	164868	0	v	613	165481	124	-99	25	-16	30	3	8	10	4	39	0	0	0	0	4	4	2	2	0	4
Hungry_Donkey_bar_English_2	169	1	<?xml version="1.0"?>\n<Clock xmlns:dt="urn:schemas-microsoft-com:datatypes"><Description dt:dt="string">E-Prime Primary Realtime Clock</Description><StartTime><Timestamp dt:dt="int">0</Timestamp><DateUtc dt:dt="string">2016-08-22T21:36:37Z</DateUtc></StartTime><FrequencyChanges><FrequencyChange><Frequency dt:dt="r8">3507685</Frequency><Timestamp dt:dt="r8">1209117156003</Timestamp><Current dt:dt="r8">0</Current><DateUtc dt:dt="string">2016-08-22T21:36:37Z</DateUtc></FrequencyChange></FrequencyChanges></Clock>\n	Hungry_Donkey_bar_English_2-169-1	60.017	87	1.0.0.18	1	-2062925481	Standard	2.0.10.353	2.0.10.353	08-22-2016	8/22/2016 9:36:37 PM	17:36:37	2.0.10.248	40	Bar50-50.bmp	56	2	?	10r_4g.bmp	0r_4g.bmp	2r_2g.bmp	0r_2g.bmp		0r_4g.bmp			TrialProc	TrialList	0	cvbn	-999999	16	167517	0	v	731	168248	128	-99	29	-16	34	3	8	4	4	40	-10	0	-2	0	4	4	2	2	0	4
Hungry_Donkey_bar_English_2	169	1	<?xml version="1.0"?>\n<Clock xmlns:dt="urn:schemas-microsoft-com:datatypes"><Description dt:dt="string">E-Prime Primary Realtime Clock</Description><StartTime><Timestamp dt:dt="int">0</Timestamp><DateUtc dt:dt="string">2016-08-22T21:36:37Z</DateUtc></StartTime><FrequencyChanges><FrequencyChange><Frequency dt:dt="r8">3507685</Frequency><Timestamp dt:dt="r8">1209117156003</Timestamp><Current dt:dt="r8">0</Current><DateUtc dt:dt="string">2016-08-22T21:36:37Z</DateUtc></FrequencyChange></FrequencyChanges></Clock>\n	Hungry_Donkey_bar_English_2-169-1	60.017	87	1.0.0.18	1	-2062925481	Standard	2.0.10.353	2.0.10.353	08-22-2016	8/22/2016 9:36:37 PM	17:36:37	2.0.10.248	41	Bar63-37.bmp	57	4	?	0r_4g.bmp	0r_4g.bmp	0r_2g.bmp	0r_2g.bmp				0r_2g.bmp	TrialProc	TrialList	0	cvbn	-999999	16	170283	0	n	589	170872	130	-99	31	-16	34	3	10	10	5	41	0	0	0	0	4	4	2	2	0	2
Hungry_Donkey_bar_English_2	169	1	<?xml version="1.0"?>\n<Clock xmlns:dt="urn:schemas-microsoft-com:datatypes"><Description dt:dt="string">E-Prime Primary Realtime Clock</Description><StartTime><Timestamp dt:dt="int">0</Timestamp><DateUtc dt:dt="string">2016-08-22T21:36:37Z</DateUtc></StartTime><FrequencyChanges><FrequencyChange><Frequency dt:dt="r8">3507685</Frequency><Timestamp dt:dt="r8">1209117156003</Timestamp><Current dt:dt="r8">0</Current><DateUtc dt:dt="string">2016-08-22T21:36:37Z</DateUtc></FrequencyChange></FrequencyChanges></Clock>\n	Hungry_Donkey_bar_English_2-169-1	60.017	87	1.0.0.18	1	-2062925481	Standard	2.0.10.353	2.0.10.353	08-22-2016	8/22/2016 9:36:37 PM	17:36:37	2.0.10.248	42	Bar63-37.bmp	57	3	?	0r_4g.bmp	0r_4g.bmp	0r_2g.bmp	0r_2g.bmp			0r_2g.bmp		TrialProc	TrialList	0	cvbn	-999999	16	172899	0	b	757	173656	132	-99	33	-16	34	5	10	9	5	42	0	0	0	0	4	4	2	2	0	2
Hungry_Donkey_bar_English_2	169	1	<?xml version="1.0"?>\n<Clock xmlns:dt="urn:schemas-microsoft-com:datatypes"><Description dt:dt="string">E-Prime Primary Realtime Clock</Description><StartTime><Timestamp dt:dt="int">0</Timestamp><DateUtc dt:dt="string">2016-08-22T21:36:37Z</DateUtc></StartTime><FrequencyChanges><FrequencyChange><Frequency dt:dt="r8">3507685</Frequency><Timestamp dt:dt="r8">1209117156003</Timestamp><Current dt:dt="r8">0</Current><DateUtc dt:dt="string">2016-08-22T21:36:37Z</DateUtc></FrequencyChange></FrequencyChanges></Clock>\n	Hungry_Donkey_bar_English_2-169-1	60.017	87	1.0.0.18	1	-2062925481	Standard	2.0.10.353	2.0.10.353	08-22-2016	8/22/2016 9:36:37 PM	17:36:37	2.0.10.248	43	Bar63-37.bmp	58	4	?	12r_4g.bmp	0r_4g.bmp	3r_2g.bmp	0r_2g.bmp				0r_2g.bmp	TrialProc	TrialList	0	cvbn	-999999	16	175681	0	n	599	176280	134	-99	35	-16	34	5	12	5	5	43	-12	0	-3	0	4	4	2	2	0	2
Hungry_Donkey_bar_English_2	169	1	<?xml version="1.0"?>\n<Clock xmlns:dt="urn:schemas-microsoft-com:datatypes"><Description dt:dt="string">E-Prime Primary Realtime Clock</Description><StartTime><Timestamp dt:dt="int">0</Timestamp><DateUtc dt:dt="string">2016-08-22T21:36:37Z</DateUtc></StartTime><FrequencyChanges><FrequencyChange><Frequency dt:dt="r8">3507685</Frequency><Timestamp dt:dt="r8">1209117156003</Timestamp><Current dt:dt="r8">0</Current><DateUtc dt:dt="string">2016-08-22T21:36:37Z</DateUtc></FrequencyChange></FrequencyChanges></Clock>\n	Hungry_Donkey_bar_English_2-169-1	60.017	87	1.0.0.18	1	-2062925481	Standard	2.0.10.353	2.0.10.353	08-22-2016	8/22/2016 9:36:37 PM	17:36:37	2.0.10.248	44	Bar63-37.bmp	58	2	?	10r_4g.bmp	0r_4g.bmp	2r_2g.bmp	0r_2g.bmp		0r_4g.bmp			TrialProc	TrialList	0	cvbn	-999999	16	178314	0	v	414	178728	138	-99	39	-16	38	5	12	2	5	44	-10	0	-2	0	4	4	2	2	0	4
Hungry_Donkey_bar_English_2	169	1	<?xml version="1.0"?>\n<Clock xmlns:dt="urn:schemas-microsoft-com:datatypes"><Description dt:dt="string">E-Prime Primary Realtime Clock</Description><StartTime><Timestamp dt:dt="int">0</Timestamp><DateUtc dt:dt="string">2016-08-22T21:36:37Z</DateUtc></StartTime><FrequencyChanges><FrequencyChange><Frequency dt:dt="r8">3507685</Frequency><Timestamp dt:dt="r8">1209117156003</Timestamp><Current dt:dt="r8">0</Current><DateUtc dt:dt="string">2016-08-22T21:36:37Z</DateUtc></FrequencyChange></FrequencyChanges></Clock>\n	Hungry_Donkey_bar_English_2-169-1	60.017	87	1.0.0.18	1	-2062925481	Standard	2.0.10.353	2.0.10.353	08-22-2016	8/22/2016 9:36:37 PM	17:36:37	2.0.10.248	45	Bar50-50.bmp	56	4	?	8r_4g.bmp	50r_4g.bmp	1r_2g.bmp	10r_2g.bmp				10r_2g.bmp	TrialProc	TrialList	0	cvbn	-999999	16	180763	0	n	541	181304	140	-109	31	-16	38	5	4	1	5	45	-8	-50	-1	-10	4	4	2	2	-10	2
Hungry_Donkey_bar_English_2	169	1	<?xml version="1.0"?>\n<Clock xmlns:dt="urn:schemas-microsoft-com:datatypes"><Description dt:dt="string">E-Prime Primary Realtime Clock</Description><StartTime><Timestamp dt:dt="int">0</Timestamp><DateUtc dt:dt="string">2016-08-22T21:36:37Z</DateUtc></StartTime><FrequencyChanges><FrequencyChange><Frequency dt:dt="r8">3507685</Frequency><Timestamp dt:dt="r8">1209117156003</Timestamp><Current dt:dt="r8">0</Current><DateUtc dt:dt="string">2016-08-22T21:36:37Z</DateUtc></FrequencyChange></FrequencyChanges></Clock>\n	Hungry_Donkey_bar_English_2-169-1	60.017	87	1.0.0.18	1	-2062925481	Standard	2.0.10.353	2.0.10.353	08-22-2016	8/22/2016 9:36:37 PM	17:36:37	2.0.10.248	46	Bar63-37.bmp	57	2	?	10r_4g.bmp	0r_4g.bmp	2r_2g.bmp	0r_2g.bmp		0r_4g.bmp			TrialProc	TrialList	0	cvbn	-999999	16	183329	0	v	7	183336	144	-109	35	-16	42	5	4	4	5	46	-10	0	-2	0	4	4	2	2	0	4
Hungry_Donkey_bar_English_2	169	1	<?xml version="1.0"?>\n<Clock xmlns:dt="urn:schemas-microsoft-com:datatypes"><Description dt:dt="string">E-Prime Primary Realtime Clock</Description><StartTime><Timestamp dt:dt="int">0</Timestamp><DateUtc dt:dt="string">2016-08-22T21:36:37Z</DateUtc></StartTime><FrequencyChanges><FrequencyChange><Frequency dt:dt="r8">3507685</Frequency><Timestamp dt:dt="r8">1209117156003</Timestamp><Current dt:dt="r8">0</Current><DateUtc dt:dt="string">2016-08-22T21:36:37Z</DateUtc></FrequencyChange></FrequencyChanges></Clock>\n	Hungry_Donkey_bar_English_2-169-1	60.017	87	1.0.0.18	1	-2062925481	Standard	2.0.10.353	2.0.10.353	08-22-2016	8/22/2016 9:36:37 PM	17:36:37	2.0.10.248	47	Bar63-37.bmp	58	2	?	0r_4g.bmp	0r_4g.bmp	0r_2g.bmp	0r_2g.bmp		0r_4g.bmp			TrialProc	TrialList	0	cvbn	-999999	16	185362	0	v	438	185800	148	-109	39	-16	46	5	4	6	5	47	0	0	0	0	4	4	2	2	0	4
Hungry_Donkey_bar_English_2	169	1	<?xml version="1.0"?>\n<Clock xmlns:dt="urn:schemas-microsoft-com:datatypes"><Description dt:dt="string">E-Prime Primary Realtime Clock</Description><StartTime><Timestamp dt:dt="int">0</Timestamp><DateUtc dt:dt="string">2016-08-22T21:36:37Z</DateUtc></StartTime><FrequencyChanges><FrequencyChange><Frequency dt:dt="r8">3507685</Frequency><Timestamp dt:dt="r8">1209117156003</Timestamp><Current dt:dt="r8">0</Current><DateUtc dt:dt="string">2016-08-22T21:36:37Z</DateUtc></FrequencyChange></FrequencyChanges></Clock>\n	Hungry_Donkey_bar_English_2-169-1	60.017	87	1.0.0.18	1	-2062925481	Standard	2.0.10.353	2.0.10.353	08-22-2016	8/22/2016 9:36:37 PM	17:36:37	2.0.10.248	48	Bar63-37.bmp	58	2	?	0r_4g.bmp	0r_4g.bmp	0r_2g.bmp	0r_2g.bmp		0r_4g.bmp			TrialProc	TrialList	0	cvbn	-999999	16	187828	0	v	499	188327	152	-109	43	-16	50	5	4	7	5	48	0	0	0	0	4	4	2	2	0	4
Hungry_Donkey_bar_English_2	169	1	<?xml version="1.0"?>\n<Clock xmlns:dt="urn:schemas-microsoft-com:datatypes"><Description dt:dt="string">E-Prime Primary Realtime Clock</Description><StartTime><Timestamp dt:dt="int">0</Timestamp><DateUtc dt:dt="string">2016-08-22T21:36:37Z</DateUtc></StartTime><FrequencyChanges><FrequencyChange><Frequency dt:dt="r8">3507685</Frequency><Timestamp dt:dt="r8">1209117156003</Timestamp><Current dt:dt="r8">0</Current><DateUtc dt:dt="string">2016-08-22T21:36:37Z</DateUtc></FrequencyChange></FrequencyChanges></Clock>\n	Hungry_Donkey_bar_English_2-169-1	60.017	87	1.0.0.18	1	-2062925481	Standard	2.0.10.353	2.0.10.353	08-22-2016	8/22/2016 9:36:37 PM	17:36:37	2.0.10.248	49	Bar63-37.bmp	59	4	?	10r_4g.bmp	0r_4g.bmp	2r_2g.bmp	0r_2g.bmp				0r_2g.bmp	TrialProc	TrialList	0	cvbn	-999999	16	190360	0	n	207	190567	154	-109	45	-16	50	5	6	3	5	49	-10	0	-2	0	4	4	2	2	0	2
Hungry_Donkey_bar_English_2	169	1	<?xml version="1.0"?>\n<Clock xmlns:dt="urn:schemas-microsoft-com:datatypes"><Description dt:dt="string">E-Prime Primary Realtime Clock</Description><StartTime><Timestamp dt:dt="int">0</Timestamp><DateUtc dt:dt="string">2016-08-22T21:36:37Z</DateUtc></StartTime><FrequencyChanges><FrequencyChange><Frequency dt:dt="r8">3507685</Frequency><Timestamp dt:dt="r8">1209117156003</Timestamp><Current dt:dt="r8">0</Current><DateUtc dt:dt="string">2016-08-22T21:36:37Z</DateUtc></FrequencyChange></FrequencyChanges></Clock>\n	Hungry_Donkey_bar_English_2-169-1	60.017	87	1.0.0.18	1	-2062925481	Standard	2.0.10.353	2.0.10.353	08-22-2016	8/22/2016 9:36:37 PM	17:36:37	2.0.10.248	50	Bar63-37.bmp	59	2	?	0r_4g.bmp	0r_4g.bmp	0r_2g.bmp	0r_2g.bmp		0r_4g.bmp			TrialProc	TrialList	0	cvbn	-999999	16	192593	0	v	454	193047	158	-109	49	-16	54	5	6	8	5	50	0	0	0	0	4	4	2	2	0	4
Hungry_Donkey_bar_English_2	169	1	<?xml version="1.0"?>\n<Clock xmlns:dt="urn:schemas-microsoft-com:datatypes"><Description dt:dt="string">E-Prime Primary Realtime Clock</Description><StartTime><Timestamp dt:dt="int">0</Timestamp><DateUtc dt:dt="string">2016-08-22T21:36:37Z</DateUtc></StartTime><FrequencyChanges><FrequencyChange><Frequency dt:dt="r8">3507685</Frequency><Timestamp dt:dt="r8">1209117156003</Timestamp><Current dt:dt="r8">0</Current><DateUtc dt:dt="string">2016-08-22T21:36:37Z</DateUtc></FrequencyChange></FrequencyChanges></Clock>\n	Hungry_Donkey_bar_English_2-169-1	60.017	87	1.0.0.18	1	-2062925481	Standard	2.0.10.353	2.0.10.353	08-22-2016	8/22/2016 9:36:37 PM	17:36:37	2.0.10.248	51	Bar63-37.bmp	59	3	?	0r_4g.bmp	0r_4g.bmp	0r_2g.bmp	0r_2g.bmp			0r_2g.bmp		TrialProc	TrialList	0	cvbn	-999999	16	195076	0	b	963	196039	160	-109	51	-16	54	7	6	7	6	51	0	0	0	0	4	4	2	2	0	2
Hungry_Donkey_bar_English_2	169	1	<?xml version="1.0"?>\n<Clock xmlns:dt="urn:schemas-microsoft-com:datatypes"><Description dt:dt="string">E-Prime Primary Realtime Clock</Description><StartTime><Timestamp dt:dt="int">0</Timestamp><DateUtc dt:dt="string">2016-08-22T21:36:37Z</DateUtc></StartTime><FrequencyChanges><FrequencyChange><Frequency dt:dt="r8">3507685</Frequency><Timestamp dt:dt="r8">1209117156003</Timestamp><Current dt:dt="r8">0</Current><DateUtc dt:dt="string">2016-08-22T21:36:37Z</DateUtc></FrequencyChange></FrequencyChanges></Clock>\n	Hungry_Donkey_bar_English_2-169-1	60.017	87	1.0.0.18	1	-2062925481	Standard	2.0.10.353	2.0.10.353	08-22-2016	8/22/2016 9:36:37 PM	17:36:37	2.0.10.248	52	Bar63-37.bmp	60	4	?	0r_4g.bmp	0r_4g.bmp	0r_2g.bmp	0r_2g.bmp				0r_2g.bmp	TrialProc	TrialList	0	cvbn	-999999	16	198075	0	n	716	198791	162	-109	53	-16	54	7	8	8	6	52	0	0	0	0	4	4	2	2	0	2
Hungry_Donkey_bar_English_2	169	1	<?xml version="1.0"?>\n<Clock xmlns:dt="urn:schemas-microsoft-com:datatypes"><Description dt:dt="string">E-Prime Primary Realtime Clock</Description><StartTime><Timestamp dt:dt="int">0</Timestamp><DateUtc dt:dt="string">2016-08-22T21:36:37Z</DateUtc></StartTime><FrequencyChanges><FrequencyChange><Frequency dt:dt="r8">3507685</Frequency><Timestamp dt:dt="r8">1209117156003</Timestamp><Current dt:dt="r8">0</Current><DateUtc dt:dt="string">2016-08-22T21:36:37Z</DateUtc></FrequencyChange></FrequencyChanges></Clock>\n	Hungry_Donkey_bar_English_2-169-1	60.017	87	1.0.0.18	1	-2062925481	Standard	2.0.10.353	2.0.10.353	08-22-2016	8/22/2016 9:36:37 PM	17:36:37	2.0.10.248	53	Bar63-37.bmp	60	2	?	10r_4g.bmp	0r_4g.bmp	2r_2g.bmp	0r_2g.bmp		0r_4g.bmp			TrialProc	TrialList	0	cvbn	-999999	16	200824	0	v	671	201495	166	-109	57	-16	58	7	8	4	6	53	-10	0	-2	0	4	4	2	2	0	4
Hungry_Donkey_bar_English_2	169	1	<?xml version="1.0"?>\n<Clock xmlns:dt="urn:schemas-microsoft-com:datatypes"><Description dt:dt="string">E-Prime Primary Realtime Clock</Description><StartTime><Timestamp dt:dt="int">0</Timestamp><DateUtc dt:dt="string">2016-08-22T21:36:37Z</DateUtc></StartTime><FrequencyChanges><FrequencyChange><Frequency dt:dt="r8">3507685</Frequency><Timestamp dt:dt="r8">1209117156003</Timestamp><Current dt:dt="r8">0</Current><DateUtc dt:dt="string">2016-08-22T21:36:37Z</DateUtc></FrequencyChange></FrequencyChanges></Clock>\n	Hungry_Donkey_bar_English_2-169-1	60.017	87	1.0.0.18	1	-2062925481	Standard	2.0.10.353	2.0.10.353	08-22-2016	8/22/2016 9:36:37 PM	17:36:37	2.0.10.248	54	Bar63-37.bmp	61	4	?	12r_4g.bmp	0r_4g.bmp	3r_2g.bmp	0r_2g.bmp				0r_2g.bmp	TrialProc	TrialList	0	cvbn	-999999	16	203523	0	n	932	204455	168	-109	59	-16	58	7	10	5	6	54	-12	0	-3	0	4	4	2	2	0	2
Hungry_Donkey_bar_English_2	169	1	<?xml version="1.0"?>\n<Clock xmlns:dt="urn:schemas-microsoft-com:datatypes"><Description dt:dt="string">E-Prime Primary Realtime Clock</Description><StartTime><Timestamp dt:dt="int">0</Timestamp><DateUtc dt:dt="string">2016-08-22T21:36:37Z</DateUtc></StartTime><FrequencyChanges><FrequencyChange><Frequency dt:dt="r8">3507685</Frequency><Timestamp dt:dt="r8">1209117156003</Timestamp><Current dt:dt="r8">0</Current><DateUtc dt:dt="string">2016-08-22T21:36:37Z</DateUtc></FrequencyChange></FrequencyChanges></Clock>\n	Hungry_Donkey_bar_English_2-169-1	60.017	87	1.0.0.18	1	-2062925481	Standard	2.0.10.353	2.0.10.353	08-22-2016	8/22/2016 9:36:37 PM	17:36:37	2.0.10.248	55	Bar63-37.bmp	61	3	?	0r_4g.bmp	0r_4g.bmp	0r_2g.bmp	0r_2g.bmp			0r_2g.bmp		TrialProc	TrialList	0	cvbn	-999999	16	206489	0	b	861	207350	170	-109	61	-16	58	9	10	10	6	55	0	0	0	0	4	4	2	2	0	2
Hungry_Donkey_bar_English_2	169	1	<?xml version="1.0"?>\n<Clock xmlns:dt="urn:schemas-microsoft-com:datatypes"><Description dt:dt="string">E-Prime Primary Realtime Clock</Description><StartTime><Timestamp dt:dt="int">0</Timestamp><DateUtc dt:dt="string">2016-08-22T21:36:37Z</DateUtc></StartTime><FrequencyChanges><FrequencyChange><Frequency dt:dt="r8">3507685</Frequency><Timestamp dt:dt="r8">1209117156003</Timestamp><Current dt:dt="r8">0</Current><DateUtc dt:dt="string">2016-08-22T21:36:37Z</DateUtc></FrequencyChange></FrequencyChanges></Clock>\n	Hungry_Donkey_bar_English_2-169-1	60.017	87	1.0.0.18	1	-2062925481	Standard	2.0.10.353	2.0.10.353	08-22-2016	8/22/2016 9:36:37 PM	17:36:37	2.0.10.248	56	Bar63-37.bmp	61	2	?	0r_4g.bmp	0r_4g.bmp	0r_2g.bmp	0r_2g.bmp		0r_4g.bmp			TrialProc	TrialList	0	cvbn	-999999	16	209388	0	v	522	209910	174	-109	65	-16	62	9	10	9	6	56	0	0	0	0	4	4	2	2	0	4
Hungry_Donkey_bar_English_2	169	1	<?xml version="1.0"?>\n<Clock xmlns:dt="urn:schemas-microsoft-com:datatypes"><Description dt:dt="string">E-Prime Primary Realtime Clock</Description><StartTime><Timestamp dt:dt="int">0</Timestamp><DateUtc dt:dt="string">2016-08-22T21:36:37Z</DateUtc></StartTime><FrequencyChanges><FrequencyChange><Frequency dt:dt="r8">3507685</Frequency><Timestamp dt:dt="r8">1209117156003</Timestamp><Current dt:dt="r8">0</Current><DateUtc dt:dt="string">2016-08-22T21:36:37Z</DateUtc></FrequencyChange></FrequencyChanges></Clock>\n	Hungry_Donkey_bar_English_2-169-1	60.017	87	1.0.0.18	1	-2062925481	Standard	2.0.10.353	2.0.10.353	08-22-2016	8/22/2016 9:36:37 PM	17:36:37	2.0.10.248	57	Bar63-37.bmp	62	4	?	10r_4g.bmp	0r_4g.bmp	2r_2g.bmp	0r_2g.bmp				0r_2g.bmp	TrialProc	TrialList	0	cvbn	-999999	16	211937	0	n	2117	214054	176	-109	67	-16	62	9	12	2	6	57	-10	0	-2	0	4	4	2	2	0	2
Hungry_Donkey_bar_English_2	169	1	<?xml version="1.0"?>\n<Clock xmlns:dt="urn:schemas-microsoft-com:datatypes"><Description dt:dt="string">E-Prime Primary Realtime Clock</Description><StartTime><Timestamp dt:dt="int">0</Timestamp><DateUtc dt:dt="string">2016-08-22T21:36:37Z</DateUtc></StartTime><FrequencyChanges><FrequencyChange><Frequency dt:dt="r8">3507685</Frequency><Timestamp dt:dt="r8">1209117156003</Timestamp><Current dt:dt="r8">0</Current><DateUtc dt:dt="string">2016-08-22T21:36:37Z</DateUtc></FrequencyChange></FrequencyChanges></Clock>\n	Hungry_Donkey_bar_English_2-169-1	60.017	87	1.0.0.18	1	-2062925481	Standard	2.0.10.353	2.0.10.353	08-22-2016	8/22/2016 9:36:37 PM	17:36:37	2.0.10.248	58	Bar63-37.bmp	60	1	?	10r_4g.bmp	0r_4g.bmp	2r_2g.bmp	0r_2g.bmp	10r_4g.bmp				TrialProc	TrialList	0	cvbn	-999999	16	216086	0	c	512	216598	180	-119	61	-22	62	9	12	3	6	58	-10	0	-2	0	4	4	2	2	-10	4
Hungry_Donkey_bar_English_2	169	1	<?xml version="1.0"?>\n<Clock xmlns:dt="urn:schemas-microsoft-com:datatypes"><Description dt:dt="string">E-Prime Primary Realtime Clock</Description><StartTime><Timestamp dt:dt="int">0</Timestamp><DateUtc dt:dt="string">2016-08-22T21:36:37Z</DateUtc></StartTime><FrequencyChanges><FrequencyChange><Frequency dt:dt="r8">3507685</Frequency><Timestamp dt:dt="r8">1209117156003</Timestamp><Current dt:dt="r8">0</Current><DateUtc dt:dt="string">2016-08-22T21:36:37Z</DateUtc></FrequencyChange></FrequencyChanges></Clock>\n	Hungry_Donkey_bar_English_2-169-1	60.017	87	1.0.0.18	1	-2062925481	Standard	2.0.10.353	2.0.10.353	08-22-2016	8/22/2016 9:36:37 PM	17:36:37	2.0.10.248	59	Bar50-50.bmp	52	2	?	8r_4g.bmp	50r_4g.bmp	1r_2g.bmp	10r_2g.bmp		50r_4g.bmp			TrialProc	TrialList	0	cvbn	-999999	16	218635	0	v	571	219206	184	-169	15	-22	16	9	12	1	6	59	-8	-50	-1	-10	4	4	2	2	-50	4
Hungry_Donkey_bar_English_2	169	1	<?xml version="1.0"?>\n<Clock xmlns:dt="urn:schemas-microsoft-com:datatypes"><Description dt:dt="string">E-Prime Primary Realtime Clock</Description><StartTime><Timestamp dt:dt="int">0</Timestamp><DateUtc dt:dt="string">2016-08-22T21:36:37Z</DateUtc></StartTime><FrequencyChanges><FrequencyChange><Frequency dt:dt="r8">3507685</Frequency><Timestamp dt:dt="r8">1209117156003</Timestamp><Current dt:dt="r8">0</Current><DateUtc dt:dt="string">2016-08-22T21:36:37Z</DateUtc></FrequencyChange></FrequencyChanges></Clock>\n	Hungry_Donkey_bar_English_2-169-1	60.017	87	1.0.0.18	1	-2062925481	Standard	2.0.10.353	2.0.10.353	08-22-2016	8/22/2016 9:36:37 PM	17:36:37	2.0.10.248	60	Bar50-50.bmp	52	4	?	0r_4g.bmp	0r_4g.bmp	0r_2g.bmp	0r_2g.bmp				0r_2g.bmp	TrialProc	TrialList	0	cvbn	-999999	16	221235	0	n	931	222166	186	-169	17	-22	16	9	14	6	6	60	0	0	0	0	4	4	2	2	0	2
Hungry_Donkey_bar_English_2	169	1	<?xml version="1.0"?>\n<Clock xmlns:dt="urn:schemas-microsoft-com:datatypes"><Description dt:dt="string">E-Prime Primary Realtime Clock</Description><StartTime><Timestamp dt:dt="int">0</Timestamp><DateUtc dt:dt="string">2016-08-22T21:36:37Z</DateUtc></StartTime><FrequencyChanges><FrequencyChange><Frequency dt:dt="r8">3507685</Frequency><Timestamp dt:dt="r8">1209117156003</Timestamp><Current dt:dt="r8">0</Current><DateUtc dt:dt="string">2016-08-22T21:36:37Z</DateUtc></FrequencyChange></FrequencyChanges></Clock>\n	Hungry_Donkey_bar_English_2-169-1	60.017	87	1.0.0.18	1	-2062925481	Standard	2.0.10.353	2.0.10.353	08-22-2016	8/22/2016 9:36:37 PM	17:36:37	2.0.10.248	61	Bar50-50.bmp	53	4	?	10r_4g.bmp	0r_4g.bmp	2r_2g.bmp	0r_2g.bmp				0r_2g.bmp	TrialProc	TrialList	0	cvbn	-999999	17	224201	0	n	381	224582	188	-169	19	-22	16	9	16	2	7	61	-10	0	-2	0	4	4	2	2	0	2
Hungry_Donkey_bar_English_2	169	1	<?xml version="1.0"?>\n<Clock xmlns:dt="urn:schemas-microsoft-com:datatypes"><Description dt:dt="string">E-Prime Primary Realtime Clock</Description><StartTime><Timestamp dt:dt="int">0</Timestamp><DateUtc dt:dt="string">2016-08-22T21:36:37Z</DateUtc></StartTime><FrequencyChanges><FrequencyChange><Frequency dt:dt="r8">3507685</Frequency><Timestamp dt:dt="r8">1209117156003</Timestamp><Current dt:dt="r8">0</Current><DateUtc dt:dt="string">2016-08-22T21:36:37Z</DateUtc></FrequencyChange></FrequencyChanges></Clock>\n	Hungry_Donkey_bar_English_2-169-1	60.017	87	1.0.0.18	1	-2062925481	Standard	2.0.10.353	2.0.10.353	08-22-2016	8/22/2016 9:36:37 PM	17:36:37	2.0.10.248	62	Bar50-50.bmp	53	4	?	0r_4g.bmp	0r_4g.bmp	0r_2g.bmp	0r_2g.bmp				0r_2g.bmp	TrialProc	TrialList	0	cvbn	-999999	17	226617	0	n	540	227157	190	-169	21	-22	16	9	18	7	7	62	0	0	0	0	4	4	2	2	0	2
Hungry_Donkey_bar_English_2	169	1	<?xml version="1.0"?>\n<Clock xmlns:dt="urn:schemas-microsoft-com:datatypes"><Description dt:dt="string">E-Prime Primary Realtime Clock</Description><StartTime><Timestamp dt:dt="int">0</Timestamp><DateUtc dt:dt="string">2016-08-22T21:36:37Z</DateUtc></StartTime><FrequencyChanges><FrequencyChange><Frequency dt:dt="r8">3507685</Frequency><Timestamp dt:dt="r8">1209117156003</Timestamp><Current dt:dt="r8">0</Current><DateUtc dt:dt="string">2016-08-22T21:36:37Z</DateUtc></FrequencyChange></FrequencyChanges></Clock>\n	Hungry_Donkey_bar_English_2-169-1	60.017	87	1.0.0.18	1	-2062925481	Standard	2.0.10.353	2.0.10.353	08-22-2016	8/22/2016 9:36:37 PM	17:36:37	2.0.10.248	63	Bar50-50.bmp	53	4	?	10r_4g.bmp	0r_4g.bmp	2r_2g.bmp	0r_2g.bmp				0r_2g.bmp	TrialProc	TrialList	0	cvbn	-999999	16	229199	0	n	566	229765	192	-169	23	-22	16	9	20	3	7	63	-10	0	-2	0	4	4	2	2	0	2
Hungry_Donkey_bar_English_2	169	1	<?xml version="1.0"?>\n<Clock xmlns:dt="urn:schemas-microsoft-com:datatypes"><Description dt:dt="string">E-Prime Primary Realtime Clock</Description><StartTime><Timestamp dt:dt="int">0</Timestamp><DateUtc dt:dt="string">2016-08-22T21:36:37Z</DateUtc></StartTime><FrequencyChanges><FrequencyChange><Frequency dt:dt="r8">3507685</Frequency><Timestamp dt:dt="r8">1209117156003</Timestamp><Current dt:dt="r8">0</Current><DateUtc dt:dt="string">2016-08-22T21:36:37Z</DateUtc></FrequencyChange></FrequencyChanges></Clock>\n	Hungry_Donkey_bar_English_2-169-1	60.017	87	1.0.0.18	1	-2062925481	Standard	2.0.10.353	2.0.10.353	08-22-2016	8/22/2016 9:36:37 PM	17:36:37	2.0.10.248	64	Bar50-50.bmp	54	2	?	0r_4g.bmp	0r_4g.bmp	0r_2g.bmp	0r_2g.bmp		0r_4g.bmp			TrialProc	TrialList	0	cvbn	-999999	16	231798	0	v	479	232277	196	-169	27	-22	20	9	20	8	7	64	0	0	0	0	4	4	2	2	0	4
Hungry_Donkey_bar_English_2	169	1	<?xml version="1.0"?>\n<Clock xmlns:dt="urn:schemas-microsoft-com:datatypes"><Description dt:dt="string">E-Prime Primary Realtime Clock</Description><StartTime><Timestamp dt:dt="int">0</Timestamp><DateUtc dt:dt="string">2016-08-22T21:36:37Z</DateUtc></StartTime><FrequencyChanges><FrequencyChange><Frequency dt:dt="r8">3507685</Frequency><Timestamp dt:dt="r8">1209117156003</Timestamp><Current dt:dt="r8">0</Current><DateUtc dt:dt="string">2016-08-22T21:36:37Z</DateUtc></FrequencyChange></FrequencyChanges></Clock>\n	Hungry_Donkey_bar_English_2-169-1	60.017	87	1.0.0.18	1	-2062925481	Standard	2.0.10.353	2.0.10.353	08-22-2016	8/22/2016 9:36:37 PM	17:36:37	2.0.10.248	65	Bar50-50.bmp	54	2	?	0r_4g.bmp	0r_4g.bmp	0r_2g.bmp	0r_2g.bmp		0r_4g.bmp			TrialProc	TrialList	0	cvbn	-999999	16	234314	0	v	363	234677	200	-169	31	-22	24	9	20	10	7	65	0	0	0	0	4	4	2	2	0	4
Hungry_Donkey_bar_English_2	169	1	<?xml version="1.0"?>\n<Clock xmlns:dt="urn:schemas-microsoft-com:datatypes"><Description dt:dt="string">E-Prime Primary Realtime Clock</Description><StartTime><Timestamp dt:dt="int">0</Timestamp><DateUtc dt:dt="string">2016-08-22T21:36:37Z</DateUtc></StartTime><FrequencyChanges><FrequencyChange><Frequency dt:dt="r8">3507685</Frequency><Timestamp dt:dt="r8">1209117156003</Timestamp><Current dt:dt="r8">0</Current><DateUtc dt:dt="string">2016-08-22T21:36:37Z</DateUtc></FrequencyChange></FrequencyChanges></Clock>\n	Hungry_Donkey_bar_English_2-169-1	60.017	87	1.0.0.18	1	-2062925481	Standard	2.0.10.353	2.0.10.353	08-22-2016	8/22/2016 9:36:37 PM	17:36:37	2.0.10.248	66	Bar50-50.bmp	55	2	?	0r_4g.bmp	0r_4g.bmp	0r_2g.bmp	0r_2g.bmp		0r_4g.bmp			TrialProc	TrialList	0	cvbn	-999999	16	236714	0	v	395	237109	204	-169	35	-22	28	9	20	6	7	66	0	0	0	0	4	4	2	2	0	4
Hungry_Donkey_bar_English_2	169	1	<?xml version="1.0"?>\n<Clock xmlns:dt="urn:schemas-microsoft-com:datatypes"><Description dt:dt="string">E-Prime Primary Realtime Clock</Description><StartTime><Timestamp dt:dt="int">0</Timestamp><DateUtc dt:dt="string">2016-08-22T21:36:37Z</DateUtc></StartTime><FrequencyChanges><FrequencyChange><Frequency dt:dt="r8">3507685</Frequency><Timestamp dt:dt="r8">1209117156003</Timestamp><Current dt:dt="r8">0</Current><DateUtc dt:dt="string">2016-08-22T21:36:37Z</DateUtc></FrequencyChange></FrequencyChanges></Clock>\n	Hungry_Donkey_bar_English_2-169-1	60.017	87	1.0.0.18	1	-2062925481	Standard	2.0.10.353	2.0.10.353	08-22-2016	8/22/2016 9:36:37 PM	17:36:37	2.0.10.248	67	Bar50-50.bmp	49	2	?	8r_4g.bmp	50r_4g.bmp	1r_2g.bmp	10r_2g.bmp		50r_4g.bmp			TrialProc	TrialList	0	cvbn	-999999	16	239146	0	v	251	239397	208	-219	-11	-22	-18	9	20	1	7	67	-8	-50	-1	-10	4	4	2	2	-50	4
Hungry_Donkey_bar_English_2	169	1	<?xml version="1.0"?>\n<Clock xmlns:dt="urn:schemas-microsoft-com:datatypes"><Description dt:dt="string">E-Prime Primary Realtime Clock</Description><StartTime><Timestamp dt:dt="int">0</Timestamp><DateUtc dt:dt="string">2016-08-22T21:36:37Z</DateUtc></StartTime><FrequencyChanges><FrequencyChange><Frequency dt:dt="r8">3507685</Frequency><Timestamp dt:dt="r8">1209117156003</Timestamp><Current dt:dt="r8">0</Current><DateUtc dt:dt="string">2016-08-22T21:36:37Z</DateUtc></FrequencyChange></FrequencyChanges></Clock>\n	Hungry_Donkey_bar_English_2-169-1	60.017	87	1.0.0.18	1	-2062925481	Standard	2.0.10.353	2.0.10.353	08-22-2016	8/22/2016 9:36:37 PM	17:36:37	2.0.10.248	68	Bar50-50.bmp	49	3	?	10r_4g.bmp	0r_4g.bmp	2r_2g.bmp	0r_2g.bmp			2r_2g.bmp		TrialProc	TrialList	0	cvbn	-999999	16	241429	0	b	4287	245716	210	-221	-11	-22	-18	9	20	4	7	68	-10	0	-2	0	4	4	2	2	-2	2
Hungry_Donkey_bar_English_2	169	1	<?xml version="1.0"?>\n<Clock xmlns:dt="urn:schemas-microsoft-com:datatypes"><Description dt:dt="string">E-Prime Primary Realtime Clock</Description><StartTime><Timestamp dt:dt="int">0</Timestamp><DateUtc dt:dt="string">2016-08-22T21:36:37Z</DateUtc></StartTime><FrequencyChanges><FrequencyChange><Frequency dt:dt="r8">3507685</Frequency><Timestamp dt:dt="r8">1209117156003</Timestamp><Current dt:dt="r8">0</Current><DateUtc dt:dt="string">2016-08-22T21:36:37Z</DateUtc></FrequencyChange></FrequencyChanges></Clock>\n	Hungry_Donkey_bar_English_2-169-1	60.017	87	1.0.0.18	1	-2062925481	Standard	2.0.10.353	2.0.10.353	08-22-2016	8/22/2016 9:36:37 PM	17:36:37	2.0.10.248	69	Bar50-50.bmp	49	2	?	12r_4g.bmp	0r_4g.bmp	3r_2g.bmp	0r_2g.bmp		0r_4g.bmp			TrialProc	TrialList	0	cvbn	-999999	16	247744	0	v	180	247924	214	-221	-7	-22	-14	9	20	5	7	69	-12	0	-3	0	4	4	2	2	0	4
Hungry_Donkey_bar_English_2	169	1	<?xml version="1.0"?>\n<Clock xmlns:dt="urn:schemas-microsoft-com:datatypes"><Description dt:dt="string">E-Prime Primary Realtime Clock</Description><StartTime><Timestamp dt:dt="int">0</Timestamp><DateUtc dt:dt="string">2016-08-22T21:36:37Z</DateUtc></StartTime><FrequencyChanges><FrequencyChange><Frequency dt:dt="r8">3507685</Frequency><Timestamp dt:dt="r8">1209117156003</Timestamp><Current dt:dt="r8">0</Current><DateUtc dt:dt="string">2016-08-22T21:36:37Z</DateUtc></FrequencyChange></FrequencyChanges></Clock>\n	Hungry_Donkey_bar_English_2-169-1	60.017	87	1.0.0.18	1	-2062925481	Standard	2.0.10.353	2.0.10.353	08-22-2016	8/22/2016 9:36:37 PM	17:36:37	2.0.10.248	70	Bar50-50.bmp	50	2	?	0r_4g.bmp	0r_4g.bmp	0r_2g.bmp	0r_2g.bmp		0r_4g.bmp			TrialProc	TrialList	0	cvbn	-999999	16	249960	0	v	140	250100	218	-221	-3	-22	-10	9	20	9	7	70	0	0	0	0	4	4	2	2	0	4
Hungry_Donkey_bar_English_2	169	1	<?xml version="1.0"?>\n<Clock xmlns:dt="urn:schemas-microsoft-com:datatypes"><Description dt:dt="string">E-Prime Primary Realtime Clock</Description><StartTime><Timestamp dt:dt="int">0</Timestamp><DateUtc dt:dt="string">2016-08-22T21:36:37Z</DateUtc></StartTime><FrequencyChanges><FrequencyChange><Frequency dt:dt="r8">3507685</Frequency><Timestamp dt:dt="r8">1209117156003</Timestamp><Current dt:dt="r8">0</Current><DateUtc dt:dt="string">2016-08-22T21:36:37Z</DateUtc></FrequencyChange></FrequencyChanges></Clock>\n	Hungry_Donkey_bar_English_2-169-1	60.017	87	1.0.0.18	1	-2062925481	Standard	2.0.10.353	2.0.10.353	08-22-2016	8/22/2016 9:36:37 PM	17:36:37	2.0.10.248	71	Bar50-50.bmp	50	2	?	10r_4g.bmp	0r_4g.bmp	2r_2g.bmp	0r_2g.bmp		0r_4g.bmp			TrialProc	TrialList	0	cvbn	-999999	16	252126	0	v	182	252308	222	-221	1	-22	-6	9	20	4	8	71	-10	0	-2	0	4	4	2	2	0	4
Hungry_Donkey_bar_English_2	169	1	<?xml version="1.0"?>\n<Clock xmlns:dt="urn:schemas-microsoft-com:datatypes"><Description dt:dt="string">E-Prime Primary Realtime Clock</Description><StartTime><Timestamp dt:dt="int">0</Timestamp><DateUtc dt:dt="string">2016-08-22T21:36:37Z</DateUtc></StartTime><FrequencyChanges><FrequencyChange><Frequency dt:dt="r8">3507685</Frequency><Timestamp dt:dt="r8">1209117156003</Timestamp><Current dt:dt="r8">0</Current><DateUtc dt:dt="string">2016-08-22T21:36:37Z</DateUtc></FrequencyChange></FrequencyChanges></Clock>\n	Hungry_Donkey_bar_English_2-169-1	60.017	87	1.0.0.18	1	-2062925481	Standard	2.0.10.353	2.0.10.353	08-22-2016	8/22/2016 9:36:37 PM	17:36:37	2.0.10.248	72	Bar50-50.bmp	50	4	?	0r_4g.bmp	0r_4g.bmp	0r_2g.bmp	0r_2g.bmp				0r_2g.bmp	TrialProc	TrialList	0	cvbn	-999999	16	254342	0	n	430	254772	224	-221	3	-22	-6	9	22	9	8	72	0	0	0	0	4	4	2	2	0	2
Hungry_Donkey_bar_English_2	169	1	<?xml version="1.0"?>\n<Clock xmlns:dt="urn:schemas-microsoft-com:datatypes"><Description dt:dt="string">E-Prime Primary Realtime Clock</Description><StartTime><Timestamp dt:dt="int">0</Timestamp><DateUtc dt:dt="string">2016-08-22T21:36:37Z</DateUtc></StartTime><FrequencyChanges><FrequencyChange><Frequency dt:dt="r8">3507685</Frequency><Timestamp dt:dt="r8">1209117156003</Timestamp><Current dt:dt="r8">0</Current><DateUtc dt:dt="string">2016-08-22T21:36:37Z</DateUtc></FrequencyChange></FrequencyChanges></Clock>\n	Hungry_Donkey_bar_English_2-169-1	60.017	87	1.0.0.18	1	-2062925481	Standard	2.0.10.353	2.0.10.353	08-22-2016	8/22/2016 9:36:37 PM	17:36:37	2.0.10.248	73	Bar50-50.bmp	46	2	?	8r_4g.bmp	50r_4g.bmp	1r_2g.bmp	10r_2g.bmp		50r_4g.bmp			TrialProc	TrialList	0	cvbn	-999999	16	256808	0	v	412	257220	228	-271	-43	-22	-52	9	22	1	8	73	-8	-50	-1	-10	4	4	2	2	-50	4
Hungry_Donkey_bar_English_2	169	1	<?xml version="1.0"?>\n<Clock xmlns:dt="urn:schemas-microsoft-com:datatypes"><Description dt:dt="string">E-Prime Primary Realtime Clock</Description><StartTime><Timestamp dt:dt="int">0</Timestamp><DateUtc dt:dt="string">2016-08-22T21:36:37Z</DateUtc></StartTime><FrequencyChanges><FrequencyChange><Frequency dt:dt="r8">3507685</Frequency><Timestamp dt:dt="r8">1209117156003</Timestamp><Current dt:dt="r8">0</Current><DateUtc dt:dt="string">2016-08-22T21:36:37Z</DateUtc></FrequencyChange></FrequencyChanges></Clock>\n	Hungry_Donkey_bar_English_2-169-1	60.017	87	1.0.0.18	1	-2062925481	Standard	2.0.10.353	2.0.10.353	08-22-2016	8/22/2016 9:36:37 PM	17:36:37	2.0.10.248	74	Bar50-50.bmp	46	2	?	0r_4g.bmp	0r_4g.bmp	0r_2g.bmp	0r_2g.bmp		0r_4g.bmp			TrialProc	TrialList	0	cvbn	-999999	16	259257	0	v	1691	260948	232	-271	-39	-22	-48	9	22	7	8	74	0	0	0	0	4	4	2	2	0	4
Hungry_Donkey_bar_English_2	169	1	<?xml version="1.0"?>\n<Clock xmlns:dt="urn:schemas-microsoft-com:datatypes"><Description dt:dt="string">E-Prime Primary Realtime Clock</Description><StartTime><Timestamp dt:dt="int">0</Timestamp><DateUtc dt:dt="string">2016-08-22T21:36:37Z</DateUtc></StartTime><FrequencyChanges><FrequencyChange><Frequency dt:dt="r8">3507685</Frequency><Timestamp dt:dt="r8">1209117156003</Timestamp><Current dt:dt="r8">0</Current><DateUtc dt:dt="string">2016-08-22T21:36:37Z</DateUtc></FrequencyChange></FrequencyChanges></Clock>\n	Hungry_Donkey_bar_English_2-169-1	60.017	87	1.0.0.18	1	-2062925481	Standard	2.0.10.353	2.0.10.353	08-22-2016	8/22/2016 9:36:37 PM	17:36:37	2.0.10.248	75	Bar50-50.bmp	47	2	?	0r_4g.bmp	0r_4g.bmp	0r_2g.bmp	0r_2g.bmp		0r_4g.bmp			TrialProc	TrialList	0	cvbn	-999999	16	262989	0	v	487	263476	236	-271	-35	-22	-44	9	22	8	8	75	0	0	0	0	4	4	2	2	0	4
Hungry_Donkey_bar_English_2	169	1	<?xml version="1.0"?>\n<Clock xmlns:dt="urn:schemas-microsoft-com:datatypes"><Description dt:dt="string">E-Prime Primary Realtime Clock</Description><StartTime><Timestamp dt:dt="int">0</Timestamp><DateUtc dt:dt="string">2016-08-22T21:36:37Z</DateUtc></StartTime><FrequencyChanges><FrequencyChange><Frequency dt:dt="r8">3507685</Frequency><Timestamp dt:dt="r8">1209117156003</Timestamp><Current dt:dt="r8">0</Current><DateUtc dt:dt="string">2016-08-22T21:36:37Z</DateUtc></FrequencyChange></FrequencyChanges></Clock>\n	Hungry_Donkey_bar_English_2-169-1	60.017	87	1.0.0.18	1	-2062925481	Standard	2.0.10.353	2.0.10.353	08-22-2016	8/22/2016 9:36:37 PM	17:36:37	2.0.10.248	76	Bar50-50.bmp	47	1	?	0r_4g.bmp	0r_4g.bmp	0r_2g.bmp	0r_2g.bmp	0r_4g.bmp				TrialProc	TrialList	0	cvbn	-999999	16	265505	0	c	658	266163	240	-271	-31	-18	-44	9	22	6	8	76	0	0	0	0	4	4	2	2	0	4
Hungry_Donkey_bar_English_2	169	1	<?xml version="1.0"?>\n<Clock xmlns:dt="urn:schemas-microsoft-com:datatypes"><Description dt:dt="string">E-Prime Primary Realtime Clock</Description><StartTime><Timestamp dt:dt="int">0</Timestamp><DateUtc dt:dt="string">2016-08-22T21:36:37Z</DateUtc></StartTime><FrequencyChanges><FrequencyChange><Frequency dt:dt="r8">3507685</Frequency><Timestamp dt:dt="r8">1209117156003</Timestamp><Current dt:dt="r8">0</Current><DateUtc dt:dt="string">2016-08-22T21:36:37Z</DateUtc></FrequencyChange></FrequencyChanges></Clock>\n	Hungry_Donkey_bar_English_2-169-1	60.017	87	1.0.0.18	1	-2062925481	Standard	2.0.10.353	2.0.10.353	08-22-2016	8/22/2016 9:36:37 PM	17:36:37	2.0.10.248	77	Bar50-50.bmp	47	2	?	0r_4g.bmp	0r_4g.bmp	0r_2g.bmp	0r_2g.bmp		0r_4g.bmp			TrialProc	TrialList	0	cvbn	-999999	16	268188	0	v	775	268963	244	-271	-27	-18	-40	9	22	10	8	77	0	0	0	0	4	4	2	2	0	4
Hungry_Donkey_bar_English_2	169	1	<?xml version="1.0"?>\n<Clock xmlns:dt="urn:schemas-microsoft-com:datatypes"><Description dt:dt="string">E-Prime Primary Realtime Clock</Description><StartTime><Timestamp dt:dt="int">0</Timestamp><DateUtc dt:dt="string">2016-08-22T21:36:37Z</DateUtc></StartTime><FrequencyChanges><FrequencyChange><Frequency dt:dt="r8">3507685</Frequency><Timestamp dt:dt="r8">1209117156003</Timestamp><Current dt:dt="r8">0</Current><DateUtc dt:dt="string">2016-08-22T21:36:37Z</DateUtc></FrequencyChange></FrequencyChanges></Clock>\n	Hungry_Donkey_bar_English_2-169-1	60.017	87	1.0.0.18	1	-2062925481	Standard	2.0.10.353	2.0.10.353	08-22-2016	8/22/2016 9:36:37 PM	17:36:37	2.0.10.248	78	Bar50-50.bmp	47	1	?	10r_4g.bmp	0r_4g.bmp	2r_2g.bmp	0r_2g.bmp	10r_4g.bmp				TrialProc	TrialList	0	cvbn	-999999	15	270987	0	c	424	271411	248	-281	-33	-24	-40	9	22	2	8	78	-10	0	-2	0	4	4	2	2	-10	4
Hungry_Donkey_bar_English_2	169	1	<?xml version="1.0"?>\n<Clock xmlns:dt="urn:schemas-microsoft-com:datatypes"><Description dt:dt="string">E-Prime Primary Realtime Clock</Description><StartTime><Timestamp dt:dt="int">0</Timestamp><DateUtc dt:dt="string">2016-08-22T21:36:37Z</DateUtc></StartTime><FrequencyChanges><FrequencyChange><Frequency dt:dt="r8">3507685</Frequency><Timestamp dt:dt="r8">1209117156003</Timestamp><Current dt:dt="r8">0</Current><DateUtc dt:dt="string">2016-08-22T21:36:37Z</DateUtc></FrequencyChange></FrequencyChanges></Clock>\n	Hungry_Donkey_bar_English_2-169-1	60.017	87	1.0.0.18	1	-2062925481	Standard	2.0.10.353	2.0.10.353	08-22-2016	8/22/2016 9:36:37 PM	17:36:37	2.0.10.248	79	Bar50-50.bmp	47	3	?	10r_4g.bmp	0r_4g.bmp	2r_2g.bmp	0r_2g.bmp			2r_2g.bmp		TrialProc	TrialList	0	cvbn	-999999	16	273436	0	b	343	273779	250	-283	-33	-24	-40	9	22	3	8	79	-10	0	-2	0	4	4	2	2	-2	2
Hungry_Donkey_bar_English_2	169	1	<?xml version="1.0"?>\n<Clock xmlns:dt="urn:schemas-microsoft-com:datatypes"><Description dt:dt="string">E-Prime Primary Realtime Clock</Description><StartTime><Timestamp dt:dt="int">0</Timestamp><DateUtc dt:dt="string">2016-08-22T21:36:37Z</DateUtc></StartTime><FrequencyChanges><FrequencyChange><Frequency dt:dt="r8">3507685</Frequency><Timestamp dt:dt="r8">1209117156003</Timestamp><Current dt:dt="r8">0</Current><DateUtc dt:dt="string">2016-08-22T21:36:37Z</DateUtc></FrequencyChange></FrequencyChanges></Clock>\n	Hungry_Donkey_bar_English_2-169-1	60.017	87	1.0.0.18	1	-2062925481	Standard	2.0.10.353	2.0.10.353	08-22-2016	8/22/2016 9:36:37 PM	17:36:37	2.0.10.248	80	Bar50-50.bmp	46	1	?	12r_4g.bmp	0r_4g.bmp	3r_2g.bmp	0r_2g.bmp	12r_4g.bmp				TrialProc	TrialList	0	cvbn	-999999	16	275819	0	c	456	276275	254	-295	-41	-32	-40	9	22	5	8	80	-12	0	-3	0	4	4	2	2	-12	4
Hungry_Donkey_bar_English_2	169	1	<?xml version="1.0"?>\n<Clock xmlns:dt="urn:schemas-microsoft-com:datatypes"><Description dt:dt="string">E-Prime Primary Realtime Clock</Description><StartTime><Timestamp dt:dt="int">0</Timestamp><DateUtc dt:dt="string">2016-08-22T21:36:37Z</DateUtc></StartTime><FrequencyChanges><FrequencyChange><Frequency dt:dt="r8">3507685</Frequency><Timestamp dt:dt="r8">1209117156003</Timestamp><Current dt:dt="r8">0</Current><DateUtc dt:dt="string">2016-08-22T21:36:37Z</DateUtc></FrequencyChange></FrequencyChanges></Clock>\n	Hungry_Donkey_bar_English_2-169-1	60.017	87	1.0.0.18	1	-2062925481	Standard	2.0.10.353	2.0.10.353	08-22-2016	8/22/2016 9:36:37 PM	17:36:37	2.0.10.248	81	Bar50-50.bmp	47	2	?	0r_4g.bmp	0r_4g.bmp	0r_2g.bmp	0r_2g.bmp		0r_4g.bmp			TrialProc	TrialList	0	cvbn	-999999	16	278302	0	v	485	278787	258	-295	-37	-32	-36	9	22	7	9	81	0	0	0	0	4	4	2	2	0	4
Hungry_Donkey_bar_English_2	169	1	<?xml version="1.0"?>\n<Clock xmlns:dt="urn:schemas-microsoft-com:datatypes"><Description dt:dt="string">E-Prime Primary Realtime Clock</Description><StartTime><Timestamp dt:dt="int">0</Timestamp><DateUtc dt:dt="string">2016-08-22T21:36:37Z</DateUtc></StartTime><FrequencyChanges><FrequencyChange><Frequency dt:dt="r8">3507685</Frequency><Timestamp dt:dt="r8">1209117156003</Timestamp><Current dt:dt="r8">0</Current><DateUtc dt:dt="string">2016-08-22T21:36:37Z</DateUtc></FrequencyChange></FrequencyChanges></Clock>\n	Hungry_Donkey_bar_English_2-169-1	60.017	87	1.0.0.18	1	-2062925481	Standard	2.0.10.353	2.0.10.353	08-22-2016	8/22/2016 9:36:37 PM	17:36:37	2.0.10.248	82	Bar50-50.bmp	47	4	?	10r_4g.bmp	0r_4g.bmp	2r_2g.bmp	0r_2g.bmp				0r_2g.bmp	TrialProc	TrialList	0	cvbn	-999999	17	280818	0	n	385	281203	260	-295	-35	-32	-36	9	24	3	9	82	-10	0	-2	0	4	4	2	2	0	2
Hungry_Donkey_bar_English_2	169	1	<?xml version="1.0"?>\n<Clock xmlns:dt="urn:schemas-microsoft-com:datatypes"><Description dt:dt="string">E-Prime Primary Realtime Clock</Description><StartTime><Timestamp dt:dt="int">0</Timestamp><DateUtc dt:dt="string">2016-08-22T21:36:37Z</DateUtc></StartTime><FrequencyChanges><FrequencyChange><Frequency dt:dt="r8">3507685</Frequency><Timestamp dt:dt="r8">1209117156003</Timestamp><Current dt:dt="r8">0</Current><DateUtc dt:dt="string">2016-08-22T21:36:37Z</DateUtc></FrequencyChange></FrequencyChanges></Clock>\n	Hungry_Donkey_bar_English_2-169-1	60.017	87	1.0.0.18	1	-2062925481	Standard	2.0.10.353	2.0.10.353	08-22-2016	8/22/2016 9:36:37 PM	17:36:37	2.0.10.248	83	Bar50-50.bmp	47	2	?	10r_4g.bmp	0r_4g.bmp	2r_2g.bmp	0r_2g.bmp		0r_4g.bmp			TrialProc	TrialList	0	cvbn	-999999	17	283234	0	v	1200	284434	264	-295	-31	-32	-32	9	24	2	9	83	-10	0	-2	0	4	4	2	2	0	4
Hungry_Donkey_bar_English_2	169	1	<?xml version="1.0"?>\n<Clock xmlns:dt="urn:schemas-microsoft-com:datatypes"><Description dt:dt="string">E-Prime Primary Realtime Clock</Description><StartTime><Timestamp dt:dt="int">0</Timestamp><DateUtc dt:dt="string">2016-08-22T21:36:37Z</DateUtc></StartTime><FrequencyChanges><FrequencyChange><Frequency dt:dt="r8">3507685</Frequency><Timestamp dt:dt="r8">1209117156003</Timestamp><Current dt:dt="r8">0</Current><DateUtc dt:dt="string">2016-08-22T21:36:37Z</DateUtc></FrequencyChange></FrequencyChanges></Clock>\n	Hungry_Donkey_bar_English_2-169-1	60.017	87	1.0.0.18	1	-2062925481	Standard	2.0.10.353	2.0.10.353	08-22-2016	8/22/2016 9:36:37 PM	17:36:37	2.0.10.248	84	Bar50-50.bmp	48	2	?	0r_4g.bmp	0r_4g.bmp	0r_2g.bmp	0r_2g.bmp		0r_4g.bmp			TrialProc	TrialList	0	cvbn	-999999	16	286466	0	v	720	287186	268	-295	-27	-32	-28	9	24	8	9	84	0	0	0	0	4	4	2	2	0	4
Hungry_Donkey_bar_English_2	169	1	<?xml version="1.0"?>\n<Clock xmlns:dt="urn:schemas-microsoft-com:datatypes"><Description dt:dt="string">E-Prime Primary Realtime Clock</Description><StartTime><Timestamp dt:dt="int">0</Timestamp><DateUtc dt:dt="string">2016-08-22T21:36:37Z</DateUtc></StartTime><FrequencyChanges><FrequencyChange><Frequency dt:dt="r8">3507685</Frequency><Timestamp dt:dt="r8">1209117156003</Timestamp><Current dt:dt="r8">0</Current><DateUtc dt:dt="string">2016-08-22T21:36:37Z</DateUtc></FrequencyChange></FrequencyChanges></Clock>\n	Hungry_Donkey_bar_English_2-169-1	60.017	87	1.0.0.18	1	-2062925481	Standard	2.0.10.353	2.0.10.353	08-22-2016	8/22/2016 9:36:37 PM	17:36:37	2.0.10.248	85	Bar50-50.bmp	48	3	?	8r_4g.bmp	50r_4g.bmp	1r_2g.bmp	10r_2g.bmp			1r_2g.bmp		TrialProc	TrialList	0	cvbn	-999999	16	289215	0	b	515	289730	270	-296	-26	-32	-28	10	24	1	9	85	-8	-50	-1	-10	4	4	2	2	-1	2
Hungry_Donkey_bar_English_2	169	1	<?xml version="1.0"?>\n<Clock xmlns:dt="urn:schemas-microsoft-com:datatypes"><Description dt:dt="string">E-Prime Primary Realtime Clock</Description><StartTime><Timestamp dt:dt="int">0</Timestamp><DateUtc dt:dt="string">2016-08-22T21:36:37Z</DateUtc></StartTime><FrequencyChanges><FrequencyChange><Frequency dt:dt="r8">3507685</Frequency><Timestamp dt:dt="r8">1209117156003</Timestamp><Current dt:dt="r8">0</Current><DateUtc dt:dt="string">2016-08-22T21:36:37Z</DateUtc></FrequencyChange></FrequencyChanges></Clock>\n	Hungry_Donkey_bar_English_2-169-1	60.017	87	1.0.0.18	1	-2062925481	Standard	2.0.10.353	2.0.10.353	08-22-2016	8/22/2016 9:36:37 PM	17:36:37	2.0.10.248	86	Bar50-50.bmp	48	4	?	0r_4g.bmp	0r_4g.bmp	0r_2g.bmp	0r_2g.bmp				0r_2g.bmp	TrialProc	TrialList	0	cvbn	-999999	16	291764	0	n	430	292194	272	-296	-24	-32	-28	10	26	6	9	86	0	0	0	0	4	4	2	2	0	2
Hungry_Donkey_bar_English_2	169	1	<?xml version="1.0"?>\n<Clock xmlns:dt="urn:schemas-microsoft-com:datatypes"><Description dt:dt="string">E-Prime Primary Realtime Clock</Description><StartTime><Timestamp dt:dt="int">0</Timestamp><DateUtc dt:dt="string">2016-08-22T21:36:37Z</DateUtc></StartTime><FrequencyChanges><FrequencyChange><Frequency dt:dt="r8">3507685</Frequency><Timestamp dt:dt="r8">1209117156003</Timestamp><Current dt:dt="r8">0</Current><DateUtc dt:dt="string">2016-08-22T21:36:37Z</DateUtc></FrequencyChange></FrequencyChanges></Clock>\n	Hungry_Donkey_bar_English_2-169-1	60.017	87	1.0.0.18	1	-2062925481	Standard	2.0.10.353	2.0.10.353	08-22-2016	8/22/2016 9:36:37 PM	17:36:37	2.0.10.248	87	Bar50-50.bmp	48	2	?	12r_4g.bmp	0r_4g.bmp	3r_2g.bmp	0r_2g.bmp		0r_4g.bmp			TrialProc	TrialList	0	cvbn	-999999	16	294230	0	v	316	294546	276	-296	-20	-32	-24	10	26	5	9	87	-12	0	-3	0	4	4	2	2	0	4
Hungry_Donkey_bar_English_2	169	1	<?xml version="1.0"?>\n<Clock xmlns:dt="urn:schemas-microsoft-com:datatypes"><Description dt:dt="string">E-Prime Primary Realtime Clock</Description><StartTime><Timestamp dt:dt="int">0</Timestamp><DateUtc dt:dt="string">2016-08-22T21:36:37Z</DateUtc></StartTime><FrequencyChanges><FrequencyChange><Frequency dt:dt="r8">3507685</Frequency><Timestamp dt:dt="r8">1209117156003</Timestamp><Current dt:dt="r8">0</Current><DateUtc dt:dt="string">2016-08-22T21:36:37Z</DateUtc></FrequencyChange></FrequencyChanges></Clock>\n	Hungry_Donkey_bar_English_2-169-1	60.017	87	1.0.0.18	1	-2062925481	Standard	2.0.10.353	2.0.10.353	08-22-2016	8/22/2016 9:36:37 PM	17:36:37	2.0.10.248	88	Bar50-50.bmp	48	1	?	10r_4g.bmp	0r_4g.bmp	2r_2g.bmp	0r_2g.bmp	10r_4g.bmp				TrialProc	TrialList	0	cvbn	-999999	16	296580	0	c	702	297282	280	-306	-26	-38	-24	10	26	4	9	88	-10	0	-2	0	4	4	2	2	-10	4
Hungry_Donkey_bar_English_2	169	1	<?xml version="1.0"?>\n<Clock xmlns:dt="urn:schemas-microsoft-com:datatypes"><Description dt:dt="string">E-Prime Primary Realtime Clock</Description><StartTime><Timestamp dt:dt="int">0</Timestamp><DateUtc dt:dt="string">2016-08-22T21:36:37Z</DateUtc></StartTime><FrequencyChanges><FrequencyChange><Frequency dt:dt="r8">3507685</Frequency><Timestamp dt:dt="r8">1209117156003</Timestamp><Current dt:dt="r8">0</Current><DateUtc dt:dt="string">2016-08-22T21:36:37Z</DateUtc></FrequencyChange></FrequencyChanges></Clock>\n	Hungry_Donkey_bar_English_2-169-1	60.017	87	1.0.0.18	1	-2062925481	Standard	2.0.10.353	2.0.10.353	08-22-2016	8/22/2016 9:36:37 PM	17:36:37	2.0.10.248	89	Bar50-50.bmp	48	2	?	0r_4g.bmp	0r_4g.bmp	0r_2g.bmp	0r_2g.bmp		0r_4g.bmp			TrialProc	TrialList	0	cvbn	-999999	16	299312	0	v	1506	300818	284	-306	-22	-38	-20	10	26	9	9	89	0	0	0	0	4	4	2	2	0	4
Hungry_Donkey_bar_English_2	169	1	<?xml version="1.0"?>\n<Clock xmlns:dt="urn:schemas-microsoft-com:datatypes"><Description dt:dt="string">E-Prime Primary Realtime Clock</Description><StartTime><Timestamp dt:dt="int">0</Timestamp><DateUtc dt:dt="string">2016-08-22T21:36:37Z</DateUtc></StartTime><FrequencyChanges><FrequencyChange><Frequency dt:dt="r8">3507685</Frequency><Timestamp dt:dt="r8">1209117156003</Timestamp><Current dt:dt="r8">0</Current><DateUtc dt:dt="string">2016-08-22T21:36:37Z</DateUtc></FrequencyChange></FrequencyChanges></Clock>\n	Hungry_Donkey_bar_English_2-169-1	60.017	87	1.0.0.18	1	-2062925481	Standard	2.0.10.353	2.0.10.353	08-22-2016	8/22/2016 9:36:37 PM	17:36:37	2.0.10.248	90	Bar50-50.bmp	48	2	?	0r_4g.bmp	0r_4g.bmp	0r_2g.bmp	0r_2g.bmp		0r_4g.bmp			TrialProc	TrialList	0	cvbn	-999999	17	302845	0	v	661	303506	288	-306	-18	-38	-16	10	26	10	9	90	0	0	0	0	4	4	2	2	0	4
Hungry_Donkey_bar_English_2	169	1	<?xml version="1.0"?>\n<Clock xmlns:dt="urn:schemas-microsoft-com:datatypes"><Description dt:dt="string">E-Prime Primary Realtime Clock</Description><StartTime><Timestamp dt:dt="int">0</Timestamp><DateUtc dt:dt="string">2016-08-22T21:36:37Z</DateUtc></StartTime><FrequencyChanges><FrequencyChange><Frequency dt:dt="r8">3507685</Frequency><Timestamp dt:dt="r8">1209117156003</Timestamp><Current dt:dt="r8">0</Current><DateUtc dt:dt="string">2016-08-22T21:36:37Z</DateUtc></FrequencyChange></FrequencyChanges></Clock>\n	Hungry_Donkey_bar_English_2-169-1	60.017	87	1.0.0.18	1	-2062925481	Standard	2.0.10.353	2.0.10.353	08-22-2016	8/22/2016 9:36:37 PM	17:36:37	2.0.10.248	91	Bar50-50.bmp	49	3	?	0r_4g.bmp	0r_4g.bmp	0r_2g.bmp	0r_2g.bmp			0r_2g.bmp		TrialProc	TrialList	0	cvbn	-999999	16	305544	0	b	441	305985	290	-306	-16	-38	-16	12	26	6	10	91	0	0	0	0	4	4	2	2	0	2
Hungry_Donkey_bar_English_2	169	1	<?xml version="1.0"?>\n<Clock xmlns:dt="urn:schemas-microsoft-com:datatypes"><Description dt:dt="string">E-Prime Primary Realtime Clock</Description><StartTime><Timestamp dt:dt="int">0</Timestamp><DateUtc dt:dt="string">2016-08-22T21:36:37Z</DateUtc></StartTime><FrequencyChanges><FrequencyChange><Frequency dt:dt="r8">3507685</Frequency><Timestamp dt:dt="r8">1209117156003</Timestamp><Current dt:dt="r8">0</Current><DateUtc dt:dt="string">2016-08-22T21:36:37Z</DateUtc></FrequencyChange></FrequencyChanges></Clock>\n	Hungry_Donkey_bar_English_2-169-1	60.017	87	1.0.0.18	1	-2062925481	Standard	2.0.10.353	2.0.10.353	08-22-2016	8/22/2016 9:36:37 PM	17:36:37	2.0.10.248	92	Bar50-50.bmp	49	4	?	12r_4g.bmp	0r_4g.bmp	3r_2g.bmp	0r_2g.bmp				0r_2g.bmp	TrialProc	TrialList	0	cvbn	-999999	16	308010	0	n	1671	309681	292	-306	-14	-38	-16	12	28	5	10	92	-12	0	-3	0	4	4	2	2	0	2
Hungry_Donkey_bar_English_2	169	1	<?xml version="1.0"?>\n<Clock xmlns:dt="urn:schemas-microsoft-com:datatypes"><Description dt:dt="string">E-Prime Primary Realtime Clock</Description><StartTime><Timestamp dt:dt="int">0</Timestamp><DateUtc dt:dt="string">2016-08-22T21:36:37Z</DateUtc></StartTime><FrequencyChanges><FrequencyChange><Frequency dt:dt="r8">3507685</Frequency><Timestamp dt:dt="r8">1209117156003</Timestamp><Current dt:dt="r8">0</Current><DateUtc dt:dt="string">2016-08-22T21:36:37Z</DateUtc></FrequencyChange></FrequencyChanges></Clock>\n	Hungry_Donkey_bar_English_2-169-1	60.017	87	1.0.0.18	1	-2062925481	Standard	2.0.10.353	2.0.10.353	08-22-2016	8/22/2016 9:36:37 PM	17:36:37	2.0.10.248	93	Bar50-50.bmp	49	3	?	8r_4g.bmp	50r_4g.bmp	1r_2g.bmp	10r_2g.bmp			1r_2g.bmp		TrialProc	TrialList	0	cvbn	-999999	16	311709	0	b	372	312081	294	-307	-13	-38	-16	13	28	1	10	93	-8	-50	-1	-10	4	4	2	2	-1	2
Hungry_Donkey_bar_English_2	169	1	<?xml version="1.0"?>\n<Clock xmlns:dt="urn:schemas-microsoft-com:datatypes"><Description dt:dt="string">E-Prime Primary Realtime Clock</Description><StartTime><Timestamp dt:dt="int">0</Timestamp><DateUtc dt:dt="string">2016-08-22T21:36:37Z</DateUtc></StartTime><FrequencyChanges><FrequencyChange><Frequency dt:dt="r8">3507685</Frequency><Timestamp dt:dt="r8">1209117156003</Timestamp><Current dt:dt="r8">0</Current><DateUtc dt:dt="string">2016-08-22T21:36:37Z</DateUtc></FrequencyChange></FrequencyChanges></Clock>\n	Hungry_Donkey_bar_English_2-169-1	60.017	87	1.0.0.18	1	-2062925481	Standard	2.0.10.353	2.0.10.353	08-22-2016	8/22/2016 9:36:37 PM	17:36:37	2.0.10.248	94	Bar50-50.bmp	49	2	?	10r_4g.bmp	0r_4g.bmp	2r_2g.bmp	0r_2g.bmp		0r_4g.bmp			TrialProc	TrialList	0	cvbn	-999999	16	314108	0	v	549	314657	298	-307	-9	-38	-12	13	28	2	10	94	-10	0	-2	0	4	4	2	2	0	4
Hungry_Donkey_bar_English_2	169	1	<?xml version="1.0"?>\n<Clock xmlns:dt="urn:schemas-microsoft-com:datatypes"><Description dt:dt="string">E-Prime Primary Realtime Clock</Description><StartTime><Timestamp dt:dt="int">0</Timestamp><DateUtc dt:dt="string">2016-08-22T21:36:37Z</DateUtc></StartTime><FrequencyChanges><FrequencyChange><Frequency dt:dt="r8">3507685</Frequency><Timestamp dt:dt="r8">1209117156003</Timestamp><Current dt:dt="r8">0</Current><DateUtc dt:dt="string">2016-08-22T21:36:37Z</DateUtc></FrequencyChange></FrequencyChanges></Clock>\n	Hungry_Donkey_bar_English_2-169-1	60.017	87	1.0.0.18	1	-2062925481	Standard	2.0.10.353	2.0.10.353	08-22-2016	8/22/2016 9:36:37 PM	17:36:37	2.0.10.248	95	Bar50-50.bmp	50	2	?	10r_4g.bmp	0r_4g.bmp	2r_2g.bmp	0r_2g.bmp		0r_4g.bmp			TrialProc	TrialList	0	cvbn	-999999	17	316691	0	v	446	317137	302	-307	-5	-38	-8	13	28	3	10	95	-10	0	-2	0	4	4	2	2	0	4
Hungry_Donkey_bar_English_2	169	1	<?xml version="1.0"?>\n<Clock xmlns:dt="urn:schemas-microsoft-com:datatypes"><Description dt:dt="string">E-Prime Primary Realtime Clock</Description><StartTime><Timestamp dt:dt="int">0</Timestamp><DateUtc dt:dt="string">2016-08-22T21:36:37Z</DateUtc></StartTime><FrequencyChanges><FrequencyChange><Frequency dt:dt="r8">3507685</Frequency><Timestamp dt:dt="r8">1209117156003</Timestamp><Current dt:dt="r8">0</Current><DateUtc dt:dt="string">2016-08-22T21:36:37Z</DateUtc></FrequencyChange></FrequencyChanges></Clock>\n	Hungry_Donkey_bar_English_2-169-1	60.017	87	1.0.0.18	1	-2062925481	Standard	2.0.10.353	2.0.10.353	08-22-2016	8/22/2016 9:36:37 PM	17:36:37	2.0.10.248	96	Bar50-50.bmp	50	4	?	0r_4g.bmp	0r_4g.bmp	0r_2g.bmp	0r_2g.bmp				0r_2g.bmp	TrialProc	TrialList	0	cvbn	-999999	16	319173	0	n	780	319953	304	-307	-3	-38	-8	13	30	7	10	96	0	0	0	0	4	4	2	2	0	2
Hungry_Donkey_bar_English_2	169	1	<?xml version="1.0"?>\n<Clock xmlns:dt="urn:schemas-microsoft-com:datatypes"><Description dt:dt="string">E-Prime Primary Realtime Clock</Description><StartTime><Timestamp dt:dt="int">0</Timestamp><DateUtc dt:dt="string">2016-08-22T21:36:37Z</DateUtc></StartTime><FrequencyChanges><FrequencyChange><Frequency dt:dt="r8">3507685</Frequency><Timestamp dt:dt="r8">1209117156003</Timestamp><Current dt:dt="r8">0</Current><DateUtc dt:dt="string">2016-08-22T21:36:37Z</DateUtc></FrequencyChange></FrequencyChanges></Clock>\n	Hungry_Donkey_bar_English_2-169-1	60.017	87	1.0.0.18	1	-2062925481	Standard	2.0.10.353	2.0.10.353	08-22-2016	8/22/2016 9:36:37 PM	17:36:37	2.0.10.248	97	Bar50-50.bmp	50	2	?	10r_4g.bmp	0r_4g.bmp	2r_2g.bmp	0r_2g.bmp		0r_4g.bmp			TrialProc	TrialList	0	cvbn	-999999	16	321989	0	v	524	322513	308	-307	1	-38	-4	13	30	4	10	97	-10	0	-2	0	4	4	2	2	0	4
Hungry_Donkey_bar_English_2	169	1	<?xml version="1.0"?>\n<Clock xmlns:dt="urn:schemas-microsoft-com:datatypes"><Description dt:dt="string">E-Prime Primary Realtime Clock</Description><StartTime><Timestamp dt:dt="int">0</Timestamp><DateUtc dt:dt="string">2016-08-22T21:36:37Z</DateUtc></StartTime><FrequencyChanges><FrequencyChange><Frequency dt:dt="r8">3507685</Frequency><Timestamp dt:dt="r8">1209117156003</Timestamp><Current dt:dt="r8">0</Current><DateUtc dt:dt="string">2016-08-22T21:36:37Z</DateUtc></FrequencyChange></FrequencyChanges></Clock>\n	Hungry_Donkey_bar_English_2-169-1	60.017	87	1.0.0.18	1	-2062925481	Standard	2.0.10.353	2.0.10.353	08-22-2016	8/22/2016 9:36:37 PM	17:36:37	2.0.10.248	98	Bar50-50.bmp	50	4	?	0r_4g.bmp	0r_4g.bmp	0r_2g.bmp	0r_2g.bmp				0r_2g.bmp	TrialProc	TrialList	0	cvbn	-999999	16	324538	0	n	406	324944	310	-307	3	-38	-4	13	32	9	10	98	0	0	0	0	4	4	2	2	0	2
Hungry_Donkey_bar_English_2	169	1	<?xml version="1.0"?>\n<Clock xmlns:dt="urn:schemas-microsoft-com:datatypes"><Description dt:dt="string">E-Prime Primary Realtime Clock</Description><StartTime><Timestamp dt:dt="int">0</Timestamp><DateUtc dt:dt="string">2016-08-22T21:36:37Z</DateUtc></StartTime><FrequencyChanges><FrequencyChange><Frequency dt:dt="r8">3507685</Frequency><Timestamp dt:dt="r8">1209117156003</Timestamp><Current dt:dt="r8">0</Current><DateUtc dt:dt="string">2016-08-22T21:36:37Z</DateUtc></FrequencyChange></FrequencyChanges></Clock>\n	Hungry_Donkey_bar_English_2-169-1	60.017	87	1.0.0.18	1	-2062925481	Standard	2.0.10.353	2.0.10.353	08-22-2016	8/22/2016 9:36:37 PM	17:36:37	2.0.10.248	99	Bar50-50.bmp	51	2	?	0r_4g.bmp	0r_4g.bmp	0r_2g.bmp	0r_2g.bmp		0r_4g.bmp			TrialProc	TrialList	0	cvbn	-999999	16	326971	0	v	469	327440	314	-307	7	-38	0	13	32	10	10	99	0	0	0	0	4	4	2	2	0	4
Hungry_Donkey_bar_English_2	169	1	<?xml version="1.0"?>\n<Clock xmlns:dt="urn:schemas-microsoft-com:datatypes"><Description dt:dt="string">E-Prime Primary Realtime Clock</Description><StartTime><Timestamp dt:dt="int">0</Timestamp><DateUtc dt:dt="string">2016-08-22T21:36:37Z</DateUtc></StartTime><FrequencyChanges><FrequencyChange><Frequency dt:dt="r8">3507685</Frequency><Timestamp dt:dt="r8">1209117156003</Timestamp><Current dt:dt="r8">0</Current><DateUtc dt:dt="string">2016-08-22T21:36:37Z</DateUtc></FrequencyChange></FrequencyChanges></Clock>\n	Hungry_Donkey_bar_English_2-169-1	60.017	87	1.0.0.18	1	-2062925481	Standard	2.0.10.353	2.0.10.353	08-22-2016	8/22/2016 9:36:37 PM	17:36:37	2.0.10.248	100	Bar50-50.bmp	51	2	?	0r_4g.bmp	0r_4g.bmp	0r_2g.bmp	0r_2g.bmp		0r_4g.bmp			TrialProc	TrialList	0	cvbn	-999999	16	329470	0	v	370	329840	318	-307	11	-38	4	13	32	8	10	100	0	0	0	0	4	4	2	2	0	4
Hungry_Donkey_bar_English_2	169	1	<?xml version="1.0"?>\n<Clock xmlns:dt="urn:schemas-microsoft-com:datatypes"><Description dt:dt="string">E-Prime Primary Realtime Clock</Description><StartTime><Timestamp dt:dt="int">0</Timestamp><DateUtc dt:dt="string">2016-08-22T21:36:37Z</DateUtc></StartTime><FrequencyChanges><FrequencyChange><Frequency dt:dt="r8">3507685</Frequency><Timestamp dt:dt="r8">1209117156003</Timestamp><Current dt:dt="r8">0</Current><DateUtc dt:dt="string">2016-08-22T21:36:37Z</DateUtc></FrequencyChange></FrequencyChanges></Clock>\n	Hungry_Donkey_bar_English_2-169-1	60.017	87	1.0.0.18	1	-2062925481	Standard	2.0.10.353	2.0.10.353	08-22-2016	8/22/2016 9:36:37 PM	17:36:37	2.0.10.248	101	Bar50-50.bmp	51	4	?	12r_4g.bmp	0r_4g.bmp	3r_2g.bmp	0r_2g.bmp				0r_2g.bmp	TrialProc	TrialList	0	cvbn	-999999	16	331869	0	n	579	332448	320	-307	13	-38	4	13	34	5	11	101	-12	0	-3	0	4	4	2	2	0	2
Hungry_Donkey_bar_English_2	169	1	<?xml version="1.0"?>\n<Clock xmlns:dt="urn:schemas-microsoft-com:datatypes"><Description dt:dt="string">E-Prime Primary Realtime Clock</Description><StartTime><Timestamp dt:dt="int">0</Timestamp><DateUtc dt:dt="string">2016-08-22T21:36:37Z</DateUtc></StartTime><FrequencyChanges><FrequencyChange><Frequency dt:dt="r8">3507685</Frequency><Timestamp dt:dt="r8">1209117156003</Timestamp><Current dt:dt="r8">0</Current><DateUtc dt:dt="string">2016-08-22T21:36:37Z</DateUtc></FrequencyChange></FrequencyChanges></Clock>\n	Hungry_Donkey_bar_English_2-169-1	60.017	87	1.0.0.18	1	-2062925481	Standard	2.0.10.353	2.0.10.353	08-22-2016	8/22/2016 9:36:37 PM	17:36:37	2.0.10.248	102	Bar50-50.bmp	51	2	?	0r_4g.bmp	0r_4g.bmp	0r_2g.bmp	0r_2g.bmp		0r_4g.bmp			TrialProc	TrialList	0	cvbn	-999999	16	334485	0	v	379	334864	324	-307	17	-38	8	13	34	10	11	102	0	0	0	0	4	4	2	2	0	4
Hungry_Donkey_bar_English_2	169	1	<?xml version="1.0"?>\n<Clock xmlns:dt="urn:schemas-microsoft-com:datatypes"><Description dt:dt="string">E-Prime Primary Realtime Clock</Description><StartTime><Timestamp dt:dt="int">0</Timestamp><DateUtc dt:dt="string">2016-08-22T21:36:37Z</DateUtc></StartTime><FrequencyChanges><FrequencyChange><Frequency dt:dt="r8">3507685</Frequency><Timestamp dt:dt="r8">1209117156003</Timestamp><Current dt:dt="r8">0</Current><DateUtc dt:dt="string">2016-08-22T21:36:37Z</DateUtc></FrequencyChange></FrequencyChanges></Clock>\n	Hungry_Donkey_bar_English_2-169-1	60.017	87	1.0.0.18	1	-2062925481	Standard	2.0.10.353	2.0.10.353	08-22-2016	8/22/2016 9:36:37 PM	17:36:37	2.0.10.248	103	Bar50-50.bmp	51	3	?	8r_4g.bmp	50r_4g.bmp	1r_2g.bmp	10r_2g.bmp			1r_2g.bmp		TrialProc	TrialList	0	cvbn	-999999	16	336901	0	b	795	337696	326	-308	18	-38	8	14	34	1	11	103	-8	-50	-1	-10	4	4	2	2	-1	2
Hungry_Donkey_bar_English_2	169	1	<?xml version="1.0"?>\n<Clock xmlns:dt="urn:schemas-microsoft-com:datatypes"><Description dt:dt="string">E-Prime Primary Realtime Clock</Description><StartTime><Timestamp dt:dt="int">0</Timestamp><DateUtc dt:dt="string">2016-08-22T21:36:37Z</DateUtc></StartTime><FrequencyChanges><FrequencyChange><Frequency dt:dt="r8">3507685</Frequency><Timestamp dt:dt="r8">1209117156003</Timestamp><Current dt:dt="r8">0</Current><DateUtc dt:dt="string">2016-08-22T21:36:37Z</DateUtc></FrequencyChange></FrequencyChanges></Clock>\n	Hungry_Donkey_bar_English_2-169-1	60.017	87	1.0.0.18	1	-2062925481	Standard	2.0.10.353	2.0.10.353	08-22-2016	8/22/2016 9:36:37 PM	17:36:37	2.0.10.248	104	Bar50-50.bmp	52	2	?	10r_4g.bmp	0r_4g.bmp	2r_2g.bmp	0r_2g.bmp		0r_4g.bmp			TrialProc	TrialList	0	cvbn	-999999	16	339734	0	v	362	340096	330	-308	22	-38	12	14	34	3	11	104	-10	0	-2	0	4	4	2	2	0	4
Hungry_Donkey_bar_English_2	169	1	<?xml version="1.0"?>\n<Clock xmlns:dt="urn:schemas-microsoft-com:datatypes"><Description dt:dt="string">E-Prime Primary Realtime Clock</Description><StartTime><Timestamp dt:dt="int">0</Timestamp><DateUtc dt:dt="string">2016-08-22T21:36:37Z</DateUtc></StartTime><FrequencyChanges><FrequencyChange><Frequency dt:dt="r8">3507685</Frequency><Timestamp dt:dt="r8">1209117156003</Timestamp><Current dt:dt="r8">0</Current><DateUtc dt:dt="string">2016-08-22T21:36:37Z</DateUtc></FrequencyChange></FrequencyChanges></Clock>\n	Hungry_Donkey_bar_English_2-169-1	60.017	87	1.0.0.18	1	-2062925481	Standard	2.0.10.353	2.0.10.353	08-22-2016	8/22/2016 9:36:37 PM	17:36:37	2.0.10.248	105	Bar50-50.bmp	52	4	?	0r_4g.bmp	0r_4g.bmp	0r_2g.bmp	0r_2g.bmp				0r_2g.bmp	TrialProc	TrialList	0	cvbn	-999999	16	342133	0	n	379	342512	332	-308	24	-38	12	14	36	7	11	105	0	0	0	0	4	4	2	2	0	2
Hungry_Donkey_bar_English_2	169	1	<?xml version="1.0"?>\n<Clock xmlns:dt="urn:schemas-microsoft-com:datatypes"><Description dt:dt="string">E-Prime Primary Realtime Clock</Description><StartTime><Timestamp dt:dt="int">0</Timestamp><DateUtc dt:dt="string">2016-08-22T21:36:37Z</DateUtc></StartTime><FrequencyChanges><FrequencyChange><Frequency dt:dt="r8">3507685</Frequency><Timestamp dt:dt="r8">1209117156003</Timestamp><Current dt:dt="r8">0</Current><DateUtc dt:dt="string">2016-08-22T21:36:37Z</DateUtc></FrequencyChange></FrequencyChanges></Clock>\n	Hungry_Donkey_bar_English_2-169-1	60.017	87	1.0.0.18	1	-2062925481	Standard	2.0.10.353	2.0.10.353	08-22-2016	8/22/2016 9:36:37 PM	17:36:37	2.0.10.248	106	Bar50-50.bmp	52	2	?	10r_4g.bmp	0r_4g.bmp	2r_2g.bmp	0r_2g.bmp		0r_4g.bmp			TrialProc	TrialList	0	cvbn	-999999	16	344549	0	v	442	344991	336	-308	28	-38	16	14	36	2	11	106	-10	0	-2	0	4	4	2	2	0	4
Hungry_Donkey_bar_English_2	169	1	<?xml version="1.0"?>\n<Clock xmlns:dt="urn:schemas-microsoft-com:datatypes"><Description dt:dt="string">E-Prime Primary Realtime Clock</Description><StartTime><Timestamp dt:dt="int">0</Timestamp><DateUtc dt:dt="string">2016-08-22T21:36:37Z</DateUtc></StartTime><FrequencyChanges><FrequencyChange><Frequency dt:dt="r8">3507685</Frequency><Timestamp dt:dt="r8">1209117156003</Timestamp><Current dt:dt="r8">0</Current><DateUtc dt:dt="string">2016-08-22T21:36:37Z</DateUtc></FrequencyChange></FrequencyChanges></Clock>\n	Hungry_Donkey_bar_English_2-169-1	60.017	87	1.0.0.18	1	-2062925481	Standard	2.0.10.353	2.0.10.353	08-22-2016	8/22/2016 9:36:37 PM	17:36:37	2.0.10.248	107	Bar50-50.bmp	52	4	?	0r_4g.bmp	0r_4g.bmp	0r_2g.bmp	0r_2g.bmp				0r_2g.bmp	TrialProc	TrialList	0	cvbn	-999999	16	347032	0	n	535	347567	338	-308	30	-38	16	14	38	6	11	107	0	0	0	0	4	4	2	2	0	2
Hungry_Donkey_bar_English_2	169	1	<?xml version="1.0"?>\n<Clock xmlns:dt="urn:schemas-microsoft-com:datatypes"><Description dt:dt="string">E-Prime Primary Realtime Clock</Description><StartTime><Timestamp dt:dt="int">0</Timestamp><DateUtc dt:dt="string">2016-08-22T21:36:37Z</DateUtc></StartTime><FrequencyChanges><FrequencyChange><Frequency dt:dt="r8">3507685</Frequency><Timestamp dt:dt="r8">1209117156003</Timestamp><Current dt:dt="r8">0</Current><DateUtc dt:dt="string">2016-08-22T21:36:37Z</DateUtc></FrequencyChange></FrequencyChanges></Clock>\n	Hungry_Donkey_bar_English_2-169-1	60.017	87	1.0.0.18	1	-2062925481	Standard	2.0.10.353	2.0.10.353	08-22-2016	8/22/2016 9:36:37 PM	17:36:37	2.0.10.248	108	Bar50-50.bmp	52	3	?	0r_4g.bmp	0r_4g.bmp	0r_2g.bmp	0r_2g.bmp			0r_2g.bmp		TrialProc	TrialList	0	cvbn	-999999	16	349598	0	b	1457	351055	340	-308	32	-38	16	16	38	9	11	108	0	0	0	0	4	4	2	2	0	2
Hungry_Donkey_bar_English_2	169	1	<?xml version="1.0"?>\n<Clock xmlns:dt="urn:schemas-microsoft-com:datatypes"><Description dt:dt="string">E-Prime Primary Realtime Clock</Description><StartTime><Timestamp dt:dt="int">0</Timestamp><DateUtc dt:dt="string">2016-08-22T21:36:37Z</DateUtc></StartTime><FrequencyChanges><FrequencyChange><Frequency dt:dt="r8">3507685</Frequency><Timestamp dt:dt="r8">1209117156003</Timestamp><Current dt:dt="r8">0</Current><DateUtc dt:dt="string">2016-08-22T21:36:37Z</DateUtc></FrequencyChange></FrequencyChanges></Clock>\n	Hungry_Donkey_bar_English_2-169-1	60.017	87	1.0.0.18	1	-2062925481	Standard	2.0.10.353	2.0.10.353	08-22-2016	8/22/2016 9:36:37 PM	17:36:37	2.0.10.248	109	Bar50-50.bmp	53	4	?	10r_4g.bmp	0r_4g.bmp	2r_2g.bmp	0r_2g.bmp				0r_2g.bmp	TrialProc	TrialList	0	cvbn	-999999	15	353080	0	n	1239	354319	342	-308	34	-38	16	16	40	4	11	109	-10	0	-2	0	4	4	2	2	0	2
Hungry_Donkey_bar_English_2	169	1	<?xml version="1.0"?>\n<Clock xmlns:dt="urn:schemas-microsoft-com:datatypes"><Description dt:dt="string">E-Prime Primary Realtime Clock</Description><StartTime><Timestamp dt:dt="int">0</Timestamp><DateUtc dt:dt="string">2016-08-22T21:36:37Z</DateUtc></StartTime><FrequencyChanges><FrequencyChange><Frequency dt:dt="r8">3507685</Frequency><Timestamp dt:dt="r8">1209117156003</Timestamp><Current dt:dt="r8">0</Current><DateUtc dt:dt="string">2016-08-22T21:36:37Z</DateUtc></FrequencyChange></FrequencyChanges></Clock>\n	Hungry_Donkey_bar_English_2-169-1	60.017	87	1.0.0.18	1	-2062925481	Standard	2.0.10.353	2.0.10.353	08-22-2016	8/22/2016 9:36:37 PM	17:36:37	2.0.10.248	110	Bar50-50.bmp	53	2	?	0r_4g.bmp	0r_4g.bmp	0r_2g.bmp	0r_2g.bmp		0r_4g.bmp			TrialProc	TrialList	0	cvbn	-999999	16	356346	0	v	581	356927	346	-308	38	-38	20	16	40	8	11	110	0	0	0	0	4	4	2	2	0	4
Hungry_Donkey_bar_English_2	169	1	<?xml version="1.0"?>\n<Clock xmlns:dt="urn:schemas-microsoft-com:datatypes"><Description dt:dt="string">E-Prime Primary Realtime Clock</Description><StartTime><Timestamp dt:dt="int">0</Timestamp><DateUtc dt:dt="string">2016-08-22T21:36:37Z</DateUtc></StartTime><FrequencyChanges><FrequencyChange><Frequency dt:dt="r8">3507685</Frequency><Timestamp dt:dt="r8">1209117156003</Timestamp><Current dt:dt="r8">0</Current><DateUtc dt:dt="string">2016-08-22T21:36:37Z</DateUtc></FrequencyChange></FrequencyChanges></Clock>\n	Hungry_Donkey_bar_English_2-169-1	60.017	87	1.0.0.18	1	-2062925481	Standard	2.0.10.353	2.0.10.353	08-22-2016	8/22/2016 9:36:37 PM	17:36:37	2.0.10.248	111	Bar50-50.bmp	53	4	?	0r_4g.bmp	0r_4g.bmp	0r_2g.bmp	0r_2g.bmp				0r_2g.bmp	TrialProc	TrialList	0	cvbn	-999999	16	358962	0	n	829	359791	348	-308	40	-38	20	16	42	7	12	111	0	0	0	0	4	4	2	2	0	2
