ExperimentName	Subject	Session	Clock.Information	DataFile.Basename	Display.RefreshRate	Eindtotaal[Session]	ExperimentVersion	Group	RandomSeed	RuntimeCapabilities	RuntimeVersion	RuntimeVersionExpected	SessionDate	SessionStartDateTimeUtc	SessionTime	StudioVersion	Block	BarImage	BarTotalWinst	DoorChoice	Eindtotaal[Block]	FBDoor1	FBDoor2	FBDoor3	FBDoor4	Image1	Image2	Image3	Image4	Procedure	Running	spel.ACC	spel.CRESP	spel.DurationError	spel.OnsetDelay	spel.OnsetTime	spel.OnsetToOnsetTime	spel.RESP	spel.RT	spel.RTTime	TotalGain	TotalLose	Totalsum	TotalsumD1	TotalsumD2	TotalsumD3	TotalsumD4	TrialList	TrialList.Cycle	TrialList.Sample	varV1	varV2	varV3	varV4	varW1	varW2	varW3	varW4	Verliesbedrag	Winstbedrag
Hungry_Donkey_bar_English_2	152	1	<?xml version="1.0"?>\n<Clock xmlns:dt="urn:schemas-microsoft-com:datatypes"><Description dt:dt="string">E-Prime Primary Realtime Clock</Description><StartTime><Timestamp dt:dt="int">0</Timestamp><DateUtc dt:dt="string">2016-06-07T22:00:30Z</DateUtc></StartTime><FrequencyChanges><FrequencyChange><Frequency dt:dt="r8">3507705</Frequency><Timestamp dt:dt="r8">6939276928</Timestamp><Current dt:dt="r8">0</Current><DateUtc dt:dt="string">2016-06-07T22:00:30Z</DateUtc></FrequencyChange></FrequencyChanges></Clock>\n	Hungry_Donkey_bar_English_2-152-1	60.018	-80	1.0.0.18	1	-1649951025	Standard	2.0.10.353	2.0.10.353	06-07-2016		18:00:30	2.0.10.248	1	Bar25-75.bmp	29	1	?	10r_4g.bmp	0r_4g.bmp	2r_2g.bmp	0r_2g.bmp	10r_4g.bmp				TrialProc	TrialList	0	cvbn	-999999	19	47387	0	c	1965	49352	4	-10	-6	-6	0	0	0	3	1	1	-10	0	-2	0	4	4	2	2	-10	4
Hungry_Donkey_bar_English_2	152	1	<?xml version="1.0"?>\n<Clock xmlns:dt="urn:schemas-microsoft-com:datatypes"><Description dt:dt="string">E-Prime Primary Realtime Clock</Description><StartTime><Timestamp dt:dt="int">0</Timestamp><DateUtc dt:dt="string">2016-06-07T22:00:30Z</DateUtc></StartTime><FrequencyChanges><FrequencyChange><Frequency dt:dt="r8">3507705</Frequency><Timestamp dt:dt="r8">6939276928</Timestamp><Current dt:dt="r8">0</Current><DateUtc dt:dt="string">2016-06-07T22:00:30Z</DateUtc></FrequencyChange></FrequencyChanges></Clock>\n	Hungry_Donkey_bar_English_2-152-1	60.018	-80	1.0.0.18	1	-1649951025	Standard	2.0.10.353	2.0.10.353	06-07-2016		18:00:30	2.0.10.248	2	Bar50-50.bmp	44	2	?	0r_4g.bmp	0r_4g.bmp	0r_2g.bmp	0r_2g.bmp		0r_4g.bmp			TrialProc	TrialList	0	cvbn	-999999	17	51386	0	v	1518	52904	8	-10	-2	-6	4	0	0	7	1	2	0	0	0	0	4	4	2	2	0	4
Hungry_Donkey_bar_English_2	152	1	<?xml version="1.0"?>\n<Clock xmlns:dt="urn:schemas-microsoft-com:datatypes"><Description dt:dt="string">E-Prime Primary Realtime Clock</Description><StartTime><Timestamp dt:dt="int">0</Timestamp><DateUtc dt:dt="string">2016-06-07T22:00:30Z</DateUtc></StartTime><FrequencyChanges><FrequencyChange><Frequency dt:dt="r8">3507705</Frequency><Timestamp dt:dt="r8">6939276928</Timestamp><Current dt:dt="r8">0</Current><DateUtc dt:dt="string">2016-06-07T22:00:30Z</DateUtc></FrequencyChange></FrequencyChanges></Clock>\n	Hungry_Donkey_bar_English_2-152-1	60.018	-80	1.0.0.18	1	-1649951025	Standard	2.0.10.353	2.0.10.353	06-07-2016		18:00:30	2.0.10.248	3	Bar37-63.bmp	38	1	?	10r_4g.bmp	0r_4g.bmp	2r_2g.bmp	0r_2g.bmp	10r_4g.bmp				TrialProc	TrialList	0	cvbn	-999999	16	54951	0	c	897	55848	12	-20	-8	-12	4	0	0	4	1	3	-10	0	-2	0	4	4	2	2	-10	4
Hungry_Donkey_bar_English_2	152	1	<?xml version="1.0"?>\n<Clock xmlns:dt="urn:schemas-microsoft-com:datatypes"><Description dt:dt="string">E-Prime Primary Realtime Clock</Description><StartTime><Timestamp dt:dt="int">0</Timestamp><DateUtc dt:dt="string">2016-06-07T22:00:30Z</DateUtc></StartTime><FrequencyChanges><FrequencyChange><Frequency dt:dt="r8">3507705</Frequency><Timestamp dt:dt="r8">6939276928</Timestamp><Current dt:dt="r8">0</Current><DateUtc dt:dt="string">2016-06-07T22:00:30Z</DateUtc></FrequencyChange></FrequencyChanges></Clock>\n	Hungry_Donkey_bar_English_2-152-1	60.018	-80	1.0.0.18	1	-1649951025	Standard	2.0.10.353	2.0.10.353	06-07-2016		18:00:30	2.0.10.248	4	Bar37-63.bmp	41	3	?	0r_4g.bmp	0r_4g.bmp	0r_2g.bmp	0r_2g.bmp			0r_2g.bmp		TrialProc	TrialList	0	cvbn	-999999	16	57884	0	b	1660	59544	14	-20	-6	-12	4	2	0	8	1	4	0	0	0	0	4	4	2	2	0	2
Hungry_Donkey_bar_English_2	152	1	<?xml version="1.0"?>\n<Clock xmlns:dt="urn:schemas-microsoft-com:datatypes"><Description dt:dt="string">E-Prime Primary Realtime Clock</Description><StartTime><Timestamp dt:dt="int">0</Timestamp><DateUtc dt:dt="string">2016-06-07T22:00:30Z</DateUtc></StartTime><FrequencyChanges><FrequencyChange><Frequency dt:dt="r8">3507705</Frequency><Timestamp dt:dt="r8">6939276928</Timestamp><Current dt:dt="r8">0</Current><DateUtc dt:dt="string">2016-06-07T22:00:30Z</DateUtc></FrequencyChange></FrequencyChanges></Clock>\n	Hungry_Donkey_bar_English_2-152-1	60.018	-80	1.0.0.18	1	-1649951025	Standard	2.0.10.353	2.0.10.353	06-07-2016		18:00:30	2.0.10.248	5	Bar50-50.bmp	44	4	?	12r_4g.bmp	0r_4g.bmp	3r_2g.bmp	0r_2g.bmp				0r_2g.bmp	TrialProc	TrialList	0	cvbn	-999999	17	61583	0	n	888	62471	16	-20	-4	-12	4	2	2	5	1	5	-12	0	-3	0	4	4	2	2	0	2
Hungry_Donkey_bar_English_2	152	1	<?xml version="1.0"?>\n<Clock xmlns:dt="urn:schemas-microsoft-com:datatypes"><Description dt:dt="string">E-Prime Primary Realtime Clock</Description><StartTime><Timestamp dt:dt="int">0</Timestamp><DateUtc dt:dt="string">2016-06-07T22:00:30Z</DateUtc></StartTime><FrequencyChanges><FrequencyChange><Frequency dt:dt="r8">3507705</Frequency><Timestamp dt:dt="r8">6939276928</Timestamp><Current dt:dt="r8">0</Current><DateUtc dt:dt="string">2016-06-07T22:00:30Z</DateUtc></FrequencyChange></FrequencyChanges></Clock>\n	Hungry_Donkey_bar_English_2-152-1	60.018	-80	1.0.0.18	1	-1649951025	Standard	2.0.10.353	2.0.10.353	06-07-2016		18:00:30	2.0.10.248	6	Bar50-50.bmp	50	2	?	0r_4g.bmp	0r_4g.bmp	0r_2g.bmp	0r_2g.bmp		0r_4g.bmp			TrialProc	TrialList	0	cvbn	-999999	16	64498	0	v	581	65079	20	-20	0	-12	8	2	2	10	1	6	0	0	0	0	4	4	2	2	0	4
Hungry_Donkey_bar_English_2	152	1	<?xml version="1.0"?>\n<Clock xmlns:dt="urn:schemas-microsoft-com:datatypes"><Description dt:dt="string">E-Prime Primary Realtime Clock</Description><StartTime><Timestamp dt:dt="int">0</Timestamp><DateUtc dt:dt="string">2016-06-07T22:00:30Z</DateUtc></StartTime><FrequencyChanges><FrequencyChange><Frequency dt:dt="r8">3507705</Frequency><Timestamp dt:dt="r8">6939276928</Timestamp><Current dt:dt="r8">0</Current><DateUtc dt:dt="string">2016-06-07T22:00:30Z</DateUtc></FrequencyChange></FrequencyChanges></Clock>\n	Hungry_Donkey_bar_English_2-152-1	60.018	-80	1.0.0.18	1	-1649951025	Standard	2.0.10.353	2.0.10.353	06-07-2016		18:00:30	2.0.10.248	7	Bar50-50.bmp	52	3	?	0r_4g.bmp	0r_4g.bmp	0r_2g.bmp	0r_2g.bmp			0r_2g.bmp		TrialProc	TrialList	0	cvbn	-999999	16	67114	0	b	893	68007	22	-20	2	-12	8	4	2	9	1	7	0	0	0	0	4	4	2	2	0	2
Hungry_Donkey_bar_English_2	152	1	<?xml version="1.0"?>\n<Clock xmlns:dt="urn:schemas-microsoft-com:datatypes"><Description dt:dt="string">E-Prime Primary Realtime Clock</Description><StartTime><Timestamp dt:dt="int">0</Timestamp><DateUtc dt:dt="string">2016-06-07T22:00:30Z</DateUtc></StartTime><FrequencyChanges><FrequencyChange><Frequency dt:dt="r8">3507705</Frequency><Timestamp dt:dt="r8">6939276928</Timestamp><Current dt:dt="r8">0</Current><DateUtc dt:dt="string">2016-06-07T22:00:30Z</DateUtc></FrequencyChange></FrequencyChanges></Clock>\n	Hungry_Donkey_bar_English_2-152-1	60.018	-80	1.0.0.18	1	-1649951025	Standard	2.0.10.353	2.0.10.353	06-07-2016		18:00:30	2.0.10.248	8	Bar50-50.bmp	46	1	?	10r_4g.bmp	0r_4g.bmp	2r_2g.bmp	0r_2g.bmp	10r_4g.bmp				TrialProc	TrialList	0	cvbn	-999999	16	70047	0	c	1304	71351	26	-30	-4	-18	8	4	2	2	1	8	-10	0	-2	0	4	4	2	2	-10	4
Hungry_Donkey_bar_English_2	152	1	<?xml version="1.0"?>\n<Clock xmlns:dt="urn:schemas-microsoft-com:datatypes"><Description dt:dt="string">E-Prime Primary Realtime Clock</Description><StartTime><Timestamp dt:dt="int">0</Timestamp><DateUtc dt:dt="string">2016-06-07T22:00:30Z</DateUtc></StartTime><FrequencyChanges><FrequencyChange><Frequency dt:dt="r8">3507705</Frequency><Timestamp dt:dt="r8">6939276928</Timestamp><Current dt:dt="r8">0</Current><DateUtc dt:dt="string">2016-06-07T22:00:30Z</DateUtc></FrequencyChange></FrequencyChanges></Clock>\n	Hungry_Donkey_bar_English_2-152-1	60.018	-80	1.0.0.18	1	-1649951025	Standard	2.0.10.353	2.0.10.353	06-07-2016		18:00:30	2.0.10.248	9	Bar50-50.bmp	48	4	?	0r_4g.bmp	0r_4g.bmp	0r_2g.bmp	0r_2g.bmp				0r_2g.bmp	TrialProc	TrialList	0	cvbn	-999999	16	73379	0	n	612	73991	28	-30	-2	-18	8	4	4	6	1	9	0	0	0	0	4	4	2	2	0	2
Hungry_Donkey_bar_English_2	152	1	<?xml version="1.0"?>\n<Clock xmlns:dt="urn:schemas-microsoft-com:datatypes"><Description dt:dt="string">E-Prime Primary Realtime Clock</Description><StartTime><Timestamp dt:dt="int">0</Timestamp><DateUtc dt:dt="string">2016-06-07T22:00:30Z</DateUtc></StartTime><FrequencyChanges><FrequencyChange><Frequency dt:dt="r8">3507705</Frequency><Timestamp dt:dt="r8">6939276928</Timestamp><Current dt:dt="r8">0</Current><DateUtc dt:dt="string">2016-06-07T22:00:30Z</DateUtc></FrequencyChange></FrequencyChanges></Clock>\n	Hungry_Donkey_bar_English_2-152-1	60.018	-80	1.0.0.18	1	-1649951025	Standard	2.0.10.353	2.0.10.353	06-07-2016		18:00:30	2.0.10.248	10	Bar50-50.bmp	49	3	?	8r_4g.bmp	50r_4g.bmp	1r_2g.bmp	10r_2g.bmp			1r_2g.bmp		TrialProc	TrialList	0	cvbn	-999999	16	76028	0	b	1083	77111	30	-31	-1	-18	8	5	4	1	1	10	-8	-50	-1	-10	4	4	2	2	-1	2
Hungry_Donkey_bar_English_2	152	1	<?xml version="1.0"?>\n<Clock xmlns:dt="urn:schemas-microsoft-com:datatypes"><Description dt:dt="string">E-Prime Primary Realtime Clock</Description><StartTime><Timestamp dt:dt="int">0</Timestamp><DateUtc dt:dt="string">2016-06-07T22:00:30Z</DateUtc></StartTime><FrequencyChanges><FrequencyChange><Frequency dt:dt="r8">3507705</Frequency><Timestamp dt:dt="r8">6939276928</Timestamp><Current dt:dt="r8">0</Current><DateUtc dt:dt="string">2016-06-07T22:00:30Z</DateUtc></FrequencyChange></FrequencyChanges></Clock>\n	Hungry_Donkey_bar_English_2-152-1	60.018	-80	1.0.0.18	1	-1649951025	Standard	2.0.10.353	2.0.10.353	06-07-2016		18:00:30	2.0.10.248	11	Bar25-75.bmp	30	2	?	8r_4g.bmp	50r_4g.bmp	1r_2g.bmp	10r_2g.bmp		50r_4g.bmp			TrialProc	TrialList	0	cvbn	-999999	16	79144	0	v	894	80038	34	-81	-47	-18	-38	5	4	1	2	11	-8	-50	-1	-10	4	4	2	2	-50	4
Hungry_Donkey_bar_English_2	152	1	<?xml version="1.0"?>\n<Clock xmlns:dt="urn:schemas-microsoft-com:datatypes"><Description dt:dt="string">E-Prime Primary Realtime Clock</Description><StartTime><Timestamp dt:dt="int">0</Timestamp><DateUtc dt:dt="string">2016-06-07T22:00:30Z</DateUtc></StartTime><FrequencyChanges><FrequencyChange><Frequency dt:dt="r8">3507705</Frequency><Timestamp dt:dt="r8">6939276928</Timestamp><Current dt:dt="r8">0</Current><DateUtc dt:dt="string">2016-06-07T22:00:30Z</DateUtc></FrequencyChange></FrequencyChanges></Clock>\n	Hungry_Donkey_bar_English_2-152-1	60.018	-80	1.0.0.18	1	-1649951025	Standard	2.0.10.353	2.0.10.353	06-07-2016		18:00:30	2.0.10.248	12	Bar25-75.bmp	31	4	?	10r_4g.bmp	0r_4g.bmp	2r_2g.bmp	0r_2g.bmp				0r_2g.bmp	TrialProc	TrialList	0	cvbn	-999999	16	82076	0	n	794	82870	36	-81	-45	-18	-38	5	6	4	2	12	-10	0	-2	0	4	4	2	2	0	2
Hungry_Donkey_bar_English_2	152	1	<?xml version="1.0"?>\n<Clock xmlns:dt="urn:schemas-microsoft-com:datatypes"><Description dt:dt="string">E-Prime Primary Realtime Clock</Description><StartTime><Timestamp dt:dt="int">0</Timestamp><DateUtc dt:dt="string">2016-06-07T22:00:30Z</DateUtc></StartTime><FrequencyChanges><FrequencyChange><Frequency dt:dt="r8">3507705</Frequency><Timestamp dt:dt="r8">6939276928</Timestamp><Current dt:dt="r8">0</Current><DateUtc dt:dt="string">2016-06-07T22:00:30Z</DateUtc></FrequencyChange></FrequencyChanges></Clock>\n	Hungry_Donkey_bar_English_2-152-1	60.018	-80	1.0.0.18	1	-1649951025	Standard	2.0.10.353	2.0.10.353	06-07-2016		18:00:30	2.0.10.248	13	Bar25-75.bmp	31	3	?	10r_4g.bmp	0r_4g.bmp	2r_2g.bmp	0r_2g.bmp			2r_2g.bmp		TrialProc	TrialList	0	cvbn	-999999	16	84909	0	b	1113	86022	38	-83	-45	-18	-38	5	6	3	2	13	-10	0	-2	0	4	4	2	2	-2	2
Hungry_Donkey_bar_English_2	152	1	<?xml version="1.0"?>\n<Clock xmlns:dt="urn:schemas-microsoft-com:datatypes"><Description dt:dt="string">E-Prime Primary Realtime Clock</Description><StartTime><Timestamp dt:dt="int">0</Timestamp><DateUtc dt:dt="string">2016-06-07T22:00:30Z</DateUtc></StartTime><FrequencyChanges><FrequencyChange><Frequency dt:dt="r8">3507705</Frequency><Timestamp dt:dt="r8">6939276928</Timestamp><Current dt:dt="r8">0</Current><DateUtc dt:dt="string">2016-06-07T22:00:30Z</DateUtc></FrequencyChange></FrequencyChanges></Clock>\n	Hungry_Donkey_bar_English_2-152-1	60.018	-80	1.0.0.18	1	-1649951025	Standard	2.0.10.353	2.0.10.353	06-07-2016		18:00:30	2.0.10.248	14	Bar37-63.bmp	34	1	?	0r_4g.bmp	0r_4g.bmp	0r_2g.bmp	0r_2g.bmp	0r_4g.bmp				TrialProc	TrialList	0	cvbn	-999999	16	88058	0	c	460	88518	42	-83	-41	-14	-38	5	6	7	2	14	0	0	0	0	4	4	2	2	0	4
Hungry_Donkey_bar_English_2	152	1	<?xml version="1.0"?>\n<Clock xmlns:dt="urn:schemas-microsoft-com:datatypes"><Description dt:dt="string">E-Prime Primary Realtime Clock</Description><StartTime><Timestamp dt:dt="int">0</Timestamp><DateUtc dt:dt="string">2016-06-07T22:00:30Z</DateUtc></StartTime><FrequencyChanges><FrequencyChange><Frequency dt:dt="r8">3507705</Frequency><Timestamp dt:dt="r8">6939276928</Timestamp><Current dt:dt="r8">0</Current><DateUtc dt:dt="string">2016-06-07T22:00:30Z</DateUtc></FrequencyChange></FrequencyChanges></Clock>\n	Hungry_Donkey_bar_English_2-152-1	60.018	-80	1.0.0.18	1	-1649951025	Standard	2.0.10.353	2.0.10.353	06-07-2016		18:00:30	2.0.10.248	15	Bar37-63.bmp	35	3	?	0r_4g.bmp	0r_4g.bmp	0r_2g.bmp	0r_2g.bmp			0r_2g.bmp		TrialProc	TrialList	0	cvbn	-999999	16	90557	0	b	697	91254	44	-83	-39	-14	-38	7	6	10	2	15	0	0	0	0	4	4	2	2	0	2
Hungry_Donkey_bar_English_2	152	1	<?xml version="1.0"?>\n<Clock xmlns:dt="urn:schemas-microsoft-com:datatypes"><Description dt:dt="string">E-Prime Primary Realtime Clock</Description><StartTime><Timestamp dt:dt="int">0</Timestamp><DateUtc dt:dt="string">2016-06-07T22:00:30Z</DateUtc></StartTime><FrequencyChanges><FrequencyChange><Frequency dt:dt="r8">3507705</Frequency><Timestamp dt:dt="r8">6939276928</Timestamp><Current dt:dt="r8">0</Current><DateUtc dt:dt="string">2016-06-07T22:00:30Z</DateUtc></FrequencyChange></FrequencyChanges></Clock>\n	Hungry_Donkey_bar_English_2-152-1	60.018	-80	1.0.0.18	1	-1649951025	Standard	2.0.10.353	2.0.10.353	06-07-2016		18:00:30	2.0.10.248	16	Bar37-63.bmp	37	2	?	0r_4g.bmp	0r_4g.bmp	0r_2g.bmp	0r_2g.bmp		0r_4g.bmp			TrialProc	TrialList	0	cvbn	-999999	16	93290	0	v	700	93990	48	-83	-35	-14	-34	7	6	6	2	16	0	0	0	0	4	4	2	2	0	4
Hungry_Donkey_bar_English_2	152	1	<?xml version="1.0"?>\n<Clock xmlns:dt="urn:schemas-microsoft-com:datatypes"><Description dt:dt="string">E-Prime Primary Realtime Clock</Description><StartTime><Timestamp dt:dt="int">0</Timestamp><DateUtc dt:dt="string">2016-06-07T22:00:30Z</DateUtc></StartTime><FrequencyChanges><FrequencyChange><Frequency dt:dt="r8">3507705</Frequency><Timestamp dt:dt="r8">6939276928</Timestamp><Current dt:dt="r8">0</Current><DateUtc dt:dt="string">2016-06-07T22:00:30Z</DateUtc></FrequencyChange></FrequencyChanges></Clock>\n	Hungry_Donkey_bar_English_2-152-1	60.018	-80	1.0.0.18	1	-1649951025	Standard	2.0.10.353	2.0.10.353	06-07-2016		18:00:30	2.0.10.248	17	Bar37-63.bmp	39	1	?	0r_4g.bmp	0r_4g.bmp	0r_2g.bmp	0r_2g.bmp	0r_4g.bmp				TrialProc	TrialList	0	cvbn	-999999	16	96022	0	c	1791	97813	52	-83	-31	-10	-34	7	6	9	2	17	0	0	0	0	4	4	2	2	0	4
Hungry_Donkey_bar_English_2	152	1	<?xml version="1.0"?>\n<Clock xmlns:dt="urn:schemas-microsoft-com:datatypes"><Description dt:dt="string">E-Prime Primary Realtime Clock</Description><StartTime><Timestamp dt:dt="int">0</Timestamp><DateUtc dt:dt="string">2016-06-07T22:00:30Z</DateUtc></StartTime><FrequencyChanges><FrequencyChange><Frequency dt:dt="r8">3507705</Frequency><Timestamp dt:dt="r8">6939276928</Timestamp><Current dt:dt="r8">0</Current><DateUtc dt:dt="string">2016-06-07T22:00:30Z</DateUtc></FrequencyChange></FrequencyChanges></Clock>\n	Hungry_Donkey_bar_English_2-152-1	60.018	-80	1.0.0.18	1	-1649951025	Standard	2.0.10.353	2.0.10.353	06-07-2016		18:00:30	2.0.10.248	18	Bar37-63.bmp	38	1	?	10r_4g.bmp	0r_4g.bmp	2r_2g.bmp	0r_2g.bmp	10r_4g.bmp				TrialProc	TrialList	0	cvbn	-999999	16	99838	0	c	519	100357	56	-93	-37	-16	-34	7	6	2	2	18	-10	0	-2	0	4	4	2	2	-10	4
Hungry_Donkey_bar_English_2	152	1	<?xml version="1.0"?>\n<Clock xmlns:dt="urn:schemas-microsoft-com:datatypes"><Description dt:dt="string">E-Prime Primary Realtime Clock</Description><StartTime><Timestamp dt:dt="int">0</Timestamp><DateUtc dt:dt="string">2016-06-07T22:00:30Z</DateUtc></StartTime><FrequencyChanges><FrequencyChange><Frequency dt:dt="r8">3507705</Frequency><Timestamp dt:dt="r8">6939276928</Timestamp><Current dt:dt="r8">0</Current><DateUtc dt:dt="string">2016-06-07T22:00:30Z</DateUtc></FrequencyChange></FrequencyChanges></Clock>\n	Hungry_Donkey_bar_English_2-152-1	60.018	-80	1.0.0.18	1	-1649951025	Standard	2.0.10.353	2.0.10.353	06-07-2016		18:00:30	2.0.10.248	19	Bar37-63.bmp	36	1	?	12r_4g.bmp	0r_4g.bmp	3r_2g.bmp	0r_2g.bmp	12r_4g.bmp				TrialProc	TrialList	0	cvbn	-999999	16	102387	0	c	722	103109	60	-105	-45	-24	-34	7	6	5	2	19	-12	0	-3	0	4	4	2	2	-12	4
Hungry_Donkey_bar_English_2	152	1	<?xml version="1.0"?>\n<Clock xmlns:dt="urn:schemas-microsoft-com:datatypes"><Description dt:dt="string">E-Prime Primary Realtime Clock</Description><StartTime><Timestamp dt:dt="int">0</Timestamp><DateUtc dt:dt="string">2016-06-07T22:00:30Z</DateUtc></StartTime><FrequencyChanges><FrequencyChange><Frequency dt:dt="r8">3507705</Frequency><Timestamp dt:dt="r8">6939276928</Timestamp><Current dt:dt="r8">0</Current><DateUtc dt:dt="string">2016-06-07T22:00:30Z</DateUtc></FrequencyChange></FrequencyChanges></Clock>\n	Hungry_Donkey_bar_English_2-152-1	60.018	-80	1.0.0.18	1	-1649951025	Standard	2.0.10.353	2.0.10.353	06-07-2016		18:00:30	2.0.10.248	20	Bar37-63.bmp	38	1	?	0r_4g.bmp	0r_4g.bmp	0r_2g.bmp	0r_2g.bmp	0r_4g.bmp				TrialProc	TrialList	0	cvbn	-999999	16	105153	0	c	436	105589	64	-105	-41	-20	-34	7	6	8	2	20	0	0	0	0	4	4	2	2	0	4
Hungry_Donkey_bar_English_2	152	1	<?xml version="1.0"?>\n<Clock xmlns:dt="urn:schemas-microsoft-com:datatypes"><Description dt:dt="string">E-Prime Primary Realtime Clock</Description><StartTime><Timestamp dt:dt="int">0</Timestamp><DateUtc dt:dt="string">2016-06-07T22:00:30Z</DateUtc></StartTime><FrequencyChanges><FrequencyChange><Frequency dt:dt="r8">3507705</Frequency><Timestamp dt:dt="r8">6939276928</Timestamp><Current dt:dt="r8">0</Current><DateUtc dt:dt="string">2016-06-07T22:00:30Z</DateUtc></FrequencyChange></FrequencyChanges></Clock>\n	Hungry_Donkey_bar_English_2-152-1	60.018	-80	1.0.0.18	1	-1649951025	Standard	2.0.10.353	2.0.10.353	06-07-2016		18:00:30	2.0.10.248	21	Bar37-63.bmp	39	1	?	0r_4g.bmp	0r_4g.bmp	0r_2g.bmp	0r_2g.bmp	0r_4g.bmp				TrialProc	TrialList	0	cvbn	-999999	16	107619	0	c	450	108069	68	-105	-37	-16	-34	7	6	8	3	21	0	0	0	0	4	4	2	2	0	4
Hungry_Donkey_bar_English_2	152	1	<?xml version="1.0"?>\n<Clock xmlns:dt="urn:schemas-microsoft-com:datatypes"><Description dt:dt="string">E-Prime Primary Realtime Clock</Description><StartTime><Timestamp dt:dt="int">0</Timestamp><DateUtc dt:dt="string">2016-06-07T22:00:30Z</DateUtc></StartTime><FrequencyChanges><FrequencyChange><Frequency dt:dt="r8">3507705</Frequency><Timestamp dt:dt="r8">6939276928</Timestamp><Current dt:dt="r8">0</Current><DateUtc dt:dt="string">2016-06-07T22:00:30Z</DateUtc></FrequencyChange></FrequencyChanges></Clock>\n	Hungry_Donkey_bar_English_2-152-1	60.018	-80	1.0.0.18	1	-1649951025	Standard	2.0.10.353	2.0.10.353	06-07-2016		18:00:30	2.0.10.248	22	Bar37-63.bmp	39	1	?	10r_4g.bmp	0r_4g.bmp	2r_2g.bmp	0r_2g.bmp	10r_4g.bmp				TrialProc	TrialList	0	cvbn	-999999	17	110102	0	c	543	110645	72	-115	-43	-22	-34	7	6	3	3	22	-10	0	-2	0	4	4	2	2	-10	4
Hungry_Donkey_bar_English_2	152	1	<?xml version="1.0"?>\n<Clock xmlns:dt="urn:schemas-microsoft-com:datatypes"><Description dt:dt="string">E-Prime Primary Realtime Clock</Description><StartTime><Timestamp dt:dt="int">0</Timestamp><DateUtc dt:dt="string">2016-06-07T22:00:30Z</DateUtc></StartTime><FrequencyChanges><FrequencyChange><Frequency dt:dt="r8">3507705</Frequency><Timestamp dt:dt="r8">6939276928</Timestamp><Current dt:dt="r8">0</Current><DateUtc dt:dt="string">2016-06-07T22:00:30Z</DateUtc></FrequencyChange></FrequencyChanges></Clock>\n	Hungry_Donkey_bar_English_2-152-1	60.018	-80	1.0.0.18	1	-1649951025	Standard	2.0.10.353	2.0.10.353	06-07-2016		18:00:30	2.0.10.248	23	Bar37-63.bmp	40	2	?	0r_4g.bmp	0r_4g.bmp	0r_2g.bmp	0r_2g.bmp		0r_4g.bmp			TrialProc	TrialList	0	cvbn	-999999	16	112684	0	v	584	113268	76	-115	-39	-22	-30	7	6	9	3	23	0	0	0	0	4	4	2	2	0	4
Hungry_Donkey_bar_English_2	152	1	<?xml version="1.0"?>\n<Clock xmlns:dt="urn:schemas-microsoft-com:datatypes"><Description dt:dt="string">E-Prime Primary Realtime Clock</Description><StartTime><Timestamp dt:dt="int">0</Timestamp><DateUtc dt:dt="string">2016-06-07T22:00:30Z</DateUtc></StartTime><FrequencyChanges><FrequencyChange><Frequency dt:dt="r8">3507705</Frequency><Timestamp dt:dt="r8">6939276928</Timestamp><Current dt:dt="r8">0</Current><DateUtc dt:dt="string">2016-06-07T22:00:30Z</DateUtc></FrequencyChange></FrequencyChanges></Clock>\n	Hungry_Donkey_bar_English_2-152-1	60.018	-80	1.0.0.18	1	-1649951025	Standard	2.0.10.353	2.0.10.353	06-07-2016		18:00:30	2.0.10.248	24	Bar37-63.bmp	41	1	?	0r_4g.bmp	0r_4g.bmp	0r_2g.bmp	0r_2g.bmp	0r_4g.bmp				TrialProc	TrialList	0	cvbn	-999999	16	115300	0	c	624	115924	80	-115	-35	-18	-30	7	6	7	3	24	0	0	0	0	4	4	2	2	0	4
Hungry_Donkey_bar_English_2	152	1	<?xml version="1.0"?>\n<Clock xmlns:dt="urn:schemas-microsoft-com:datatypes"><Description dt:dt="string">E-Prime Primary Realtime Clock</Description><StartTime><Timestamp dt:dt="int">0</Timestamp><DateUtc dt:dt="string">2016-06-07T22:00:30Z</DateUtc></StartTime><FrequencyChanges><FrequencyChange><Frequency dt:dt="r8">3507705</Frequency><Timestamp dt:dt="r8">6939276928</Timestamp><Current dt:dt="r8">0</Current><DateUtc dt:dt="string">2016-06-07T22:00:30Z</DateUtc></FrequencyChange></FrequencyChanges></Clock>\n	Hungry_Donkey_bar_English_2-152-1	60.018	-80	1.0.0.18	1	-1649951025	Standard	2.0.10.353	2.0.10.353	06-07-2016		18:00:30	2.0.10.248	25	Bar37-63.bmp	41	3	?	12r_4g.bmp	0r_4g.bmp	3r_2g.bmp	0r_2g.bmp			3r_2g.bmp		TrialProc	TrialList	0	cvbn	-999999	16	117966	0	b	486	118452	82	-118	-36	-18	-30	6	6	5	3	25	-12	0	-3	0	4	4	2	2	-3	2
Hungry_Donkey_bar_English_2	152	1	<?xml version="1.0"?>\n<Clock xmlns:dt="urn:schemas-microsoft-com:datatypes"><Description dt:dt="string">E-Prime Primary Realtime Clock</Description><StartTime><Timestamp dt:dt="int">0</Timestamp><DateUtc dt:dt="string">2016-06-07T22:00:30Z</DateUtc></StartTime><FrequencyChanges><FrequencyChange><Frequency dt:dt="r8">3507705</Frequency><Timestamp dt:dt="r8">6939276928</Timestamp><Current dt:dt="r8">0</Current><DateUtc dt:dt="string">2016-06-07T22:00:30Z</DateUtc></FrequencyChange></FrequencyChanges></Clock>\n	Hungry_Donkey_bar_English_2-152-1	60.018	-80	1.0.0.18	1	-1649951025	Standard	2.0.10.353	2.0.10.353	06-07-2016		18:00:30	2.0.10.248	26	Bar37-63.bmp	42	4	?	10r_4g.bmp	0r_4g.bmp	2r_2g.bmp	0r_2g.bmp				0r_2g.bmp	TrialProc	TrialList	0	cvbn	-999999	16	120498	0	n	1074	121572	84	-118	-34	-18	-30	6	8	4	3	26	-10	0	-2	0	4	4	2	2	0	2
Hungry_Donkey_bar_English_2	152	1	<?xml version="1.0"?>\n<Clock xmlns:dt="urn:schemas-microsoft-com:datatypes"><Description dt:dt="string">E-Prime Primary Realtime Clock</Description><StartTime><Timestamp dt:dt="int">0</Timestamp><DateUtc dt:dt="string">2016-06-07T22:00:30Z</DateUtc></StartTime><FrequencyChanges><FrequencyChange><Frequency dt:dt="r8">3507705</Frequency><Timestamp dt:dt="r8">6939276928</Timestamp><Current dt:dt="r8">0</Current><DateUtc dt:dt="string">2016-06-07T22:00:30Z</DateUtc></FrequencyChange></FrequencyChanges></Clock>\n	Hungry_Donkey_bar_English_2-152-1	60.018	-80	1.0.0.18	1	-1649951025	Standard	2.0.10.353	2.0.10.353	06-07-2016		18:00:30	2.0.10.248	27	Bar37-63.bmp	43	1	?	0r_4g.bmp	0r_4g.bmp	0r_2g.bmp	0r_2g.bmp	0r_4g.bmp				TrialProc	TrialList	0	cvbn	-999999	16	123598	0	c	934	124532	88	-118	-30	-14	-30	6	8	6	3	27	0	0	0	0	4	4	2	2	0	4
Hungry_Donkey_bar_English_2	152	1	<?xml version="1.0"?>\n<Clock xmlns:dt="urn:schemas-microsoft-com:datatypes"><Description dt:dt="string">E-Prime Primary Realtime Clock</Description><StartTime><Timestamp dt:dt="int">0</Timestamp><DateUtc dt:dt="string">2016-06-07T22:00:30Z</DateUtc></StartTime><FrequencyChanges><FrequencyChange><Frequency dt:dt="r8">3507705</Frequency><Timestamp dt:dt="r8">6939276928</Timestamp><Current dt:dt="r8">0</Current><DateUtc dt:dt="string">2016-06-07T22:00:30Z</DateUtc></FrequencyChange></FrequencyChanges></Clock>\n	Hungry_Donkey_bar_English_2-152-1	60.018	-80	1.0.0.18	1	-1649951025	Standard	2.0.10.353	2.0.10.353	06-07-2016		18:00:30	2.0.10.248	28	Bar37-63.bmp	43	4	?	10r_4g.bmp	0r_4g.bmp	2r_2g.bmp	0r_2g.bmp				0r_2g.bmp	TrialProc	TrialList	0	cvbn	-999999	16	126563	0	n	801	127364	90	-118	-28	-14	-30	6	10	2	3	28	-10	0	-2	0	4	4	2	2	0	2
Hungry_Donkey_bar_English_2	152	1	<?xml version="1.0"?>\n<Clock xmlns:dt="urn:schemas-microsoft-com:datatypes"><Description dt:dt="string">E-Prime Primary Realtime Clock</Description><StartTime><Timestamp dt:dt="int">0</Timestamp><DateUtc dt:dt="string">2016-06-07T22:00:30Z</DateUtc></StartTime><FrequencyChanges><FrequencyChange><Frequency dt:dt="r8">3507705</Frequency><Timestamp dt:dt="r8">6939276928</Timestamp><Current dt:dt="r8">0</Current><DateUtc dt:dt="string">2016-06-07T22:00:30Z</DateUtc></FrequencyChange></FrequencyChanges></Clock>\n	Hungry_Donkey_bar_English_2-152-1	60.018	-80	1.0.0.18	1	-1649951025	Standard	2.0.10.353	2.0.10.353	06-07-2016		18:00:30	2.0.10.248	29	Bar50-50.bmp	44	3	?	8r_4g.bmp	50r_4g.bmp	1r_2g.bmp	10r_2g.bmp			1r_2g.bmp		TrialProc	TrialList	0	cvbn	-999999	16	129396	0	b	704	130100	92	-119	-27	-14	-30	7	10	1	3	29	-8	-50	-1	-10	4	4	2	2	-1	2
Hungry_Donkey_bar_English_2	152	1	<?xml version="1.0"?>\n<Clock xmlns:dt="urn:schemas-microsoft-com:datatypes"><Description dt:dt="string">E-Prime Primary Realtime Clock</Description><StartTime><Timestamp dt:dt="int">0</Timestamp><DateUtc dt:dt="string">2016-06-07T22:00:30Z</DateUtc></StartTime><FrequencyChanges><FrequencyChange><Frequency dt:dt="r8">3507705</Frequency><Timestamp dt:dt="r8">6939276928</Timestamp><Current dt:dt="r8">0</Current><DateUtc dt:dt="string">2016-06-07T22:00:30Z</DateUtc></FrequencyChange></FrequencyChanges></Clock>\n	Hungry_Donkey_bar_English_2-152-1	60.018	-80	1.0.0.18	1	-1649951025	Standard	2.0.10.353	2.0.10.353	06-07-2016		18:00:30	2.0.10.248	30	Bar50-50.bmp	45	1	?	0r_4g.bmp	0r_4g.bmp	0r_2g.bmp	0r_2g.bmp	0r_4g.bmp				TrialProc	TrialList	0	cvbn	-999999	16	132128	0	c	659	132787	96	-119	-23	-10	-30	7	10	10	3	30	0	0	0	0	4	4	2	2	0	4
Hungry_Donkey_bar_English_2	152	1	<?xml version="1.0"?>\n<Clock xmlns:dt="urn:schemas-microsoft-com:datatypes"><Description dt:dt="string">E-Prime Primary Realtime Clock</Description><StartTime><Timestamp dt:dt="int">0</Timestamp><DateUtc dt:dt="string">2016-06-07T22:00:30Z</DateUtc></StartTime><FrequencyChanges><FrequencyChange><Frequency dt:dt="r8">3507705</Frequency><Timestamp dt:dt="r8">6939276928</Timestamp><Current dt:dt="r8">0</Current><DateUtc dt:dt="string">2016-06-07T22:00:30Z</DateUtc></FrequencyChange></FrequencyChanges></Clock>\n	Hungry_Donkey_bar_English_2-152-1	60.018	-80	1.0.0.18	1	-1649951025	Standard	2.0.10.353	2.0.10.353	06-07-2016		18:00:30	2.0.10.248	31	Bar50-50.bmp	46	2	?	0r_4g.bmp	0r_4g.bmp	0r_2g.bmp	0r_2g.bmp		0r_4g.bmp			TrialProc	TrialList	0	cvbn	-999999	16	134828	0	v	487	135315	100	-119	-19	-10	-26	7	10	9	4	31	0	0	0	0	4	4	2	2	0	4
Hungry_Donkey_bar_English_2	152	1	<?xml version="1.0"?>\n<Clock xmlns:dt="urn:schemas-microsoft-com:datatypes"><Description dt:dt="string">E-Prime Primary Realtime Clock</Description><StartTime><Timestamp dt:dt="int">0</Timestamp><DateUtc dt:dt="string">2016-06-07T22:00:30Z</DateUtc></StartTime><FrequencyChanges><FrequencyChange><Frequency dt:dt="r8">3507705</Frequency><Timestamp dt:dt="r8">6939276928</Timestamp><Current dt:dt="r8">0</Current><DateUtc dt:dt="string">2016-06-07T22:00:30Z</DateUtc></FrequencyChange></FrequencyChanges></Clock>\n	Hungry_Donkey_bar_English_2-152-1	60.018	-80	1.0.0.18	1	-1649951025	Standard	2.0.10.353	2.0.10.353	06-07-2016		18:00:30	2.0.10.248	32	Bar50-50.bmp	47	2	?	10r_4g.bmp	0r_4g.bmp	2r_2g.bmp	0r_2g.bmp		0r_4g.bmp			TrialProc	TrialList	0	cvbn	-999999	17	137344	0	v	1027	138371	104	-119	-15	-10	-22	7	10	3	4	32	-10	0	-2	0	4	4	2	2	0	4
Hungry_Donkey_bar_English_2	152	1	<?xml version="1.0"?>\n<Clock xmlns:dt="urn:schemas-microsoft-com:datatypes"><Description dt:dt="string">E-Prime Primary Realtime Clock</Description><StartTime><Timestamp dt:dt="int">0</Timestamp><DateUtc dt:dt="string">2016-06-07T22:00:30Z</DateUtc></StartTime><FrequencyChanges><FrequencyChange><Frequency dt:dt="r8">3507705</Frequency><Timestamp dt:dt="r8">6939276928</Timestamp><Current dt:dt="r8">0</Current><DateUtc dt:dt="string">2016-06-07T22:00:30Z</DateUtc></FrequencyChange></FrequencyChanges></Clock>\n	Hungry_Donkey_bar_English_2-152-1	60.018	-80	1.0.0.18	1	-1649951025	Standard	2.0.10.353	2.0.10.353	06-07-2016		18:00:30	2.0.10.248	33	Bar50-50.bmp	46	1	?	8r_4g.bmp	50r_4g.bmp	1r_2g.bmp	10r_2g.bmp	8r_4g.bmp				TrialProc	TrialList	0	cvbn	-999999	16	140409	0	c	1258	141667	108	-127	-19	-14	-22	7	10	1	4	33	-8	-50	-1	-10	4	4	2	2	-8	4
Hungry_Donkey_bar_English_2	152	1	<?xml version="1.0"?>\n<Clock xmlns:dt="urn:schemas-microsoft-com:datatypes"><Description dt:dt="string">E-Prime Primary Realtime Clock</Description><StartTime><Timestamp dt:dt="int">0</Timestamp><DateUtc dt:dt="string">2016-06-07T22:00:30Z</DateUtc></StartTime><FrequencyChanges><FrequencyChange><Frequency dt:dt="r8">3507705</Frequency><Timestamp dt:dt="r8">6939276928</Timestamp><Current dt:dt="r8">0</Current><DateUtc dt:dt="string">2016-06-07T22:00:30Z</DateUtc></FrequencyChange></FrequencyChanges></Clock>\n	Hungry_Donkey_bar_English_2-152-1	60.018	-80	1.0.0.18	1	-1649951025	Standard	2.0.10.353	2.0.10.353	06-07-2016		18:00:30	2.0.10.248	34	Bar50-50.bmp	46	3	?	12r_4g.bmp	0r_4g.bmp	3r_2g.bmp	0r_2g.bmp			3r_2g.bmp		TrialProc	TrialList	0	cvbn	-999999	16	143708	0	b	1959	145667	110	-130	-20	-14	-22	6	10	5	4	34	-12	0	-3	0	4	4	2	2	-3	2
Hungry_Donkey_bar_English_2	152	1	<?xml version="1.0"?>\n<Clock xmlns:dt="urn:schemas-microsoft-com:datatypes"><Description dt:dt="string">E-Prime Primary Realtime Clock</Description><StartTime><Timestamp dt:dt="int">0</Timestamp><DateUtc dt:dt="string">2016-06-07T22:00:30Z</DateUtc></StartTime><FrequencyChanges><FrequencyChange><Frequency dt:dt="r8">3507705</Frequency><Timestamp dt:dt="r8">6939276928</Timestamp><Current dt:dt="r8">0</Current><DateUtc dt:dt="string">2016-06-07T22:00:30Z</DateUtc></FrequencyChange></FrequencyChanges></Clock>\n	Hungry_Donkey_bar_English_2-152-1	60.018	-80	1.0.0.18	1	-1649951025	Standard	2.0.10.353	2.0.10.353	06-07-2016		18:00:30	2.0.10.248	35	Bar50-50.bmp	46	4	?	0r_4g.bmp	0r_4g.bmp	0r_2g.bmp	0r_2g.bmp				0r_2g.bmp	TrialProc	TrialList	0	cvbn	-999999	16	147707	0	n	1927	149634	112	-130	-18	-14	-22	6	12	7	4	35	0	0	0	0	4	4	2	2	0	2
Hungry_Donkey_bar_English_2	152	1	<?xml version="1.0"?>\n<Clock xmlns:dt="urn:schemas-microsoft-com:datatypes"><Description dt:dt="string">E-Prime Primary Realtime Clock</Description><StartTime><Timestamp dt:dt="int">0</Timestamp><DateUtc dt:dt="string">2016-06-07T22:00:30Z</DateUtc></StartTime><FrequencyChanges><FrequencyChange><Frequency dt:dt="r8">3507705</Frequency><Timestamp dt:dt="r8">6939276928</Timestamp><Current dt:dt="r8">0</Current><DateUtc dt:dt="string">2016-06-07T22:00:30Z</DateUtc></FrequencyChange></FrequencyChanges></Clock>\n	Hungry_Donkey_bar_English_2-152-1	60.018	-80	1.0.0.18	1	-1649951025	Standard	2.0.10.353	2.0.10.353	06-07-2016		18:00:30	2.0.10.248	36	Bar50-50.bmp	47	4	?	0r_4g.bmp	0r_4g.bmp	0r_2g.bmp	0r_2g.bmp				0r_2g.bmp	TrialProc	TrialList	0	cvbn	-999999	16	151673	0	n	329	152002	114	-130	-16	-14	-22	6	14	8	4	36	0	0	0	0	4	4	2	2	0	2
Hungry_Donkey_bar_English_2	152	1	<?xml version="1.0"?>\n<Clock xmlns:dt="urn:schemas-microsoft-com:datatypes"><Description dt:dt="string">E-Prime Primary Realtime Clock</Description><StartTime><Timestamp dt:dt="int">0</Timestamp><DateUtc dt:dt="string">2016-06-07T22:00:30Z</DateUtc></StartTime><FrequencyChanges><FrequencyChange><Frequency dt:dt="r8">3507705</Frequency><Timestamp dt:dt="r8">6939276928</Timestamp><Current dt:dt="r8">0</Current><DateUtc dt:dt="string">2016-06-07T22:00:30Z</DateUtc></FrequencyChange></FrequencyChanges></Clock>\n	Hungry_Donkey_bar_English_2-152-1	60.018	-80	1.0.0.18	1	-1649951025	Standard	2.0.10.353	2.0.10.353	06-07-2016		18:00:30	2.0.10.248	37	Bar50-50.bmp	46	1	?	10r_4g.bmp	0r_4g.bmp	2r_2g.bmp	0r_2g.bmp	10r_4g.bmp				TrialProc	TrialList	0	cvbn	-999999	16	154039	0	c	1499	155538	118	-140	-22	-20	-22	6	14	4	4	37	-10	0	-2	0	4	4	2	2	-10	4
Hungry_Donkey_bar_English_2	152	1	<?xml version="1.0"?>\n<Clock xmlns:dt="urn:schemas-microsoft-com:datatypes"><Description dt:dt="string">E-Prime Primary Realtime Clock</Description><StartTime><Timestamp dt:dt="int">0</Timestamp><DateUtc dt:dt="string">2016-06-07T22:00:30Z</DateUtc></StartTime><FrequencyChanges><FrequencyChange><Frequency dt:dt="r8">3507705</Frequency><Timestamp dt:dt="r8">6939276928</Timestamp><Current dt:dt="r8">0</Current><DateUtc dt:dt="string">2016-06-07T22:00:30Z</DateUtc></FrequencyChange></FrequencyChanges></Clock>\n	Hungry_Donkey_bar_English_2-152-1	60.018	-80	1.0.0.18	1	-1649951025	Standard	2.0.10.353	2.0.10.353	06-07-2016		18:00:30	2.0.10.248	38	Bar50-50.bmp	45	1	?	10r_4g.bmp	0r_4g.bmp	2r_2g.bmp	0r_2g.bmp	10r_4g.bmp				TrialProc	TrialList	0	cvbn	-999999	16	157571	0	c	543	158114	122	-150	-28	-26	-22	6	14	2	4	38	-10	0	-2	0	4	4	2	2	-10	4
Hungry_Donkey_bar_English_2	152	1	<?xml version="1.0"?>\n<Clock xmlns:dt="urn:schemas-microsoft-com:datatypes"><Description dt:dt="string">E-Prime Primary Realtime Clock</Description><StartTime><Timestamp dt:dt="int">0</Timestamp><DateUtc dt:dt="string">2016-06-07T22:00:30Z</DateUtc></StartTime><FrequencyChanges><FrequencyChange><Frequency dt:dt="r8">3507705</Frequency><Timestamp dt:dt="r8">6939276928</Timestamp><Current dt:dt="r8">0</Current><DateUtc dt:dt="string">2016-06-07T22:00:30Z</DateUtc></FrequencyChange></FrequencyChanges></Clock>\n	Hungry_Donkey_bar_English_2-152-1	60.018	-80	1.0.0.18	1	-1649951025	Standard	2.0.10.353	2.0.10.353	06-07-2016		18:00:30	2.0.10.248	39	Bar50-50.bmp	46	1	?	0r_4g.bmp	0r_4g.bmp	0r_2g.bmp	0r_2g.bmp	0r_4g.bmp				TrialProc	TrialList	0	cvbn	-999999	16	160153	0	c	873	161026	126	-150	-24	-22	-22	6	14	6	4	39	0	0	0	0	4	4	2	2	0	4
Hungry_Donkey_bar_English_2	152	1	<?xml version="1.0"?>\n<Clock xmlns:dt="urn:schemas-microsoft-com:datatypes"><Description dt:dt="string">E-Prime Primary Realtime Clock</Description><StartTime><Timestamp dt:dt="int">0</Timestamp><DateUtc dt:dt="string">2016-06-07T22:00:30Z</DateUtc></StartTime><FrequencyChanges><FrequencyChange><Frequency dt:dt="r8">3507705</Frequency><Timestamp dt:dt="r8">6939276928</Timestamp><Current dt:dt="r8">0</Current><DateUtc dt:dt="string">2016-06-07T22:00:30Z</DateUtc></FrequencyChange></FrequencyChanges></Clock>\n	Hungry_Donkey_bar_English_2-152-1	60.018	-80	1.0.0.18	1	-1649951025	Standard	2.0.10.353	2.0.10.353	06-07-2016		18:00:30	2.0.10.248	40	Bar50-50.bmp	46	2	?	0r_4g.bmp	0r_4g.bmp	0r_2g.bmp	0r_2g.bmp		0r_4g.bmp			TrialProc	TrialList	0	cvbn	-999999	16	163053	0	v	965	164018	130	-150	-20	-22	-18	6	14	10	4	40	0	0	0	0	4	4	2	2	0	4
Hungry_Donkey_bar_English_2	152	1	<?xml version="1.0"?>\n<Clock xmlns:dt="urn:schemas-microsoft-com:datatypes"><Description dt:dt="string">E-Prime Primary Realtime Clock</Description><StartTime><Timestamp dt:dt="int">0</Timestamp><DateUtc dt:dt="string">2016-06-07T22:00:30Z</DateUtc></StartTime><FrequencyChanges><FrequencyChange><Frequency dt:dt="r8">3507705</Frequency><Timestamp dt:dt="r8">6939276928</Timestamp><Current dt:dt="r8">0</Current><DateUtc dt:dt="string">2016-06-07T22:00:30Z</DateUtc></FrequencyChange></FrequencyChanges></Clock>\n	Hungry_Donkey_bar_English_2-152-1	60.018	-80	1.0.0.18	1	-1649951025	Standard	2.0.10.353	2.0.10.353	06-07-2016		18:00:30	2.0.10.248	41	Bar50-50.bmp	46	3	?	10r_4g.bmp	0r_4g.bmp	2r_2g.bmp	0r_2g.bmp			2r_2g.bmp		TrialProc	TrialList	0	cvbn	-999999	16	166052	0	b	605	166657	132	-152	-20	-22	-18	6	14	2	5	41	-10	0	-2	0	4	4	2	2	-2	2
Hungry_Donkey_bar_English_2	152	1	<?xml version="1.0"?>\n<Clock xmlns:dt="urn:schemas-microsoft-com:datatypes"><Description dt:dt="string">E-Prime Primary Realtime Clock</Description><StartTime><Timestamp dt:dt="int">0</Timestamp><DateUtc dt:dt="string">2016-06-07T22:00:30Z</DateUtc></StartTime><FrequencyChanges><FrequencyChange><Frequency dt:dt="r8">3507705</Frequency><Timestamp dt:dt="r8">6939276928</Timestamp><Current dt:dt="r8">0</Current><DateUtc dt:dt="string">2016-06-07T22:00:30Z</DateUtc></FrequencyChange></FrequencyChanges></Clock>\n	Hungry_Donkey_bar_English_2-152-1	60.018	-80	1.0.0.18	1	-1649951025	Standard	2.0.10.353	2.0.10.353	06-07-2016		18:00:30	2.0.10.248	42	Bar50-50.bmp	47	4	?	10r_4g.bmp	0r_4g.bmp	2r_2g.bmp	0r_2g.bmp				0r_2g.bmp	TrialProc	TrialList	0	cvbn	-999999	16	168684	0	n	405	169089	134	-152	-18	-22	-18	6	16	4	5	42	-10	0	-2	0	4	4	2	2	0	2
Hungry_Donkey_bar_English_2	152	1	<?xml version="1.0"?>\n<Clock xmlns:dt="urn:schemas-microsoft-com:datatypes"><Description dt:dt="string">E-Prime Primary Realtime Clock</Description><StartTime><Timestamp dt:dt="int">0</Timestamp><DateUtc dt:dt="string">2016-06-07T22:00:30Z</DateUtc></StartTime><FrequencyChanges><FrequencyChange><Frequency dt:dt="r8">3507705</Frequency><Timestamp dt:dt="r8">6939276928</Timestamp><Current dt:dt="r8">0</Current><DateUtc dt:dt="string">2016-06-07T22:00:30Z</DateUtc></FrequencyChange></FrequencyChanges></Clock>\n	Hungry_Donkey_bar_English_2-152-1	60.018	-80	1.0.0.18	1	-1649951025	Standard	2.0.10.353	2.0.10.353	06-07-2016		18:00:30	2.0.10.248	43	Bar50-50.bmp	48	1	?	0r_4g.bmp	0r_4g.bmp	0r_2g.bmp	0r_2g.bmp	0r_4g.bmp				TrialProc	TrialList	0	cvbn	-999999	16	171117	0	c	932	172049	138	-152	-14	-18	-18	6	16	10	5	43	0	0	0	0	4	4	2	2	0	4
Hungry_Donkey_bar_English_2	152	1	<?xml version="1.0"?>\n<Clock xmlns:dt="urn:schemas-microsoft-com:datatypes"><Description dt:dt="string">E-Prime Primary Realtime Clock</Description><StartTime><Timestamp dt:dt="int">0</Timestamp><DateUtc dt:dt="string">2016-06-07T22:00:30Z</DateUtc></StartTime><FrequencyChanges><FrequencyChange><Frequency dt:dt="r8">3507705</Frequency><Timestamp dt:dt="r8">6939276928</Timestamp><Current dt:dt="r8">0</Current><DateUtc dt:dt="string">2016-06-07T22:00:30Z</DateUtc></FrequencyChange></FrequencyChanges></Clock>\n	Hungry_Donkey_bar_English_2-152-1	60.018	-80	1.0.0.18	1	-1649951025	Standard	2.0.10.353	2.0.10.353	06-07-2016		18:00:30	2.0.10.248	44	Bar50-50.bmp	48	3	?	0r_4g.bmp	0r_4g.bmp	0r_2g.bmp	0r_2g.bmp			0r_2g.bmp		TrialProc	TrialList	0	cvbn	-999999	16	174083	0	b	1406	175489	140	-152	-12	-18	-18	8	16	9	5	44	0	0	0	0	4	4	2	2	0	2
Hungry_Donkey_bar_English_2	152	1	<?xml version="1.0"?>\n<Clock xmlns:dt="urn:schemas-microsoft-com:datatypes"><Description dt:dt="string">E-Prime Primary Realtime Clock</Description><StartTime><Timestamp dt:dt="int">0</Timestamp><DateUtc dt:dt="string">2016-06-07T22:00:30Z</DateUtc></StartTime><FrequencyChanges><FrequencyChange><Frequency dt:dt="r8">3507705</Frequency><Timestamp dt:dt="r8">6939276928</Timestamp><Current dt:dt="r8">0</Current><DateUtc dt:dt="string">2016-06-07T22:00:30Z</DateUtc></FrequencyChange></FrequencyChanges></Clock>\n	Hungry_Donkey_bar_English_2-152-1	60.018	-80	1.0.0.18	1	-1649951025	Standard	2.0.10.353	2.0.10.353	06-07-2016		18:00:30	2.0.10.248	45	Bar50-50.bmp	49	2	?	0r_4g.bmp	0r_4g.bmp	0r_2g.bmp	0r_2g.bmp		0r_4g.bmp			TrialProc	TrialList	0	cvbn	-999999	16	177515	0	v	438	177953	144	-152	-8	-18	-14	8	16	8	5	45	0	0	0	0	4	4	2	2	0	4
Hungry_Donkey_bar_English_2	152	1	<?xml version="1.0"?>\n<Clock xmlns:dt="urn:schemas-microsoft-com:datatypes"><Description dt:dt="string">E-Prime Primary Realtime Clock</Description><StartTime><Timestamp dt:dt="int">0</Timestamp><DateUtc dt:dt="string">2016-06-07T22:00:30Z</DateUtc></StartTime><FrequencyChanges><FrequencyChange><Frequency dt:dt="r8">3507705</Frequency><Timestamp dt:dt="r8">6939276928</Timestamp><Current dt:dt="r8">0</Current><DateUtc dt:dt="string">2016-06-07T22:00:30Z</DateUtc></FrequencyChange></FrequencyChanges></Clock>\n	Hungry_Donkey_bar_English_2-152-1	60.018	-80	1.0.0.18	1	-1649951025	Standard	2.0.10.353	2.0.10.353	06-07-2016		18:00:30	2.0.10.248	46	Bar50-50.bmp	47	1	?	12r_4g.bmp	0r_4g.bmp	3r_2g.bmp	0r_2g.bmp	12r_4g.bmp				TrialProc	TrialList	0	cvbn	-999999	16	179981	0	c	676	180657	148	-164	-16	-26	-14	8	16	5	5	46	-12	0	-3	0	4	4	2	2	-12	4
Hungry_Donkey_bar_English_2	152	1	<?xml version="1.0"?>\n<Clock xmlns:dt="urn:schemas-microsoft-com:datatypes"><Description dt:dt="string">E-Prime Primary Realtime Clock</Description><StartTime><Timestamp dt:dt="int">0</Timestamp><DateUtc dt:dt="string">2016-06-07T22:00:30Z</DateUtc></StartTime><FrequencyChanges><FrequencyChange><Frequency dt:dt="r8">3507705</Frequency><Timestamp dt:dt="r8">6939276928</Timestamp><Current dt:dt="r8">0</Current><DateUtc dt:dt="string">2016-06-07T22:00:30Z</DateUtc></FrequencyChange></FrequencyChanges></Clock>\n	Hungry_Donkey_bar_English_2-152-1	60.018	-80	1.0.0.18	1	-1649951025	Standard	2.0.10.353	2.0.10.353	06-07-2016		18:00:30	2.0.10.248	47	Bar50-50.bmp	47	1	?	8r_4g.bmp	50r_4g.bmp	1r_2g.bmp	10r_2g.bmp	8r_4g.bmp				TrialProc	TrialList	0	cvbn	-999999	15	182680	0	c	921	183601	152	-172	-20	-30	-14	8	16	1	5	47	-8	-50	-1	-10	4	4	2	2	-8	4
Hungry_Donkey_bar_English_2	152	1	<?xml version="1.0"?>\n<Clock xmlns:dt="urn:schemas-microsoft-com:datatypes"><Description dt:dt="string">E-Prime Primary Realtime Clock</Description><StartTime><Timestamp dt:dt="int">0</Timestamp><DateUtc dt:dt="string">2016-06-07T22:00:30Z</DateUtc></StartTime><FrequencyChanges><FrequencyChange><Frequency dt:dt="r8">3507705</Frequency><Timestamp dt:dt="r8">6939276928</Timestamp><Current dt:dt="r8">0</Current><DateUtc dt:dt="string">2016-06-07T22:00:30Z</DateUtc></FrequencyChange></FrequencyChanges></Clock>\n	Hungry_Donkey_bar_English_2-152-1	60.018	-80	1.0.0.18	1	-1649951025	Standard	2.0.10.353	2.0.10.353	06-07-2016		18:00:30	2.0.10.248	48	Bar50-50.bmp	47	4	?	10r_4g.bmp	0r_4g.bmp	2r_2g.bmp	0r_2g.bmp				0r_2g.bmp	TrialProc	TrialList	0	cvbn	-999999	16	185629	0	n	1907	187536	154	-172	-18	-30	-14	8	18	3	5	48	-10	0	-2	0	4	4	2	2	0	2
Hungry_Donkey_bar_English_2	152	1	<?xml version="1.0"?>\n<Clock xmlns:dt="urn:schemas-microsoft-com:datatypes"><Description dt:dt="string">E-Prime Primary Realtime Clock</Description><StartTime><Timestamp dt:dt="int">0</Timestamp><DateUtc dt:dt="string">2016-06-07T22:00:30Z</DateUtc></StartTime><FrequencyChanges><FrequencyChange><Frequency dt:dt="r8">3507705</Frequency><Timestamp dt:dt="r8">6939276928</Timestamp><Current dt:dt="r8">0</Current><DateUtc dt:dt="string">2016-06-07T22:00:30Z</DateUtc></FrequencyChange></FrequencyChanges></Clock>\n	Hungry_Donkey_bar_English_2-152-1	60.018	-80	1.0.0.18	1	-1649951025	Standard	2.0.10.353	2.0.10.353	06-07-2016		18:00:30	2.0.10.248	49	Bar50-50.bmp	48	3	?	0r_4g.bmp	0r_4g.bmp	0r_2g.bmp	0r_2g.bmp			0r_2g.bmp		TrialProc	TrialList	0	cvbn	-999999	16	189561	0	b	375	189936	156	-172	-16	-30	-14	10	18	7	5	49	0	0	0	0	4	4	2	2	0	2
Hungry_Donkey_bar_English_2	152	1	<?xml version="1.0"?>\n<Clock xmlns:dt="urn:schemas-microsoft-com:datatypes"><Description dt:dt="string">E-Prime Primary Realtime Clock</Description><StartTime><Timestamp dt:dt="int">0</Timestamp><DateUtc dt:dt="string">2016-06-07T22:00:30Z</DateUtc></StartTime><FrequencyChanges><FrequencyChange><Frequency dt:dt="r8">3507705</Frequency><Timestamp dt:dt="r8">6939276928</Timestamp><Current dt:dt="r8">0</Current><DateUtc dt:dt="string">2016-06-07T22:00:30Z</DateUtc></FrequencyChange></FrequencyChanges></Clock>\n	Hungry_Donkey_bar_English_2-152-1	60.018	-80	1.0.0.18	1	-1649951025	Standard	2.0.10.353	2.0.10.353	06-07-2016		18:00:30	2.0.10.248	50	Bar50-50.bmp	48	1	?	0r_4g.bmp	0r_4g.bmp	0r_2g.bmp	0r_2g.bmp	0r_4g.bmp				TrialProc	TrialList	0	cvbn	-999999	16	191961	0	c	599	192560	160	-172	-12	-26	-14	10	18	6	5	50	0	0	0	0	4	4	2	2	0	4
Hungry_Donkey_bar_English_2	152	1	<?xml version="1.0"?>\n<Clock xmlns:dt="urn:schemas-microsoft-com:datatypes"><Description dt:dt="string">E-Prime Primary Realtime Clock</Description><StartTime><Timestamp dt:dt="int">0</Timestamp><DateUtc dt:dt="string">2016-06-07T22:00:30Z</DateUtc></StartTime><FrequencyChanges><FrequencyChange><Frequency dt:dt="r8">3507705</Frequency><Timestamp dt:dt="r8">6939276928</Timestamp><Current dt:dt="r8">0</Current><DateUtc dt:dt="string">2016-06-07T22:00:30Z</DateUtc></FrequencyChange></FrequencyChanges></Clock>\n	Hungry_Donkey_bar_English_2-152-1	60.018	-80	1.0.0.18	1	-1649951025	Standard	2.0.10.353	2.0.10.353	06-07-2016		18:00:30	2.0.10.248	51	Bar50-50.bmp	49	2	?	10r_4g.bmp	0r_4g.bmp	2r_2g.bmp	0r_2g.bmp		0r_4g.bmp			TrialProc	TrialList	0	cvbn	-999999	16	194593	0	v	719	195312	164	-172	-8	-26	-10	10	18	3	6	51	-10	0	-2	0	4	4	2	2	0	4
Hungry_Donkey_bar_English_2	152	1	<?xml version="1.0"?>\n<Clock xmlns:dt="urn:schemas-microsoft-com:datatypes"><Description dt:dt="string">E-Prime Primary Realtime Clock</Description><StartTime><Timestamp dt:dt="int">0</Timestamp><DateUtc dt:dt="string">2016-06-07T22:00:30Z</DateUtc></StartTime><FrequencyChanges><FrequencyChange><Frequency dt:dt="r8">3507705</Frequency><Timestamp dt:dt="r8">6939276928</Timestamp><Current dt:dt="r8">0</Current><DateUtc dt:dt="string">2016-06-07T22:00:30Z</DateUtc></FrequencyChange></FrequencyChanges></Clock>\n	Hungry_Donkey_bar_English_2-152-1	60.018	-80	1.0.0.18	1	-1649951025	Standard	2.0.10.353	2.0.10.353	06-07-2016		18:00:30	2.0.10.248	52	Bar50-50.bmp	48	1	?	10r_4g.bmp	0r_4g.bmp	2r_2g.bmp	0r_2g.bmp	10r_4g.bmp				TrialProc	TrialList	0	cvbn	-999999	17	197343	0	c	1553	198896	168	-182	-14	-32	-10	10	18	2	6	52	-10	0	-2	0	4	4	2	2	-10	4
Hungry_Donkey_bar_English_2	152	1	<?xml version="1.0"?>\n<Clock xmlns:dt="urn:schemas-microsoft-com:datatypes"><Description dt:dt="string">E-Prime Primary Realtime Clock</Description><StartTime><Timestamp dt:dt="int">0</Timestamp><DateUtc dt:dt="string">2016-06-07T22:00:30Z</DateUtc></StartTime><FrequencyChanges><FrequencyChange><Frequency dt:dt="r8">3507705</Frequency><Timestamp dt:dt="r8">6939276928</Timestamp><Current dt:dt="r8">0</Current><DateUtc dt:dt="string">2016-06-07T22:00:30Z</DateUtc></FrequencyChange></FrequencyChanges></Clock>\n	Hungry_Donkey_bar_English_2-152-1	60.018	-80	1.0.0.18	1	-1649951025	Standard	2.0.10.353	2.0.10.353	06-07-2016		18:00:30	2.0.10.248	53	Bar50-50.bmp	49	2	?	0r_4g.bmp	0r_4g.bmp	0r_2g.bmp	0r_2g.bmp		0r_4g.bmp			TrialProc	TrialList	0	cvbn	-999999	16	200925	0	v	1650	202575	172	-182	-10	-32	-6	10	18	6	6	53	0	0	0	0	4	4	2	2	0	4
Hungry_Donkey_bar_English_2	152	1	<?xml version="1.0"?>\n<Clock xmlns:dt="urn:schemas-microsoft-com:datatypes"><Description dt:dt="string">E-Prime Primary Realtime Clock</Description><StartTime><Timestamp dt:dt="int">0</Timestamp><DateUtc dt:dt="string">2016-06-07T22:00:30Z</DateUtc></StartTime><FrequencyChanges><FrequencyChange><Frequency dt:dt="r8">3507705</Frequency><Timestamp dt:dt="r8">6939276928</Timestamp><Current dt:dt="r8">0</Current><DateUtc dt:dt="string">2016-06-07T22:00:30Z</DateUtc></FrequencyChange></FrequencyChanges></Clock>\n	Hungry_Donkey_bar_English_2-152-1	60.018	-80	1.0.0.18	1	-1649951025	Standard	2.0.10.353	2.0.10.353	06-07-2016		18:00:30	2.0.10.248	54	Bar50-50.bmp	48	1	?	8r_4g.bmp	50r_4g.bmp	1r_2g.bmp	10r_2g.bmp	8r_4g.bmp				TrialProc	TrialList	0	cvbn	-999999	16	204607	0	c	1104	205711	176	-190	-14	-36	-6	10	18	1	6	54	-8	-50	-1	-10	4	4	2	2	-8	4
Hungry_Donkey_bar_English_2	152	1	<?xml version="1.0"?>\n<Clock xmlns:dt="urn:schemas-microsoft-com:datatypes"><Description dt:dt="string">E-Prime Primary Realtime Clock</Description><StartTime><Timestamp dt:dt="int">0</Timestamp><DateUtc dt:dt="string">2016-06-07T22:00:30Z</DateUtc></StartTime><FrequencyChanges><FrequencyChange><Frequency dt:dt="r8">3507705</Frequency><Timestamp dt:dt="r8">6939276928</Timestamp><Current dt:dt="r8">0</Current><DateUtc dt:dt="string">2016-06-07T22:00:30Z</DateUtc></FrequencyChange></FrequencyChanges></Clock>\n	Hungry_Donkey_bar_English_2-152-1	60.018	-80	1.0.0.18	1	-1649951025	Standard	2.0.10.353	2.0.10.353	06-07-2016		18:00:30	2.0.10.248	55	Bar50-50.bmp	49	2	?	0r_4g.bmp	0r_4g.bmp	0r_2g.bmp	0r_2g.bmp		0r_4g.bmp			TrialProc	TrialList	0	cvbn	-999999	16	207739	0	v	1972	209711	180	-190	-10	-36	-2	10	18	9	6	55	0	0	0	0	4	4	2	2	0	4
Hungry_Donkey_bar_English_2	152	1	<?xml version="1.0"?>\n<Clock xmlns:dt="urn:schemas-microsoft-com:datatypes"><Description dt:dt="string">E-Prime Primary Realtime Clock</Description><StartTime><Timestamp dt:dt="int">0</Timestamp><DateUtc dt:dt="string">2016-06-07T22:00:30Z</DateUtc></StartTime><FrequencyChanges><FrequencyChange><Frequency dt:dt="r8">3507705</Frequency><Timestamp dt:dt="r8">6939276928</Timestamp><Current dt:dt="r8">0</Current><DateUtc dt:dt="string">2016-06-07T22:00:30Z</DateUtc></FrequencyChange></FrequencyChanges></Clock>\n	Hungry_Donkey_bar_English_2-152-1	60.018	-80	1.0.0.18	1	-1649951025	Standard	2.0.10.353	2.0.10.353	06-07-2016		18:00:30	2.0.10.248	56	Bar50-50.bmp	49	3	?	12r_4g.bmp	0r_4g.bmp	3r_2g.bmp	0r_2g.bmp			3r_2g.bmp		TrialProc	TrialList	0	cvbn	-999999	16	211738	0	b	629	212367	182	-193	-11	-36	-2	9	18	5	6	56	-12	0	-3	0	4	4	2	2	-3	2
Hungry_Donkey_bar_English_2	152	1	<?xml version="1.0"?>\n<Clock xmlns:dt="urn:schemas-microsoft-com:datatypes"><Description dt:dt="string">E-Prime Primary Realtime Clock</Description><StartTime><Timestamp dt:dt="int">0</Timestamp><DateUtc dt:dt="string">2016-06-07T22:00:30Z</DateUtc></StartTime><FrequencyChanges><FrequencyChange><Frequency dt:dt="r8">3507705</Frequency><Timestamp dt:dt="r8">6939276928</Timestamp><Current dt:dt="r8">0</Current><DateUtc dt:dt="string">2016-06-07T22:00:30Z</DateUtc></FrequencyChange></FrequencyChanges></Clock>\n	Hungry_Donkey_bar_English_2-152-1	60.018	-80	1.0.0.18	1	-1649951025	Standard	2.0.10.353	2.0.10.353	06-07-2016		18:00:30	2.0.10.248	57	Bar50-50.bmp	49	4	?	0r_4g.bmp	0r_4g.bmp	0r_2g.bmp	0r_2g.bmp				0r_2g.bmp	TrialProc	TrialList	0	cvbn	-999999	16	214404	0	n	267	214671	184	-193	-9	-36	-2	9	20	8	6	57	0	0	0	0	4	4	2	2	0	2
Hungry_Donkey_bar_English_2	152	1	<?xml version="1.0"?>\n<Clock xmlns:dt="urn:schemas-microsoft-com:datatypes"><Description dt:dt="string">E-Prime Primary Realtime Clock</Description><StartTime><Timestamp dt:dt="int">0</Timestamp><DateUtc dt:dt="string">2016-06-07T22:00:30Z</DateUtc></StartTime><FrequencyChanges><FrequencyChange><Frequency dt:dt="r8">3507705</Frequency><Timestamp dt:dt="r8">6939276928</Timestamp><Current dt:dt="r8">0</Current><DateUtc dt:dt="string">2016-06-07T22:00:30Z</DateUtc></FrequencyChange></FrequencyChanges></Clock>\n	Hungry_Donkey_bar_English_2-152-1	60.018	-80	1.0.0.18	1	-1649951025	Standard	2.0.10.353	2.0.10.353	06-07-2016		18:00:30	2.0.10.248	58	Bar50-50.bmp	48	1	?	10r_4g.bmp	0r_4g.bmp	2r_2g.bmp	0r_2g.bmp	10r_4g.bmp				TrialProc	TrialList	0	cvbn	-999999	16	216703	0	c	336	217039	188	-203	-15	-42	-2	9	20	4	6	58	-10	0	-2	0	4	4	2	2	-10	4
Hungry_Donkey_bar_English_2	152	1	<?xml version="1.0"?>\n<Clock xmlns:dt="urn:schemas-microsoft-com:datatypes"><Description dt:dt="string">E-Prime Primary Realtime Clock</Description><StartTime><Timestamp dt:dt="int">0</Timestamp><DateUtc dt:dt="string">2016-06-07T22:00:30Z</DateUtc></StartTime><FrequencyChanges><FrequencyChange><Frequency dt:dt="r8">3507705</Frequency><Timestamp dt:dt="r8">6939276928</Timestamp><Current dt:dt="r8">0</Current><DateUtc dt:dt="string">2016-06-07T22:00:30Z</DateUtc></FrequencyChange></FrequencyChanges></Clock>\n	Hungry_Donkey_bar_English_2-152-1	60.018	-80	1.0.0.18	1	-1649951025	Standard	2.0.10.353	2.0.10.353	06-07-2016		18:00:30	2.0.10.248	59	Bar50-50.bmp	49	2	?	0r_4g.bmp	0r_4g.bmp	0r_2g.bmp	0r_2g.bmp		0r_4g.bmp			TrialProc	TrialList	0	cvbn	-999999	16	219069	0	v	385	219454	192	-203	-11	-42	2	9	20	7	6	59	0	0	0	0	4	4	2	2	0	4
Hungry_Donkey_bar_English_2	152	1	<?xml version="1.0"?>\n<Clock xmlns:dt="urn:schemas-microsoft-com:datatypes"><Description dt:dt="string">E-Prime Primary Realtime Clock</Description><StartTime><Timestamp dt:dt="int">0</Timestamp><DateUtc dt:dt="string">2016-06-07T22:00:30Z</DateUtc></StartTime><FrequencyChanges><FrequencyChange><Frequency dt:dt="r8">3507705</Frequency><Timestamp dt:dt="r8">6939276928</Timestamp><Current dt:dt="r8">0</Current><DateUtc dt:dt="string">2016-06-07T22:00:30Z</DateUtc></FrequencyChange></FrequencyChanges></Clock>\n	Hungry_Donkey_bar_English_2-152-1	60.018	-80	1.0.0.18	1	-1649951025	Standard	2.0.10.353	2.0.10.353	06-07-2016		18:00:30	2.0.10.248	60	Bar50-50.bmp	49	1	?	0r_4g.bmp	0r_4g.bmp	0r_2g.bmp	0r_2g.bmp	0r_4g.bmp				TrialProc	TrialList	0	cvbn	-999999	16	221485	0	c	337	221822	196	-203	-7	-38	2	9	20	10	6	60	0	0	0	0	4	4	2	2	0	4
Hungry_Donkey_bar_English_2	152	1	<?xml version="1.0"?>\n<Clock xmlns:dt="urn:schemas-microsoft-com:datatypes"><Description dt:dt="string">E-Prime Primary Realtime Clock</Description><StartTime><Timestamp dt:dt="int">0</Timestamp><DateUtc dt:dt="string">2016-06-07T22:00:30Z</DateUtc></StartTime><FrequencyChanges><FrequencyChange><Frequency dt:dt="r8">3507705</Frequency><Timestamp dt:dt="r8">6939276928</Timestamp><Current dt:dt="r8">0</Current><DateUtc dt:dt="string">2016-06-07T22:00:30Z</DateUtc></FrequencyChange></FrequencyChanges></Clock>\n	Hungry_Donkey_bar_English_2-152-1	60.018	-80	1.0.0.18	1	-1649951025	Standard	2.0.10.353	2.0.10.353	06-07-2016		18:00:30	2.0.10.248	61	Bar50-50.bmp	49	4	?	0r_4g.bmp	0r_4g.bmp	0r_2g.bmp	0r_2g.bmp				0r_2g.bmp	TrialProc	TrialList	0	cvbn	-999999	16	223851	0	n	1107	224958	198	-203	-5	-38	2	9	22	7	7	61	0	0	0	0	4	4	2	2	0	2
Hungry_Donkey_bar_English_2	152	1	<?xml version="1.0"?>\n<Clock xmlns:dt="urn:schemas-microsoft-com:datatypes"><Description dt:dt="string">E-Prime Primary Realtime Clock</Description><StartTime><Timestamp dt:dt="int">0</Timestamp><DateUtc dt:dt="string">2016-06-07T22:00:30Z</DateUtc></StartTime><FrequencyChanges><FrequencyChange><Frequency dt:dt="r8">3507705</Frequency><Timestamp dt:dt="r8">6939276928</Timestamp><Current dt:dt="r8">0</Current><DateUtc dt:dt="string">2016-06-07T22:00:30Z</DateUtc></FrequencyChange></FrequencyChanges></Clock>\n	Hungry_Donkey_bar_English_2-152-1	60.018	-80	1.0.0.18	1	-1649951025	Standard	2.0.10.353	2.0.10.353	06-07-2016		18:00:30	2.0.10.248	62	Bar50-50.bmp	49	3	?	10r_4g.bmp	0r_4g.bmp	2r_2g.bmp	0r_2g.bmp			2r_2g.bmp		TrialProc	TrialList	0	cvbn	-999999	16	226984	0	b	534	227518	200	-205	-5	-38	2	9	22	2	7	62	-10	0	-2	0	4	4	2	2	-2	2
Hungry_Donkey_bar_English_2	152	1	<?xml version="1.0"?>\n<Clock xmlns:dt="urn:schemas-microsoft-com:datatypes"><Description dt:dt="string">E-Prime Primary Realtime Clock</Description><StartTime><Timestamp dt:dt="int">0</Timestamp><DateUtc dt:dt="string">2016-06-07T22:00:30Z</DateUtc></StartTime><FrequencyChanges><FrequencyChange><Frequency dt:dt="r8">3507705</Frequency><Timestamp dt:dt="r8">6939276928</Timestamp><Current dt:dt="r8">0</Current><DateUtc dt:dt="string">2016-06-07T22:00:30Z</DateUtc></FrequencyChange></FrequencyChanges></Clock>\n	Hungry_Donkey_bar_English_2-152-1	60.018	-80	1.0.0.18	1	-1649951025	Standard	2.0.10.353	2.0.10.353	06-07-2016		18:00:30	2.0.10.248	63	Bar50-50.bmp	48	1	?	12r_4g.bmp	0r_4g.bmp	3r_2g.bmp	0r_2g.bmp	12r_4g.bmp				TrialProc	TrialList	0	cvbn	-999999	16	229550	0	c	704	230254	204	-217	-13	-46	2	9	22	5	7	63	-12	0	-3	0	4	4	2	2	-12	4
Hungry_Donkey_bar_English_2	152	1	<?xml version="1.0"?>\n<Clock xmlns:dt="urn:schemas-microsoft-com:datatypes"><Description dt:dt="string">E-Prime Primary Realtime Clock</Description><StartTime><Timestamp dt:dt="int">0</Timestamp><DateUtc dt:dt="string">2016-06-07T22:00:30Z</DateUtc></StartTime><FrequencyChanges><FrequencyChange><Frequency dt:dt="r8">3507705</Frequency><Timestamp dt:dt="r8">6939276928</Timestamp><Current dt:dt="r8">0</Current><DateUtc dt:dt="string">2016-06-07T22:00:30Z</DateUtc></FrequencyChange></FrequencyChanges></Clock>\n	Hungry_Donkey_bar_English_2-152-1	60.018	-80	1.0.0.18	1	-1649951025	Standard	2.0.10.353	2.0.10.353	06-07-2016		18:00:30	2.0.10.248	64	Bar50-50.bmp	49	2	?	0r_4g.bmp	0r_4g.bmp	0r_2g.bmp	0r_2g.bmp		0r_4g.bmp			TrialProc	TrialList	0	cvbn	-999999	16	232282	0	v	1396	233678	208	-217	-9	-46	6	9	22	10	7	64	0	0	0	0	4	4	2	2	0	4
Hungry_Donkey_bar_English_2	152	1	<?xml version="1.0"?>\n<Clock xmlns:dt="urn:schemas-microsoft-com:datatypes"><Description dt:dt="string">E-Prime Primary Realtime Clock</Description><StartTime><Timestamp dt:dt="int">0</Timestamp><DateUtc dt:dt="string">2016-06-07T22:00:30Z</DateUtc></StartTime><FrequencyChanges><FrequencyChange><Frequency dt:dt="r8">3507705</Frequency><Timestamp dt:dt="r8">6939276928</Timestamp><Current dt:dt="r8">0</Current><DateUtc dt:dt="string">2016-06-07T22:00:30Z</DateUtc></FrequencyChange></FrequencyChanges></Clock>\n	Hungry_Donkey_bar_English_2-152-1	60.018	-80	1.0.0.18	1	-1649951025	Standard	2.0.10.353	2.0.10.353	06-07-2016		18:00:30	2.0.10.248	65	Bar50-50.bmp	49	1	?	0r_4g.bmp	0r_4g.bmp	0r_2g.bmp	0r_2g.bmp	0r_4g.bmp				TrialProc	TrialList	0	cvbn	-999999	17	235715	0	c	603	236318	212	-217	-5	-42	6	9	22	8	7	65	0	0	0	0	4	4	2	2	0	4
Hungry_Donkey_bar_English_2	152	1	<?xml version="1.0"?>\n<Clock xmlns:dt="urn:schemas-microsoft-com:datatypes"><Description dt:dt="string">E-Prime Primary Realtime Clock</Description><StartTime><Timestamp dt:dt="int">0</Timestamp><DateUtc dt:dt="string">2016-06-07T22:00:30Z</DateUtc></StartTime><FrequencyChanges><FrequencyChange><Frequency dt:dt="r8">3507705</Frequency><Timestamp dt:dt="r8">6939276928</Timestamp><Current dt:dt="r8">0</Current><DateUtc dt:dt="string">2016-06-07T22:00:30Z</DateUtc></FrequencyChange></FrequencyChanges></Clock>\n	Hungry_Donkey_bar_English_2-152-1	60.018	-80	1.0.0.18	1	-1649951025	Standard	2.0.10.353	2.0.10.353	06-07-2016		18:00:30	2.0.10.248	66	Bar50-50.bmp	50	4	?	0r_4g.bmp	0r_4g.bmp	0r_2g.bmp	0r_2g.bmp				0r_2g.bmp	TrialProc	TrialList	0	cvbn	-999999	16	238347	0	n	802	239149	214	-217	-3	-42	6	9	24	6	7	66	0	0	0	0	4	4	2	2	0	2
Hungry_Donkey_bar_English_2	152	1	<?xml version="1.0"?>\n<Clock xmlns:dt="urn:schemas-microsoft-com:datatypes"><Description dt:dt="string">E-Prime Primary Realtime Clock</Description><StartTime><Timestamp dt:dt="int">0</Timestamp><DateUtc dt:dt="string">2016-06-07T22:00:30Z</DateUtc></StartTime><FrequencyChanges><FrequencyChange><Frequency dt:dt="r8">3507705</Frequency><Timestamp dt:dt="r8">6939276928</Timestamp><Current dt:dt="r8">0</Current><DateUtc dt:dt="string">2016-06-07T22:00:30Z</DateUtc></FrequencyChange></FrequencyChanges></Clock>\n	Hungry_Donkey_bar_English_2-152-1	60.018	-80	1.0.0.18	1	-1649951025	Standard	2.0.10.353	2.0.10.353	06-07-2016		18:00:30	2.0.10.248	67	Bar50-50.bmp	50	3	?	8r_4g.bmp	50r_4g.bmp	1r_2g.bmp	10r_2g.bmp			1r_2g.bmp		TrialProc	TrialList	0	cvbn	-999999	16	241180	0	b	673	241853	216	-218	-2	-42	6	10	24	1	7	67	-8	-50	-1	-10	4	4	2	2	-1	2
Hungry_Donkey_bar_English_2	152	1	<?xml version="1.0"?>\n<Clock xmlns:dt="urn:schemas-microsoft-com:datatypes"><Description dt:dt="string">E-Prime Primary Realtime Clock</Description><StartTime><Timestamp dt:dt="int">0</Timestamp><DateUtc dt:dt="string">2016-06-07T22:00:30Z</DateUtc></StartTime><FrequencyChanges><FrequencyChange><Frequency dt:dt="r8">3507705</Frequency><Timestamp dt:dt="r8">6939276928</Timestamp><Current dt:dt="r8">0</Current><DateUtc dt:dt="string">2016-06-07T22:00:30Z</DateUtc></FrequencyChange></FrequencyChanges></Clock>\n	Hungry_Donkey_bar_English_2-152-1	60.018	-80	1.0.0.18	1	-1649951025	Standard	2.0.10.353	2.0.10.353	06-07-2016		18:00:30	2.0.10.248	68	Bar50-50.bmp	50	2	?	10r_4g.bmp	0r_4g.bmp	2r_2g.bmp	0r_2g.bmp		0r_4g.bmp			TrialProc	TrialList	0	cvbn	-999999	16	243879	0	v	1670	245549	220	-218	2	-42	10	10	24	3	7	68	-10	0	-2	0	4	4	2	2	0	4
Hungry_Donkey_bar_English_2	152	1	<?xml version="1.0"?>\n<Clock xmlns:dt="urn:schemas-microsoft-com:datatypes"><Description dt:dt="string">E-Prime Primary Realtime Clock</Description><StartTime><Timestamp dt:dt="int">0</Timestamp><DateUtc dt:dt="string">2016-06-07T22:00:30Z</DateUtc></StartTime><FrequencyChanges><FrequencyChange><Frequency dt:dt="r8">3507705</Frequency><Timestamp dt:dt="r8">6939276928</Timestamp><Current dt:dt="r8">0</Current><DateUtc dt:dt="string">2016-06-07T22:00:30Z</DateUtc></FrequencyChange></FrequencyChanges></Clock>\n	Hungry_Donkey_bar_English_2-152-1	60.018	-80	1.0.0.18	1	-1649951025	Standard	2.0.10.353	2.0.10.353	06-07-2016		18:00:30	2.0.10.248	69	Bar50-50.bmp	50	1	?	10r_4g.bmp	0r_4g.bmp	2r_2g.bmp	0r_2g.bmp	10r_4g.bmp				TrialProc	TrialList	0	cvbn	-999999	16	247578	0	c	675	248253	224	-228	-4	-48	10	10	24	4	7	69	-10	0	-2	0	4	4	2	2	-10	4
Hungry_Donkey_bar_English_2	152	1	<?xml version="1.0"?>\n<Clock xmlns:dt="urn:schemas-microsoft-com:datatypes"><Description dt:dt="string">E-Prime Primary Realtime Clock</Description><StartTime><Timestamp dt:dt="int">0</Timestamp><DateUtc dt:dt="string">2016-06-07T22:00:30Z</DateUtc></StartTime><FrequencyChanges><FrequencyChange><Frequency dt:dt="r8">3507705</Frequency><Timestamp dt:dt="r8">6939276928</Timestamp><Current dt:dt="r8">0</Current><DateUtc dt:dt="string">2016-06-07T22:00:30Z</DateUtc></FrequencyChange></FrequencyChanges></Clock>\n	Hungry_Donkey_bar_English_2-152-1	60.018	-80	1.0.0.18	1	-1649951025	Standard	2.0.10.353	2.0.10.353	06-07-2016		18:00:30	2.0.10.248	70	Bar50-50.bmp	50	1	?	0r_4g.bmp	0r_4g.bmp	0r_2g.bmp	0r_2g.bmp	0r_4g.bmp				TrialProc	TrialList	0	cvbn	-999999	16	250277	0	c	1256	251533	228	-228	0	-44	10	10	24	9	7	70	0	0	0	0	4	4	2	2	0	4
Hungry_Donkey_bar_English_2	152	1	<?xml version="1.0"?>\n<Clock xmlns:dt="urn:schemas-microsoft-com:datatypes"><Description dt:dt="string">E-Prime Primary Realtime Clock</Description><StartTime><Timestamp dt:dt="int">0</Timestamp><DateUtc dt:dt="string">2016-06-07T22:00:30Z</DateUtc></StartTime><FrequencyChanges><FrequencyChange><Frequency dt:dt="r8">3507705</Frequency><Timestamp dt:dt="r8">6939276928</Timestamp><Current dt:dt="r8">0</Current><DateUtc dt:dt="string">2016-06-07T22:00:30Z</DateUtc></FrequencyChange></FrequencyChanges></Clock>\n	Hungry_Donkey_bar_English_2-152-1	60.018	-80	1.0.0.18	1	-1649951025	Standard	2.0.10.353	2.0.10.353	06-07-2016		18:00:30	2.0.10.248	71	Bar50-50.bmp	50	2	?	12r_4g.bmp	0r_4g.bmp	3r_2g.bmp	0r_2g.bmp		0r_4g.bmp			TrialProc	TrialList	0	cvbn	-999999	16	253559	0	v	406	253965	232	-228	4	-44	14	10	24	5	8	71	-12	0	-3	0	4	4	2	2	0	4
Hungry_Donkey_bar_English_2	152	1	<?xml version="1.0"?>\n<Clock xmlns:dt="urn:schemas-microsoft-com:datatypes"><Description dt:dt="string">E-Prime Primary Realtime Clock</Description><StartTime><Timestamp dt:dt="int">0</Timestamp><DateUtc dt:dt="string">2016-06-07T22:00:30Z</DateUtc></StartTime><FrequencyChanges><FrequencyChange><Frequency dt:dt="r8">3507705</Frequency><Timestamp dt:dt="r8">6939276928</Timestamp><Current dt:dt="r8">0</Current><DateUtc dt:dt="string">2016-06-07T22:00:30Z</DateUtc></FrequencyChange></FrequencyChanges></Clock>\n	Hungry_Donkey_bar_English_2-152-1	60.018	-80	1.0.0.18	1	-1649951025	Standard	2.0.10.353	2.0.10.353	06-07-2016		18:00:30	2.0.10.248	72	Bar50-50.bmp	50	4	?	8r_4g.bmp	50r_4g.bmp	1r_2g.bmp	10r_2g.bmp				10r_2g.bmp	TrialProc	TrialList	0	cvbn	-999999	16	255992	0	n	420	256412	234	-238	-4	-44	14	10	16	1	8	72	-8	-50	-1	-10	4	4	2	2	-10	2
Hungry_Donkey_bar_English_2	152	1	<?xml version="1.0"?>\n<Clock xmlns:dt="urn:schemas-microsoft-com:datatypes"><Description dt:dt="string">E-Prime Primary Realtime Clock</Description><StartTime><Timestamp dt:dt="int">0</Timestamp><DateUtc dt:dt="string">2016-06-07T22:00:30Z</DateUtc></StartTime><FrequencyChanges><FrequencyChange><Frequency dt:dt="r8">3507705</Frequency><Timestamp dt:dt="r8">6939276928</Timestamp><Current dt:dt="r8">0</Current><DateUtc dt:dt="string">2016-06-07T22:00:30Z</DateUtc></FrequencyChange></FrequencyChanges></Clock>\n	Hungry_Donkey_bar_English_2-152-1	60.018	-80	1.0.0.18	1	-1649951025	Standard	2.0.10.353	2.0.10.353	06-07-2016		18:00:30	2.0.10.248	73	Bar50-50.bmp	50	3	?	10r_4g.bmp	0r_4g.bmp	2r_2g.bmp	0r_2g.bmp			2r_2g.bmp		TrialProc	TrialList	0	cvbn	-999999	16	258458	0	b	354	258812	236	-240	-4	-44	14	10	16	2	8	73	-10	0	-2	0	4	4	2	2	-2	2
Hungry_Donkey_bar_English_2	152	1	<?xml version="1.0"?>\n<Clock xmlns:dt="urn:schemas-microsoft-com:datatypes"><Description dt:dt="string">E-Prime Primary Realtime Clock</Description><StartTime><Timestamp dt:dt="int">0</Timestamp><DateUtc dt:dt="string">2016-06-07T22:00:30Z</DateUtc></StartTime><FrequencyChanges><FrequencyChange><Frequency dt:dt="r8">3507705</Frequency><Timestamp dt:dt="r8">6939276928</Timestamp><Current dt:dt="r8">0</Current><DateUtc dt:dt="string">2016-06-07T22:00:30Z</DateUtc></FrequencyChange></FrequencyChanges></Clock>\n	Hungry_Donkey_bar_English_2-152-1	60.018	-80	1.0.0.18	1	-1649951025	Standard	2.0.10.353	2.0.10.353	06-07-2016		18:00:30	2.0.10.248	74	Bar50-50.bmp	49	1	?	10r_4g.bmp	0r_4g.bmp	2r_2g.bmp	0r_2g.bmp	10r_4g.bmp				TrialProc	TrialList	0	cvbn	-999999	17	260841	0	c	499	261340	240	-250	-10	-50	14	10	16	3	8	74	-10	0	-2	0	4	4	2	2	-10	4
Hungry_Donkey_bar_English_2	152	1	<?xml version="1.0"?>\n<Clock xmlns:dt="urn:schemas-microsoft-com:datatypes"><Description dt:dt="string">E-Prime Primary Realtime Clock</Description><StartTime><Timestamp dt:dt="int">0</Timestamp><DateUtc dt:dt="string">2016-06-07T22:00:30Z</DateUtc></StartTime><FrequencyChanges><FrequencyChange><Frequency dt:dt="r8">3507705</Frequency><Timestamp dt:dt="r8">6939276928</Timestamp><Current dt:dt="r8">0</Current><DateUtc dt:dt="string">2016-06-07T22:00:30Z</DateUtc></FrequencyChange></FrequencyChanges></Clock>\n	Hungry_Donkey_bar_English_2-152-1	60.018	-80	1.0.0.18	1	-1649951025	Standard	2.0.10.353	2.0.10.353	06-07-2016		18:00:30	2.0.10.248	75	Bar50-50.bmp	49	2	?	0r_4g.bmp	0r_4g.bmp	0r_2g.bmp	0r_2g.bmp		0r_4g.bmp			TrialProc	TrialList	0	cvbn	-999999	16	263373	0	v	511	263884	244	-250	-6	-50	18	10	16	10	8	75	0	0	0	0	4	4	2	2	0	4
Hungry_Donkey_bar_English_2	152	1	<?xml version="1.0"?>\n<Clock xmlns:dt="urn:schemas-microsoft-com:datatypes"><Description dt:dt="string">E-Prime Primary Realtime Clock</Description><StartTime><Timestamp dt:dt="int">0</Timestamp><DateUtc dt:dt="string">2016-06-07T22:00:30Z</DateUtc></StartTime><FrequencyChanges><FrequencyChange><Frequency dt:dt="r8">3507705</Frequency><Timestamp dt:dt="r8">6939276928</Timestamp><Current dt:dt="r8">0</Current><DateUtc dt:dt="string">2016-06-07T22:00:30Z</DateUtc></FrequencyChange></FrequencyChanges></Clock>\n	Hungry_Donkey_bar_English_2-152-1	60.018	-80	1.0.0.18	1	-1649951025	Standard	2.0.10.353	2.0.10.353	06-07-2016		18:00:30	2.0.10.248	76	Bar50-50.bmp	50	4	?	0r_4g.bmp	0r_4g.bmp	0r_2g.bmp	0r_2g.bmp				0r_2g.bmp	TrialProc	TrialList	0	cvbn	-999999	16	265922	0	n	778	266700	246	-250	-4	-50	18	10	18	9	8	76	0	0	0	0	4	4	2	2	0	2
Hungry_Donkey_bar_English_2	152	1	<?xml version="1.0"?>\n<Clock xmlns:dt="urn:schemas-microsoft-com:datatypes"><Description dt:dt="string">E-Prime Primary Realtime Clock</Description><StartTime><Timestamp dt:dt="int">0</Timestamp><DateUtc dt:dt="string">2016-06-07T22:00:30Z</DateUtc></StartTime><FrequencyChanges><FrequencyChange><Frequency dt:dt="r8">3507705</Frequency><Timestamp dt:dt="r8">6939276928</Timestamp><Current dt:dt="r8">0</Current><DateUtc dt:dt="string">2016-06-07T22:00:30Z</DateUtc></FrequencyChange></FrequencyChanges></Clock>\n	Hungry_Donkey_bar_English_2-152-1	60.018	-80	1.0.0.18	1	-1649951025	Standard	2.0.10.353	2.0.10.353	06-07-2016		18:00:30	2.0.10.248	77	Bar50-50.bmp	50	3	?	0r_4g.bmp	0r_4g.bmp	0r_2g.bmp	0r_2g.bmp			0r_2g.bmp		TrialProc	TrialList	0	cvbn	-999999	16	268738	0	b	666	269404	248	-250	-2	-50	18	12	18	6	8	77	0	0	0	0	4	4	2	2	0	2
Hungry_Donkey_bar_English_2	152	1	<?xml version="1.0"?>\n<Clock xmlns:dt="urn:schemas-microsoft-com:datatypes"><Description dt:dt="string">E-Prime Primary Realtime Clock</Description><StartTime><Timestamp dt:dt="int">0</Timestamp><DateUtc dt:dt="string">2016-06-07T22:00:30Z</DateUtc></StartTime><FrequencyChanges><FrequencyChange><Frequency dt:dt="r8">3507705</Frequency><Timestamp dt:dt="r8">6939276928</Timestamp><Current dt:dt="r8">0</Current><DateUtc dt:dt="string">2016-06-07T22:00:30Z</DateUtc></FrequencyChange></FrequencyChanges></Clock>\n	Hungry_Donkey_bar_English_2-152-1	60.018	-80	1.0.0.18	1	-1649951025	Standard	2.0.10.353	2.0.10.353	06-07-2016		18:00:30	2.0.10.248	78	Bar50-50.bmp	50	1	?	0r_4g.bmp	0r_4g.bmp	0r_2g.bmp	0r_2g.bmp	0r_4g.bmp				TrialProc	TrialList	0	cvbn	-999999	16	271437	0	c	910	272347	252	-250	2	-46	18	12	18	8	8	78	0	0	0	0	4	4	2	2	0	4
Hungry_Donkey_bar_English_2	152	1	<?xml version="1.0"?>\n<Clock xmlns:dt="urn:schemas-microsoft-com:datatypes"><Description dt:dt="string">E-Prime Primary Realtime Clock</Description><StartTime><Timestamp dt:dt="int">0</Timestamp><DateUtc dt:dt="string">2016-06-07T22:00:30Z</DateUtc></StartTime><FrequencyChanges><FrequencyChange><Frequency dt:dt="r8">3507705</Frequency><Timestamp dt:dt="r8">6939276928</Timestamp><Current dt:dt="r8">0</Current><DateUtc dt:dt="string">2016-06-07T22:00:30Z</DateUtc></FrequencyChange></FrequencyChanges></Clock>\n	Hungry_Donkey_bar_English_2-152-1	60.018	-80	1.0.0.18	1	-1649951025	Standard	2.0.10.353	2.0.10.353	06-07-2016		18:00:30	2.0.10.248	79	Bar50-50.bmp	51	2	?	0r_4g.bmp	0r_4g.bmp	0r_2g.bmp	0r_2g.bmp		0r_4g.bmp			TrialProc	TrialList	0	cvbn	-999999	17	274387	0	v	568	274955	256	-250	6	-46	22	12	18	7	8	79	0	0	0	0	4	4	2	2	0	4
Hungry_Donkey_bar_English_2	152	1	<?xml version="1.0"?>\n<Clock xmlns:dt="urn:schemas-microsoft-com:datatypes"><Description dt:dt="string">E-Prime Primary Realtime Clock</Description><StartTime><Timestamp dt:dt="int">0</Timestamp><DateUtc dt:dt="string">2016-06-07T22:00:30Z</DateUtc></StartTime><FrequencyChanges><FrequencyChange><Frequency dt:dt="r8">3507705</Frequency><Timestamp dt:dt="r8">6939276928</Timestamp><Current dt:dt="r8">0</Current><DateUtc dt:dt="string">2016-06-07T22:00:30Z</DateUtc></FrequencyChange></FrequencyChanges></Clock>\n	Hungry_Donkey_bar_English_2-152-1	60.018	-80	1.0.0.18	1	-1649951025	Standard	2.0.10.353	2.0.10.353	06-07-2016		18:00:30	2.0.10.248	80	Bar50-50.bmp	51	4	?	10r_4g.bmp	0r_4g.bmp	2r_2g.bmp	0r_2g.bmp				0r_2g.bmp	TrialProc	TrialList	0	cvbn	-999999	16	276986	0	n	1441	278427	258	-250	8	-46	22	12	20	4	8	80	-10	0	-2	0	4	4	2	2	0	2
Hungry_Donkey_bar_English_2	152	1	<?xml version="1.0"?>\n<Clock xmlns:dt="urn:schemas-microsoft-com:datatypes"><Description dt:dt="string">E-Prime Primary Realtime Clock</Description><StartTime><Timestamp dt:dt="int">0</Timestamp><DateUtc dt:dt="string">2016-06-07T22:00:30Z</DateUtc></StartTime><FrequencyChanges><FrequencyChange><Frequency dt:dt="r8">3507705</Frequency><Timestamp dt:dt="r8">6939276928</Timestamp><Current dt:dt="r8">0</Current><DateUtc dt:dt="string">2016-06-07T22:00:30Z</DateUtc></FrequencyChange></FrequencyChanges></Clock>\n	Hungry_Donkey_bar_English_2-152-1	60.018	-80	1.0.0.18	1	-1649951025	Standard	2.0.10.353	2.0.10.353	06-07-2016		18:00:30	2.0.10.248	81	Bar50-50.bmp	50	1	?	8r_4g.bmp	50r_4g.bmp	1r_2g.bmp	10r_2g.bmp	8r_4g.bmp				TrialProc	TrialList	0	cvbn	-999999	16	280468	0	c	1495	281963	262	-258	4	-50	22	12	20	1	9	81	-8	-50	-1	-10	4	4	2	2	-8	4
Hungry_Donkey_bar_English_2	152	1	<?xml version="1.0"?>\n<Clock xmlns:dt="urn:schemas-microsoft-com:datatypes"><Description dt:dt="string">E-Prime Primary Realtime Clock</Description><StartTime><Timestamp dt:dt="int">0</Timestamp><DateUtc dt:dt="string">2016-06-07T22:00:30Z</DateUtc></StartTime><FrequencyChanges><FrequencyChange><Frequency dt:dt="r8">3507705</Frequency><Timestamp dt:dt="r8">6939276928</Timestamp><Current dt:dt="r8">0</Current><DateUtc dt:dt="string">2016-06-07T22:00:30Z</DateUtc></FrequencyChange></FrequencyChanges></Clock>\n	Hungry_Donkey_bar_English_2-152-1	60.018	-80	1.0.0.18	1	-1649951025	Standard	2.0.10.353	2.0.10.353	06-07-2016		18:00:30	2.0.10.248	82	Bar50-50.bmp	51	2	?	12r_4g.bmp	0r_4g.bmp	3r_2g.bmp	0r_2g.bmp		0r_4g.bmp			TrialProc	TrialList	0	cvbn	-999999	16	284000	0	v	2027	286027	266	-258	8	-50	26	12	20	5	9	82	-12	0	-3	0	4	4	2	2	0	4
Hungry_Donkey_bar_English_2	152	1	<?xml version="1.0"?>\n<Clock xmlns:dt="urn:schemas-microsoft-com:datatypes"><Description dt:dt="string">E-Prime Primary Realtime Clock</Description><StartTime><Timestamp dt:dt="int">0</Timestamp><DateUtc dt:dt="string">2016-06-07T22:00:30Z</DateUtc></StartTime><FrequencyChanges><FrequencyChange><Frequency dt:dt="r8">3507705</Frequency><Timestamp dt:dt="r8">6939276928</Timestamp><Current dt:dt="r8">0</Current><DateUtc dt:dt="string">2016-06-07T22:00:30Z</DateUtc></FrequencyChange></FrequencyChanges></Clock>\n	Hungry_Donkey_bar_English_2-152-1	60.018	-80	1.0.0.18	1	-1649951025	Standard	2.0.10.353	2.0.10.353	06-07-2016		18:00:30	2.0.10.248	83	Bar50-50.bmp	51	1	?	0r_4g.bmp	0r_4g.bmp	0r_2g.bmp	0r_2g.bmp	0r_4g.bmp				TrialProc	TrialList	0	cvbn	-999999	16	288066	0	c	1208	289274	270	-258	12	-46	26	12	20	6	9	83	0	0	0	0	4	4	2	2	0	4
Hungry_Donkey_bar_English_2	152	1	<?xml version="1.0"?>\n<Clock xmlns:dt="urn:schemas-microsoft-com:datatypes"><Description dt:dt="string">E-Prime Primary Realtime Clock</Description><StartTime><Timestamp dt:dt="int">0</Timestamp><DateUtc dt:dt="string">2016-06-07T22:00:30Z</DateUtc></StartTime><FrequencyChanges><FrequencyChange><Frequency dt:dt="r8">3507705</Frequency><Timestamp dt:dt="r8">6939276928</Timestamp><Current dt:dt="r8">0</Current><DateUtc dt:dt="string">2016-06-07T22:00:30Z</DateUtc></FrequencyChange></FrequencyChanges></Clock>\n	Hungry_Donkey_bar_English_2-152-1	60.018	-80	1.0.0.18	1	-1649951025	Standard	2.0.10.353	2.0.10.353	06-07-2016		18:00:30	2.0.10.248	84	Bar50-50.bmp	51	4	?	0r_4g.bmp	0r_4g.bmp	0r_2g.bmp	0r_2g.bmp				0r_2g.bmp	TrialProc	TrialList	0	cvbn	-999999	16	291298	0	n	1304	292602	272	-258	14	-46	26	12	22	7	9	84	0	0	0	0	4	4	2	2	0	2
Hungry_Donkey_bar_English_2	152	1	<?xml version="1.0"?>\n<Clock xmlns:dt="urn:schemas-microsoft-com:datatypes"><Description dt:dt="string">E-Prime Primary Realtime Clock</Description><StartTime><Timestamp dt:dt="int">0</Timestamp><DateUtc dt:dt="string">2016-06-07T22:00:30Z</DateUtc></StartTime><FrequencyChanges><FrequencyChange><Frequency dt:dt="r8">3507705</Frequency><Timestamp dt:dt="r8">6939276928</Timestamp><Current dt:dt="r8">0</Current><DateUtc dt:dt="string">2016-06-07T22:00:30Z</DateUtc></FrequencyChange></FrequencyChanges></Clock>\n	Hungry_Donkey_bar_English_2-152-1	60.018	-80	1.0.0.18	1	-1649951025	Standard	2.0.10.353	2.0.10.353	06-07-2016		18:00:30	2.0.10.248	85	Bar50-50.bmp	51	3	?	10r_4g.bmp	0r_4g.bmp	2r_2g.bmp	0r_2g.bmp			2r_2g.bmp		TrialProc	TrialList	0	cvbn	-999999	17	294631	0	b	659	295290	274	-260	14	-46	26	12	22	4	9	85	-10	0	-2	0	4	4	2	2	-2	2
Hungry_Donkey_bar_English_2	152	1	<?xml version="1.0"?>\n<Clock xmlns:dt="urn:schemas-microsoft-com:datatypes"><Description dt:dt="string">E-Prime Primary Realtime Clock</Description><StartTime><Timestamp dt:dt="int">0</Timestamp><DateUtc dt:dt="string">2016-06-07T22:00:30Z</DateUtc></StartTime><FrequencyChanges><FrequencyChange><Frequency dt:dt="r8">3507705</Frequency><Timestamp dt:dt="r8">6939276928</Timestamp><Current dt:dt="r8">0</Current><DateUtc dt:dt="string">2016-06-07T22:00:30Z</DateUtc></FrequencyChange></FrequencyChanges></Clock>\n	Hungry_Donkey_bar_English_2-152-1	60.018	-80	1.0.0.18	1	-1649951025	Standard	2.0.10.353	2.0.10.353	06-07-2016		18:00:30	2.0.10.248	86	Bar50-50.bmp	52	1	?	0r_4g.bmp	0r_4g.bmp	0r_2g.bmp	0r_2g.bmp	0r_4g.bmp				TrialProc	TrialList	0	cvbn	-999999	16	297330	0	c	1576	298906	278	-260	18	-42	26	12	22	10	9	86	0	0	0	0	4	4	2	2	0	4
Hungry_Donkey_bar_English_2	152	1	<?xml version="1.0"?>\n<Clock xmlns:dt="urn:schemas-microsoft-com:datatypes"><Description dt:dt="string">E-Prime Primary Realtime Clock</Description><StartTime><Timestamp dt:dt="int">0</Timestamp><DateUtc dt:dt="string">2016-06-07T22:00:30Z</DateUtc></StartTime><FrequencyChanges><FrequencyChange><Frequency dt:dt="r8">3507705</Frequency><Timestamp dt:dt="r8">6939276928</Timestamp><Current dt:dt="r8">0</Current><DateUtc dt:dt="string">2016-06-07T22:00:30Z</DateUtc></FrequencyChange></FrequencyChanges></Clock>\n	Hungry_Donkey_bar_English_2-152-1	60.018	-80	1.0.0.18	1	-1649951025	Standard	2.0.10.353	2.0.10.353	06-07-2016		18:00:30	2.0.10.248	87	Bar50-50.bmp	52	2	?	0r_4g.bmp	0r_4g.bmp	0r_2g.bmp	0r_2g.bmp		0r_4g.bmp			TrialProc	TrialList	0	cvbn	-999999	16	300945	0	v	665	301610	282	-260	22	-42	30	12	22	9	9	87	0	0	0	0	4	4	2	2	0	4
Hungry_Donkey_bar_English_2	152	1	<?xml version="1.0"?>\n<Clock xmlns:dt="urn:schemas-microsoft-com:datatypes"><Description dt:dt="string">E-Prime Primary Realtime Clock</Description><StartTime><Timestamp dt:dt="int">0</Timestamp><DateUtc dt:dt="string">2016-06-07T22:00:30Z</DateUtc></StartTime><FrequencyChanges><FrequencyChange><Frequency dt:dt="r8">3507705</Frequency><Timestamp dt:dt="r8">6939276928</Timestamp><Current dt:dt="r8">0</Current><DateUtc dt:dt="string">2016-06-07T22:00:30Z</DateUtc></FrequencyChange></FrequencyChanges></Clock>\n	Hungry_Donkey_bar_English_2-152-1	60.018	-80	1.0.0.18	1	-1649951025	Standard	2.0.10.353	2.0.10.353	06-07-2016		18:00:30	2.0.10.248	88	Bar50-50.bmp	52	2	?	10r_4g.bmp	0r_4g.bmp	2r_2g.bmp	0r_2g.bmp		0r_4g.bmp			TrialProc	TrialList	0	cvbn	-999999	17	303645	0	v	1069	304714	286	-260	26	-42	34	12	22	2	9	88	-10	0	-2	0	4	4	2	2	0	4
Hungry_Donkey_bar_English_2	152	1	<?xml version="1.0"?>\n<Clock xmlns:dt="urn:schemas-microsoft-com:datatypes"><Description dt:dt="string">E-Prime Primary Realtime Clock</Description><StartTime><Timestamp dt:dt="int">0</Timestamp><DateUtc dt:dt="string">2016-06-07T22:00:30Z</DateUtc></StartTime><FrequencyChanges><FrequencyChange><Frequency dt:dt="r8">3507705</Frequency><Timestamp dt:dt="r8">6939276928</Timestamp><Current dt:dt="r8">0</Current><DateUtc dt:dt="string">2016-06-07T22:00:30Z</DateUtc></FrequencyChange></FrequencyChanges></Clock>\n	Hungry_Donkey_bar_English_2-152-1	60.018	-80	1.0.0.18	1	-1649951025	Standard	2.0.10.353	2.0.10.353	06-07-2016		18:00:30	2.0.10.248	89	Bar50-50.bmp	53	2	?	10r_4g.bmp	0r_4g.bmp	2r_2g.bmp	0r_2g.bmp		0r_4g.bmp			TrialProc	TrialList	0	cvbn	-999999	16	306744	0	v	625	307369	290	-260	30	-42	38	12	22	3	9	89	-10	0	-2	0	4	4	2	2	0	4
Hungry_Donkey_bar_English_2	152	1	<?xml version="1.0"?>\n<Clock xmlns:dt="urn:schemas-microsoft-com:datatypes"><Description dt:dt="string">E-Prime Primary Realtime Clock</Description><StartTime><Timestamp dt:dt="int">0</Timestamp><DateUtc dt:dt="string">2016-06-07T22:00:30Z</DateUtc></StartTime><FrequencyChanges><FrequencyChange><Frequency dt:dt="r8">3507705</Frequency><Timestamp dt:dt="r8">6939276928</Timestamp><Current dt:dt="r8">0</Current><DateUtc dt:dt="string">2016-06-07T22:00:30Z</DateUtc></FrequencyChange></FrequencyChanges></Clock>\n	Hungry_Donkey_bar_English_2-152-1	60.018	-80	1.0.0.18	1	-1649951025	Standard	2.0.10.353	2.0.10.353	06-07-2016		18:00:30	2.0.10.248	90	Bar50-50.bmp	53	2	?	0r_4g.bmp	0r_4g.bmp	0r_2g.bmp	0r_2g.bmp		0r_4g.bmp			TrialProc	TrialList	0	cvbn	-999999	17	309410	0	v	407	309817	294	-260	34	-42	42	12	22	8	9	90	0	0	0	0	4	4	2	2	0	4
Hungry_Donkey_bar_English_2	152	1	<?xml version="1.0"?>\n<Clock xmlns:dt="urn:schemas-microsoft-com:datatypes"><Description dt:dt="string">E-Prime Primary Realtime Clock</Description><StartTime><Timestamp dt:dt="int">0</Timestamp><DateUtc dt:dt="string">2016-06-07T22:00:30Z</DateUtc></StartTime><FrequencyChanges><FrequencyChange><Frequency dt:dt="r8">3507705</Frequency><Timestamp dt:dt="r8">6939276928</Timestamp><Current dt:dt="r8">0</Current><DateUtc dt:dt="string">2016-06-07T22:00:30Z</DateUtc></FrequencyChange></FrequencyChanges></Clock>\n	Hungry_Donkey_bar_English_2-152-1	60.018	-80	1.0.0.18	1	-1649951025	Standard	2.0.10.353	2.0.10.353	06-07-2016		18:00:30	2.0.10.248	91	Bar50-50.bmp	53	2	?	0r_4g.bmp	0r_4g.bmp	0r_2g.bmp	0r_2g.bmp		0r_4g.bmp			TrialProc	TrialList	0	cvbn	-999999	16	311859	0	v	406	312265	298	-260	38	-42	46	12	22	9	10	91	0	0	0	0	4	4	2	2	0	4
Hungry_Donkey_bar_English_2	152	1	<?xml version="1.0"?>\n<Clock xmlns:dt="urn:schemas-microsoft-com:datatypes"><Description dt:dt="string">E-Prime Primary Realtime Clock</Description><StartTime><Timestamp dt:dt="int">0</Timestamp><DateUtc dt:dt="string">2016-06-07T22:00:30Z</DateUtc></StartTime><FrequencyChanges><FrequencyChange><Frequency dt:dt="r8">3507705</Frequency><Timestamp dt:dt="r8">6939276928</Timestamp><Current dt:dt="r8">0</Current><DateUtc dt:dt="string">2016-06-07T22:00:30Z</DateUtc></FrequencyChange></FrequencyChanges></Clock>\n	Hungry_Donkey_bar_English_2-152-1	60.018	-80	1.0.0.18	1	-1649951025	Standard	2.0.10.353	2.0.10.353	06-07-2016		18:00:30	2.0.10.248	92	Bar50-50.bmp	54	2	?	12r_4g.bmp	0r_4g.bmp	3r_2g.bmp	0r_2g.bmp		0r_4g.bmp			TrialProc	TrialList	0	cvbn	-999999	16	314291	0	v	310	314601	302	-260	42	-42	50	12	22	5	10	92	-12	0	-3	0	4	4	2	2	0	4
Hungry_Donkey_bar_English_2	152	1	<?xml version="1.0"?>\n<Clock xmlns:dt="urn:schemas-microsoft-com:datatypes"><Description dt:dt="string">E-Prime Primary Realtime Clock</Description><StartTime><Timestamp dt:dt="int">0</Timestamp><DateUtc dt:dt="string">2016-06-07T22:00:30Z</DateUtc></StartTime><FrequencyChanges><FrequencyChange><Frequency dt:dt="r8">3507705</Frequency><Timestamp dt:dt="r8">6939276928</Timestamp><Current dt:dt="r8">0</Current><DateUtc dt:dt="string">2016-06-07T22:00:30Z</DateUtc></FrequencyChange></FrequencyChanges></Clock>\n	Hungry_Donkey_bar_English_2-152-1	60.018	-80	1.0.0.18	1	-1649951025	Standard	2.0.10.353	2.0.10.353	06-07-2016		18:00:30	2.0.10.248	93	Bar50-50.bmp	54	2	?	10r_4g.bmp	0r_4g.bmp	2r_2g.bmp	0r_2g.bmp		0r_4g.bmp			TrialProc	TrialList	0	cvbn	-999999	16	316641	0	v	344	316985	306	-260	46	-42	54	12	22	3	10	93	-10	0	-2	0	4	4	2	2	0	4
Hungry_Donkey_bar_English_2	152	1	<?xml version="1.0"?>\n<Clock xmlns:dt="urn:schemas-microsoft-com:datatypes"><Description dt:dt="string">E-Prime Primary Realtime Clock</Description><StartTime><Timestamp dt:dt="int">0</Timestamp><DateUtc dt:dt="string">2016-06-07T22:00:30Z</DateUtc></StartTime><FrequencyChanges><FrequencyChange><Frequency dt:dt="r8">3507705</Frequency><Timestamp dt:dt="r8">6939276928</Timestamp><Current dt:dt="r8">0</Current><DateUtc dt:dt="string">2016-06-07T22:00:30Z</DateUtc></FrequencyChange></FrequencyChanges></Clock>\n	Hungry_Donkey_bar_English_2-152-1	60.018	-80	1.0.0.18	1	-1649951025	Standard	2.0.10.353	2.0.10.353	06-07-2016		18:00:30	2.0.10.248	94	Bar50-50.bmp	54	2	?	0r_4g.bmp	0r_4g.bmp	0r_2g.bmp	0r_2g.bmp		0r_4g.bmp			TrialProc	TrialList	0	cvbn	-999999	16	319023	0	v	330	319353	310	-260	50	-42	58	12	22	8	10	94	0	0	0	0	4	4	2	2	0	4
Hungry_Donkey_bar_English_2	152	1	<?xml version="1.0"?>\n<Clock xmlns:dt="urn:schemas-microsoft-com:datatypes"><Description dt:dt="string">E-Prime Primary Realtime Clock</Description><StartTime><Timestamp dt:dt="int">0</Timestamp><DateUtc dt:dt="string">2016-06-07T22:00:30Z</DateUtc></StartTime><FrequencyChanges><FrequencyChange><Frequency dt:dt="r8">3507705</Frequency><Timestamp dt:dt="r8">6939276928</Timestamp><Current dt:dt="r8">0</Current><DateUtc dt:dt="string">2016-06-07T22:00:30Z</DateUtc></FrequencyChange></FrequencyChanges></Clock>\n	Hungry_Donkey_bar_English_2-152-1	60.018	-80	1.0.0.18	1	-1649951025	Standard	2.0.10.353	2.0.10.353	06-07-2016		18:00:30	2.0.10.248	95	Bar50-50.bmp	55	2	?	0r_4g.bmp	0r_4g.bmp	0r_2g.bmp	0r_2g.bmp		0r_4g.bmp			TrialProc	TrialList	0	cvbn	-999999	16	321389	0	v	332	321721	314	-260	54	-42	62	12	22	7	10	95	0	0	0	0	4	4	2	2	0	4
Hungry_Donkey_bar_English_2	152	1	<?xml version="1.0"?>\n<Clock xmlns:dt="urn:schemas-microsoft-com:datatypes"><Description dt:dt="string">E-Prime Primary Realtime Clock</Description><StartTime><Timestamp dt:dt="int">0</Timestamp><DateUtc dt:dt="string">2016-06-07T22:00:30Z</DateUtc></StartTime><FrequencyChanges><FrequencyChange><Frequency dt:dt="r8">3507705</Frequency><Timestamp dt:dt="r8">6939276928</Timestamp><Current dt:dt="r8">0</Current><DateUtc dt:dt="string">2016-06-07T22:00:30Z</DateUtc></FrequencyChange></FrequencyChanges></Clock>\n	Hungry_Donkey_bar_English_2-152-1	60.018	-80	1.0.0.18	1	-1649951025	Standard	2.0.10.353	2.0.10.353	06-07-2016		18:00:30	2.0.10.248	96	Bar50-50.bmp	55	2	?	0r_4g.bmp	0r_4g.bmp	0r_2g.bmp	0r_2g.bmp		0r_4g.bmp			TrialProc	TrialList	0	cvbn	-999999	16	323755	0	v	302	324057	318	-260	58	-42	66	12	22	6	10	96	0	0	0	0	4	4	2	2	0	4
Hungry_Donkey_bar_English_2	152	1	<?xml version="1.0"?>\n<Clock xmlns:dt="urn:schemas-microsoft-com:datatypes"><Description dt:dt="string">E-Prime Primary Realtime Clock</Description><StartTime><Timestamp dt:dt="int">0</Timestamp><DateUtc dt:dt="string">2016-06-07T22:00:30Z</DateUtc></StartTime><FrequencyChanges><FrequencyChange><Frequency dt:dt="r8">3507705</Frequency><Timestamp dt:dt="r8">6939276928</Timestamp><Current dt:dt="r8">0</Current><DateUtc dt:dt="string">2016-06-07T22:00:30Z</DateUtc></FrequencyChange></FrequencyChanges></Clock>\n	Hungry_Donkey_bar_English_2-152-1	60.018	-80	1.0.0.18	1	-1649951025	Standard	2.0.10.353	2.0.10.353	06-07-2016		18:00:30	2.0.10.248	97	Bar50-50.bmp	51	2	?	8r_4g.bmp	50r_4g.bmp	1r_2g.bmp	10r_2g.bmp		50r_4g.bmp			TrialProc	TrialList	0	cvbn	-999999	16	326088	0	v	576	326664	322	-310	12	-42	20	12	22	1	10	97	-8	-50	-1	-10	4	4	2	2	-50	4
Hungry_Donkey_bar_English_2	152	1	<?xml version="1.0"?>\n<Clock xmlns:dt="urn:schemas-microsoft-com:datatypes"><Description dt:dt="string">E-Prime Primary Realtime Clock</Description><StartTime><Timestamp dt:dt="int">0</Timestamp><DateUtc dt:dt="string">2016-06-07T22:00:30Z</DateUtc></StartTime><FrequencyChanges><FrequencyChange><Frequency dt:dt="r8">3507705</Frequency><Timestamp dt:dt="r8">6939276928</Timestamp><Current dt:dt="r8">0</Current><DateUtc dt:dt="string">2016-06-07T22:00:30Z</DateUtc></FrequencyChange></FrequencyChanges></Clock>\n	Hungry_Donkey_bar_English_2-152-1	60.018	-80	1.0.0.18	1	-1649951025	Standard	2.0.10.353	2.0.10.353	06-07-2016		18:00:30	2.0.10.248	98	Bar50-50.bmp	51	1	?	0r_4g.bmp	0r_4g.bmp	0r_2g.bmp	0r_2g.bmp	0r_4g.bmp				TrialProc	TrialList	0	cvbn	-999999	16	328704	0	c	3864	332568	326	-310	16	-38	20	12	22	10	10	98	0	0	0	0	4	4	2	2	0	4
Hungry_Donkey_bar_English_2	152	1	<?xml version="1.0"?>\n<Clock xmlns:dt="urn:schemas-microsoft-com:datatypes"><Description dt:dt="string">E-Prime Primary Realtime Clock</Description><StartTime><Timestamp dt:dt="int">0</Timestamp><DateUtc dt:dt="string">2016-06-07T22:00:30Z</DateUtc></StartTime><FrequencyChanges><FrequencyChange><Frequency dt:dt="r8">3507705</Frequency><Timestamp dt:dt="r8">6939276928</Timestamp><Current dt:dt="r8">0</Current><DateUtc dt:dt="string">2016-06-07T22:00:30Z</DateUtc></FrequencyChange></FrequencyChanges></Clock>\n	Hungry_Donkey_bar_English_2-152-1	60.018	-80	1.0.0.18	1	-1649951025	Standard	2.0.10.353	2.0.10.353	06-07-2016		18:00:30	2.0.10.248	99	Bar50-50.bmp	51	1	?	10r_4g.bmp	0r_4g.bmp	2r_2g.bmp	0r_2g.bmp	10r_4g.bmp				TrialProc	TrialList	0	cvbn	-999999	16	334602	0	c	1006	335608	330	-320	10	-44	20	12	22	2	10	99	-10	0	-2	0	4	4	2	2	-10	4
Hungry_Donkey_bar_English_2	152	1	<?xml version="1.0"?>\n<Clock xmlns:dt="urn:schemas-microsoft-com:datatypes"><Description dt:dt="string">E-Prime Primary Realtime Clock</Description><StartTime><Timestamp dt:dt="int">0</Timestamp><DateUtc dt:dt="string">2016-06-07T22:00:30Z</DateUtc></StartTime><FrequencyChanges><FrequencyChange><Frequency dt:dt="r8">3507705</Frequency><Timestamp dt:dt="r8">6939276928</Timestamp><Current dt:dt="r8">0</Current><DateUtc dt:dt="string">2016-06-07T22:00:30Z</DateUtc></FrequencyChange></FrequencyChanges></Clock>\n	Hungry_Donkey_bar_English_2-152-1	60.018	-80	1.0.0.18	1	-1649951025	Standard	2.0.10.353	2.0.10.353	06-07-2016		18:00:30	2.0.10.248	100	Bar50-50.bmp	51	2	?	10r_4g.bmp	0r_4g.bmp	2r_2g.bmp	0r_2g.bmp		0r_4g.bmp			TrialProc	TrialList	0	cvbn	-999999	17	337635	0	v	325	337960	334	-320	14	-44	24	12	22	4	10	100	-10	0	-2	0	4	4	2	2	0	4
Hungry_Donkey_bar_English_2	152	1	<?xml version="1.0"?>\n<Clock xmlns:dt="urn:schemas-microsoft-com:datatypes"><Description dt:dt="string">E-Prime Primary Realtime Clock</Description><StartTime><Timestamp dt:dt="int">0</Timestamp><DateUtc dt:dt="string">2016-06-07T22:00:30Z</DateUtc></StartTime><FrequencyChanges><FrequencyChange><Frequency dt:dt="r8">3507705</Frequency><Timestamp dt:dt="r8">6939276928</Timestamp><Current dt:dt="r8">0</Current><DateUtc dt:dt="string">2016-06-07T22:00:30Z</DateUtc></FrequencyChange></FrequencyChanges></Clock>\n	Hungry_Donkey_bar_English_2-152-1	60.018	-80	1.0.0.18	1	-1649951025	Standard	2.0.10.353	2.0.10.353	06-07-2016		18:00:30	2.0.10.248	101	Bar50-50.bmp	51	2	?	10r_4g.bmp	0r_4g.bmp	2r_2g.bmp	0r_2g.bmp		0r_4g.bmp			TrialProc	TrialList	0	cvbn	-999999	17	340001	0	v	887	340888	338	-320	18	-44	28	12	22	3	11	101	-10	0	-2	0	4	4	2	2	0	4
Hungry_Donkey_bar_English_2	152	1	<?xml version="1.0"?>\n<Clock xmlns:dt="urn:schemas-microsoft-com:datatypes"><Description dt:dt="string">E-Prime Primary Realtime Clock</Description><StartTime><Timestamp dt:dt="int">0</Timestamp><DateUtc dt:dt="string">2016-06-07T22:00:30Z</DateUtc></StartTime><FrequencyChanges><FrequencyChange><Frequency dt:dt="r8">3507705</Frequency><Timestamp dt:dt="r8">6939276928</Timestamp><Current dt:dt="r8">0</Current><DateUtc dt:dt="string">2016-06-07T22:00:30Z</DateUtc></FrequencyChange></FrequencyChanges></Clock>\n	Hungry_Donkey_bar_English_2-152-1	60.018	-80	1.0.0.18	1	-1649951025	Standard	2.0.10.353	2.0.10.353	06-07-2016		18:00:30	2.0.10.248	102	Bar50-50.bmp	52	2	?	12r_4g.bmp	0r_4g.bmp	3r_2g.bmp	0r_2g.bmp		0r_4g.bmp			TrialProc	TrialList	0	cvbn	-999999	16	342916	0	v	435	343351	342	-320	22	-44	32	12	22	5	11	102	-12	0	-3	0	4	4	2	2	0	4
Hungry_Donkey_bar_English_2	152	1	<?xml version="1.0"?>\n<Clock xmlns:dt="urn:schemas-microsoft-com:datatypes"><Description dt:dt="string">E-Prime Primary Realtime Clock</Description><StartTime><Timestamp dt:dt="int">0</Timestamp><DateUtc dt:dt="string">2016-06-07T22:00:30Z</DateUtc></StartTime><FrequencyChanges><FrequencyChange><Frequency dt:dt="r8">3507705</Frequency><Timestamp dt:dt="r8">6939276928</Timestamp><Current dt:dt="r8">0</Current><DateUtc dt:dt="string">2016-06-07T22:00:30Z</DateUtc></FrequencyChange></FrequencyChanges></Clock>\n	Hungry_Donkey_bar_English_2-152-1	60.018	-80	1.0.0.18	1	-1649951025	Standard	2.0.10.353	2.0.10.353	06-07-2016		18:00:30	2.0.10.248	103	Bar50-50.bmp	52	2	?	0r_4g.bmp	0r_4g.bmp	0r_2g.bmp	0r_2g.bmp		0r_4g.bmp			TrialProc	TrialList	0	cvbn	-999999	16	345382	0	v	993	346375	346	-320	26	-44	36	12	22	9	11	103	0	0	0	0	4	4	2	2	0	4
Hungry_Donkey_bar_English_2	152	1	<?xml version="1.0"?>\n<Clock xmlns:dt="urn:schemas-microsoft-com:datatypes"><Description dt:dt="string">E-Prime Primary Realtime Clock</Description><StartTime><Timestamp dt:dt="int">0</Timestamp><DateUtc dt:dt="string">2016-06-07T22:00:30Z</DateUtc></StartTime><FrequencyChanges><FrequencyChange><Frequency dt:dt="r8">3507705</Frequency><Timestamp dt:dt="r8">6939276928</Timestamp><Current dt:dt="r8">0</Current><DateUtc dt:dt="string">2016-06-07T22:00:30Z</DateUtc></FrequencyChange></FrequencyChanges></Clock>\n	Hungry_Donkey_bar_English_2-152-1	60.018	-80	1.0.0.18	1	-1649951025	Standard	2.0.10.353	2.0.10.353	06-07-2016		18:00:30	2.0.10.248	104	Bar50-50.bmp	52	2	?	0r_4g.bmp	0r_4g.bmp	0r_2g.bmp	0r_2g.bmp		0r_4g.bmp			TrialProc	TrialList	0	cvbn	-999999	16	348415	0	v	840	349255	350	-320	30	-44	40	12	22	7	11	104	0	0	0	0	4	4	2	2	0	4
Hungry_Donkey_bar_English_2	152	1	<?xml version="1.0"?>\n<Clock xmlns:dt="urn:schemas-microsoft-com:datatypes"><Description dt:dt="string">E-Prime Primary Realtime Clock</Description><StartTime><Timestamp dt:dt="int">0</Timestamp><DateUtc dt:dt="string">2016-06-07T22:00:30Z</DateUtc></StartTime><FrequencyChanges><FrequencyChange><Frequency dt:dt="r8">3507705</Frequency><Timestamp dt:dt="r8">6939276928</Timestamp><Current dt:dt="r8">0</Current><DateUtc dt:dt="string">2016-06-07T22:00:30Z</DateUtc></FrequencyChange></FrequencyChanges></Clock>\n	Hungry_Donkey_bar_English_2-152-1	60.018	-80	1.0.0.18	1	-1649951025	Standard	2.0.10.353	2.0.10.353	06-07-2016		18:00:30	2.0.10.248	105	Bar50-50.bmp	53	2	?	0r_4g.bmp	0r_4g.bmp	0r_2g.bmp	0r_2g.bmp		0r_4g.bmp			TrialProc	TrialList	0	cvbn	-999999	17	351281	0	v	806	352087	354	-320	34	-44	44	12	22	10	11	105	0	0	0	0	4	4	2	2	0	4
Hungry_Donkey_bar_English_2	152	1	<?xml version="1.0"?>\n<Clock xmlns:dt="urn:schemas-microsoft-com:datatypes"><Description dt:dt="string">E-Prime Primary Realtime Clock</Description><StartTime><Timestamp dt:dt="int">0</Timestamp><DateUtc dt:dt="string">2016-06-07T22:00:30Z</DateUtc></StartTime><FrequencyChanges><FrequencyChange><Frequency dt:dt="r8">3507705</Frequency><Timestamp dt:dt="r8">6939276928</Timestamp><Current dt:dt="r8">0</Current><DateUtc dt:dt="string">2016-06-07T22:00:30Z</DateUtc></FrequencyChange></FrequencyChanges></Clock>\n	Hungry_Donkey_bar_English_2-152-1	60.018	-80	1.0.0.18	1	-1649951025	Standard	2.0.10.353	2.0.10.353	06-07-2016		18:00:30	2.0.10.248	106	Bar50-50.bmp	53	2	?	10r_4g.bmp	0r_4g.bmp	2r_2g.bmp	0r_2g.bmp		0r_4g.bmp			TrialProc	TrialList	0	cvbn	-999999	16	354113	0	v	502	354615	358	-320	38	-44	48	12	22	2	11	106	-10	0	-2	0	4	4	2	2	0	4
Hungry_Donkey_bar_English_2	152	1	<?xml version="1.0"?>\n<Clock xmlns:dt="urn:schemas-microsoft-com:datatypes"><Description dt:dt="string">E-Prime Primary Realtime Clock</Description><StartTime><Timestamp dt:dt="int">0</Timestamp><DateUtc dt:dt="string">2016-06-07T22:00:30Z</DateUtc></StartTime><FrequencyChanges><FrequencyChange><Frequency dt:dt="r8">3507705</Frequency><Timestamp dt:dt="r8">6939276928</Timestamp><Current dt:dt="r8">0</Current><DateUtc dt:dt="string">2016-06-07T22:00:30Z</DateUtc></FrequencyChange></FrequencyChanges></Clock>\n	Hungry_Donkey_bar_English_2-152-1	60.018	-80	1.0.0.18	1	-1649951025	Standard	2.0.10.353	2.0.10.353	06-07-2016		18:00:30	2.0.10.248	107	Bar50-50.bmp	53	4	?	0r_4g.bmp	0r_4g.bmp	0r_2g.bmp	0r_2g.bmp				0r_2g.bmp	TrialProc	TrialList	0	cvbn	-999999	16	356646	0	n	2273	358919	360	-320	40	-44	48	12	24	6	11	107	0	0	0	0	4	4	2	2	0	2
Hungry_Donkey_bar_English_2	152	1	<?xml version="1.0"?>\n<Clock xmlns:dt="urn:schemas-microsoft-com:datatypes"><Description dt:dt="string">E-Prime Primary Realtime Clock</Description><StartTime><Timestamp dt:dt="int">0</Timestamp><DateUtc dt:dt="string">2016-06-07T22:00:30Z</DateUtc></StartTime><FrequencyChanges><FrequencyChange><Frequency dt:dt="r8">3507705</Frequency><Timestamp dt:dt="r8">6939276928</Timestamp><Current dt:dt="r8">0</Current><DateUtc dt:dt="string">2016-06-07T22:00:30Z</DateUtc></FrequencyChange></FrequencyChanges></Clock>\n	Hungry_Donkey_bar_English_2-152-1	60.018	-80	1.0.0.18	1	-1649951025	Standard	2.0.10.353	2.0.10.353	06-07-2016		18:00:30	2.0.10.248	108	Bar50-50.bmp	53	1	?	0r_4g.bmp	0r_4g.bmp	0r_2g.bmp	0r_2g.bmp	0r_4g.bmp				TrialProc	TrialList	0	cvbn	-999999	16	360961	0	c	549	361510	364	-320	44	-40	48	12	24	8	11	108	0	0	0	0	4	4	2	2	0	4
Hungry_Donkey_bar_English_2	152	1	<?xml version="1.0"?>\n<Clock xmlns:dt="urn:schemas-microsoft-com:datatypes"><Description dt:dt="string">E-Prime Primary Realtime Clock</Description><StartTime><Timestamp dt:dt="int">0</Timestamp><DateUtc dt:dt="string">2016-06-07T22:00:30Z</DateUtc></StartTime><FrequencyChanges><FrequencyChange><Frequency dt:dt="r8">3507705</Frequency><Timestamp dt:dt="r8">6939276928</Timestamp><Current dt:dt="r8">0</Current><DateUtc dt:dt="string">2016-06-07T22:00:30Z</DateUtc></FrequencyChange></FrequencyChanges></Clock>\n	Hungry_Donkey_bar_English_2-152-1	60.018	-80	1.0.0.18	1	-1649951025	Standard	2.0.10.353	2.0.10.353	06-07-2016		18:00:30	2.0.10.248	109	Bar50-50.bmp	50	2	?	8r_4g.bmp	50r_4g.bmp	1r_2g.bmp	10r_2g.bmp		50r_4g.bmp			TrialProc	TrialList	0	cvbn	-999999	16	363544	0	v	1454	364998	368	-370	-2	-40	2	12	24	1	11	109	-8	-50	-1	-10	4	4	2	2	-50	4
Hungry_Donkey_bar_English_2	152	1	<?xml version="1.0"?>\n<Clock xmlns:dt="urn:schemas-microsoft-com:datatypes"><Description dt:dt="string">E-Prime Primary Realtime Clock</Description><StartTime><Timestamp dt:dt="int">0</Timestamp><DateUtc dt:dt="string">2016-06-07T22:00:30Z</DateUtc></StartTime><FrequencyChanges><FrequencyChange><Frequency dt:dt="r8">3507705</Frequency><Timestamp dt:dt="r8">6939276928</Timestamp><Current dt:dt="r8">0</Current><DateUtc dt:dt="string">2016-06-07T22:00:30Z</DateUtc></FrequencyChange></FrequencyChanges></Clock>\n	Hungry_Donkey_bar_English_2-152-1	60.018	-80	1.0.0.18	1	-1649951025	Standard	2.0.10.353	2.0.10.353	06-07-2016		18:00:30	2.0.10.248	110	Bar50-50.bmp	50	4	?	10r_4g.bmp	0r_4g.bmp	2r_2g.bmp	0r_2g.bmp				0r_2g.bmp	TrialProc	TrialList	0	cvbn	-999999	16	367026	0	n	1636	368662	370	-370	0	-40	2	12	26	4	11	110	-10	0	-2	0	4	4	2	2	0	2
Hungry_Donkey_bar_English_2	152	1	<?xml version="1.0"?>\n<Clock xmlns:dt="urn:schemas-microsoft-com:datatypes"><Description dt:dt="string">E-Prime Primary Realtime Clock</Description><StartTime><Timestamp dt:dt="int">0</Timestamp><DateUtc dt:dt="string">2016-06-07T22:00:30Z</DateUtc></StartTime><FrequencyChanges><FrequencyChange><Frequency dt:dt="r8">3507705</Frequency><Timestamp dt:dt="r8">6939276928</Timestamp><Current dt:dt="r8">0</Current><DateUtc dt:dt="string">2016-06-07T22:00:30Z</DateUtc></FrequencyChange></FrequencyChanges></Clock>\n	Hungry_Donkey_bar_English_2-152-1	60.018	-80	1.0.0.18	1	-1649951025	Standard	2.0.10.353	2.0.10.353	06-07-2016		18:00:30	2.0.10.248	111	Bar50-50.bmp	49	1	?	12r_4g.bmp	0r_4g.bmp	3r_2g.bmp	0r_2g.bmp	12r_4g.bmp				TrialProc	TrialList	0	cvbn	-999999	16	370691	0	c	1155	371846	374	-382	-8	-48	2	12	26	5	12	111	-12	0	-3	0	4	4	2	2	-12	4
Hungry_Donkey_bar_English_2	152	1	<?xml version="1.0"?>\n<Clock xmlns:dt="urn:schemas-microsoft-com:datatypes"><Description dt:dt="string">E-Prime Primary Realtime Clock</Description><StartTime><Timestamp dt:dt="int">0</Timestamp><DateUtc dt:dt="string">2016-06-07T22:00:30Z</DateUtc></StartTime><FrequencyChanges><FrequencyChange><Frequency dt:dt="r8">3507705</Frequency><Timestamp dt:dt="r8">6939276928</Timestamp><Current dt:dt="r8">0</Current><DateUtc dt:dt="string">2016-06-07T22:00:30Z</DateUtc></FrequencyChange></FrequencyChanges></Clock>\n	Hungry_Donkey_bar_English_2-152-1	60.018	-80	1.0.0.18	1	-1649951025	Standard	2.0.10.353	2.0.10.353	06-07-2016		18:00:30	2.0.10.248	112	Bar50-50.bmp	50	2	?	10r_4g.bmp	0r_4g.bmp	2r_2g.bmp	0r_2g.bmp		0r_4g.bmp			TrialProc	TrialList	0	cvbn	-999999	16	373874	0	v	884	374758	378	-382	-4	-48	6	12	26	3	12	112	-10	0	-2	0	4	4	2	2	0	4
Hungry_Donkey_bar_English_2	152	1	<?xml version="1.0"?>\n<Clock xmlns:dt="urn:schemas-microsoft-com:datatypes"><Description dt:dt="string">E-Prime Primary Realtime Clock</Description><StartTime><Timestamp dt:dt="int">0</Timestamp><DateUtc dt:dt="string">2016-06-07T22:00:30Z</DateUtc></StartTime><FrequencyChanges><FrequencyChange><Frequency dt:dt="r8">3507705</Frequency><Timestamp dt:dt="r8">6939276928</Timestamp><Current dt:dt="r8">0</Current><DateUtc dt:dt="string">2016-06-07T22:00:30Z</DateUtc></FrequencyChange></FrequencyChanges></Clock>\n	Hungry_Donkey_bar_English_2-152-1	60.018	-80	1.0.0.18	1	-1649951025	Standard	2.0.10.353	2.0.10.353	06-07-2016		18:00:30	2.0.10.248	113	Bar50-50.bmp	50	2	?	0r_4g.bmp	0r_4g.bmp	0r_2g.bmp	0r_2g.bmp		0r_4g.bmp			TrialProc	TrialList	0	cvbn	-999999	16	376790	0	v	1551	378341	382	-382	0	-48	10	12	26	7	12	113	0	0	0	0	4	4	2	2	0	4
